"trial_type","trial_index","time_elapsed","internal_node_id","sub_id","risk_good_first","block1_A","block1_B","block1_C","block1_D","block2_A","block2_B","block2_C","block2_D","interactions","blur_events","focus_events","fullscreenenter_events","fullscreenexit_events","success","rt","stimulus","key_press","button_pressed","task_part","timestamp","card_choice","choice_position","points_earned","block","correct","response"
"pavlovia","0","5","0.0-0.0","291","false","img/card_backs/set1/yellow.gif","img/card_backs/set1/red.gif","img/card_backs/set1/purple.gif","img/card_backs/set1/green.gif","img/card_backs/set2/gray.gif","img/card_backs/set2/orange.gif","img/card_backs/set2/blue.gif","img/card_backs/set2/pink.gif","""event"",""trial"",""time""
""fullscreenenter"",""1"",""4457""
","
","
","""event"",""trial"",""time""
""fullscreenenter"",""1"",""4457""
","
","","","","","","","","","","","","",""
"fullscreen","1","5379","0.0-1.0","291","false","img/card_backs/set1/yellow.gif","img/card_backs/set1/red.gif","img/card_backs/set1/purple.gif","img/card_backs/set1/green.gif","img/card_backs/set2/gray.gif","img/card_backs/set2/orange.gif","img/card_backs/set2/blue.gif","img/card_backs/set2/pink.gif","""event"",""trial"",""time""
""fullscreenenter"",""1"",""4457""
","
","
","""event"",""trial"",""time""
""fullscreenenter"",""1"",""4457""
","
","true","","","","","","","","","","","",""
"audio-keyboard-response","2","10124","0.0-2.0","291","false","img/card_backs/set1/yellow.gif","img/card_backs/set1/red.gif","img/card_backs/set1/purple.gif","img/card_backs/set1/green.gif","img/card_backs/set2/gray.gif","img/card_backs/set2/orange.gif","img/card_backs/set2/blue.gif","img/card_backs/set2/pink.gif","""event"",""trial"",""time""
""fullscreenenter"",""1"",""4457""
","
","
","""event"",""trial"",""time""
""fullscreenenter"",""1"",""4457""
","
","","4615","audio/beep_loop.wav","32","","","","","","","","",""
"audio-button-response","3","11888","0.0-3.0","291","false","img/card_backs/set1/yellow.gif","img/card_backs/set1/red.gif","img/card_backs/set1/purple.gif","img/card_backs/set1/green.gif","img/card_backs/set2/gray.gif","img/card_backs/set2/orange.gif","img/card_backs/set2/blue.gif","img/card_backs/set2/pink.gif","""event"",""trial"",""time""
""fullscreenenter"",""1"",""4457""
","
","
","""event"",""trial"",""time""
""fullscreenenter"",""1"",""4457""
","
","","NaN","audio/turtle.mp3","","3","","","","","","","",""
"audio-button-response","4","14169","0.0-4.0","291","false","img/card_backs/set1/yellow.gif","img/card_backs/set1/red.gif","img/card_backs/set1/purple.gif","img/card_backs/set1/green.gif","img/card_backs/set2/gray.gif","img/card_backs/set2/orange.gif","img/card_backs/set2/blue.gif","img/card_backs/set2/pink.gif","""event"",""trial"",""time""
""fullscreenenter"",""1"",""4457""
","
","
","""event"",""trial"",""time""
""fullscreenenter"",""1"",""4457""
","
","","NaN","audio/shark.mp3","","2","","","","","","","",""
"fullscreen","5","19889","0.0-5.0","291","false","img/card_backs/set1/yellow.gif","img/card_backs/set1/red.gif","img/card_backs/set1/purple.gif","img/card_backs/set1/green.gif","img/card_backs/set2/gray.gif","img/card_backs/set2/orange.gif","img/card_backs/set2/blue.gif","img/card_backs/set2/pink.gif","""event"",""trial"",""time""
""fullscreenenter"",""1"",""4457""
","
","
","""event"",""trial"",""time""
""fullscreenenter"",""1"",""4457""
","
","true","","","","","","","","","","","",""
"casino-keyboard-response","6","23403","0.0-6.0-0.0","291","false","img/card_backs/set1/yellow.gif","img/card_backs/set1/red.gif","img/card_backs/set1/purple.gif","img/card_backs/set1/green.gif","img/card_backs/set2/gray.gif","img/card_backs/set2/orange.gif","img/card_backs/set2/blue.gif","img/card_backs/set2/pink.gif","""event"",""trial"",""time""
""fullscreenenter"",""1"",""4457""
","
","
","""event"",""trial"",""time""
""fullscreenenter"",""1"",""4457""
","
","","3510.6549999982235","Welcome to the casino!","71","","instructions","2021-04-09 11:52:30.606","","","","","",""
"casino-keyboard-response","7","33936","0.0-6.0-0.1","291","false","img/card_backs/set1/yellow.gif","img/card_backs/set1/red.gif","img/card_backs/set1/purple.gif","img/card_backs/set1/green.gif","img/card_backs/set2/gray.gif","img/card_backs/set2/orange.gif","img/card_backs/set2/blue.gif","img/card_backs/set2/pink.gif","""event"",""trial"",""time""
""fullscreenenter"",""1"",""4457""
","
","
","""event"",""trial"",""time""
""fullscreenenter"",""1"",""4457""
","
","","10530.36499999871","Today you will be playing a game to earn tokens. </br> At the end of the experiment, you will be paid a bonus based on how many tokens you win. ","69","","instructions","2021-04-09 11:52:41.138","","","","","",""
"casino-keyboard-response","8","41303","0.0-6.0-0.2","291","false","img/card_backs/set1/yellow.gif","img/card_backs/set1/red.gif","img/card_backs/set1/purple.gif","img/card_backs/set1/green.gif","img/card_backs/set2/gray.gif","img/card_backs/set2/orange.gif","img/card_backs/set2/blue.gif","img/card_backs/set2/pink.gif","""event"",""trial"",""time""
""fullscreenenter"",""1"",""4457""
","
","
","""event"",""trial"",""time""
""fullscreenenter"",""1"",""4457""
","
","","7364.78999999963","On every turn, you will be shown four different decks of cards. </br> You need to select a card from one of the four decks.  ","75","","instructions","2021-04-09 11:52:48.505","","","","","",""
"casino-keyboard-response","9","45967","0.0-6.0-0.3","291","false","img/card_backs/set1/yellow.gif","img/card_backs/set1/red.gif","img/card_backs/set1/purple.gif","img/card_backs/set1/green.gif","img/card_backs/set2/gray.gif","img/card_backs/set2/orange.gif","img/card_backs/set2/blue.gif","img/card_backs/set2/pink.gif","""event"",""trial"",""time""
""fullscreenenter"",""1"",""4457""
","
","
","""event"",""trial"",""time""
""fullscreenenter"",""1"",""4457""
","
","","4661.66499999963","On the next screen, you will see what the decks will look like. ","66","","instructions","2021-04-09 11:52:53.169","","","","","",""
"card-selection-trial","10","49975","0.0-7.0-0.0","291","false","img/card_backs/set1/yellow.gif","img/card_backs/set1/red.gif","img/card_backs/set1/purple.gif","img/card_backs/set1/green.gif","img/card_backs/set2/gray.gif","img/card_backs/set2/orange.gif","img/card_backs/set2/blue.gif","img/card_backs/set2/pink.gif","""event"",""trial"",""time""
""fullscreenenter"",""1"",""4457""
","
","
","""event"",""trial"",""time""
""fullscreenenter"",""1"",""4457""
","
","","null","","","","practice","2021-04-09 11:52:57.177","null","null","null","0","",""
"casino-keyboard-response","11","57409","0.0-8.0-0.0","291","false","img/card_backs/set1/yellow.gif","img/card_backs/set1/red.gif","img/card_backs/set1/purple.gif","img/card_backs/set1/green.gif","img/card_backs/set2/gray.gif","img/card_backs/set2/orange.gif","img/card_backs/set2/blue.gif","img/card_backs/set2/pink.gif","""event"",""trial"",""time""
""fullscreenenter"",""1"",""4457""
","
","
","""event"",""trial"",""time""
""fullscreenenter"",""1"",""4457""
","
","","7432.0000000006985","You should pick a card from a deck using the '2', '4', '6', and '8' keys at the top of the keyboard.","85","","instructions","2021-04-09 11:53:04.611","","","","","",""
"casino-keyboard-response","12","63692","0.0-8.0-0.1","291","false","img/card_backs/set1/yellow.gif","img/card_backs/set1/red.gif","img/card_backs/set1/purple.gif","img/card_backs/set1/green.gif","img/card_backs/set2/gray.gif","img/card_backs/set2/orange.gif","img/card_backs/set2/blue.gif","img/card_backs/set2/pink.gif","""event"",""trial"",""time""
""fullscreenenter"",""1"",""4457""
","
","
","""event"",""trial"",""time""
""fullscreenenter"",""1"",""4457""
","
","","6279.849999998987","Once you select a card, it will turn over and you will see how many tokens you earned.","83","","instructions","2021-04-09 11:53:10.894","","","","","",""
"casino-keyboard-response","13","77727","0.0-8.0-0.2","291","false","img/card_backs/set1/yellow.gif","img/card_backs/set1/red.gif","img/card_backs/set1/purple.gif","img/card_backs/set1/green.gif","img/card_backs/set2/gray.gif","img/card_backs/set2/orange.gif","img/card_backs/set2/blue.gif","img/card_backs/set2/pink.gif","""event"",""trial"",""time""
""fullscreenenter"",""1"",""4457""
","
","
","""event"",""trial"",""time""
""fullscreenenter"",""1"",""4457""
","
","","14033.000000003085","Let's try practicing that! </br> First, try to put your fingers over the '2', '4', '6', and '8' keys. </br>  You can use whatever fingers are most comfortable for you. Try to find a comfortable position now. ","50","","instructions","2021-04-09 11:53:24.929","","","","","",""
"casino-keyboard-response","14","83813","0.0-8.0-0.3","291","false","img/card_backs/set1/yellow.gif","img/card_backs/set1/red.gif","img/card_backs/set1/purple.gif","img/card_backs/set1/green.gif","img/card_backs/set2/gray.gif","img/card_backs/set2/orange.gif","img/card_backs/set2/blue.gif","img/card_backs/set2/pink.gif","""event"",""trial"",""time""
""fullscreenenter"",""1"",""4457""
","
","
","""event"",""trial"",""time""
""fullscreenenter"",""1"",""4457""
","
","","6083.675000001676","Okay ready? </br> On the next screen, press '2' to select the left deck. ","50","","instructions","2021-04-09 11:53:31.015","","","","","",""
"card-selection-trial","15","86686","0.0-9.0-0.0","291","false","img/card_backs/set1/yellow.gif","img/card_backs/set1/red.gif","img/card_backs/set1/purple.gif","img/card_backs/set1/green.gif","img/card_backs/set2/gray.gif","img/card_backs/set2/orange.gif","img/card_backs/set2/blue.gif","img/card_backs/set2/pink.gif","""event"",""trial"",""time""
""fullscreenenter"",""1"",""4457""
","
","
","""event"",""trial"",""time""
""fullscreenenter"",""1"",""4457""
","
","","857.2199999980512","","","","practice_card_selection","2021-04-09 11:53:33.888","img/practice_cards/backs/dark_blue.gif","0","-200","","",""
"casino-keyboard-response","16","92442","0.0-10.0-0.0","291","false","img/card_backs/set1/yellow.gif","img/card_backs/set1/red.gif","img/card_backs/set1/purple.gif","img/card_backs/set1/green.gif","img/card_backs/set2/gray.gif","img/card_backs/set2/orange.gif","img/card_backs/set2/blue.gif","img/card_backs/set2/pink.gif","""event"",""trial"",""time""
""fullscreenenter"",""1"",""4457""
","
","
","""event"",""trial"",""time""
""fullscreenenter"",""1"",""4457""
","
","","5754.750000000058","Great! Now on the next screen, try pressing '6' to select the third deck.","54","","instructions","2021-04-09 11:53:39.644","","","","","",""
"card-selection-trial","17","95074","0.0-11.0-0.0","291","false","img/card_backs/set1/yellow.gif","img/card_backs/set1/red.gif","img/card_backs/set1/purple.gif","img/card_backs/set1/green.gif","img/card_backs/set2/gray.gif","img/card_backs/set2/orange.gif","img/card_backs/set2/blue.gif","img/card_backs/set2/pink.gif","""event"",""trial"",""time""
""fullscreenenter"",""1"",""4457""
","
","
","""event"",""trial"",""time""
""fullscreenenter"",""1"",""4457""
","
","","623.2149999996182","","","","practice_card_selection","2021-04-09 11:53:42.276","img/practice_cards/backs/black.gif","2","-100","","",""
"casino-keyboard-response","18","99760","0.0-12.0-0.0","291","false","img/card_backs/set1/yellow.gif","img/card_backs/set1/red.gif","img/card_backs/set1/purple.gif","img/card_backs/set1/green.gif","img/card_backs/set2/gray.gif","img/card_backs/set2/orange.gif","img/card_backs/set2/blue.gif","img/card_backs/set2/pink.gif","""event"",""trial"",""time""
""fullscreenenter"",""1"",""4457""
","
","
","""event"",""trial"",""time""
""fullscreenenter"",""1"",""4457""
","
","","4684.645000001183","Now on the next screen, try pressing '4' to select the second deck.","52","","instructions","2021-04-09 11:53:46.962","","","","","",""
"card-selection-trial","19","102295","0.0-13.0-0.0","291","false","img/card_backs/set1/yellow.gif","img/card_backs/set1/red.gif","img/card_backs/set1/purple.gif","img/card_backs/set1/green.gif","img/card_backs/set2/gray.gif","img/card_backs/set2/orange.gif","img/card_backs/set2/blue.gif","img/card_backs/set2/pink.gif","""event"",""trial"",""time""
""fullscreenenter"",""1"",""4457""
","
","
","""event"",""trial"",""time""
""fullscreenenter"",""1"",""4457""
","
","","524.7799999997369","","","","practice_card_selection","2021-04-09 11:53:49.498","img/practice_cards/backs/black.gif","1","-100","","",""
"casino-keyboard-response","20","103479","0.0-14.0-0.0","291","false","img/card_backs/set1/yellow.gif","img/card_backs/set1/red.gif","img/card_backs/set1/purple.gif","img/card_backs/set1/green.gif","img/card_backs/set2/gray.gif","img/card_backs/set2/orange.gif","img/card_backs/set2/blue.gif","img/card_backs/set2/pink.gif","""event"",""trial"",""time""
""fullscreenenter"",""1"",""4457""
","
","
","""event"",""trial"",""time""
""fullscreenenter"",""1"",""4457""
","
","","1181.7799999989802","Finally, try pressing '8' to select the deck all the way on the right.","56","","instructions","2021-04-09 11:53:50.681","","","","","",""
"card-selection-trial","21","106144","0.0-15.0-0.0","291","false","img/card_backs/set1/yellow.gif","img/card_backs/set1/red.gif","img/card_backs/set1/purple.gif","img/card_backs/set1/green.gif","img/card_backs/set2/gray.gif","img/card_backs/set2/orange.gif","img/card_backs/set2/blue.gif","img/card_backs/set2/pink.gif","""event"",""trial"",""time""
""fullscreenenter"",""1"",""4457""
","
","
","""event"",""trial"",""time""
""fullscreenenter"",""1"",""4457""
","
","","654.1900000011083","","","","practice_card_selection","2021-04-09 11:53:53.346","img/practice_cards/backs/brown.gif","3","100","","",""
"casino-keyboard-response","22","110665","0.0-16.0-0.0","291","false","img/card_backs/set1/yellow.gif","img/card_backs/set1/red.gif","img/card_backs/set1/purple.gif","img/card_backs/set1/green.gif","img/card_backs/set2/gray.gif","img/card_backs/set2/orange.gif","img/card_backs/set2/blue.gif","img/card_backs/set2/pink.gif","""event"",""trial"",""time""
""fullscreenenter"",""1"",""4457""
","
","
","""event"",""trial"",""time""
""fullscreenenter"",""1"",""4457""
","
","","4518.510000001697","Great! It seems like you are getting the hang of this.","80","","instructions","2021-04-09 11:53:57.867","","","","","",""
"casino-keyboard-response","23","117774","0.0-16.0-0.1","291","false","img/card_backs/set1/yellow.gif","img/card_backs/set1/red.gif","img/card_backs/set1/purple.gif","img/card_backs/set1/green.gif","img/card_backs/set2/gray.gif","img/card_backs/set2/orange.gif","img/card_backs/set2/blue.gif","img/card_backs/set2/pink.gif","""event"",""trial"",""time""
""fullscreenenter"",""1"",""4457""
","
","
","""event"",""trial"",""time""
""fullscreenenter"",""1"",""4457""
","
","","7105.774999996356","You may have noticed that some cards will cause you to <b> win </b> tokens while other cards will cause you to <b> lose </b>  tokens.","70","","instructions","2021-04-09 11:54:04.976","","","","","",""
"casino-keyboard-response","24","125934","0.0-16.0-0.2","291","false","img/card_backs/set1/yellow.gif","img/card_backs/set1/red.gif","img/card_backs/set1/purple.gif","img/card_backs/set1/green.gif","img/card_backs/set2/gray.gif","img/card_backs/set2/orange.gif","img/card_backs/set2/blue.gif","img/card_backs/set2/pink.gif","""event"",""trial"",""time""
""fullscreenenter"",""1"",""4457""
","
","
","""event"",""trial"",""time""
""fullscreenenter"",""1"",""4457""
","
","","8157.944999999017","Each deck has a mix of cards that will cause you to win and lose tokens. </br> However, the cards in each colored deck are different.","73","","instructions","2021-04-09 11:54:13.136","","","","","",""
"casino-keyboard-response","25","134316","0.0-16.0-0.3","291","false","img/card_backs/set1/yellow.gif","img/card_backs/set1/red.gif","img/card_backs/set1/purple.gif","img/card_backs/set1/green.gif","img/card_backs/set2/gray.gif","img/card_backs/set2/orange.gif","img/card_backs/set2/blue.gif","img/card_backs/set2/pink.gif","""event"",""trial"",""time""
""fullscreenenter"",""1"",""4457""
","
","
","""event"",""trial"",""time""
""fullscreenenter"",""1"",""4457""
","
","","8380.33500000165","Some colored decks are luckier than others. </br> If you choose the lucky decks, you will earn more tokens than if you choose the unlucky decks.","69","","instructions","2021-04-09 11:54:21.519","","","","","",""
"casino-keyboard-response","26","141403","0.0-16.0-0.4","291","false","img/card_backs/set1/yellow.gif","img/card_backs/set1/red.gif","img/card_backs/set1/purple.gif","img/card_backs/set1/green.gif","img/card_backs/set2/gray.gif","img/card_backs/set2/orange.gif","img/card_backs/set2/blue.gif","img/card_backs/set2/pink.gif","""event"",""trial"",""time""
""fullscreenenter"",""1"",""4457""
","
","
","""event"",""trial"",""time""
""fullscreenenter"",""1"",""4457""
","
","","7084.220000004279","You should try to figure out which decks are lucky. </br> Then, try to choose the lucky decks so you can win the most tokens.","87","","instructions","2021-04-09 11:54:28.605","","","","","",""
"casino-keyboard-response","27","152410","0.0-16.0-0.5","291","false","img/card_backs/set1/yellow.gif","img/card_backs/set1/red.gif","img/card_backs/set1/purple.gif","img/card_backs/set1/green.gif","img/card_backs/set2/gray.gif","img/card_backs/set2/orange.gif","img/card_backs/set2/blue.gif","img/card_backs/set2/pink.gif","""event"",""trial"",""time""
""fullscreenenter"",""1"",""4457""
","
","
","""event"",""trial"",""time""
""fullscreenenter"",""1"",""4457""
","
","","11004.75500000175","To make it trickier, the casino dealer will switch the locations of the decks on every turn. </br> The color of the deck determines how lucky it is. The location does not matter.","88","","instructions","2021-04-09 11:54:39.612","","","","","",""
"casino-keyboard-response","28","161591","0.0-16.0-0.6","291","false","img/card_backs/set1/yellow.gif","img/card_backs/set1/red.gif","img/card_backs/set1/purple.gif","img/card_backs/set1/green.gif","img/card_backs/set2/gray.gif","img/card_backs/set2/orange.gif","img/card_backs/set2/blue.gif","img/card_backs/set2/pink.gif","""event"",""trial"",""time""
""fullscreenenter"",""1"",""4457""
","
","
","""event"",""trial"",""time""
""fullscreenenter"",""1"",""4457""
","
","","9178.220000001602","The mix of cards in each colored deck will stay the same throughout the game. </br> That means that a deck that is lucky early on will stay lucky.","79","","instructions","2021-04-09 11:54:48.793","","","","","",""
"casino-keyboard-response","29","169712","0.0-16.0-0.7","291","false","img/card_backs/set1/yellow.gif","img/card_backs/set1/red.gif","img/card_backs/set1/purple.gif","img/card_backs/set1/green.gif","img/card_backs/set2/gray.gif","img/card_backs/set2/orange.gif","img/card_backs/set2/blue.gif","img/card_backs/set2/pink.gif","""event"",""trial"",""time""
""fullscreenenter"",""1"",""4457""
","
","
","""event"",""trial"",""time""
""fullscreenenter"",""1"",""4457""
","
","","8119.270000002871","Remember though, all the decks have a <b> mix </b> of both <b> good </b> and <b> bad </b> cards so it may take a couple of turns to figure out if a deck is lucky.","69","","instructions","2021-04-09 11:54:56.914","","","","","",""
"casino-keyboard-response","30","177940","0.0-16.0-0.8","291","false","img/card_backs/set1/yellow.gif","img/card_backs/set1/red.gif","img/card_backs/set1/purple.gif","img/card_backs/set1/green.gif","img/card_backs/set2/gray.gif","img/card_backs/set2/orange.gif","img/card_backs/set2/blue.gif","img/card_backs/set2/pink.gif","""event"",""trial"",""time""
""fullscreenenter"",""1"",""4457""
","
","
","""event"",""trial"",""time""
""fullscreenenter"",""1"",""4457""
","
","","8225.78500000236","At the end of the game, you will be paid bonus money based on how many tokens you win. </br> If you win more tokens, you will earn more money!","72","","instructions","2021-04-09 11:55:05.142","","","","","",""
"casino-keyboard-response","31","188025","0.0-16.0-0.9","291","false","img/card_backs/set1/yellow.gif","img/card_backs/set1/red.gif","img/card_backs/set1/purple.gif","img/card_backs/set1/green.gif","img/card_backs/set2/gray.gif","img/card_backs/set2/orange.gif","img/card_backs/set2/blue.gif","img/card_backs/set2/pink.gif","""event"",""trial"",""time""
""fullscreenenter"",""1"",""4457""
","
","
","""event"",""trial"",""time""
""fullscreenenter"",""1"",""4457""
","
","","10081.334999995306","You will never <b> lose </b> money. </br> If you end up with fewer than 0 tokens, you will earn $0 of bonus money, but you will still be paid for playing the game.","83","","instructions","2021-04-09 11:55:15.227","","","","","",""
"casino-keyboard-response","32","192260","0.0-16.0-0.10","291","false","img/card_backs/set1/yellow.gif","img/card_backs/set1/red.gif","img/card_backs/set1/purple.gif","img/card_backs/set1/green.gif","img/card_backs/set2/gray.gif","img/card_backs/set2/orange.gif","img/card_backs/set2/blue.gif","img/card_backs/set2/pink.gif","""event"",""trial"",""time""
""fullscreenenter"",""1"",""4457""
","
","
","""event"",""trial"",""time""
""fullscreenenter"",""1"",""4457""
","
","","4231.664999999339","You will have 10 seconds to make each choice.","82","","instructions","2021-04-09 11:55:19.462","","","","","",""
"casino-keyboard-response","33","201319","0.0-16.0-0.11","291","false","img/card_backs/set1/yellow.gif","img/card_backs/set1/red.gif","img/card_backs/set1/purple.gif","img/card_backs/set1/green.gif","img/card_backs/set2/gray.gif","img/card_backs/set2/orange.gif","img/card_backs/set2/blue.gif","img/card_backs/set2/pink.gif","""event"",""trial"",""time""
""fullscreenenter"",""1"",""4457""
","
","
","""event"",""trial"",""time""
""fullscreenenter"",""1"",""4457""
","
","","9056.30999999994","Before you play the game for real, you will play with practice decks. </br> The tokens you earn during practice won't count toward your total.","86","","instructions","2021-04-09 11:55:28.521","","","","","",""
"casino-keyboard-response","34","212935","0.0-16.0-0.12","291","false","img/card_backs/set1/yellow.gif","img/card_backs/set1/red.gif","img/card_backs/set1/purple.gif","img/card_backs/set1/green.gif","img/card_backs/set2/gray.gif","img/card_backs/set2/orange.gif","img/card_backs/set2/blue.gif","img/card_backs/set2/pink.gif","""event"",""trial"",""time""
""fullscreenenter"",""1"",""4457""
","
","
","""event"",""trial"",""time""
""fullscreenenter"",""1"",""4457""
","
","","11614.144999999553","Ready? Remember, use the '2', '4', '6', and '8' keys to select the decks. </br> Put your fingers on those keys now and then press '2' to begin.","50","","instructions","2021-04-09 11:55:40.138","","","","","",""
"casino-fixation","35","213438","0.0-17.0-0.0","291","false","img/card_backs/set1/yellow.gif","img/card_backs/set1/red.gif","img/card_backs/set1/purple.gif","img/card_backs/set1/green.gif","img/card_backs/set2/gray.gif","img/card_backs/set2/orange.gif","img/card_backs/set2/blue.gif","img/card_backs/set2/pink.gif","""event"",""trial"",""time""
""fullscreenenter"",""1"",""4457""
","
","
","""event"",""trial"",""time""
""fullscreenenter"",""1"",""4457""
","
","","null","","null","","fixation","2021-04-09 11:55:40.641","","","","","",""
"card-selection-trial","36","216498","0.0-17.0-1.0","291","false","img/card_backs/set1/yellow.gif","img/card_backs/set1/red.gif","img/card_backs/set1/purple.gif","img/card_backs/set1/green.gif","img/card_backs/set2/gray.gif","img/card_backs/set2/orange.gif","img/card_backs/set2/blue.gif","img/card_backs/set2/pink.gif","""event"",""trial"",""time""
""fullscreenenter"",""1"",""4457""
","
","
","""event"",""trial"",""time""
""fullscreenenter"",""1"",""4457""
","
","","1048.145000000659","","","","practice","2021-04-09 11:55:43.700","img/practice_cards/backs/dark_blue.gif","0","-200","0","",""
"casino-fixation","37","217003","0.0-17.0-0.1","291","false","img/card_backs/set1/yellow.gif","img/card_backs/set1/red.gif","img/card_backs/set1/purple.gif","img/card_backs/set1/green.gif","img/card_backs/set2/gray.gif","img/card_backs/set2/orange.gif","img/card_backs/set2/blue.gif","img/card_backs/set2/pink.gif","""event"",""trial"",""time""
""fullscreenenter"",""1"",""4457""
","
","
","""event"",""trial"",""time""
""fullscreenenter"",""1"",""4457""
","
","","null","","null","","fixation","2021-04-09 11:55:44.205","","","","","",""
"card-selection-trial","38","219871","0.0-17.0-1.1","291","false","img/card_backs/set1/yellow.gif","img/card_backs/set1/red.gif","img/card_backs/set1/purple.gif","img/card_backs/set1/green.gif","img/card_backs/set2/gray.gif","img/card_backs/set2/orange.gif","img/card_backs/set2/blue.gif","img/card_backs/set2/pink.gif","""event"",""trial"",""time""
""fullscreenenter"",""1"",""4457""
","
","
","""event"",""trial"",""time""
""fullscreenenter"",""1"",""4457""
","
","","860.8549999989918","","","","practice","2021-04-09 11:55:47.073","img/practice_cards/backs/dark_blue.gif","1","200","0","",""
"casino-fixation","39","220375","0.0-17.0-0.2","291","false","img/card_backs/set1/yellow.gif","img/card_backs/set1/red.gif","img/card_backs/set1/purple.gif","img/card_backs/set1/green.gif","img/card_backs/set2/gray.gif","img/card_backs/set2/orange.gif","img/card_backs/set2/blue.gif","img/card_backs/set2/pink.gif","""event"",""trial"",""time""
""fullscreenenter"",""1"",""4457""
","
","
","""event"",""trial"",""time""
""fullscreenenter"",""1"",""4457""
","
","","null","","null","","fixation","2021-04-09 11:55:47.577","","","","","",""
"card-selection-trial","40","224015","0.0-17.0-1.2","291","false","img/card_backs/set1/yellow.gif","img/card_backs/set1/red.gif","img/card_backs/set1/purple.gif","img/card_backs/set1/green.gif","img/card_backs/set2/gray.gif","img/card_backs/set2/orange.gif","img/card_backs/set2/blue.gif","img/card_backs/set2/pink.gif","""event"",""trial"",""time""
""fullscreenenter"",""1"",""4457""
","
","
","""event"",""trial"",""time""
""fullscreenenter"",""1"",""4457""
","
","","1631.7350000026636","","","","practice","2021-04-09 11:55:51.218","img/practice_cards/backs/brown.gif","2","100","0","",""
"casino-fixation","41","224520","0.0-17.0-0.3","291","false","img/card_backs/set1/yellow.gif","img/card_backs/set1/red.gif","img/card_backs/set1/purple.gif","img/card_backs/set1/green.gif","img/card_backs/set2/gray.gif","img/card_backs/set2/orange.gif","img/card_backs/set2/blue.gif","img/card_backs/set2/pink.gif","""event"",""trial"",""time""
""fullscreenenter"",""1"",""4457""
","
","
","""event"",""trial"",""time""
""fullscreenenter"",""1"",""4457""
","
","","null","","null","","fixation","2021-04-09 11:55:51.722","","","","","",""
"card-selection-trial","42","227870","0.0-17.0-1.3","291","false","img/card_backs/set1/yellow.gif","img/card_backs/set1/red.gif","img/card_backs/set1/purple.gif","img/card_backs/set1/green.gif","img/card_backs/set2/gray.gif","img/card_backs/set2/orange.gif","img/card_backs/set2/blue.gif","img/card_backs/set2/pink.gif","""event"",""trial"",""time""
""fullscreenenter"",""1"",""4457""
","
","
","""event"",""trial"",""time""
""fullscreenenter"",""1"",""4457""
","
","","1340.8300000010058","","","","practice","2021-04-09 11:55:55.072","img/practice_cards/backs/dark_blue.gif","1","200","0","",""
"casino-fixation","43","228375","0.0-17.0-0.4","291","false","img/card_backs/set1/yellow.gif","img/card_backs/set1/red.gif","img/card_backs/set1/purple.gif","img/card_backs/set1/green.gif","img/card_backs/set2/gray.gif","img/card_backs/set2/orange.gif","img/card_backs/set2/blue.gif","img/card_backs/set2/pink.gif","""event"",""trial"",""time""
""fullscreenenter"",""1"",""4457""
","
","
","""event"",""trial"",""time""
""fullscreenenter"",""1"",""4457""
","
","","null","","null","","fixation","2021-04-09 11:55:55.577","","","","","",""
"card-selection-trial","44","231097","0.0-17.0-1.4","291","false","img/card_backs/set1/yellow.gif","img/card_backs/set1/red.gif","img/card_backs/set1/purple.gif","img/card_backs/set1/green.gif","img/card_backs/set2/gray.gif","img/card_backs/set2/orange.gif","img/card_backs/set2/blue.gif","img/card_backs/set2/pink.gif","""event"",""trial"",""time""
""fullscreenenter"",""1"",""4457""
","
","
","""event"",""trial"",""time""
""fullscreenenter"",""1"",""4457""
","
","","709.6950000050128","","","","practice","2021-04-09 11:55:58.300","img/practice_cards/backs/dark_green.gif","3","-200","0","",""
"casino-fixation","45","231602","0.0-17.0-0.5","291","false","img/card_backs/set1/yellow.gif","img/card_backs/set1/red.gif","img/card_backs/set1/purple.gif","img/card_backs/set1/green.gif","img/card_backs/set2/gray.gif","img/card_backs/set2/orange.gif","img/card_backs/set2/blue.gif","img/card_backs/set2/pink.gif","""event"",""trial"",""time""
""fullscreenenter"",""1"",""4457""
","
","
","""event"",""trial"",""time""
""fullscreenenter"",""1"",""4457""
","
","","null","","null","","fixation","2021-04-09 11:55:58.804","","","","","",""
"card-selection-trial","46","234000","0.0-17.0-1.5","291","false","img/card_backs/set1/yellow.gif","img/card_backs/set1/red.gif","img/card_backs/set1/purple.gif","img/card_backs/set1/green.gif","img/card_backs/set2/gray.gif","img/card_backs/set2/orange.gif","img/card_backs/set2/blue.gif","img/card_backs/set2/pink.gif","""event"",""trial"",""time""
""fullscreenenter"",""1"",""4457""
","
","
","""event"",""trial"",""time""
""fullscreenenter"",""1"",""4457""
","
","","386.59000000188826","","","","practice","2021-04-09 11:56:01.202","img/practice_cards/backs/black.gif","1","-100","0","",""
"casino-fixation","47","234505","0.0-17.0-0.6","291","false","img/card_backs/set1/yellow.gif","img/card_backs/set1/red.gif","img/card_backs/set1/purple.gif","img/card_backs/set1/green.gif","img/card_backs/set2/gray.gif","img/card_backs/set2/orange.gif","img/card_backs/set2/blue.gif","img/card_backs/set2/pink.gif","""event"",""trial"",""time""
""fullscreenenter"",""1"",""4457""
","
","
","""event"",""trial"",""time""
""fullscreenenter"",""1"",""4457""
","
","","null","","null","","fixation","2021-04-09 11:56:01.707","","","","","",""
"card-selection-trial","48","237135","0.0-17.0-1.6","291","false","img/card_backs/set1/yellow.gif","img/card_backs/set1/red.gif","img/card_backs/set1/purple.gif","img/card_backs/set1/green.gif","img/card_backs/set2/gray.gif","img/card_backs/set2/orange.gif","img/card_backs/set2/blue.gif","img/card_backs/set2/pink.gif","""event"",""trial"",""time""
""fullscreenenter"",""1"",""4457""
","
","
","""event"",""trial"",""time""
""fullscreenenter"",""1"",""4457""
","
","","619.6749999944586","","","","practice","2021-04-09 11:56:04.337","img/practice_cards/backs/dark_blue.gif","3","200","0","",""
"casino-fixation","49","237640","0.0-17.0-0.7","291","false","img/card_backs/set1/yellow.gif","img/card_backs/set1/red.gif","img/card_backs/set1/purple.gif","img/card_backs/set1/green.gif","img/card_backs/set2/gray.gif","img/card_backs/set2/orange.gif","img/card_backs/set2/blue.gif","img/card_backs/set2/pink.gif","""event"",""trial"",""time""
""fullscreenenter"",""1"",""4457""
","
","
","""event"",""trial"",""time""
""fullscreenenter"",""1"",""4457""
","
","","null","","null","","fixation","2021-04-09 11:56:04.842","","","","","",""
"card-selection-trial","50","240766","0.0-17.0-1.7","291","false","img/card_backs/set1/yellow.gif","img/card_backs/set1/red.gif","img/card_backs/set1/purple.gif","img/card_backs/set1/green.gif","img/card_backs/set2/gray.gif","img/card_backs/set2/orange.gif","img/card_backs/set2/blue.gif","img/card_backs/set2/pink.gif","""event"",""trial"",""time""
""fullscreenenter"",""1"",""4457""
","
","
","""event"",""trial"",""time""
""fullscreenenter"",""1"",""4457""
","
","","1119.6400000044378","","","","practice","2021-04-09 11:56:07.968","img/practice_cards/backs/dark_blue.gif","0","200","0","",""
"casino-fixation","51","241270","0.0-17.0-0.8","291","false","img/card_backs/set1/yellow.gif","img/card_backs/set1/red.gif","img/card_backs/set1/purple.gif","img/card_backs/set1/green.gif","img/card_backs/set2/gray.gif","img/card_backs/set2/orange.gif","img/card_backs/set2/blue.gif","img/card_backs/set2/pink.gif","""event"",""trial"",""time""
""fullscreenenter"",""1"",""4457""
","
","
","""event"",""trial"",""time""
""fullscreenenter"",""1"",""4457""
","
","","null","","null","","fixation","2021-04-09 11:56:08.472","","","","","",""
"card-selection-trial","52","244206","0.0-17.0-1.8","291","false","img/card_backs/set1/yellow.gif","img/card_backs/set1/red.gif","img/card_backs/set1/purple.gif","img/card_backs/set1/green.gif","img/card_backs/set2/gray.gif","img/card_backs/set2/orange.gif","img/card_backs/set2/blue.gif","img/card_backs/set2/pink.gif","""event"",""trial"",""time""
""fullscreenenter"",""1"",""4457""
","
","
","""event"",""trial"",""time""
""fullscreenenter"",""1"",""4457""
","
","","927.5349999952596","","","","practice","2021-04-09 11:56:11.408","img/practice_cards/backs/dark_blue.gif","3","200","0","",""
"casino-fixation","53","244710","0.0-17.0-0.9","291","false","img/card_backs/set1/yellow.gif","img/card_backs/set1/red.gif","img/card_backs/set1/purple.gif","img/card_backs/set1/green.gif","img/card_backs/set2/gray.gif","img/card_backs/set2/orange.gif","img/card_backs/set2/blue.gif","img/card_backs/set2/pink.gif","""event"",""trial"",""time""
""fullscreenenter"",""1"",""4457""
","
","
","""event"",""trial"",""time""
""fullscreenenter"",""1"",""4457""
","
","","null","","null","","fixation","2021-04-09 11:56:11.913","","","","","",""
"card-selection-trial","54","247684","0.0-17.0-1.9","291","false","img/card_backs/set1/yellow.gif","img/card_backs/set1/red.gif","img/card_backs/set1/purple.gif","img/card_backs/set1/green.gif","img/card_backs/set2/gray.gif","img/card_backs/set2/orange.gif","img/card_backs/set2/blue.gif","img/card_backs/set2/pink.gif","""event"",""trial"",""time""
""fullscreenenter"",""1"",""4457""
","
","
","""event"",""trial"",""time""
""fullscreenenter"",""1"",""4457""
","
","","967.015000001993","","","","practice","2021-04-09 11:56:14.886","img/practice_cards/backs/dark_blue.gif","1","-200","0","",""
"casino-keyboard-response","55","250472","0.0-18.0","291","false","img/card_backs/set1/yellow.gif","img/card_backs/set1/red.gif","img/card_backs/set1/purple.gif","img/card_backs/set1/green.gif","img/card_backs/set2/gray.gif","img/card_backs/set2/orange.gif","img/card_backs/set2/blue.gif","img/card_backs/set2/pink.gif","""event"",""trial"",""time""
""fullscreenenter"",""1"",""4457""
","
","
","""event"",""trial"",""time""
""fullscreenenter"",""1"",""4457""
","
","","2786.6999999969266","You earned 400 tokens during the practice round!","82","","","2021-04-09 11:56:17.674","","","","","",""
"casino-keyboard-response","56","254766","0.0-19.0-0.0","291","false","img/card_backs/set1/yellow.gif","img/card_backs/set1/red.gif","img/card_backs/set1/purple.gif","img/card_backs/set1/green.gif","img/card_backs/set2/gray.gif","img/card_backs/set2/orange.gif","img/card_backs/set2/blue.gif","img/card_backs/set2/pink.gif","""event"",""trial"",""time""
""fullscreenenter"",""1"",""4457""
","
","
","""event"",""trial"",""time""
""fullscreenenter"",""1"",""4457""
","
","","4291.870000000927","Nice job! You are almost ready to play the real game.","86","","instructions","2021-04-09 11:56:21.968","","","","","",""
"casino-keyboard-response","57","261190","0.0-19.0-0.1","291","false","img/card_backs/set1/yellow.gif","img/card_backs/set1/red.gif","img/card_backs/set1/purple.gif","img/card_backs/set1/green.gif","img/card_backs/set2/gray.gif","img/card_backs/set2/orange.gif","img/card_backs/set2/blue.gif","img/card_backs/set2/pink.gif","""event"",""trial"",""time""
""fullscreenenter"",""1"",""4457""
","
","
","""event"",""trial"",""time""
""fullscreenenter"",""1"",""4457""
","
","","6421.920000000682","You will play two rounds of the real game. In each round, you will pick 100 cards in total.","73","","instructions","2021-04-09 11:56:28.392","","","","","",""
"casino-keyboard-response","58","265302","0.0-19.0-0.2","291","false","img/card_backs/set1/yellow.gif","img/card_backs/set1/red.gif","img/card_backs/set1/purple.gif","img/card_backs/set1/green.gif","img/card_backs/set2/gray.gif","img/card_backs/set2/orange.gif","img/card_backs/set2/blue.gif","img/card_backs/set2/pink.gif","""event"",""trial"",""time""
""fullscreenenter"",""1"",""4457""
","
","
","""event"",""trial"",""time""
""fullscreenenter"",""1"",""4457""
","
","","4110.124999999243","We are now going to ask you some questions about how the game works.","66","","instructions","2021-04-09 11:56:32.505","","","","","",""
"casino-keyboard-response","59","271272","0.0-19.0-0.3","291","false","img/card_backs/set1/yellow.gif","img/card_backs/set1/red.gif","img/card_backs/set1/purple.gif","img/card_backs/set1/green.gif","img/card_backs/set2/gray.gif","img/card_backs/set2/orange.gif","img/card_backs/set2/blue.gif","img/card_backs/set2/pink.gif","""event"",""trial"",""time""
""fullscreenenter"",""1"",""4457""
","
","
","""event"",""trial"",""time""
""fullscreenenter"",""1"",""4457""
","
","","5967.255000003206","Answer carefully. You will not be able to begin the game until you answer them correctly.","67","","instructions","2021-04-09 11:56:38.474","","","","","",""
"casino-comp_q","60","278283","0.0-20.0-0.0","291","false","img/card_backs/set1/yellow.gif","img/card_backs/set1/red.gif","img/card_backs/set1/purple.gif","img/card_backs/set1/green.gif","img/card_backs/set2/gray.gif","img/card_backs/set2/orange.gif","img/card_backs/set2/blue.gif","img/card_backs/set2/pink.gif","""event"",""trial"",""time""
""fullscreenenter"",""1"",""4457""
","
","
","""event"",""trial"",""time""
""fullscreenenter"",""1"",""4457""
","
","","7008.605000002717","True or False: All the decks have some cards that cause you to win tokens and some cards that cause you to lose tokens.","84","","","2021-04-09 11:56:45.486","","","","","",""
"casino-keyboard-response","61","281026","0.0-20.0-1.0","291","false","img/card_backs/set1/yellow.gif","img/card_backs/set1/red.gif","img/card_backs/set1/purple.gif","img/card_backs/set1/green.gif","img/card_backs/set2/gray.gif","img/card_backs/set2/orange.gif","img/card_backs/set2/blue.gif","img/card_backs/set2/pink.gif","""event"",""trial"",""time""
""fullscreenenter"",""1"",""4457""
","
","
","""event"",""trial"",""time""
""fullscreenenter"",""1"",""4457""
","
","","2739.4249999997555","True is correct! All the decks have a mix of winning and losing cards.","77","","","2021-04-09 11:56:48.228","","","","","true",""
"casino-comp_q","62","284020","0.0-21.0-0.0","291","false","img/card_backs/set1/yellow.gif","img/card_backs/set1/red.gif","img/card_backs/set1/purple.gif","img/card_backs/set1/green.gif","img/card_backs/set2/gray.gif","img/card_backs/set2/orange.gif","img/card_backs/set2/blue.gif","img/card_backs/set2/pink.gif","""event"",""trial"",""time""
""fullscreenenter"",""1"",""4457""
","
","
","""event"",""trial"",""time""
""fullscreenenter"",""1"",""4457""
","
","","2989.2849999960163","True or False: You will have as much time as you want to make your response.","70","","","2021-04-09 11:56:51.222","","","","","",""
"casino-keyboard-response","63","287052","0.0-21.0-1.0","291","false","img/card_backs/set1/yellow.gif","img/card_backs/set1/red.gif","img/card_backs/set1/purple.gif","img/card_backs/set1/green.gif","img/card_backs/set2/gray.gif","img/card_backs/set2/orange.gif","img/card_backs/set2/blue.gif","img/card_backs/set2/pink.gif","""event"",""trial"",""time""
""fullscreenenter"",""1"",""4457""
","
","
","""event"",""trial"",""time""
""fullscreenenter"",""1"",""4457""
","
","","3030.4350000005797","False is correct! You will only have 10 seconds to make each choice.","75","","","2021-04-09 11:56:54.254","","","","","true",""
"casino-comp_q","64","291090","0.0-22.0-0.0","291","false","img/card_backs/set1/yellow.gif","img/card_backs/set1/red.gif","img/card_backs/set1/purple.gif","img/card_backs/set1/green.gif","img/card_backs/set2/gray.gif","img/card_backs/set2/orange.gif","img/card_backs/set2/blue.gif","img/card_backs/set2/pink.gif","""event"",""trial"",""time""
""fullscreenenter"",""1"",""4457""
","
","
","""event"",""trial"",""time""
""fullscreenenter"",""1"",""4457""
","
","","4036.485000004177","True or False: The location of the deck determines how lucky it is.","70","","","2021-04-09 11:56:58.292","","","","","",""
"casino-keyboard-response","65","293950","0.0-22.0-1.0","291","false","img/card_backs/set1/yellow.gif","img/card_backs/set1/red.gif","img/card_backs/set1/purple.gif","img/card_backs/set1/green.gif","img/card_backs/set2/gray.gif","img/card_backs/set2/orange.gif","img/card_backs/set2/blue.gif","img/card_backs/set2/pink.gif","""event"",""trial"",""time""
""fullscreenenter"",""1"",""4457""
","
","
","""event"",""trial"",""time""
""fullscreenenter"",""1"",""4457""
","
","","2858.6100000029546","False is correct! The <i>color</i>  of the deck determines how lucky or unlucky it is.","68","","","2021-04-09 11:57:01.152","","","","","true",""
"casino-keyboard-response","66","298409","0.0-23.0-0.0","291","false","img/card_backs/set1/yellow.gif","img/card_backs/set1/red.gif","img/card_backs/set1/purple.gif","img/card_backs/set1/green.gif","img/card_backs/set2/gray.gif","img/card_backs/set2/orange.gif","img/card_backs/set2/blue.gif","img/card_backs/set2/pink.gif","""event"",""trial"",""time""
""fullscreenenter"",""1"",""4457""
","
","
","""event"",""trial"",""time""
""fullscreenenter"",""1"",""4457""
","
","","4456.785000002128","Great job! Now it's time to start the real game.","82","","instructions","2021-04-09 11:57:05.611","","","","","",""
"casino-keyboard-response","67","311895","0.0-23.0-0.1","291","false","img/card_backs/set1/yellow.gif","img/card_backs/set1/red.gif","img/card_backs/set1/purple.gif","img/card_backs/set1/green.gif","img/card_backs/set2/gray.gif","img/card_backs/set2/orange.gif","img/card_backs/set2/blue.gif","img/card_backs/set2/pink.gif","""event"",""trial"",""time""
""fullscreenenter"",""1"",""4457""
","
","
","""event"",""trial"",""time""
""fullscreenenter"",""1"",""4457""
","
","","13483.524999996007","Before we start, we're going to head into a new room of the casino.","86","","instructions","2021-04-09 11:57:19.097","","","","","",""
"casino-keyboard-response","68","318187","0.0-24.0-0.0","291","false","img/card_backs/set1/yellow.gif","img/card_backs/set1/red.gif","img/card_backs/set1/purple.gif","img/card_backs/set1/green.gif","img/card_backs/set2/gray.gif","img/card_backs/set2/orange.gif","img/card_backs/set2/blue.gif","img/card_backs/set2/pink.gif","""event"",""trial"",""time""
""fullscreenenter"",""1"",""4457""
","
","
","""event"",""trial"",""time""
""fullscreenenter"",""1"",""4457""
","
","","6290.9250000011525","Here we are! The real game will use different cards, but the rules will be the same.","71","","instructions","2021-04-09 11:57:25.390","","","","","",""
"casino-keyboard-response","69","320423","0.0-24.0-0.1","291","false","img/card_backs/set1/yellow.gif","img/card_backs/set1/red.gif","img/card_backs/set1/purple.gif","img/card_backs/set1/green.gif","img/card_backs/set2/gray.gif","img/card_backs/set2/orange.gif","img/card_backs/set2/blue.gif","img/card_backs/set2/pink.gif","""event"",""trial"",""time""
""fullscreenenter"",""1"",""4457""
","
","
","""event"",""trial"",""time""
""fullscreenenter"",""1"",""4457""
","
","","2233.120000004419","Ready? Put your fingers over the '2', '4', 6', and '8' keys so you are ready to play the game. </br> Then press 2 to start.","50","","instructions","2021-04-09 11:57:27.625","","","","","",""
"casino-fixation","70","320927","0.0-25.0-0.0","291","false","img/card_backs/set1/yellow.gif","img/card_backs/set1/red.gif","img/card_backs/set1/purple.gif","img/card_backs/set1/green.gif","img/card_backs/set2/gray.gif","img/card_backs/set2/orange.gif","img/card_backs/set2/blue.gif","img/card_backs/set2/pink.gif","""event"",""trial"",""time""
""fullscreenenter"",""1"",""4457""
","
","
","""event"",""trial"",""time""
""fullscreenenter"",""1"",""4457""
","
","","null","","null","","fixation","2021-04-09 11:57:28.129","","","","","",""
"card-selection-trial","71","323617","0.0-25.0-1.0","291","false","img/card_backs/set1/yellow.gif","img/card_backs/set1/red.gif","img/card_backs/set1/purple.gif","img/card_backs/set1/green.gif","img/card_backs/set2/gray.gif","img/card_backs/set2/orange.gif","img/card_backs/set2/blue.gif","img/card_backs/set2/pink.gif","""event"",""trial"",""time""
""fullscreenenter"",""1"",""4457""
","
","
","""event"",""trial"",""time""
""fullscreenenter"",""1"",""4457""
","
","","681.0550000009243","","","","real_trial","2021-04-09 11:57:30.819","img/card_backs/set1/green.gif","0","100","1","",""
"casino-fixation","72","324120","0.0-25.0-0.1","291","false","img/card_backs/set1/yellow.gif","img/card_backs/set1/red.gif","img/card_backs/set1/purple.gif","img/card_backs/set1/green.gif","img/card_backs/set2/gray.gif","img/card_backs/set2/orange.gif","img/card_backs/set2/blue.gif","img/card_backs/set2/pink.gif","""event"",""trial"",""time""
""fullscreenenter"",""1"",""4457""
","
","
","""event"",""trial"",""time""
""fullscreenenter"",""1"",""4457""
","
","","null","","null","","fixation","2021-04-09 11:57:31.322","","","","","",""
"card-selection-trial","73","327284","0.0-25.0-1.1","291","false","img/card_backs/set1/yellow.gif","img/card_backs/set1/red.gif","img/card_backs/set1/purple.gif","img/card_backs/set1/green.gif","img/card_backs/set2/gray.gif","img/card_backs/set2/orange.gif","img/card_backs/set2/blue.gif","img/card_backs/set2/pink.gif","""event"",""trial"",""time""
""fullscreenenter"",""1"",""4457""
","
","
","""event"",""trial"",""time""
""fullscreenenter"",""1"",""4457""
","
","","1157.4249999976018","","","","real_trial","2021-04-09 11:57:34.486","img/card_backs/set1/green.gif","1","110","1","",""
"casino-fixation","74","327789","0.0-25.0-0.2","291","false","img/card_backs/set1/yellow.gif","img/card_backs/set1/red.gif","img/card_backs/set1/purple.gif","img/card_backs/set1/green.gif","img/card_backs/set2/gray.gif","img/card_backs/set2/orange.gif","img/card_backs/set2/blue.gif","img/card_backs/set2/pink.gif","""event"",""trial"",""time""
""fullscreenenter"",""1"",""4457""
","
","
","""event"",""trial"",""time""
""fullscreenenter"",""1"",""4457""
","
","","null","","null","","fixation","2021-04-09 11:57:34.991","","","","","",""
"card-selection-trial","75","330688","0.0-25.0-1.2","291","false","img/card_backs/set1/yellow.gif","img/card_backs/set1/red.gif","img/card_backs/set1/purple.gif","img/card_backs/set1/green.gif","img/card_backs/set2/gray.gif","img/card_backs/set2/orange.gif","img/card_backs/set2/blue.gif","img/card_backs/set2/pink.gif","""event"",""trial"",""time""
""fullscreenenter"",""1"",""4457""
","
","
","""event"",""trial"",""time""
""fullscreenenter"",""1"",""4457""
","
","","891.8150000026799","","","","real_trial","2021-04-09 11:57:37.890","img/card_backs/set1/yellow.gif","2","-240","1","",""
"casino-fixation","76","331193","0.0-25.0-0.3","291","false","img/card_backs/set1/yellow.gif","img/card_backs/set1/red.gif","img/card_backs/set1/purple.gif","img/card_backs/set1/green.gif","img/card_backs/set2/gray.gif","img/card_backs/set2/orange.gif","img/card_backs/set2/blue.gif","img/card_backs/set2/pink.gif","""event"",""trial"",""time""
""fullscreenenter"",""1"",""4457""
","
","
","""event"",""trial"",""time""
""fullscreenenter"",""1"",""4457""
","
","","null","","null","","fixation","2021-04-09 11:57:38.395","","","","","",""
"card-selection-trial","77","334523","0.0-25.0-1.3","291","false","img/card_backs/set1/yellow.gif","img/card_backs/set1/red.gif","img/card_backs/set1/purple.gif","img/card_backs/set1/green.gif","img/card_backs/set2/gray.gif","img/card_backs/set2/orange.gif","img/card_backs/set2/blue.gif","img/card_backs/set2/pink.gif","""event"",""trial"",""time""
""fullscreenenter"",""1"",""4457""
","
","
","""event"",""trial"",""time""
""fullscreenenter"",""1"",""4457""
","
","","1320.1950000002398","","","","real_trial","2021-04-09 11:57:41.725","img/card_backs/set1/green.gif","3","110","1","",""
"casino-fixation","78","335026","0.0-25.0-0.4","291","false","img/card_backs/set1/yellow.gif","img/card_backs/set1/red.gif","img/card_backs/set1/purple.gif","img/card_backs/set1/green.gif","img/card_backs/set2/gray.gif","img/card_backs/set2/orange.gif","img/card_backs/set2/blue.gif","img/card_backs/set2/pink.gif","""event"",""trial"",""time""
""fullscreenenter"",""1"",""4457""
","
","
","""event"",""trial"",""time""
""fullscreenenter"",""1"",""4457""
","
","","null","","null","","fixation","2021-04-09 11:57:42.228","","","","","",""
"card-selection-trial","79","337872","0.0-25.0-1.4","291","false","img/card_backs/set1/yellow.gif","img/card_backs/set1/red.gif","img/card_backs/set1/purple.gif","img/card_backs/set1/green.gif","img/card_backs/set2/gray.gif","img/card_backs/set2/orange.gif","img/card_backs/set2/blue.gif","img/card_backs/set2/pink.gif","""event"",""trial"",""time""
""fullscreenenter"",""1"",""4457""
","
","
","""event"",""trial"",""time""
""fullscreenenter"",""1"",""4457""
","
","","840.0299999993877","","","","real_trial","2021-04-09 11:57:45.074","img/card_backs/set1/green.gif","0","-60","1","",""
"casino-fixation","80","338377","0.0-25.0-0.5","291","false","img/card_backs/set1/yellow.gif","img/card_backs/set1/red.gif","img/card_backs/set1/purple.gif","img/card_backs/set1/green.gif","img/card_backs/set2/gray.gif","img/card_backs/set2/orange.gif","img/card_backs/set2/blue.gif","img/card_backs/set2/pink.gif","""event"",""trial"",""time""
""fullscreenenter"",""1"",""4457""
","
","
","""event"",""trial"",""time""
""fullscreenenter"",""1"",""4457""
","
","","null","","null","","fixation","2021-04-09 11:57:45.579","","","","","",""
"card-selection-trial","81","342046","0.0-25.0-1.5","291","false","img/card_backs/set1/yellow.gif","img/card_backs/set1/red.gif","img/card_backs/set1/purple.gif","img/card_backs/set1/green.gif","img/card_backs/set2/gray.gif","img/card_backs/set2/orange.gif","img/card_backs/set2/blue.gif","img/card_backs/set2/pink.gif","""event"",""trial"",""time""
""fullscreenenter"",""1"",""4457""
","
","
","""event"",""trial"",""time""
""fullscreenenter"",""1"",""4457""
","
","","1660.0099999996019","","","","real_trial","2021-04-09 11:57:49.248","img/card_backs/set1/yellow.gif","2","200","1","",""
"casino-fixation","82","342551","0.0-25.0-0.6","291","false","img/card_backs/set1/yellow.gif","img/card_backs/set1/red.gif","img/card_backs/set1/purple.gif","img/card_backs/set1/green.gif","img/card_backs/set2/gray.gif","img/card_backs/set2/orange.gif","img/card_backs/set2/blue.gif","img/card_backs/set2/pink.gif","""event"",""trial"",""time""
""fullscreenenter"",""1"",""4457""
","
","
","""event"",""trial"",""time""
""fullscreenenter"",""1"",""4457""
","
","","null","","null","","fixation","2021-04-09 11:57:49.753","","","","","",""
"card-selection-trial","83","345442","0.0-25.0-1.6","291","false","img/card_backs/set1/yellow.gif","img/card_backs/set1/red.gif","img/card_backs/set1/purple.gif","img/card_backs/set1/green.gif","img/card_backs/set2/gray.gif","img/card_backs/set2/orange.gif","img/card_backs/set2/blue.gif","img/card_backs/set2/pink.gif","""event"",""trial"",""time""
""fullscreenenter"",""1"",""4457""
","
","
","""event"",""trial"",""time""
""fullscreenenter"",""1"",""4457""
","
","","880.0850000043283","","","","real_trial","2021-04-09 11:57:52.644","img/card_backs/set1/yellow.gif","1","-230","1","",""
"casino-fixation","84","345944","0.0-25.0-0.7","291","false","img/card_backs/set1/yellow.gif","img/card_backs/set1/red.gif","img/card_backs/set1/purple.gif","img/card_backs/set1/green.gif","img/card_backs/set2/gray.gif","img/card_backs/set2/orange.gif","img/card_backs/set2/blue.gif","img/card_backs/set2/pink.gif","""event"",""trial"",""time""
""fullscreenenter"",""1"",""4457""
","
","
","""event"",""trial"",""time""
""fullscreenenter"",""1"",""4457""
","
","","null","","null","","fixation","2021-04-09 11:57:53.146","","","","","",""
"card-selection-trial","85","349221","0.0-25.0-1.7","291","false","img/card_backs/set1/yellow.gif","img/card_backs/set1/red.gif","img/card_backs/set1/purple.gif","img/card_backs/set1/green.gif","img/card_backs/set2/gray.gif","img/card_backs/set2/orange.gif","img/card_backs/set2/blue.gif","img/card_backs/set2/pink.gif","""event"",""trial"",""time""
""fullscreenenter"",""1"",""4457""
","
","
","""event"",""trial"",""time""
""fullscreenenter"",""1"",""4457""
","
","","1266.6299999982584","","","","real_trial","2021-04-09 11:57:56.423","img/card_backs/set1/green.gif","0","120","1","",""
"casino-fixation","86","349726","0.0-25.0-0.8","291","false","img/card_backs/set1/yellow.gif","img/card_backs/set1/red.gif","img/card_backs/set1/purple.gif","img/card_backs/set1/green.gif","img/card_backs/set2/gray.gif","img/card_backs/set2/orange.gif","img/card_backs/set2/blue.gif","img/card_backs/set2/pink.gif","""event"",""trial"",""time""
""fullscreenenter"",""1"",""4457""
","
","
","""event"",""trial"",""time""
""fullscreenenter"",""1"",""4457""
","
","","null","","null","","fixation","2021-04-09 11:57:56.928","","","","","",""
"card-selection-trial","87","352653","0.0-25.0-1.8","291","false","img/card_backs/set1/yellow.gif","img/card_backs/set1/red.gif","img/card_backs/set1/purple.gif","img/card_backs/set1/green.gif","img/card_backs/set2/gray.gif","img/card_backs/set2/orange.gif","img/card_backs/set2/blue.gif","img/card_backs/set2/pink.gif","""event"",""trial"",""time""
""fullscreenenter"",""1"",""4457""
","
","
","""event"",""trial"",""time""
""fullscreenenter"",""1"",""4457""
","
","","916.9049999982235","","","","real_trial","2021-04-09 11:57:59.855","img/card_backs/set1/green.gif","2","-70","1","",""
"casino-fixation","88","353158","0.0-25.0-0.9","291","false","img/card_backs/set1/yellow.gif","img/card_backs/set1/red.gif","img/card_backs/set1/purple.gif","img/card_backs/set1/green.gif","img/card_backs/set2/gray.gif","img/card_backs/set2/orange.gif","img/card_backs/set2/blue.gif","img/card_backs/set2/pink.gif","""event"",""trial"",""time""
""fullscreenenter"",""1"",""4457""
","
","
","""event"",""trial"",""time""
""fullscreenenter"",""1"",""4457""
","
","","null","","null","","fixation","2021-04-09 11:58:00.360","","","","","",""
"card-selection-trial","89","355741","0.0-25.0-1.9","291","false","img/card_backs/set1/yellow.gif","img/card_backs/set1/red.gif","img/card_backs/set1/purple.gif","img/card_backs/set1/green.gif","img/card_backs/set2/gray.gif","img/card_backs/set2/orange.gif","img/card_backs/set2/blue.gif","img/card_backs/set2/pink.gif","""event"",""trial"",""time""
""fullscreenenter"",""1"",""4457""
","
","
","""event"",""trial"",""time""
""fullscreenenter"",""1"",""4457""
","
","","576.6949999961071","","","","real_trial","2021-04-09 11:58:02.943","img/card_backs/set1/red.gif","3","-250","1","",""
"casino-fixation","90","356244","0.0-25.0-0.10","291","false","img/card_backs/set1/yellow.gif","img/card_backs/set1/red.gif","img/card_backs/set1/purple.gif","img/card_backs/set1/green.gif","img/card_backs/set2/gray.gif","img/card_backs/set2/orange.gif","img/card_backs/set2/blue.gif","img/card_backs/set2/pink.gif","""event"",""trial"",""time""
""fullscreenenter"",""1"",""4457""
","
","
","""event"",""trial"",""time""
""fullscreenenter"",""1"",""4457""
","
","","null","","null","","fixation","2021-04-09 11:58:03.447","","","","","",""
"card-selection-trial","91","359294","0.0-25.0-1.10","291","false","img/card_backs/set1/yellow.gif","img/card_backs/set1/red.gif","img/card_backs/set1/purple.gif","img/card_backs/set1/green.gif","img/card_backs/set2/gray.gif","img/card_backs/set2/orange.gif","img/card_backs/set2/blue.gif","img/card_backs/set2/pink.gif","""event"",""trial"",""time""
""fullscreenenter"",""1"",""4457""
","
","
","""event"",""trial"",""time""
""fullscreenenter"",""1"",""4457""
","
","","1039.4449999948847","","","","real_trial","2021-04-09 11:58:06.496","img/card_backs/set1/purple.gif","0","-60","1","",""
"casino-fixation","92","359799","0.0-25.0-0.11","291","false","img/card_backs/set1/yellow.gif","img/card_backs/set1/red.gif","img/card_backs/set1/purple.gif","img/card_backs/set1/green.gif","img/card_backs/set2/gray.gif","img/card_backs/set2/orange.gif","img/card_backs/set2/blue.gif","img/card_backs/set2/pink.gif","""event"",""trial"",""time""
""fullscreenenter"",""1"",""4457""
","
","
","""event"",""trial"",""time""
""fullscreenenter"",""1"",""4457""
","
","","null","","null","","fixation","2021-04-09 11:58:07.001","","","","","",""
"card-selection-trial","93","362893","0.0-25.0-1.11","291","false","img/card_backs/set1/yellow.gif","img/card_backs/set1/red.gif","img/card_backs/set1/purple.gif","img/card_backs/set1/green.gif","img/card_backs/set2/gray.gif","img/card_backs/set2/orange.gif","img/card_backs/set2/blue.gif","img/card_backs/set2/pink.gif","""event"",""trial"",""time""
""fullscreenenter"",""1"",""4457""
","
","
","""event"",""trial"",""time""
""fullscreenenter"",""1"",""4457""
","
","","1086.5699999994831","","","","real_trial","2021-04-09 11:58:10.095","img/card_backs/set1/yellow.gif","1","-240","1","",""
"casino-fixation","94","363398","0.0-25.0-0.12","291","false","img/card_backs/set1/yellow.gif","img/card_backs/set1/red.gif","img/card_backs/set1/purple.gif","img/card_backs/set1/green.gif","img/card_backs/set2/gray.gif","img/card_backs/set2/orange.gif","img/card_backs/set2/blue.gif","img/card_backs/set2/pink.gif","""event"",""trial"",""time""
""fullscreenenter"",""1"",""4457""
","
","
","""event"",""trial"",""time""
""fullscreenenter"",""1"",""4457""
","
","","null","","null","","fixation","2021-04-09 11:58:10.600","","","","","",""
"card-selection-trial","95","367067","0.0-25.0-1.12","291","false","img/card_backs/set1/yellow.gif","img/card_backs/set1/red.gif","img/card_backs/set1/purple.gif","img/card_backs/set1/green.gif","img/card_backs/set2/gray.gif","img/card_backs/set2/orange.gif","img/card_backs/set2/blue.gif","img/card_backs/set2/pink.gif","""event"",""trial"",""time""
""fullscreenenter"",""1"",""4457""
","
","
","""event"",""trial"",""time""
""fullscreenenter"",""1"",""4457""
","
","","1658.2599999965169","","","","real_trial","2021-04-09 11:58:14.269","img/card_backs/set1/green.gif","3","-50","1","",""
"casino-fixation","96","367572","0.0-25.0-0.13","291","false","img/card_backs/set1/yellow.gif","img/card_backs/set1/red.gif","img/card_backs/set1/purple.gif","img/card_backs/set1/green.gif","img/card_backs/set2/gray.gif","img/card_backs/set2/orange.gif","img/card_backs/set2/blue.gif","img/card_backs/set2/pink.gif","""event"",""trial"",""time""
""fullscreenenter"",""1"",""4457""
","
","
","""event"",""trial"",""time""
""fullscreenenter"",""1"",""4457""
","
","","null","","null","","fixation","2021-04-09 11:58:14.774","","","","","",""
"card-selection-trial","97","372117","0.0-25.0-1.13","291","false","img/card_backs/set1/yellow.gif","img/card_backs/set1/red.gif","img/card_backs/set1/purple.gif","img/card_backs/set1/green.gif","img/card_backs/set2/gray.gif","img/card_backs/set2/orange.gif","img/card_backs/set2/blue.gif","img/card_backs/set2/pink.gif","""event"",""trial"",""time""
""fullscreenenter"",""1"",""4457""
","
","
","""event"",""trial"",""time""
""fullscreenenter"",""1"",""4457""
","
","","2532.520000000659","","","","real_trial","2021-04-09 11:58:19.319","img/card_backs/set1/red.gif","0","180","1","",""
"casino-fixation","98","372622","0.0-25.0-0.14","291","false","img/card_backs/set1/yellow.gif","img/card_backs/set1/red.gif","img/card_backs/set1/purple.gif","img/card_backs/set1/green.gif","img/card_backs/set2/gray.gif","img/card_backs/set2/orange.gif","img/card_backs/set2/blue.gif","img/card_backs/set2/pink.gif","""event"",""trial"",""time""
""fullscreenenter"",""1"",""4457""
","
","
","""event"",""trial"",""time""
""fullscreenenter"",""1"",""4457""
","
","","null","","null","","fixation","2021-04-09 11:58:19.824","","","","","",""
"card-selection-trial","99","376367","0.0-25.0-1.14","291","false","img/card_backs/set1/yellow.gif","img/card_backs/set1/red.gif","img/card_backs/set1/purple.gif","img/card_backs/set1/green.gif","img/card_backs/set2/gray.gif","img/card_backs/set2/orange.gif","img/card_backs/set2/blue.gif","img/card_backs/set2/pink.gif","""event"",""trial"",""time""
""fullscreenenter"",""1"",""4457""
","
","
","""event"",""trial"",""time""
""fullscreenenter"",""1"",""4457""
","
","","1735.7950000005076","","","","real_trial","2021-04-09 11:58:23.569","img/card_backs/set1/red.gif","2","190","1","",""
"casino-fixation","100","376871","0.0-25.0-0.15","291","false","img/card_backs/set1/yellow.gif","img/card_backs/set1/red.gif","img/card_backs/set1/purple.gif","img/card_backs/set1/green.gif","img/card_backs/set2/gray.gif","img/card_backs/set2/orange.gif","img/card_backs/set2/blue.gif","img/card_backs/set2/pink.gif","""event"",""trial"",""time""
""fullscreenenter"",""1"",""4457""
","
","
","""event"",""trial"",""time""
""fullscreenenter"",""1"",""4457""
","
","","null","","null","","fixation","2021-04-09 11:58:24.073","","","","","",""
"card-selection-trial","101","380050","0.0-25.0-1.15","291","false","img/card_backs/set1/yellow.gif","img/card_backs/set1/red.gif","img/card_backs/set1/purple.gif","img/card_backs/set1/green.gif","img/card_backs/set2/gray.gif","img/card_backs/set2/orange.gif","img/card_backs/set2/blue.gif","img/card_backs/set2/pink.gif","""event"",""trial"",""time""
""fullscreenenter"",""1"",""4457""
","
","
","""event"",""trial"",""time""
""fullscreenenter"",""1"",""4457""
","
","","1168.9550000010058","","","","real_trial","2021-04-09 11:58:27.252","img/card_backs/set1/red.gif","3","-230","1","",""
"casino-fixation","102","380552","0.0-25.0-0.16","291","false","img/card_backs/set1/yellow.gif","img/card_backs/set1/red.gif","img/card_backs/set1/purple.gif","img/card_backs/set1/green.gif","img/card_backs/set2/gray.gif","img/card_backs/set2/orange.gif","img/card_backs/set2/blue.gif","img/card_backs/set2/pink.gif","""event"",""trial"",""time""
""fullscreenenter"",""1"",""4457""
","
","
","""event"",""trial"",""time""
""fullscreenenter"",""1"",""4457""
","
","","null","","null","","fixation","2021-04-09 11:58:27.754","","","","","",""
"card-selection-trial","103","384639","0.0-25.0-1.16","291","false","img/card_backs/set1/yellow.gif","img/card_backs/set1/red.gif","img/card_backs/set1/purple.gif","img/card_backs/set1/green.gif","img/card_backs/set2/gray.gif","img/card_backs/set2/orange.gif","img/card_backs/set2/blue.gif","img/card_backs/set2/pink.gif","""event"",""trial"",""time""
""fullscreenenter"",""1"",""4457""
","
","
","""event"",""trial"",""time""
""fullscreenenter"",""1"",""4457""
","
","","2077.7799999996205","","","","real_trial","2021-04-09 11:58:31.841","img/card_backs/set1/yellow.gif","3","190","1","",""
"casino-fixation","104","385144","0.0-25.0-0.17","291","false","img/card_backs/set1/yellow.gif","img/card_backs/set1/red.gif","img/card_backs/set1/purple.gif","img/card_backs/set1/green.gif","img/card_backs/set2/gray.gif","img/card_backs/set2/orange.gif","img/card_backs/set2/blue.gif","img/card_backs/set2/pink.gif","""event"",""trial"",""time""
""fullscreenenter"",""1"",""4457""
","
","
","""event"",""trial"",""time""
""fullscreenenter"",""1"",""4457""
","
","","null","","null","","fixation","2021-04-09 11:58:32.346","","","","","",""
"card-selection-trial","105","388087","0.0-25.0-1.17","291","false","img/card_backs/set1/yellow.gif","img/card_backs/set1/red.gif","img/card_backs/set1/purple.gif","img/card_backs/set1/green.gif","img/card_backs/set2/gray.gif","img/card_backs/set2/orange.gif","img/card_backs/set2/blue.gif","img/card_backs/set2/pink.gif","""event"",""trial"",""time""
""fullscreenenter"",""1"",""4457""
","
","
","""event"",""trial"",""time""
""fullscreenenter"",""1"",""4457""
","
","","935.2250000010827","","","","real_trial","2021-04-09 11:58:35.289","img/card_backs/set1/yellow.gif","0","-250","1","",""
"casino-fixation","106","388593","0.0-25.0-0.18","291","false","img/card_backs/set1/yellow.gif","img/card_backs/set1/red.gif","img/card_backs/set1/purple.gif","img/card_backs/set1/green.gif","img/card_backs/set2/gray.gif","img/card_backs/set2/orange.gif","img/card_backs/set2/blue.gif","img/card_backs/set2/pink.gif","""event"",""trial"",""time""
""fullscreenenter"",""1"",""4457""
","
","
","""event"",""trial"",""time""
""fullscreenenter"",""1"",""4457""
","
","","null","","null","","fixation","2021-04-09 11:58:35.795","","","","","",""
"card-selection-trial","107","392234","0.0-25.0-1.18","291","false","img/card_backs/set1/yellow.gif","img/card_backs/set1/red.gif","img/card_backs/set1/purple.gif","img/card_backs/set1/green.gif","img/card_backs/set2/gray.gif","img/card_backs/set2/orange.gif","img/card_backs/set2/blue.gif","img/card_backs/set2/pink.gif","""event"",""trial"",""time""
""fullscreenenter"",""1"",""4457""
","
","
","""event"",""trial"",""time""
""fullscreenenter"",""1"",""4457""
","
","","1631.999999997788","","","","real_trial","2021-04-09 11:58:39.436","img/card_backs/set1/purple.gif","2","100","1","",""
"casino-fixation","108","392739","0.0-25.0-0.19","291","false","img/card_backs/set1/yellow.gif","img/card_backs/set1/red.gif","img/card_backs/set1/purple.gif","img/card_backs/set1/green.gif","img/card_backs/set2/gray.gif","img/card_backs/set2/orange.gif","img/card_backs/set2/blue.gif","img/card_backs/set2/pink.gif","""event"",""trial"",""time""
""fullscreenenter"",""1"",""4457""
","
","
","""event"",""trial"",""time""
""fullscreenenter"",""1"",""4457""
","
","","null","","null","","fixation","2021-04-09 11:58:39.941","","","","","",""
"card-selection-trial","109","395822","0.0-25.0-1.19","291","false","img/card_backs/set1/yellow.gif","img/card_backs/set1/red.gif","img/card_backs/set1/purple.gif","img/card_backs/set1/green.gif","img/card_backs/set2/gray.gif","img/card_backs/set2/orange.gif","img/card_backs/set2/blue.gif","img/card_backs/set2/pink.gif","""event"",""trial"",""time""
""fullscreenenter"",""1"",""4457""
","
","
","""event"",""trial"",""time""
""fullscreenenter"",""1"",""4457""
","
","","1072.1449999982724","","","","real_trial","2021-04-09 11:58:43.024","img/card_backs/set1/purple.gif","3","-70","1","",""
"casino-fixation","110","396327","0.0-25.0-0.20","291","false","img/card_backs/set1/yellow.gif","img/card_backs/set1/red.gif","img/card_backs/set1/purple.gif","img/card_backs/set1/green.gif","img/card_backs/set2/gray.gif","img/card_backs/set2/orange.gif","img/card_backs/set2/blue.gif","img/card_backs/set2/pink.gif","""event"",""trial"",""time""
""fullscreenenter"",""1"",""4457""
","
","
","""event"",""trial"",""time""
""fullscreenenter"",""1"",""4457""
","
","","null","","null","","fixation","2021-04-09 11:58:43.529","","","","","",""
"card-selection-trial","111","400695","0.0-25.0-1.20","291","false","img/card_backs/set1/yellow.gif","img/card_backs/set1/red.gif","img/card_backs/set1/purple.gif","img/card_backs/set1/green.gif","img/card_backs/set2/gray.gif","img/card_backs/set2/orange.gif","img/card_backs/set2/blue.gif","img/card_backs/set2/pink.gif","""event"",""trial"",""time""
""fullscreenenter"",""1"",""4457""
","
","
","""event"",""trial"",""time""
""fullscreenenter"",""1"",""4457""
","
","","2360.4300000006333","","","","real_trial","2021-04-09 11:58:47.898","img/card_backs/set1/red.gif","0","180","1","",""
"casino-fixation","112","401200","0.0-25.0-0.21","291","false","img/card_backs/set1/yellow.gif","img/card_backs/set1/red.gif","img/card_backs/set1/purple.gif","img/card_backs/set1/green.gif","img/card_backs/set2/gray.gif","img/card_backs/set2/orange.gif","img/card_backs/set2/blue.gif","img/card_backs/set2/pink.gif","""event"",""trial"",""time""
""fullscreenenter"",""1"",""4457""
","
","
","""event"",""trial"",""time""
""fullscreenenter"",""1"",""4457""
","
","","null","","null","","fixation","2021-04-09 11:58:48.402","","","","","",""
"card-selection-trial","113","404109","0.0-25.0-1.21","291","false","img/card_backs/set1/yellow.gif","img/card_backs/set1/red.gif","img/card_backs/set1/purple.gif","img/card_backs/set1/green.gif","img/card_backs/set2/gray.gif","img/card_backs/set2/orange.gif","img/card_backs/set2/blue.gif","img/card_backs/set2/pink.gif","""event"",""trial"",""time""
""fullscreenenter"",""1"",""4457""
","
","
","""event"",""trial"",""time""
""fullscreenenter"",""1"",""4457""
","
","","898.3200000002398","","","","real_trial","2021-04-09 11:58:51.311","img/card_backs/set1/red.gif","0","-240","1","",""
"casino-fixation","114","404614","0.0-25.0-0.22","291","false","img/card_backs/set1/yellow.gif","img/card_backs/set1/red.gif","img/card_backs/set1/purple.gif","img/card_backs/set1/green.gif","img/card_backs/set2/gray.gif","img/card_backs/set2/orange.gif","img/card_backs/set2/blue.gif","img/card_backs/set2/pink.gif","""event"",""trial"",""time""
""fullscreenenter"",""1"",""4457""
","
","
","""event"",""trial"",""time""
""fullscreenenter"",""1"",""4457""
","
","","null","","null","","fixation","2021-04-09 11:58:51.816","","","","","",""
"card-selection-trial","115","408614","0.0-25.0-1.22","291","false","img/card_backs/set1/yellow.gif","img/card_backs/set1/red.gif","img/card_backs/set1/purple.gif","img/card_backs/set1/green.gif","img/card_backs/set2/gray.gif","img/card_backs/set2/orange.gif","img/card_backs/set2/blue.gif","img/card_backs/set2/pink.gif","""event"",""trial"",""time""
""fullscreenenter"",""1"",""4457""
","
","
","""event"",""trial"",""time""
""fullscreenenter"",""1"",""4457""
","
","","1993.7150000041584","","","","real_trial","2021-04-09 11:58:55.816","img/card_backs/set1/purple.gif","1","120","1","",""
"casino-fixation","116","409118","0.0-25.0-0.23","291","false","img/card_backs/set1/yellow.gif","img/card_backs/set1/red.gif","img/card_backs/set1/purple.gif","img/card_backs/set1/green.gif","img/card_backs/set2/gray.gif","img/card_backs/set2/orange.gif","img/card_backs/set2/blue.gif","img/card_backs/set2/pink.gif","""event"",""trial"",""time""
""fullscreenenter"",""1"",""4457""
","
","
","""event"",""trial"",""time""
""fullscreenenter"",""1"",""4457""
","
","","null","","null","","fixation","2021-04-09 11:58:56.320","","","","","",""
"card-selection-trial","117","412062","0.0-25.0-1.23","291","false","img/card_backs/set1/yellow.gif","img/card_backs/set1/red.gif","img/card_backs/set1/purple.gif","img/card_backs/set1/green.gif","img/card_backs/set2/gray.gif","img/card_backs/set2/orange.gif","img/card_backs/set2/blue.gif","img/card_backs/set2/pink.gif","""event"",""trial"",""time""
""fullscreenenter"",""1"",""4457""
","
","
","""event"",""trial"",""time""
""fullscreenenter"",""1"",""4457""
","
","","936.6900000022724","","","","real_trial","2021-04-09 11:58:59.264","img/card_backs/set1/purple.gif","3","-60","1","",""
"casino-fixation","118","412567","0.0-25.0-0.24","291","false","img/card_backs/set1/yellow.gif","img/card_backs/set1/red.gif","img/card_backs/set1/purple.gif","img/card_backs/set1/green.gif","img/card_backs/set2/gray.gif","img/card_backs/set2/orange.gif","img/card_backs/set2/blue.gif","img/card_backs/set2/pink.gif","""event"",""trial"",""time""
""fullscreenenter"",""1"",""4457""
","
","
","""event"",""trial"",""time""
""fullscreenenter"",""1"",""4457""
","
","","null","","null","","fixation","2021-04-09 11:58:59.769","","","","","",""
"card-selection-trial","119","416543","0.0-25.0-1.24","291","false","img/card_backs/set1/yellow.gif","img/card_backs/set1/red.gif","img/card_backs/set1/purple.gif","img/card_backs/set1/green.gif","img/card_backs/set2/gray.gif","img/card_backs/set2/orange.gif","img/card_backs/set2/blue.gif","img/card_backs/set2/pink.gif","""event"",""trial"",""time""
""fullscreenenter"",""1"",""4457""
","
","
","""event"",""trial"",""time""
""fullscreenenter"",""1"",""4457""
","
","","1969.5250000004307","","","","real_trial","2021-04-09 11:59:03.745","img/card_backs/set1/yellow.gif","3","-240","1","",""
"casino-fixation","120","417048","0.0-25.0-0.25","291","false","img/card_backs/set1/yellow.gif","img/card_backs/set1/red.gif","img/card_backs/set1/purple.gif","img/card_backs/set1/green.gif","img/card_backs/set2/gray.gif","img/card_backs/set2/orange.gif","img/card_backs/set2/blue.gif","img/card_backs/set2/pink.gif","""event"",""trial"",""time""
""fullscreenenter"",""1"",""4457""
","
","
","""event"",""trial"",""time""
""fullscreenenter"",""1"",""4457""
","
","","null","","null","","fixation","2021-04-09 11:59:04.250","","","","","",""
"card-selection-trial","121","421025","0.0-25.0-1.25","291","false","img/card_backs/set1/yellow.gif","img/card_backs/set1/red.gif","img/card_backs/set1/purple.gif","img/card_backs/set1/green.gif","img/card_backs/set2/gray.gif","img/card_backs/set2/orange.gif","img/card_backs/set2/blue.gif","img/card_backs/set2/pink.gif","""event"",""trial"",""time""
""fullscreenenter"",""1"",""4457""
","
","
","""event"",""trial"",""time""
""fullscreenenter"",""1"",""4457""
","
","","1966.3500000024214","","","","real_trial","2021-04-09 11:59:08.227","img/card_backs/set1/purple.gif","3","-70","1","",""
"casino-fixation","122","421529","0.0-25.0-0.26","291","false","img/card_backs/set1/yellow.gif","img/card_backs/set1/red.gif","img/card_backs/set1/purple.gif","img/card_backs/set1/green.gif","img/card_backs/set2/gray.gif","img/card_backs/set2/orange.gif","img/card_backs/set2/blue.gif","img/card_backs/set2/pink.gif","""event"",""trial"",""time""
""fullscreenenter"",""1"",""4457""
","
","
","""event"",""trial"",""time""
""fullscreenenter"",""1"",""4457""
","
","","null","","null","","fixation","2021-04-09 11:59:08.732","","","","","",""
"card-selection-trial","123","424688","0.0-25.0-1.26","291","false","img/card_backs/set1/yellow.gif","img/card_backs/set1/red.gif","img/card_backs/set1/purple.gif","img/card_backs/set1/green.gif","img/card_backs/set2/gray.gif","img/card_backs/set2/orange.gif","img/card_backs/set2/blue.gif","img/card_backs/set2/pink.gif","""event"",""trial"",""time""
""fullscreenenter"",""1"",""4457""
","
","
","""event"",""trial"",""time""
""fullscreenenter"",""1"",""4457""
","
","","1148.605000002135","","","","real_trial","2021-04-09 11:59:11.890","img/card_backs/set1/green.gif","0","100","1","",""
"casino-fixation","124","425190","0.0-25.0-0.27","291","false","img/card_backs/set1/yellow.gif","img/card_backs/set1/red.gif","img/card_backs/set1/purple.gif","img/card_backs/set1/green.gif","img/card_backs/set2/gray.gif","img/card_backs/set2/orange.gif","img/card_backs/set2/blue.gif","img/card_backs/set2/pink.gif","""event"",""trial"",""time""
""fullscreenenter"",""1"",""4457""
","
","
","""event"",""trial"",""time""
""fullscreenenter"",""1"",""4457""
","
","","null","","null","","fixation","2021-04-09 11:59:12.392","","","","","",""
"card-selection-trial","125","428287","0.0-25.0-1.27","291","false","img/card_backs/set1/yellow.gif","img/card_backs/set1/red.gif","img/card_backs/set1/purple.gif","img/card_backs/set1/green.gif","img/card_backs/set2/gray.gif","img/card_backs/set2/orange.gif","img/card_backs/set2/blue.gif","img/card_backs/set2/pink.gif","""event"",""trial"",""time""
""fullscreenenter"",""1"",""4457""
","
","
","""event"",""trial"",""time""
""fullscreenenter"",""1"",""4457""
","
","","1088.2600000040838","","","","real_trial","2021-04-09 11:59:15.489","img/card_backs/set1/green.gif","3","100","1","",""
"casino-fixation","126","428792","0.0-25.0-0.28","291","false","img/card_backs/set1/yellow.gif","img/card_backs/set1/red.gif","img/card_backs/set1/purple.gif","img/card_backs/set1/green.gif","img/card_backs/set2/gray.gif","img/card_backs/set2/orange.gif","img/card_backs/set2/blue.gif","img/card_backs/set2/pink.gif","""event"",""trial"",""time""
""fullscreenenter"",""1"",""4457""
","
","
","""event"",""trial"",""time""
""fullscreenenter"",""1"",""4457""
","
","","null","","null","","fixation","2021-04-09 11:59:15.994","","","","","",""
"card-selection-trial","127","432118","0.0-25.0-1.28","291","false","img/card_backs/set1/yellow.gif","img/card_backs/set1/red.gif","img/card_backs/set1/purple.gif","img/card_backs/set1/green.gif","img/card_backs/set2/gray.gif","img/card_backs/set2/orange.gif","img/card_backs/set2/blue.gif","img/card_backs/set2/pink.gif","""event"",""trial"",""time""
""fullscreenenter"",""1"",""4457""
","
","
","""event"",""trial"",""time""
""fullscreenenter"",""1"",""4457""
","
","","1314.700000002631","","","","real_trial","2021-04-09 11:59:19.320","img/card_backs/set1/green.gif","2","-60","1","",""
"casino-fixation","128","432623","0.0-25.0-0.29","291","false","img/card_backs/set1/yellow.gif","img/card_backs/set1/red.gif","img/card_backs/set1/purple.gif","img/card_backs/set1/green.gif","img/card_backs/set2/gray.gif","img/card_backs/set2/orange.gif","img/card_backs/set2/blue.gif","img/card_backs/set2/pink.gif","""event"",""trial"",""time""
""fullscreenenter"",""1"",""4457""
","
","
","""event"",""trial"",""time""
""fullscreenenter"",""1"",""4457""
","
","","null","","null","","fixation","2021-04-09 11:59:19.825","","","","","",""
"card-selection-trial","129","436512","0.0-25.0-1.29","291","false","img/card_backs/set1/yellow.gif","img/card_backs/set1/red.gif","img/card_backs/set1/purple.gif","img/card_backs/set1/green.gif","img/card_backs/set2/gray.gif","img/card_backs/set2/orange.gif","img/card_backs/set2/blue.gif","img/card_backs/set2/pink.gif","""event"",""trial"",""time""
""fullscreenenter"",""1"",""4457""
","
","
","""event"",""trial"",""time""
""fullscreenenter"",""1"",""4457""
","
","","1880.7099999976344","","","","real_trial","2021-04-09 11:59:23.715","img/card_backs/set1/red.gif","1","200","1","",""
"casino-fixation","130","437017","0.0-25.0-0.30","291","false","img/card_backs/set1/yellow.gif","img/card_backs/set1/red.gif","img/card_backs/set1/purple.gif","img/card_backs/set1/green.gif","img/card_backs/set2/gray.gif","img/card_backs/set2/orange.gif","img/card_backs/set2/blue.gif","img/card_backs/set2/pink.gif","""event"",""trial"",""time""
""fullscreenenter"",""1"",""4457""
","
","
","""event"",""trial"",""time""
""fullscreenenter"",""1"",""4457""
","
","","null","","null","","fixation","2021-04-09 11:59:24.220","","","","","",""
"card-selection-trial","131","439740","0.0-25.0-1.30","291","false","img/card_backs/set1/yellow.gif","img/card_backs/set1/red.gif","img/card_backs/set1/purple.gif","img/card_backs/set1/green.gif","img/card_backs/set2/gray.gif","img/card_backs/set2/orange.gif","img/card_backs/set2/blue.gif","img/card_backs/set2/pink.gif","""event"",""trial"",""time""
""fullscreenenter"",""1"",""4457""
","
","
","""event"",""trial"",""time""
""fullscreenenter"",""1"",""4457""
","
","","712.7300000065588","","","","real_trial","2021-04-09 11:59:26.942","img/card_backs/set1/red.gif","1","-250","1","",""
"casino-fixation","132","440245","0.0-25.0-0.31","291","false","img/card_backs/set1/yellow.gif","img/card_backs/set1/red.gif","img/card_backs/set1/purple.gif","img/card_backs/set1/green.gif","img/card_backs/set2/gray.gif","img/card_backs/set2/orange.gif","img/card_backs/set2/blue.gif","img/card_backs/set2/pink.gif","""event"",""trial"",""time""
""fullscreenenter"",""1"",""4457""
","
","
","""event"",""trial"",""time""
""fullscreenenter"",""1"",""4457""
","
","","null","","null","","fixation","2021-04-09 11:59:27.447","","","","","",""
"card-selection-trial","133","443390","0.0-25.0-1.31","291","false","img/card_backs/set1/yellow.gif","img/card_backs/set1/red.gif","img/card_backs/set1/purple.gif","img/card_backs/set1/green.gif","img/card_backs/set2/gray.gif","img/card_backs/set2/orange.gif","img/card_backs/set2/blue.gif","img/card_backs/set2/pink.gif","""event"",""trial"",""time""
""fullscreenenter"",""1"",""4457""
","
","
","""event"",""trial"",""time""
""fullscreenenter"",""1"",""4457""
","
","","1138.0449999996927","","","","real_trial","2021-04-09 11:59:30.592","img/card_backs/set1/yellow.gif","3","200","1","",""
"casino-fixation","134","443893","0.0-25.0-0.32","291","false","img/card_backs/set1/yellow.gif","img/card_backs/set1/red.gif","img/card_backs/set1/purple.gif","img/card_backs/set1/green.gif","img/card_backs/set2/gray.gif","img/card_backs/set2/orange.gif","img/card_backs/set2/blue.gif","img/card_backs/set2/pink.gif","""event"",""trial"",""time""
""fullscreenenter"",""1"",""4457""
","
","
","""event"",""trial"",""time""
""fullscreenenter"",""1"",""4457""
","
","","null","","null","","fixation","2021-04-09 11:59:31.095","","","","","",""
"card-selection-trial","135","447066","0.0-25.0-1.32","291","false","img/card_backs/set1/yellow.gif","img/card_backs/set1/red.gif","img/card_backs/set1/purple.gif","img/card_backs/set1/green.gif","img/card_backs/set2/gray.gif","img/card_backs/set2/orange.gif","img/card_backs/set2/blue.gif","img/card_backs/set2/pink.gif","""event"",""trial"",""time""
""fullscreenenter"",""1"",""4457""
","
","
","""event"",""trial"",""time""
""fullscreenenter"",""1"",""4457""
","
","","1164.2500000016298","","","","real_trial","2021-04-09 11:59:34.268","img/card_backs/set1/yellow.gif","2","190","1","",""
"casino-fixation","136","447571","0.0-25.0-0.33","291","false","img/card_backs/set1/yellow.gif","img/card_backs/set1/red.gif","img/card_backs/set1/purple.gif","img/card_backs/set1/green.gif","img/card_backs/set2/gray.gif","img/card_backs/set2/orange.gif","img/card_backs/set2/blue.gif","img/card_backs/set2/pink.gif","""event"",""trial"",""time""
""fullscreenenter"",""1"",""4457""
","
","
","""event"",""trial"",""time""
""fullscreenenter"",""1"",""4457""
","
","","null","","null","","fixation","2021-04-09 11:59:34.773","","","","","",""
"card-selection-trial","137","450921","0.0-25.0-1.33","291","false","img/card_backs/set1/yellow.gif","img/card_backs/set1/red.gif","img/card_backs/set1/purple.gif","img/card_backs/set1/green.gif","img/card_backs/set2/gray.gif","img/card_backs/set2/orange.gif","img/card_backs/set2/blue.gif","img/card_backs/set2/pink.gif","""event"",""trial"",""time""
""fullscreenenter"",""1"",""4457""
","
","
","""event"",""trial"",""time""
""fullscreenenter"",""1"",""4457""
","
","","1342.434999998659","","","","real_trial","2021-04-09 11:59:38.123","img/card_backs/set1/purple.gif","0","100","1","",""
"casino-fixation","138","451425","0.0-25.0-0.34","291","false","img/card_backs/set1/yellow.gif","img/card_backs/set1/red.gif","img/card_backs/set1/purple.gif","img/card_backs/set1/green.gif","img/card_backs/set2/gray.gif","img/card_backs/set2/orange.gif","img/card_backs/set2/blue.gif","img/card_backs/set2/pink.gif","""event"",""trial"",""time""
""fullscreenenter"",""1"",""4457""
","
","
","""event"",""trial"",""time""
""fullscreenenter"",""1"",""4457""
","
","","null","","null","","fixation","2021-04-09 11:59:38.628","","","","","",""
"card-selection-trial","139","454344","0.0-25.0-1.34","291","false","img/card_backs/set1/yellow.gif","img/card_backs/set1/red.gif","img/card_backs/set1/purple.gif","img/card_backs/set1/green.gif","img/card_backs/set2/gray.gif","img/card_backs/set2/orange.gif","img/card_backs/set2/blue.gif","img/card_backs/set2/pink.gif","""event"",""trial"",""time""
""fullscreenenter"",""1"",""4457""
","
","
","""event"",""trial"",""time""
""fullscreenenter"",""1"",""4457""
","
","","908.2399999970221","","","","real_trial","2021-04-09 11:59:41.546","img/card_backs/set1/purple.gif","1","100","1","",""
"casino-fixation","140","454850","0.0-25.0-0.35","291","false","img/card_backs/set1/yellow.gif","img/card_backs/set1/red.gif","img/card_backs/set1/purple.gif","img/card_backs/set1/green.gif","img/card_backs/set2/gray.gif","img/card_backs/set2/orange.gif","img/card_backs/set2/blue.gif","img/card_backs/set2/pink.gif","""event"",""trial"",""time""
""fullscreenenter"",""1"",""4457""
","
","
","""event"",""trial"",""time""
""fullscreenenter"",""1"",""4457""
","
","","null","","null","","fixation","2021-04-09 11:59:42.053","","","","","",""
"card-selection-trial","141","459210","0.0-25.0-1.35","291","false","img/card_backs/set1/yellow.gif","img/card_backs/set1/red.gif","img/card_backs/set1/purple.gif","img/card_backs/set1/green.gif","img/card_backs/set2/gray.gif","img/card_backs/set2/orange.gif","img/card_backs/set2/blue.gif","img/card_backs/set2/pink.gif","""event"",""trial"",""time""
""fullscreenenter"",""1"",""4457""
","
","
","""event"",""trial"",""time""
""fullscreenenter"",""1"",""4457""
","
","","2353.7949999954435","","","","real_trial","2021-04-09 11:59:46.413","img/card_backs/set1/green.gif","2","-70","1","",""
"casino-fixation","142","459715","0.0-25.0-0.36","291","false","img/card_backs/set1/yellow.gif","img/card_backs/set1/red.gif","img/card_backs/set1/purple.gif","img/card_backs/set1/green.gif","img/card_backs/set2/gray.gif","img/card_backs/set2/orange.gif","img/card_backs/set2/blue.gif","img/card_backs/set2/pink.gif","""event"",""trial"",""time""
""fullscreenenter"",""1"",""4457""
","
","
","""event"",""trial"",""time""
""fullscreenenter"",""1"",""4457""
","
","","null","","null","","fixation","2021-04-09 11:59:46.917","","","","","",""
"card-selection-trial","143","463141","0.0-25.0-1.36","291","false","img/card_backs/set1/yellow.gif","img/card_backs/set1/red.gif","img/card_backs/set1/purple.gif","img/card_backs/set1/green.gif","img/card_backs/set2/gray.gif","img/card_backs/set2/orange.gif","img/card_backs/set2/blue.gif","img/card_backs/set2/pink.gif","""event"",""trial"",""time""
""fullscreenenter"",""1"",""4457""
","
","
","""event"",""trial"",""time""
""fullscreenenter"",""1"",""4457""
","
","","1419.2449999973178","","","","real_trial","2021-04-09 11:59:50.343","img/card_backs/set1/purple.gif","1","100","1","",""
"casino-fixation","144","463645","0.0-25.0-0.37","291","false","img/card_backs/set1/yellow.gif","img/card_backs/set1/red.gif","img/card_backs/set1/purple.gif","img/card_backs/set1/green.gif","img/card_backs/set2/gray.gif","img/card_backs/set2/orange.gif","img/card_backs/set2/blue.gif","img/card_backs/set2/pink.gif","""event"",""trial"",""time""
""fullscreenenter"",""1"",""4457""
","
","
","""event"",""trial"",""time""
""fullscreenenter"",""1"",""4457""
","
","","null","","null","","fixation","2021-04-09 11:59:50.847","","","","","",""
"card-selection-trial","145","466751","0.0-25.0-1.37","291","false","img/card_backs/set1/yellow.gif","img/card_backs/set1/red.gif","img/card_backs/set1/purple.gif","img/card_backs/set1/green.gif","img/card_backs/set2/gray.gif","img/card_backs/set2/orange.gif","img/card_backs/set2/blue.gif","img/card_backs/set2/pink.gif","""event"",""trial"",""time""
""fullscreenenter"",""1"",""4457""
","
","
","""event"",""trial"",""time""
""fullscreenenter"",""1"",""4457""
","
","","1096.480000000156","","","","real_trial","2021-04-09 11:59:53.953","img/card_backs/set1/purple.gif","3","110","1","",""
"casino-fixation","146","467256","0.0-25.0-0.38","291","false","img/card_backs/set1/yellow.gif","img/card_backs/set1/red.gif","img/card_backs/set1/purple.gif","img/card_backs/set1/green.gif","img/card_backs/set2/gray.gif","img/card_backs/set2/orange.gif","img/card_backs/set2/blue.gif","img/card_backs/set2/pink.gif","""event"",""trial"",""time""
""fullscreenenter"",""1"",""4457""
","
","
","""event"",""trial"",""time""
""fullscreenenter"",""1"",""4457""
","
","","null","","null","","fixation","2021-04-09 11:59:54.458","","","","","",""
"card-selection-trial","147","471332","0.0-25.0-1.38","291","false","img/card_backs/set1/yellow.gif","img/card_backs/set1/red.gif","img/card_backs/set1/purple.gif","img/card_backs/set1/green.gif","img/card_backs/set2/gray.gif","img/card_backs/set2/orange.gif","img/card_backs/set2/blue.gif","img/card_backs/set2/pink.gif","""event"",""trial"",""time""
""fullscreenenter"",""1"",""4457""
","
","
","""event"",""trial"",""time""
""fullscreenenter"",""1"",""4457""
","
","","2065.565000004426","","","","real_trial","2021-04-09 11:59:58.534","img/card_backs/set1/yellow.gif","3","180","1","",""
"casino-fixation","148","471836","0.0-25.0-0.39","291","false","img/card_backs/set1/yellow.gif","img/card_backs/set1/red.gif","img/card_backs/set1/purple.gif","img/card_backs/set1/green.gif","img/card_backs/set2/gray.gif","img/card_backs/set2/orange.gif","img/card_backs/set2/blue.gif","img/card_backs/set2/pink.gif","""event"",""trial"",""time""
""fullscreenenter"",""1"",""4457""
","
","
","""event"",""trial"",""time""
""fullscreenenter"",""1"",""4457""
","
","","null","","null","","fixation","2021-04-09 11:59:59.038","","","","","",""
"card-selection-trial","149","474737","0.0-25.0-1.39","291","false","img/card_backs/set1/yellow.gif","img/card_backs/set1/red.gif","img/card_backs/set1/purple.gif","img/card_backs/set1/green.gif","img/card_backs/set2/gray.gif","img/card_backs/set2/orange.gif","img/card_backs/set2/blue.gif","img/card_backs/set2/pink.gif","""event"",""trial"",""time""
""fullscreenenter"",""1"",""4457""
","
","
","""event"",""trial"",""time""
""fullscreenenter"",""1"",""4457""
","
","","894.0900000015972","","","","real_trial","2021-04-09 12:00:01.939","img/card_backs/set1/yellow.gif","0","-240","1","",""
"casino-fixation","150","475244","0.0-25.0-0.40","291","false","img/card_backs/set1/yellow.gif","img/card_backs/set1/red.gif","img/card_backs/set1/purple.gif","img/card_backs/set1/green.gif","img/card_backs/set2/gray.gif","img/card_backs/set2/orange.gif","img/card_backs/set2/blue.gif","img/card_backs/set2/pink.gif","""event"",""trial"",""time""
""fullscreenenter"",""1"",""4457""
","
","
","""event"",""trial"",""time""
""fullscreenenter"",""1"",""4457""
","
","","null","","null","","fixation","2021-04-09 12:00:02.446","","","","","",""
"card-selection-trial","151","478721","0.0-25.0-1.40","291","false","img/card_backs/set1/yellow.gif","img/card_backs/set1/red.gif","img/card_backs/set1/purple.gif","img/card_backs/set1/green.gif","img/card_backs/set2/gray.gif","img/card_backs/set2/orange.gif","img/card_backs/set2/blue.gif","img/card_backs/set2/pink.gif","""event"",""trial"",""time""
""fullscreenenter"",""1"",""4457""
","
","
","""event"",""trial"",""time""
""fullscreenenter"",""1"",""4457""
","
","","1469.599999996717","","","","real_trial","2021-04-09 12:00:05.923","img/card_backs/set1/red.gif","2","-240","1","",""
"casino-fixation","152","479228","0.0-25.0-0.41","291","false","img/card_backs/set1/yellow.gif","img/card_backs/set1/red.gif","img/card_backs/set1/purple.gif","img/card_backs/set1/green.gif","img/card_backs/set2/gray.gif","img/card_backs/set2/orange.gif","img/card_backs/set2/blue.gif","img/card_backs/set2/pink.gif","""event"",""trial"",""time""
""fullscreenenter"",""1"",""4457""
","
","
","""event"",""trial"",""time""
""fullscreenenter"",""1"",""4457""
","
","","null","","null","","fixation","2021-04-09 12:00:06.430","","","","","",""
"card-selection-trial","153","482403","0.0-25.0-1.41","291","false","img/card_backs/set1/yellow.gif","img/card_backs/set1/red.gif","img/card_backs/set1/purple.gif","img/card_backs/set1/green.gif","img/card_backs/set2/gray.gif","img/card_backs/set2/orange.gif","img/card_backs/set2/blue.gif","img/card_backs/set2/pink.gif","""event"",""trial"",""time""
""fullscreenenter"",""1"",""4457""
","
","
","""event"",""trial"",""time""
""fullscreenenter"",""1"",""4457""
","
","","1163.0950000035227","","","","real_trial","2021-04-09 12:00:09.605","img/card_backs/set1/purple.gif","3","120","1","",""
"casino-fixation","154","482908","0.0-25.0-0.42","291","false","img/card_backs/set1/yellow.gif","img/card_backs/set1/red.gif","img/card_backs/set1/purple.gif","img/card_backs/set1/green.gif","img/card_backs/set2/gray.gif","img/card_backs/set2/orange.gif","img/card_backs/set2/blue.gif","img/card_backs/set2/pink.gif","""event"",""trial"",""time""
""fullscreenenter"",""1"",""4457""
","
","
","""event"",""trial"",""time""
""fullscreenenter"",""1"",""4457""
","
","","null","","null","","fixation","2021-04-09 12:00:10.110","","","","","",""
"card-selection-trial","155","485875","0.0-25.0-1.42","291","false","img/card_backs/set1/yellow.gif","img/card_backs/set1/red.gif","img/card_backs/set1/purple.gif","img/card_backs/set1/green.gif","img/card_backs/set2/gray.gif","img/card_backs/set2/orange.gif","img/card_backs/set2/blue.gif","img/card_backs/set2/pink.gif","""event"",""trial"",""time""
""fullscreenenter"",""1"",""4457""
","
","
","""event"",""trial"",""time""
""fullscreenenter"",""1"",""4457""
","
","","961.3099999987753","","","","real_trial","2021-04-09 12:00:13.077","img/card_backs/set1/purple.gif","2","100","1","",""
"casino-fixation","156","486378","0.0-25.0-0.43","291","false","img/card_backs/set1/yellow.gif","img/card_backs/set1/red.gif","img/card_backs/set1/purple.gif","img/card_backs/set1/green.gif","img/card_backs/set2/gray.gif","img/card_backs/set2/orange.gif","img/card_backs/set2/blue.gif","img/card_backs/set2/pink.gif","""event"",""trial"",""time""
""fullscreenenter"",""1"",""4457""
","
","
","""event"",""trial"",""time""
""fullscreenenter"",""1"",""4457""
","
","","null","","null","","fixation","2021-04-09 12:00:13.580","","","","","",""
"card-selection-trial","157","490190","0.0-25.0-1.43","291","false","img/card_backs/set1/yellow.gif","img/card_backs/set1/red.gif","img/card_backs/set1/purple.gif","img/card_backs/set1/green.gif","img/card_backs/set2/gray.gif","img/card_backs/set2/orange.gif","img/card_backs/set2/blue.gif","img/card_backs/set2/pink.gif","""event"",""trial"",""time""
""fullscreenenter"",""1"",""4457""
","
","
","""event"",""trial"",""time""
""fullscreenenter"",""1"",""4457""
","
","","1806.3949999996112","","","","real_trial","2021-04-09 12:00:17.392","img/card_backs/set1/green.gif","0","-70","1","",""
"casino-fixation","158","490696","0.0-25.0-0.44","291","false","img/card_backs/set1/yellow.gif","img/card_backs/set1/red.gif","img/card_backs/set1/purple.gif","img/card_backs/set1/green.gif","img/card_backs/set2/gray.gif","img/card_backs/set2/orange.gif","img/card_backs/set2/blue.gif","img/card_backs/set2/pink.gif","""event"",""trial"",""time""
""fullscreenenter"",""1"",""4457""
","
","
","""event"",""trial"",""time""
""fullscreenenter"",""1"",""4457""
","
","","null","","null","","fixation","2021-04-09 12:00:17.898","","","","","",""
"card-selection-trial","159","494948","0.0-25.0-1.44","291","false","img/card_backs/set1/yellow.gif","img/card_backs/set1/red.gif","img/card_backs/set1/purple.gif","img/card_backs/set1/green.gif","img/card_backs/set2/gray.gif","img/card_backs/set2/orange.gif","img/card_backs/set2/blue.gif","img/card_backs/set2/pink.gif","""event"",""trial"",""time""
""fullscreenenter"",""1"",""4457""
","
","
","""event"",""trial"",""time""
""fullscreenenter"",""1"",""4457""
","
","","2244.2950000040582","","","","real_trial","2021-04-09 12:00:22.150","img/card_backs/set1/yellow.gif","1","190","1","",""
"casino-fixation","160","495450","0.0-25.0-0.45","291","false","img/card_backs/set1/yellow.gif","img/card_backs/set1/red.gif","img/card_backs/set1/purple.gif","img/card_backs/set1/green.gif","img/card_backs/set2/gray.gif","img/card_backs/set2/orange.gif","img/card_backs/set2/blue.gif","img/card_backs/set2/pink.gif","""event"",""trial"",""time""
""fullscreenenter"",""1"",""4457""
","
","
","""event"",""trial"",""time""
""fullscreenenter"",""1"",""4457""
","
","","null","","null","","fixation","2021-04-09 12:00:22.652","","","","","",""
"card-selection-trial","161","497956","0.0-25.0-1.45","291","false","img/card_backs/set1/yellow.gif","img/card_backs/set1/red.gif","img/card_backs/set1/purple.gif","img/card_backs/set1/green.gif","img/card_backs/set2/gray.gif","img/card_backs/set2/orange.gif","img/card_backs/set2/blue.gif","img/card_backs/set2/pink.gif","""event"",""trial"",""time""
""fullscreenenter"",""1"",""4457""
","
","
","""event"",""trial"",""time""
""fullscreenenter"",""1"",""4457""
","
","","500.529999997525","","","","real_trial","2021-04-09 12:00:25.158","img/card_backs/set1/yellow.gif","1","-250","1","",""
"casino-fixation","162","498458","0.0-25.0-0.46","291","false","img/card_backs/set1/yellow.gif","img/card_backs/set1/red.gif","img/card_backs/set1/purple.gif","img/card_backs/set1/green.gif","img/card_backs/set2/gray.gif","img/card_backs/set2/orange.gif","img/card_backs/set2/blue.gif","img/card_backs/set2/pink.gif","""event"",""trial"",""time""
""fullscreenenter"",""1"",""4457""
","
","
","""event"",""trial"",""time""
""fullscreenenter"",""1"",""4457""
","
","","null","","null","","fixation","2021-04-09 12:00:25.660","","","","","",""
"card-selection-trial","163","501610","0.0-25.0-1.46","291","false","img/card_backs/set1/yellow.gif","img/card_backs/set1/red.gif","img/card_backs/set1/purple.gif","img/card_backs/set1/green.gif","img/card_backs/set2/gray.gif","img/card_backs/set2/orange.gif","img/card_backs/set2/blue.gif","img/card_backs/set2/pink.gif","""event"",""trial"",""time""
""fullscreenenter"",""1"",""4457""
","
","
","""event"",""trial"",""time""
""fullscreenenter"",""1"",""4457""
","
","","1143.259999997099","","","","real_trial","2021-04-09 12:00:28.812","img/card_backs/set1/red.gif","2","-240","1","",""
"casino-fixation","164","502115","0.0-25.0-0.47","291","false","img/card_backs/set1/yellow.gif","img/card_backs/set1/red.gif","img/card_backs/set1/purple.gif","img/card_backs/set1/green.gif","img/card_backs/set2/gray.gif","img/card_backs/set2/orange.gif","img/card_backs/set2/blue.gif","img/card_backs/set2/pink.gif","""event"",""trial"",""time""
""fullscreenenter"",""1"",""4457""
","
","
","""event"",""trial"",""time""
""fullscreenenter"",""1"",""4457""
","
","","null","","null","","fixation","2021-04-09 12:00:29.317","","","","","",""
"card-selection-trial","165","504908","0.0-25.0-1.47","291","false","img/card_backs/set1/yellow.gif","img/card_backs/set1/red.gif","img/card_backs/set1/purple.gif","img/card_backs/set1/green.gif","img/card_backs/set2/gray.gif","img/card_backs/set2/orange.gif","img/card_backs/set2/blue.gif","img/card_backs/set2/pink.gif","""event"",""trial"",""time""
""fullscreenenter"",""1"",""4457""
","
","
","""event"",""trial"",""time""
""fullscreenenter"",""1"",""4457""
","
","","781.1900000015157","","","","real_trial","2021-04-09 12:00:32.110","img/card_backs/set1/green.gif","3","-70","1","",""
"casino-fixation","166","505412","0.0-25.0-0.48","291","false","img/card_backs/set1/yellow.gif","img/card_backs/set1/red.gif","img/card_backs/set1/purple.gif","img/card_backs/set1/green.gif","img/card_backs/set2/gray.gif","img/card_backs/set2/orange.gif","img/card_backs/set2/blue.gif","img/card_backs/set2/pink.gif","""event"",""trial"",""time""
""fullscreenenter"",""1"",""4457""
","
","
","""event"",""trial"",""time""
""fullscreenenter"",""1"",""4457""
","
","","null","","null","","fixation","2021-04-09 12:00:32.614","","","","","",""
