"trial_type","trial_index","time_elapsed","internal_node_id","sub_id","risk_good_first","block1_A","block1_B","block1_C","block1_D","block2_A","block2_B","block2_C","block2_D","interactions","blur_events","focus_events","fullscreenenter_events","fullscreenexit_events","success","rt","stimulus","key_press","button_pressed","task_part","timestamp","card_choice","choice_position","points_earned","block","correct","response"
"pavlovia","0","9","0.0-0.0","A544","false","img/card_backs/set1/purple.gif","img/card_backs/set1/green.gif","img/card_backs/set1/red.gif","img/card_backs/set1/yellow.gif","img/card_backs/set2/pink.gif","img/card_backs/set2/orange.gif","img/card_backs/set2/gray.gif","img/card_backs/set2/blue.gif","""event"",""trial"",""time""
""fullscreenenter"",""1"",""3128""
","
","
","""event"",""trial"",""time""
""fullscreenenter"",""1"",""3128""
","
","","","","","","","","","","","","",""
"fullscreen","1","4118","0.0-1.0","A544","false","img/card_backs/set1/purple.gif","img/card_backs/set1/green.gif","img/card_backs/set1/red.gif","img/card_backs/set1/yellow.gif","img/card_backs/set2/pink.gif","img/card_backs/set2/orange.gif","img/card_backs/set2/gray.gif","img/card_backs/set2/blue.gif","""event"",""trial"",""time""
""fullscreenenter"",""1"",""3128""
","
","
","""event"",""trial"",""time""
""fullscreenenter"",""1"",""3128""
","
","true","","","","","","","","","","","",""
"audio-keyboard-response","2","7709","0.0-2.0","A544","false","img/card_backs/set1/purple.gif","img/card_backs/set1/green.gif","img/card_backs/set1/red.gif","img/card_backs/set1/yellow.gif","img/card_backs/set2/pink.gif","img/card_backs/set2/orange.gif","img/card_backs/set2/gray.gif","img/card_backs/set2/blue.gif","""event"",""trial"",""time""
""fullscreenenter"",""1"",""3128""
","
","
","""event"",""trial"",""time""
""fullscreenenter"",""1"",""3128""
","
","","3495","audio/beep_loop.wav","32","","","","","","","","",""
"audio-button-response","3","13273","0.0-3.0","A544","false","img/card_backs/set1/purple.gif","img/card_backs/set1/green.gif","img/card_backs/set1/red.gif","img/card_backs/set1/yellow.gif","img/card_backs/set2/pink.gif","img/card_backs/set2/orange.gif","img/card_backs/set2/gray.gif","img/card_backs/set2/blue.gif","""event"",""trial"",""time""
""fullscreenenter"",""1"",""3128""
","
","
","""event"",""trial"",""time""
""fullscreenenter"",""1"",""3128""
","
","","NaN","audio/turtle.mp3","","3","","","","","","","",""
"audio-button-response","4","15479","0.0-4.0","A544","false","img/card_backs/set1/purple.gif","img/card_backs/set1/green.gif","img/card_backs/set1/red.gif","img/card_backs/set1/yellow.gif","img/card_backs/set2/pink.gif","img/card_backs/set2/orange.gif","img/card_backs/set2/gray.gif","img/card_backs/set2/blue.gif","""event"",""trial"",""time""
""fullscreenenter"",""1"",""3128""
","
","
","""event"",""trial"",""time""
""fullscreenenter"",""1"",""3128""
","
","","NaN","audio/shark.mp3","","2","","","","","","","",""
"fullscreen","5","19318","0.0-5.0","A544","false","img/card_backs/set1/purple.gif","img/card_backs/set1/green.gif","img/card_backs/set1/red.gif","img/card_backs/set1/yellow.gif","img/card_backs/set2/pink.gif","img/card_backs/set2/orange.gif","img/card_backs/set2/gray.gif","img/card_backs/set2/blue.gif","""event"",""trial"",""time""
""fullscreenenter"",""1"",""3128""
","
","
","""event"",""trial"",""time""
""fullscreenenter"",""1"",""3128""
","
","true","","","","","","","","","","","",""
"casino-keyboard-response","6","23718","0.0-6.0-0.0","A544","false","img/card_backs/set1/purple.gif","img/card_backs/set1/green.gif","img/card_backs/set1/red.gif","img/card_backs/set1/yellow.gif","img/card_backs/set2/pink.gif","img/card_backs/set2/orange.gif","img/card_backs/set2/gray.gif","img/card_backs/set2/blue.gif","""event"",""trial"",""time""
""fullscreenenter"",""1"",""3128""
","
","
","""event"",""trial"",""time""
""fullscreenenter"",""1"",""3128""
","
","","4393.575000001874","Welcome to the casino!","71","","instructions","2021-04-06 05:20:48.720","","","","","",""
"casino-keyboard-response","7","33464","0.0-6.0-0.1","A544","false","img/card_backs/set1/purple.gif","img/card_backs/set1/green.gif","img/card_backs/set1/red.gif","img/card_backs/set1/yellow.gif","img/card_backs/set2/pink.gif","img/card_backs/set2/orange.gif","img/card_backs/set2/gray.gif","img/card_backs/set2/blue.gif","""event"",""trial"",""time""
""fullscreenenter"",""1"",""3128""
","
","
","""event"",""trial"",""time""
""fullscreenenter"",""1"",""3128""
","
","","9743.620000001101","Today you will be playing a game to earn tokens. </br> At the end of the experiment, you will be paid a bonus based on how many tokens you win. ","69","","instructions","2021-04-06 05:20:58.466","","","","","",""
"casino-keyboard-response","8","43083","0.0-6.0-0.2","A544","false","img/card_backs/set1/purple.gif","img/card_backs/set1/green.gif","img/card_backs/set1/red.gif","img/card_backs/set1/yellow.gif","img/card_backs/set2/pink.gif","img/card_backs/set2/orange.gif","img/card_backs/set2/gray.gif","img/card_backs/set2/blue.gif","""event"",""trial"",""time""
""fullscreenenter"",""1"",""3128""
","
","
","""event"",""trial"",""time""
""fullscreenenter"",""1"",""3128""
","
","","9615.484999998444","On every turn, you will be shown four different decks of cards. </br> You need to select a card from one of the four decks.  ","75","","instructions","2021-04-06 05:21:08.085","","","","","",""
"casino-keyboard-response","9","47506","0.0-6.0-0.3","A544","false","img/card_backs/set1/purple.gif","img/card_backs/set1/green.gif","img/card_backs/set1/red.gif","img/card_backs/set1/yellow.gif","img/card_backs/set2/pink.gif","img/card_backs/set2/orange.gif","img/card_backs/set2/gray.gif","img/card_backs/set2/blue.gif","""event"",""trial"",""time""
""fullscreenenter"",""1"",""3128""
","
","
","""event"",""trial"",""time""
""fullscreenenter"",""1"",""3128""
","
","","4419.864999999845","On the next screen, you will see what the decks will look like. ","66","","instructions","2021-04-06 05:21:12.508","","","","","",""
"card-selection-trial","10","51513","0.0-7.0-0.0","A544","false","img/card_backs/set1/purple.gif","img/card_backs/set1/green.gif","img/card_backs/set1/red.gif","img/card_backs/set1/yellow.gif","img/card_backs/set2/pink.gif","img/card_backs/set2/orange.gif","img/card_backs/set2/gray.gif","img/card_backs/set2/blue.gif","""event"",""trial"",""time""
""fullscreenenter"",""1"",""3128""
","
","
","""event"",""trial"",""time""
""fullscreenenter"",""1"",""3128""
","
","","null","","","","practice","2021-04-06 05:21:16.515","null","null","null","0","",""
"casino-keyboard-response","11","59406","0.0-8.0-0.0","A544","false","img/card_backs/set1/purple.gif","img/card_backs/set1/green.gif","img/card_backs/set1/red.gif","img/card_backs/set1/yellow.gif","img/card_backs/set2/pink.gif","img/card_backs/set2/orange.gif","img/card_backs/set2/gray.gif","img/card_backs/set2/blue.gif","""event"",""trial"",""time""
""fullscreenenter"",""1"",""3128""
","
","
","""event"",""trial"",""time""
""fullscreenenter"",""1"",""3128""
","
","","7890.510000001086","You should pick a card from a deck using the '2', '4', '6', and '8' keys at the top of the keyboard.","85","","instructions","2021-04-06 05:21:24.408","","","","","",""
"casino-keyboard-response","12","64686","0.0-8.0-0.1","A544","false","img/card_backs/set1/purple.gif","img/card_backs/set1/green.gif","img/card_backs/set1/red.gif","img/card_backs/set1/yellow.gif","img/card_backs/set2/pink.gif","img/card_backs/set2/orange.gif","img/card_backs/set2/gray.gif","img/card_backs/set2/blue.gif","""event"",""trial"",""time""
""fullscreenenter"",""1"",""3128""
","
","
","""event"",""trial"",""time""
""fullscreenenter"",""1"",""3128""
","
","","5277.070000000094","Once you select a card, it will turn over and you will see how many tokens you earned.","83","","instructions","2021-04-06 05:21:29.689","","","","","",""
"casino-keyboard-response","13","78867","0.0-8.0-0.2","A544","false","img/card_backs/set1/purple.gif","img/card_backs/set1/green.gif","img/card_backs/set1/red.gif","img/card_backs/set1/yellow.gif","img/card_backs/set2/pink.gif","img/card_backs/set2/orange.gif","img/card_backs/set2/gray.gif","img/card_backs/set2/blue.gif","""event"",""trial"",""time""
""fullscreenenter"",""1"",""3128""
","
","
","""event"",""trial"",""time""
""fullscreenenter"",""1"",""3128""
","
","","14177.439999999478","Let's try practicing that! </br> First, try to put your fingers over the '2', '4', '6', and '8' keys. </br>  You can use whatever fingers are most comfortable for you. Try to find a comfortable position now. ","50","","instructions","2021-04-06 05:21:43.870","","","","","",""
"casino-keyboard-response","14","84799","0.0-8.0-0.3","A544","false","img/card_backs/set1/purple.gif","img/card_backs/set1/green.gif","img/card_backs/set1/red.gif","img/card_backs/set1/yellow.gif","img/card_backs/set2/pink.gif","img/card_backs/set2/orange.gif","img/card_backs/set2/gray.gif","img/card_backs/set2/blue.gif","""event"",""trial"",""time""
""fullscreenenter"",""1"",""3128""
","
","
","""event"",""trial"",""time""
""fullscreenenter"",""1"",""3128""
","
","","5927.725000001374","Okay ready? </br> On the next screen, press '2' to select the left deck. ","50","","instructions","2021-04-06 05:21:49.801","","","","","",""
"card-selection-trial","15","87581","0.0-9.0-0.0","A544","false","img/card_backs/set1/purple.gif","img/card_backs/set1/green.gif","img/card_backs/set1/red.gif","img/card_backs/set1/yellow.gif","img/card_backs/set2/pink.gif","img/card_backs/set2/orange.gif","img/card_backs/set2/gray.gif","img/card_backs/set2/blue.gif","""event"",""trial"",""time""
""fullscreenenter"",""1"",""3128""
","
","
","""event"",""trial"",""time""
""fullscreenenter"",""1"",""3128""
","
","","761.1399999987043","","","","practice_card_selection","2021-04-06 05:21:52.583","img/practice_cards/backs/dark_blue.gif","0","200","","",""
"casino-keyboard-response","16","93260","0.0-10.0-0.0","A544","false","img/card_backs/set1/purple.gif","img/card_backs/set1/green.gif","img/card_backs/set1/red.gif","img/card_backs/set1/yellow.gif","img/card_backs/set2/pink.gif","img/card_backs/set2/orange.gif","img/card_backs/set2/gray.gif","img/card_backs/set2/blue.gif","""event"",""trial"",""time""
""fullscreenenter"",""1"",""3128""
","
","
","""event"",""trial"",""time""
""fullscreenenter"",""1"",""3128""
","
","","5676.18500000026","Great! Now on the next screen, try pressing '6' to select the third deck.","54","","instructions","2021-04-06 05:21:58.262","","","","","",""
"card-selection-trial","17","96035","0.0-11.0-0.0","A544","false","img/card_backs/set1/purple.gif","img/card_backs/set1/green.gif","img/card_backs/set1/red.gif","img/card_backs/set1/yellow.gif","img/card_backs/set2/pink.gif","img/card_backs/set2/orange.gif","img/card_backs/set2/gray.gif","img/card_backs/set2/blue.gif","""event"",""trial"",""time""
""fullscreenenter"",""1"",""3128""
","
","
","""event"",""trial"",""time""
""fullscreenenter"",""1"",""3128""
","
","","767.0049999978801","","","","practice_card_selection","2021-04-06 05:22:01.037","img/practice_cards/backs/dark_blue.gif","2","-200","","",""
"casino-keyboard-response","18","101519","0.0-12.0-0.0","A544","false","img/card_backs/set1/purple.gif","img/card_backs/set1/green.gif","img/card_backs/set1/red.gif","img/card_backs/set1/yellow.gif","img/card_backs/set2/pink.gif","img/card_backs/set2/orange.gif","img/card_backs/set2/gray.gif","img/card_backs/set2/blue.gif","""event"",""trial"",""time""
""fullscreenenter"",""1"",""3128""
","
","
","""event"",""trial"",""time""
""fullscreenenter"",""1"",""3128""
","
","","5482.349999998405","Now on the next screen, try pressing '4' to select the second deck.","52","","instructions","2021-04-06 05:22:06.521","","","","","",""
"card-selection-trial","19","103968","0.0-13.0-0.0","A544","false","img/card_backs/set1/purple.gif","img/card_backs/set1/green.gif","img/card_backs/set1/red.gif","img/card_backs/set1/yellow.gif","img/card_backs/set2/pink.gif","img/card_backs/set2/orange.gif","img/card_backs/set2/gray.gif","img/card_backs/set2/blue.gif","""event"",""trial"",""time""
""fullscreenenter"",""1"",""3128""
","
","
","""event"",""trial"",""time""
""fullscreenenter"",""1"",""3128""
","
","","441.0199999983888","","","","practice_card_selection","2021-04-06 05:22:08.970","img/practice_cards/backs/dark_green.gif","1","-200","","",""
"casino-keyboard-response","20","107968","0.0-14.0-0.0","A544","false","img/card_backs/set1/purple.gif","img/card_backs/set1/green.gif","img/card_backs/set1/red.gif","img/card_backs/set1/yellow.gif","img/card_backs/set2/pink.gif","img/card_backs/set2/orange.gif","img/card_backs/set2/gray.gif","img/card_backs/set2/blue.gif","""event"",""trial"",""time""
""fullscreenenter"",""1"",""3128""
","
","
","""event"",""trial"",""time""
""fullscreenenter"",""1"",""3128""
","
","","3998.7849999997707","Finally, try pressing '8' to select the deck all the way on the right.","56","","instructions","2021-04-06 05:22:12.970","","","","","",""
"card-selection-trial","21","110853","0.0-15.0-0.0","A544","false","img/card_backs/set1/purple.gif","img/card_backs/set1/green.gif","img/card_backs/set1/red.gif","img/card_backs/set1/yellow.gif","img/card_backs/set2/pink.gif","img/card_backs/set2/orange.gif","img/card_backs/set2/gray.gif","img/card_backs/set2/blue.gif","""event"",""trial"",""time""
""fullscreenenter"",""1"",""3128""
","
","
","""event"",""trial"",""time""
""fullscreenenter"",""1"",""3128""
","
","","876.5749999984109","","","","practice_card_selection","2021-04-06 05:22:15.855","img/practice_cards/backs/brown.gif","3","-100","","",""
"casino-keyboard-response","22","116293","0.0-16.0-0.0","A544","false","img/card_backs/set1/purple.gif","img/card_backs/set1/green.gif","img/card_backs/set1/red.gif","img/card_backs/set1/yellow.gif","img/card_backs/set2/pink.gif","img/card_backs/set2/orange.gif","img/card_backs/set2/gray.gif","img/card_backs/set2/blue.gif","""event"",""trial"",""time""
""fullscreenenter"",""1"",""3128""
","
","
","""event"",""trial"",""time""
""fullscreenenter"",""1"",""3128""
","
","","5438.164999999572","Great! It seems like you are getting the hang of this.","80","","instructions","2021-04-06 05:22:21.295","","","","","",""
"casino-keyboard-response","23","123595","0.0-16.0-0.1","A544","false","img/card_backs/set1/purple.gif","img/card_backs/set1/green.gif","img/card_backs/set1/red.gif","img/card_backs/set1/yellow.gif","img/card_backs/set2/pink.gif","img/card_backs/set2/orange.gif","img/card_backs/set2/gray.gif","img/card_backs/set2/blue.gif","""event"",""trial"",""time""
""fullscreenenter"",""1"",""3128""
","
","
","""event"",""trial"",""time""
""fullscreenenter"",""1"",""3128""
","
","","7298.634999999194","You may have noticed that some cards will cause you to <b> win </b> tokens while other cards will cause you to <b> lose </b>  tokens.","70","","instructions","2021-04-06 05:22:28.597","","","","","",""
"casino-keyboard-response","24","131883","0.0-16.0-0.2","A544","false","img/card_backs/set1/purple.gif","img/card_backs/set1/green.gif","img/card_backs/set1/red.gif","img/card_backs/set1/yellow.gif","img/card_backs/set2/pink.gif","img/card_backs/set2/orange.gif","img/card_backs/set2/gray.gif","img/card_backs/set2/blue.gif","""event"",""trial"",""time""
""fullscreenenter"",""1"",""3128""
","
","
","""event"",""trial"",""time""
""fullscreenenter"",""1"",""3128""
","
","","8284.919999998237","Each deck has a mix of cards that will cause you to win and lose tokens. </br> However, the cards in each colored deck are different.","73","","instructions","2021-04-06 05:22:36.885","","","","","",""
"casino-keyboard-response","25","140280","0.0-16.0-0.3","A544","false","img/card_backs/set1/purple.gif","img/card_backs/set1/green.gif","img/card_backs/set1/red.gif","img/card_backs/set1/yellow.gif","img/card_backs/set2/pink.gif","img/card_backs/set2/orange.gif","img/card_backs/set2/gray.gif","img/card_backs/set2/blue.gif","""event"",""trial"",""time""
""fullscreenenter"",""1"",""3128""
","
","
","""event"",""trial"",""time""
""fullscreenenter"",""1"",""3128""
","
","","8393.765000000712","Some colored decks are luckier than others. </br> If you choose the lucky decks, you will earn more tokens than if you choose the unlucky decks.","69","","instructions","2021-04-06 05:22:45.282","","","","","",""
"casino-keyboard-response","26","147354","0.0-16.0-0.4","A544","false","img/card_backs/set1/purple.gif","img/card_backs/set1/green.gif","img/card_backs/set1/red.gif","img/card_backs/set1/yellow.gif","img/card_backs/set2/pink.gif","img/card_backs/set2/orange.gif","img/card_backs/set2/gray.gif","img/card_backs/set2/blue.gif","""event"",""trial"",""time""
""fullscreenenter"",""1"",""3128""
","
","
","""event"",""trial"",""time""
""fullscreenenter"",""1"",""3128""
","
","","7070.539999996981","You should try to figure out which decks are lucky. </br> Then, try to choose the lucky decks so you can win the most tokens.","87","","instructions","2021-04-06 05:22:52.356","","","","","",""
"casino-keyboard-response","27","158352","0.0-16.0-0.5","A544","false","img/card_backs/set1/purple.gif","img/card_backs/set1/green.gif","img/card_backs/set1/red.gif","img/card_backs/set1/yellow.gif","img/card_backs/set2/pink.gif","img/card_backs/set2/orange.gif","img/card_backs/set2/gray.gif","img/card_backs/set2/blue.gif","""event"",""trial"",""time""
""fullscreenenter"",""1"",""3128""
","
","
","""event"",""trial"",""time""
""fullscreenenter"",""1"",""3128""
","
","","10995.725000000675","To make it trickier, the casino dealer will switch the locations of the decks on every turn. </br> The color of the deck determines how lucky it is. The location does not matter.","88","","instructions","2021-04-06 05:23:03.355","","","","","",""
"casino-keyboard-response","28","167462","0.0-16.0-0.6","A544","false","img/card_backs/set1/purple.gif","img/card_backs/set1/green.gif","img/card_backs/set1/red.gif","img/card_backs/set1/yellow.gif","img/card_backs/set2/pink.gif","img/card_backs/set2/orange.gif","img/card_backs/set2/gray.gif","img/card_backs/set2/blue.gif","""event"",""trial"",""time""
""fullscreenenter"",""1"",""3128""
","
","
","""event"",""trial"",""time""
""fullscreenenter"",""1"",""3128""
","
","","9106.605000000854","The mix of cards in each colored deck will stay the same throughout the game. </br> That means that a deck that is lucky early on will stay lucky.","79","","instructions","2021-04-06 05:23:12.464","","","","","",""
"casino-keyboard-response","29","175815","0.0-16.0-0.7","A544","false","img/card_backs/set1/purple.gif","img/card_backs/set1/green.gif","img/card_backs/set1/red.gif","img/card_backs/set1/yellow.gif","img/card_backs/set2/pink.gif","img/card_backs/set2/orange.gif","img/card_backs/set2/gray.gif","img/card_backs/set2/blue.gif","""event"",""trial"",""time""
""fullscreenenter"",""1"",""3128""
","
","
","""event"",""trial"",""time""
""fullscreenenter"",""1"",""3128""
","
","","8349.524999997811","Remember though, all the decks have a <b> mix </b> of both <b> good </b> and <b> bad </b> cards so it may take a couple of turns to figure out if a deck is lucky.","69","","instructions","2021-04-06 05:23:20.817","","","","","",""
"casino-keyboard-response","30","183873","0.0-16.0-0.8","A544","false","img/card_backs/set1/purple.gif","img/card_backs/set1/green.gif","img/card_backs/set1/red.gif","img/card_backs/set1/yellow.gif","img/card_backs/set2/pink.gif","img/card_backs/set2/orange.gif","img/card_backs/set2/gray.gif","img/card_backs/set2/blue.gif","""event"",""trial"",""time""
""fullscreenenter"",""1"",""3128""
","
","
","""event"",""trial"",""time""
""fullscreenenter"",""1"",""3128""
","
","","8054.919999998674","At the end of the game, you will be paid bonus money based on how many tokens you win. </br> If you win more tokens, you will earn more money!","72","","instructions","2021-04-06 05:23:28.875","","","","","",""
"casino-keyboard-response","31","193843","0.0-16.0-0.9","A544","false","img/card_backs/set1/purple.gif","img/card_backs/set1/green.gif","img/card_backs/set1/red.gif","img/card_backs/set1/yellow.gif","img/card_backs/set2/pink.gif","img/card_backs/set2/orange.gif","img/card_backs/set2/gray.gif","img/card_backs/set2/blue.gif","""event"",""trial"",""time""
""fullscreenenter"",""1"",""3128""
","
","
","""event"",""trial"",""time""
""fullscreenenter"",""1"",""3128""
","
","","9966.899999999441","You will never <b> lose </b> money. </br> If you end up with fewer than 0 tokens, you will earn $0 of bonus money, but you will still be paid for playing the game.","83","","instructions","2021-04-06 05:23:38.846","","","","","",""
"casino-keyboard-response","32","198934","0.0-16.0-0.10","A544","false","img/card_backs/set1/purple.gif","img/card_backs/set1/green.gif","img/card_backs/set1/red.gif","img/card_backs/set1/yellow.gif","img/card_backs/set2/pink.gif","img/card_backs/set2/orange.gif","img/card_backs/set2/gray.gif","img/card_backs/set2/blue.gif","""event"",""trial"",""time""
""fullscreenenter"",""1"",""3128""
","
","
","""event"",""trial"",""time""
""fullscreenenter"",""1"",""3128""
","
","","5085.644999999204","You will have 10 seconds to make each choice.","82","","instructions","2021-04-06 05:23:43.936","","","","","",""
"casino-keyboard-response","33","207106","0.0-16.0-0.11","A544","false","img/card_backs/set1/purple.gif","img/card_backs/set1/green.gif","img/card_backs/set1/red.gif","img/card_backs/set1/yellow.gif","img/card_backs/set2/pink.gif","img/card_backs/set2/orange.gif","img/card_backs/set2/gray.gif","img/card_backs/set2/blue.gif","""event"",""trial"",""time""
""fullscreenenter"",""1"",""3128""
","
","
","""event"",""trial"",""time""
""fullscreenenter"",""1"",""3128""
","
","","8168.665000001056","Before you play the game for real, you will play with practice decks. </br> The tokens you earn during practice won't count toward your total.","86","","instructions","2021-04-06 05:23:52.108","","","","","",""
"casino-keyboard-response","34","217881","0.0-16.0-0.12","A544","false","img/card_backs/set1/purple.gif","img/card_backs/set1/green.gif","img/card_backs/set1/red.gif","img/card_backs/set1/yellow.gif","img/card_backs/set2/pink.gif","img/card_backs/set2/orange.gif","img/card_backs/set2/gray.gif","img/card_backs/set2/blue.gif","""event"",""trial"",""time""
""fullscreenenter"",""1"",""3128""
","
","
","""event"",""trial"",""time""
""fullscreenenter"",""1"",""3128""
","
","","10772.275000002992","Ready? Remember, use the '2', '4', '6', and '8' keys to select the decks. </br> Put your fingers on those keys now and then press '2' to begin.","50","","instructions","2021-04-06 05:24:02.883","","","","","",""
"casino-fixation","35","218384","0.0-17.0-0.0","A544","false","img/card_backs/set1/purple.gif","img/card_backs/set1/green.gif","img/card_backs/set1/red.gif","img/card_backs/set1/yellow.gif","img/card_backs/set2/pink.gif","img/card_backs/set2/orange.gif","img/card_backs/set2/gray.gif","img/card_backs/set2/blue.gif","""event"",""trial"",""time""
""fullscreenenter"",""1"",""3128""
","
","
","""event"",""trial"",""time""
""fullscreenenter"",""1"",""3128""
","
","","null","","null","","fixation","2021-04-06 05:24:03.387","","","","","",""
"card-selection-trial","36","221198","0.0-17.0-1.0","A544","false","img/card_backs/set1/purple.gif","img/card_backs/set1/green.gif","img/card_backs/set1/red.gif","img/card_backs/set1/yellow.gif","img/card_backs/set2/pink.gif","img/card_backs/set2/orange.gif","img/card_backs/set2/gray.gif","img/card_backs/set2/blue.gif","""event"",""trial"",""time""
""fullscreenenter"",""1"",""3128""
","
","
","""event"",""trial"",""time""
""fullscreenenter"",""1"",""3128""
","
","","806.7300000002433","","","","practice","2021-04-06 05:24:06.200","img/practice_cards/backs/dark_green.gif","2","200","0","",""
"casino-fixation","37","221700","0.0-17.0-0.1","A544","false","img/card_backs/set1/purple.gif","img/card_backs/set1/green.gif","img/card_backs/set1/red.gif","img/card_backs/set1/yellow.gif","img/card_backs/set2/pink.gif","img/card_backs/set2/orange.gif","img/card_backs/set2/gray.gif","img/card_backs/set2/blue.gif","""event"",""trial"",""time""
""fullscreenenter"",""1"",""3128""
","
","
","""event"",""trial"",""time""
""fullscreenenter"",""1"",""3128""
","
","","null","","null","","fixation","2021-04-06 05:24:06.702","","","","","",""
"card-selection-trial","38","224195","0.0-17.0-1.1","A544","false","img/card_backs/set1/purple.gif","img/card_backs/set1/green.gif","img/card_backs/set1/red.gif","img/card_backs/set1/yellow.gif","img/card_backs/set2/pink.gif","img/card_backs/set2/orange.gif","img/card_backs/set2/gray.gif","img/card_backs/set2/blue.gif","""event"",""trial"",""time""
""fullscreenenter"",""1"",""3128""
","
","
","""event"",""trial"",""time""
""fullscreenenter"",""1"",""3128""
","
","","487.4850000014703","","","","practice","2021-04-06 05:24:09.197","img/practice_cards/backs/dark_green.gif","2","200","0","",""
"casino-fixation","39","224697","0.0-17.0-0.2","A544","false","img/card_backs/set1/purple.gif","img/card_backs/set1/green.gif","img/card_backs/set1/red.gif","img/card_backs/set1/yellow.gif","img/card_backs/set2/pink.gif","img/card_backs/set2/orange.gif","img/card_backs/set2/gray.gif","img/card_backs/set2/blue.gif","""event"",""trial"",""time""
""fullscreenenter"",""1"",""3128""
","
","
","""event"",""trial"",""time""
""fullscreenenter"",""1"",""3128""
","
","","null","","null","","fixation","2021-04-06 05:24:09.700","","","","","",""
"card-selection-trial","40","227021","0.0-17.0-1.2","A544","false","img/card_backs/set1/purple.gif","img/card_backs/set1/green.gif","img/card_backs/set1/red.gif","img/card_backs/set1/yellow.gif","img/card_backs/set2/pink.gif","img/card_backs/set2/orange.gif","img/card_backs/set2/gray.gif","img/card_backs/set2/blue.gif","""event"",""trial"",""time""
""fullscreenenter"",""1"",""3128""
","
","
","""event"",""trial"",""time""
""fullscreenenter"",""1"",""3128""
","
","","316.30500000028405","","","","practice","2021-04-06 05:24:12.023","img/practice_cards/backs/dark_green.gif","2","-200","0","",""
"casino-fixation","41","227523","0.0-17.0-0.3","A544","false","img/card_backs/set1/purple.gif","img/card_backs/set1/green.gif","img/card_backs/set1/red.gif","img/card_backs/set1/yellow.gif","img/card_backs/set2/pink.gif","img/card_backs/set2/orange.gif","img/card_backs/set2/gray.gif","img/card_backs/set2/blue.gif","""event"",""trial"",""time""
""fullscreenenter"",""1"",""3128""
","
","
","""event"",""trial"",""time""
""fullscreenenter"",""1"",""3128""
","
","","null","","null","","fixation","2021-04-06 05:24:12.525","","","","","",""
"card-selection-trial","42","229789","0.0-17.0-1.3","A544","false","img/card_backs/set1/purple.gif","img/card_backs/set1/green.gif","img/card_backs/set1/red.gif","img/card_backs/set1/yellow.gif","img/card_backs/set2/pink.gif","img/card_backs/set2/orange.gif","img/card_backs/set2/gray.gif","img/card_backs/set2/blue.gif","""event"",""trial"",""time""
""fullscreenenter"",""1"",""3128""
","
","
","""event"",""trial"",""time""
""fullscreenenter"",""1"",""3128""
","
","","258.91499999852385","","","","practice","2021-04-06 05:24:14.791","img/practice_cards/backs/brown.gif","2","100","0","",""
"casino-fixation","43","230291","0.0-17.0-0.4","A544","false","img/card_backs/set1/purple.gif","img/card_backs/set1/green.gif","img/card_backs/set1/red.gif","img/card_backs/set1/yellow.gif","img/card_backs/set2/pink.gif","img/card_backs/set2/orange.gif","img/card_backs/set2/gray.gif","img/card_backs/set2/blue.gif","""event"",""trial"",""time""
""fullscreenenter"",""1"",""3128""
","
","
","""event"",""trial"",""time""
""fullscreenenter"",""1"",""3128""
","
","","null","","null","","fixation","2021-04-06 05:24:15.293","","","","","",""
"card-selection-trial","44","232783","0.0-17.0-1.4","A544","false","img/card_backs/set1/purple.gif","img/card_backs/set1/green.gif","img/card_backs/set1/red.gif","img/card_backs/set1/yellow.gif","img/card_backs/set2/pink.gif","img/card_backs/set2/orange.gif","img/card_backs/set2/gray.gif","img/card_backs/set2/blue.gif","""event"",""trial"",""time""
""fullscreenenter"",""1"",""3128""
","
","
","""event"",""trial"",""time""
""fullscreenenter"",""1"",""3128""
","
","","485.7450000017707","","","","practice","2021-04-06 05:24:17.786","img/practice_cards/backs/dark_green.gif","3","-200","0","",""
"casino-fixation","45","233285","0.0-17.0-0.5","A544","false","img/card_backs/set1/purple.gif","img/card_backs/set1/green.gif","img/card_backs/set1/red.gif","img/card_backs/set1/yellow.gif","img/card_backs/set2/pink.gif","img/card_backs/set2/orange.gif","img/card_backs/set2/gray.gif","img/card_backs/set2/blue.gif","""event"",""trial"",""time""
""fullscreenenter"",""1"",""3128""
","
","
","""event"",""trial"",""time""
""fullscreenenter"",""1"",""3128""
","
","","null","","null","","fixation","2021-04-06 05:24:18.288","","","","","",""
"card-selection-trial","46","236533","0.0-17.0-1.5","A544","false","img/card_backs/set1/purple.gif","img/card_backs/set1/green.gif","img/card_backs/set1/red.gif","img/card_backs/set1/yellow.gif","img/card_backs/set2/pink.gif","img/card_backs/set2/orange.gif","img/card_backs/set2/gray.gif","img/card_backs/set2/blue.gif","""event"",""trial"",""time""
""fullscreenenter"",""1"",""3128""
","
","
","""event"",""trial"",""time""
""fullscreenenter"",""1"",""3128""
","
","","1238.905000001978","","","","practice","2021-04-06 05:24:21.535","img/practice_cards/backs/dark_green.gif","1","200","0","",""
"casino-fixation","47","237036","0.0-17.0-0.6","A544","false","img/card_backs/set1/purple.gif","img/card_backs/set1/green.gif","img/card_backs/set1/red.gif","img/card_backs/set1/yellow.gif","img/card_backs/set2/pink.gif","img/card_backs/set2/orange.gif","img/card_backs/set2/gray.gif","img/card_backs/set2/blue.gif","""event"",""trial"",""time""
""fullscreenenter"",""1"",""3128""
","
","
","""event"",""trial"",""time""
""fullscreenenter"",""1"",""3128""
","
","","null","","null","","fixation","2021-04-06 05:24:22.038","","","","","",""
"card-selection-trial","48","239633","0.0-17.0-1.6","A544","false","img/card_backs/set1/purple.gif","img/card_backs/set1/green.gif","img/card_backs/set1/red.gif","img/card_backs/set1/yellow.gif","img/card_backs/set2/pink.gif","img/card_backs/set2/orange.gif","img/card_backs/set2/gray.gif","img/card_backs/set2/blue.gif","""event"",""trial"",""time""
""fullscreenenter"",""1"",""3128""
","
","
","""event"",""trial"",""time""
""fullscreenenter"",""1"",""3128""
","
","","591.2950000019919","","","","practice","2021-04-06 05:24:24.636","img/practice_cards/backs/brown.gif","3","-100","0","",""
"casino-fixation","49","240135","0.0-17.0-0.7","A544","false","img/card_backs/set1/purple.gif","img/card_backs/set1/green.gif","img/card_backs/set1/red.gif","img/card_backs/set1/yellow.gif","img/card_backs/set2/pink.gif","img/card_backs/set2/orange.gif","img/card_backs/set2/gray.gif","img/card_backs/set2/blue.gif","""event"",""trial"",""time""
""fullscreenenter"",""1"",""3128""
","
","
","""event"",""trial"",""time""
""fullscreenenter"",""1"",""3128""
","
","","null","","null","","fixation","2021-04-06 05:24:25.137","","","","","",""
"card-selection-trial","50","242997","0.0-17.0-1.7","A544","false","img/card_backs/set1/purple.gif","img/card_backs/set1/green.gif","img/card_backs/set1/red.gif","img/card_backs/set1/yellow.gif","img/card_backs/set2/pink.gif","img/card_backs/set2/orange.gif","img/card_backs/set2/gray.gif","img/card_backs/set2/blue.gif","""event"",""trial"",""time""
""fullscreenenter"",""1"",""3128""
","
","
","""event"",""trial"",""time""
""fullscreenenter"",""1"",""3128""
","
","","854.7599999983504","","","","practice","2021-04-06 05:24:27.999","img/practice_cards/backs/dark_green.gif","0","-200","0","",""
"casino-fixation","51","243499","0.0-17.0-0.8","A544","false","img/card_backs/set1/purple.gif","img/card_backs/set1/green.gif","img/card_backs/set1/red.gif","img/card_backs/set1/yellow.gif","img/card_backs/set2/pink.gif","img/card_backs/set2/orange.gif","img/card_backs/set2/gray.gif","img/card_backs/set2/blue.gif","""event"",""trial"",""time""
""fullscreenenter"",""1"",""3128""
","
","
","""event"",""trial"",""time""
""fullscreenenter"",""1"",""3128""
","
","","null","","null","","fixation","2021-04-06 05:24:28.501","","","","","",""
"card-selection-trial","52","246283","0.0-17.0-1.8","A544","false","img/card_backs/set1/purple.gif","img/card_backs/set1/green.gif","img/card_backs/set1/red.gif","img/card_backs/set1/yellow.gif","img/card_backs/set2/pink.gif","img/card_backs/set2/orange.gif","img/card_backs/set2/gray.gif","img/card_backs/set2/blue.gif","""event"",""trial"",""time""
""fullscreenenter"",""1"",""3128""
","
","
","""event"",""trial"",""time""
""fullscreenenter"",""1"",""3128""
","
","","777.6649999977963","","","","practice","2021-04-06 05:24:31.286","img/practice_cards/backs/black.gif","0","100","0","",""
"casino-fixation","53","246786","0.0-17.0-0.9","A544","false","img/card_backs/set1/purple.gif","img/card_backs/set1/green.gif","img/card_backs/set1/red.gif","img/card_backs/set1/yellow.gif","img/card_backs/set2/pink.gif","img/card_backs/set2/orange.gif","img/card_backs/set2/gray.gif","img/card_backs/set2/blue.gif","""event"",""trial"",""time""
""fullscreenenter"",""1"",""3128""
","
","
","""event"",""trial"",""time""
""fullscreenenter"",""1"",""3128""
","
","","null","","null","","fixation","2021-04-06 05:24:31.788","","","","","",""
"card-selection-trial","54","249749","0.0-17.0-1.9","A544","false","img/card_backs/set1/purple.gif","img/card_backs/set1/green.gif","img/card_backs/set1/red.gif","img/card_backs/set1/yellow.gif","img/card_backs/set2/pink.gif","img/card_backs/set2/orange.gif","img/card_backs/set2/gray.gif","img/card_backs/set2/blue.gif","""event"",""trial"",""time""
""fullscreenenter"",""1"",""3128""
","
","
","""event"",""trial"",""time""
""fullscreenenter"",""1"",""3128""
","
","","957.3600000003353","","","","practice","2021-04-06 05:24:34.752","img/practice_cards/backs/black.gif","2","100","0","",""
"casino-keyboard-response","55","252321","0.0-18.0","A544","false","img/card_backs/set1/purple.gif","img/card_backs/set1/green.gif","img/card_backs/set1/red.gif","img/card_backs/set1/yellow.gif","img/card_backs/set2/pink.gif","img/card_backs/set2/orange.gif","img/card_backs/set2/gray.gif","img/card_backs/set2/blue.gif","""event"",""trial"",""time""
""fullscreenenter"",""1"",""3128""
","
","
","""event"",""trial"",""time""
""fullscreenenter"",""1"",""3128""
","
","","2570.060000001831","You earned 200 tokens during the practice round!","82","","","2021-04-06 05:24:37.324","","","","","",""
"casino-keyboard-response","56","256406","0.0-19.0-0.0","A544","false","img/card_backs/set1/purple.gif","img/card_backs/set1/green.gif","img/card_backs/set1/red.gif","img/card_backs/set1/yellow.gif","img/card_backs/set2/pink.gif","img/card_backs/set2/orange.gif","img/card_backs/set2/gray.gif","img/card_backs/set2/blue.gif","""event"",""trial"",""time""
""fullscreenenter"",""1"",""3128""
","
","
","""event"",""trial"",""time""
""fullscreenenter"",""1"",""3128""
","
","","4081.654999998136","Nice job! You are almost ready to play the real game.","86","","instructions","2021-04-06 05:24:41.408","","","","","",""
"casino-keyboard-response","57","262718","0.0-19.0-0.1","A544","false","img/card_backs/set1/purple.gif","img/card_backs/set1/green.gif","img/card_backs/set1/red.gif","img/card_backs/set1/yellow.gif","img/card_backs/set2/pink.gif","img/card_backs/set2/orange.gif","img/card_backs/set2/gray.gif","img/card_backs/set2/blue.gif","""event"",""trial"",""time""
""fullscreenenter"",""1"",""3128""
","
","
","""event"",""trial"",""time""
""fullscreenenter"",""1"",""3128""
","
","","6309.00499999919","You will play two rounds of the real game. In each round, you will pick 100 cards in total.","73","","instructions","2021-04-06 05:24:47.720","","","","","",""
"casino-keyboard-response","58","266646","0.0-19.0-0.2","A544","false","img/card_backs/set1/purple.gif","img/card_backs/set1/green.gif","img/card_backs/set1/red.gif","img/card_backs/set1/yellow.gif","img/card_backs/set2/pink.gif","img/card_backs/set2/orange.gif","img/card_backs/set2/gray.gif","img/card_backs/set2/blue.gif","""event"",""trial"",""time""
""fullscreenenter"",""1"",""3128""
","
","
","""event"",""trial"",""time""
""fullscreenenter"",""1"",""3128""
","
","","3925.005000000994","We are now going to ask you some questions about how the game works.","66","","instructions","2021-04-06 05:24:51.648","","","","","",""
"casino-keyboard-response","59","272551","0.0-19.0-0.3","A544","false","img/card_backs/set1/purple.gif","img/card_backs/set1/green.gif","img/card_backs/set1/red.gif","img/card_backs/set1/yellow.gif","img/card_backs/set2/pink.gif","img/card_backs/set2/orange.gif","img/card_backs/set2/gray.gif","img/card_backs/set2/blue.gif","""event"",""trial"",""time""
""fullscreenenter"",""1"",""3128""
","
","
","""event"",""trial"",""time""
""fullscreenenter"",""1"",""3128""
","
","","5902.354999998352","Answer carefully. You will not be able to begin the game until you answer them correctly.","67","","instructions","2021-04-06 05:24:57.553","","","","","",""
"casino-comp_q","60","278678","0.0-20.0-0.0","A544","false","img/card_backs/set1/purple.gif","img/card_backs/set1/green.gif","img/card_backs/set1/red.gif","img/card_backs/set1/yellow.gif","img/card_backs/set2/pink.gif","img/card_backs/set2/orange.gif","img/card_backs/set2/gray.gif","img/card_backs/set2/blue.gif","""event"",""trial"",""time""
""fullscreenenter"",""1"",""3128""
","
","
","""event"",""trial"",""time""
""fullscreenenter"",""1"",""3128""
","
","","6123.554999998305","True or False: All the decks have some cards that cause you to win tokens and some cards that cause you to lose tokens.","84","","","2021-04-06 05:25:03.681","","","","","",""
"casino-keyboard-response","61","284916","0.0-20.0-1.0","A544","false","img/card_backs/set1/purple.gif","img/card_backs/set1/green.gif","img/card_backs/set1/red.gif","img/card_backs/set1/yellow.gif","img/card_backs/set2/pink.gif","img/card_backs/set2/orange.gif","img/card_backs/set2/gray.gif","img/card_backs/set2/blue.gif","""event"",""trial"",""time""
""fullscreenenter"",""1"",""3128""
","
","
","""event"",""trial"",""time""
""fullscreenenter"",""1"",""3128""
","
","","6234.06999999861","True is correct! All the decks have a mix of winning and losing cards.","77","","","2021-04-06 05:25:09.918","","","","","true",""
"casino-comp_q","62","288074","0.0-21.0-0.0","A544","false","img/card_backs/set1/purple.gif","img/card_backs/set1/green.gif","img/card_backs/set1/red.gif","img/card_backs/set1/yellow.gif","img/card_backs/set2/pink.gif","img/card_backs/set2/orange.gif","img/card_backs/set2/gray.gif","img/card_backs/set2/blue.gif","""event"",""trial"",""time""
""fullscreenenter"",""1"",""3128""
","
","
","""event"",""trial"",""time""
""fullscreenenter"",""1"",""3128""
","
","","3152.794999998121","True or False: You will have as much time as you want to make your response.","70","","","2021-04-06 05:25:13.076","","","","","",""
"casino-keyboard-response","63","291339","0.0-21.0-1.0","A544","false","img/card_backs/set1/purple.gif","img/card_backs/set1/green.gif","img/card_backs/set1/red.gif","img/card_backs/set1/yellow.gif","img/card_backs/set2/pink.gif","img/card_backs/set2/orange.gif","img/card_backs/set2/gray.gif","img/card_backs/set2/blue.gif","""event"",""trial"",""time""
""fullscreenenter"",""1"",""3128""
","
","
","""event"",""trial"",""time""
""fullscreenenter"",""1"",""3128""
","
","","3262.5650000008754","False is correct! You will only have 10 seconds to make each choice.","75","","","2021-04-06 05:25:16.342","","","","","true",""
"casino-comp_q","64","294124","0.0-22.0-0.0","A544","false","img/card_backs/set1/purple.gif","img/card_backs/set1/green.gif","img/card_backs/set1/red.gif","img/card_backs/set1/yellow.gif","img/card_backs/set2/pink.gif","img/card_backs/set2/orange.gif","img/card_backs/set2/gray.gif","img/card_backs/set2/blue.gif","""event"",""trial"",""time""
""fullscreenenter"",""1"",""3128""
","
","
","""event"",""trial"",""time""
""fullscreenenter"",""1"",""3128""
","
","","2781.904999999795","True or False: The location of the deck determines how lucky it is.","70","","","2021-04-06 05:25:19.126","","","","","",""
"casino-keyboard-response","65","297707","0.0-22.0-1.0","A544","false","img/card_backs/set1/purple.gif","img/card_backs/set1/green.gif","img/card_backs/set1/red.gif","img/card_backs/set1/yellow.gif","img/card_backs/set2/pink.gif","img/card_backs/set2/orange.gif","img/card_backs/set2/gray.gif","img/card_backs/set2/blue.gif","""event"",""trial"",""time""
""fullscreenenter"",""1"",""3128""
","
","
","""event"",""trial"",""time""
""fullscreenenter"",""1"",""3128""
","
","","3580.5199999994948","False is correct! The <i>color</i>  of the deck determines how lucky or unlucky it is.","68","","","2021-04-06 05:25:22.709","","","","","true",""
"casino-keyboard-response","66","301952","0.0-23.0-0.0","A544","false","img/card_backs/set1/purple.gif","img/card_backs/set1/green.gif","img/card_backs/set1/red.gif","img/card_backs/set1/yellow.gif","img/card_backs/set2/pink.gif","img/card_backs/set2/orange.gif","img/card_backs/set2/gray.gif","img/card_backs/set2/blue.gif","""event"",""trial"",""time""
""fullscreenenter"",""1"",""3128""
","
","
","""event"",""trial"",""time""
""fullscreenenter"",""1"",""3128""
","
","","4243.259999999311","Great job! Now it's time to start the real game.","82","","instructions","2021-04-06 05:25:26.954","","","","","",""
"casino-keyboard-response","67","306880","0.0-23.0-0.1","A544","false","img/card_backs/set1/purple.gif","img/card_backs/set1/green.gif","img/card_backs/set1/red.gif","img/card_backs/set1/yellow.gif","img/card_backs/set2/pink.gif","img/card_backs/set2/orange.gif","img/card_backs/set2/gray.gif","img/card_backs/set2/blue.gif","""event"",""trial"",""time""
""fullscreenenter"",""1"",""3128""
","
","
","""event"",""trial"",""time""
""fullscreenenter"",""1"",""3128""
","
","","4924.744999996619","Before we start, we're going to head into a new room of the casino.","86","","instructions","2021-04-06 05:25:31.882","","","","","",""
"casino-keyboard-response","68","313337","0.0-24.0-0.0","A544","false","img/card_backs/set1/purple.gif","img/card_backs/set1/green.gif","img/card_backs/set1/red.gif","img/card_backs/set1/yellow.gif","img/card_backs/set2/pink.gif","img/card_backs/set2/orange.gif","img/card_backs/set2/gray.gif","img/card_backs/set2/blue.gif","""event"",""trial"",""time""
""fullscreenenter"",""1"",""3128""
","
","
","""event"",""trial"",""time""
""fullscreenenter"",""1"",""3128""
","
","","6454.059999999998","Here we are! The real game will use different cards, but the rules will be the same.","71","","instructions","2021-04-06 05:25:38.339","","","","","",""
"casino-keyboard-response","69","317161","0.0-24.0-0.1","A544","false","img/card_backs/set1/purple.gif","img/card_backs/set1/green.gif","img/card_backs/set1/red.gif","img/card_backs/set1/yellow.gif","img/card_backs/set2/pink.gif","img/card_backs/set2/orange.gif","img/card_backs/set2/gray.gif","img/card_backs/set2/blue.gif","""event"",""trial"",""time""
""fullscreenenter"",""1"",""3128""
","
","
","""event"",""trial"",""time""
""fullscreenenter"",""1"",""3128""
","
","","3822.759999999136","Ready? Put your fingers over the '2', '4', 6', and '8' keys so you are ready to play the game. </br> Then press 2 to start.","50","","instructions","2021-04-06 05:25:42.163","","","","","",""
"casino-fixation","70","317663","0.0-25.0-0.0","A544","false","img/card_backs/set1/purple.gif","img/card_backs/set1/green.gif","img/card_backs/set1/red.gif","img/card_backs/set1/yellow.gif","img/card_backs/set2/pink.gif","img/card_backs/set2/orange.gif","img/card_backs/set2/gray.gif","img/card_backs/set2/blue.gif","""event"",""trial"",""time""
""fullscreenenter"",""1"",""3128""
","
","
","""event"",""trial"",""time""
""fullscreenenter"",""1"",""3128""
","
","","null","","null","","fixation","2021-04-06 05:25:42.665","","","","","",""
"card-selection-trial","71","320662","0.0-25.0-1.0","A544","false","img/card_backs/set1/purple.gif","img/card_backs/set1/green.gif","img/card_backs/set1/red.gif","img/card_backs/set1/yellow.gif","img/card_backs/set2/pink.gif","img/card_backs/set2/orange.gif","img/card_backs/set2/gray.gif","img/card_backs/set2/blue.gif","""event"",""trial"",""time""
""fullscreenenter"",""1"",""3128""
","
","
","""event"",""trial"",""time""
""fullscreenenter"",""1"",""3128""
","
","","992.3400000006659","","","","real_trial","2021-04-06 05:25:45.664","img/card_backs/set1/yellow.gif","2","110","1","",""
"casino-fixation","72","321165","0.0-25.0-0.1","A544","false","img/card_backs/set1/purple.gif","img/card_backs/set1/green.gif","img/card_backs/set1/red.gif","img/card_backs/set1/yellow.gif","img/card_backs/set2/pink.gif","img/card_backs/set2/orange.gif","img/card_backs/set2/gray.gif","img/card_backs/set2/blue.gif","""event"",""trial"",""time""
""fullscreenenter"",""1"",""3128""
","
","
","""event"",""trial"",""time""
""fullscreenenter"",""1"",""3128""
","
","","null","","null","","fixation","2021-04-06 05:25:46.167","","","","","",""
"card-selection-trial","73","323835","0.0-25.0-1.1","A544","false","img/card_backs/set1/purple.gif","img/card_backs/set1/green.gif","img/card_backs/set1/red.gif","img/card_backs/set1/yellow.gif","img/card_backs/set2/pink.gif","img/card_backs/set2/orange.gif","img/card_backs/set2/gray.gif","img/card_backs/set2/blue.gif","""event"",""trial"",""time""
""fullscreenenter"",""1"",""3128""
","
","
","""event"",""trial"",""time""
""fullscreenenter"",""1"",""3128""
","
","","665.9550000004238","","","","real_trial","2021-04-06 05:25:48.837","img/card_backs/set1/yellow.gif","0","110","1","",""
"casino-fixation","74","324337","0.0-25.0-0.2","A544","false","img/card_backs/set1/purple.gif","img/card_backs/set1/green.gif","img/card_backs/set1/red.gif","img/card_backs/set1/yellow.gif","img/card_backs/set2/pink.gif","img/card_backs/set2/orange.gif","img/card_backs/set2/gray.gif","img/card_backs/set2/blue.gif","""event"",""trial"",""time""
""fullscreenenter"",""1"",""3128""
","
","
","""event"",""trial"",""time""
""fullscreenenter"",""1"",""3128""
","
","","null","","null","","fixation","2021-04-06 05:25:49.339","","","","","",""
"card-selection-trial","75","327214","0.0-25.0-1.2","A544","false","img/card_backs/set1/purple.gif","img/card_backs/set1/green.gif","img/card_backs/set1/red.gif","img/card_backs/set1/yellow.gif","img/card_backs/set2/pink.gif","img/card_backs/set2/orange.gif","img/card_backs/set2/gray.gif","img/card_backs/set2/blue.gif","""event"",""trial"",""time""
""fullscreenenter"",""1"",""3128""
","
","
","""event"",""trial"",""time""
""fullscreenenter"",""1"",""3128""
","
","","869.8299999996088","","","","real_trial","2021-04-06 05:25:52.216","img/card_backs/set1/yellow.gif","3","-50","1","",""
"casino-fixation","76","327716","0.0-25.0-0.3","A544","false","img/card_backs/set1/purple.gif","img/card_backs/set1/green.gif","img/card_backs/set1/red.gif","img/card_backs/set1/yellow.gif","img/card_backs/set2/pink.gif","img/card_backs/set2/orange.gif","img/card_backs/set2/gray.gif","img/card_backs/set2/blue.gif","""event"",""trial"",""time""
""fullscreenenter"",""1"",""3128""
","
","
","""event"",""trial"",""time""
""fullscreenenter"",""1"",""3128""
","
","","null","","null","","fixation","2021-04-06 05:25:52.718","","","","","",""
"card-selection-trial","77","330483","0.0-25.0-1.3","A544","false","img/card_backs/set1/purple.gif","img/card_backs/set1/green.gif","img/card_backs/set1/red.gif","img/card_backs/set1/yellow.gif","img/card_backs/set2/pink.gif","img/card_backs/set2/orange.gif","img/card_backs/set2/gray.gif","img/card_backs/set2/blue.gif","""event"",""trial"",""time""
""fullscreenenter"",""1"",""3128""
","
","
","""event"",""trial"",""time""
""fullscreenenter"",""1"",""3128""
","
","","760.7700000007753","","","","real_trial","2021-04-06 05:25:55.486","img/card_backs/set1/green.gif","1","-230","1","",""
"casino-fixation","78","330986","0.0-25.0-0.4","A544","false","img/card_backs/set1/purple.gif","img/card_backs/set1/green.gif","img/card_backs/set1/red.gif","img/card_backs/set1/yellow.gif","img/card_backs/set2/pink.gif","img/card_backs/set2/orange.gif","img/card_backs/set2/gray.gif","img/card_backs/set2/blue.gif","""event"",""trial"",""time""
""fullscreenenter"",""1"",""3128""
","
","
","""event"",""trial"",""time""
""fullscreenenter"",""1"",""3128""
","
","","null","","null","","fixation","2021-04-06 05:25:55.988","","","","","",""
"card-selection-trial","79","333671","0.0-25.0-1.4","A544","false","img/card_backs/set1/purple.gif","img/card_backs/set1/green.gif","img/card_backs/set1/red.gif","img/card_backs/set1/yellow.gif","img/card_backs/set2/pink.gif","img/card_backs/set2/orange.gif","img/card_backs/set2/gray.gif","img/card_backs/set2/blue.gif","""event"",""trial"",""time""
""fullscreenenter"",""1"",""3128""
","
","
","""event"",""trial"",""time""
""fullscreenenter"",""1"",""3128""
","
","","678.2749999983935","","","","real_trial","2021-04-06 05:25:58.673","img/card_backs/set1/red.gif","3","-50","1","",""
"casino-fixation","80","334173","0.0-25.0-0.5","A544","false","img/card_backs/set1/purple.gif","img/card_backs/set1/green.gif","img/card_backs/set1/red.gif","img/card_backs/set1/yellow.gif","img/card_backs/set2/pink.gif","img/card_backs/set2/orange.gif","img/card_backs/set2/gray.gif","img/card_backs/set2/blue.gif","""event"",""trial"",""time""
""fullscreenenter"",""1"",""3128""
","
","
","""event"",""trial"",""time""
""fullscreenenter"",""1"",""3128""
","
","","null","","null","","fixation","2021-04-06 05:25:59.175","","","","","",""
"card-selection-trial","81","337177","0.0-25.0-1.5","A544","false","img/card_backs/set1/purple.gif","img/card_backs/set1/green.gif","img/card_backs/set1/red.gif","img/card_backs/set1/yellow.gif","img/card_backs/set2/pink.gif","img/card_backs/set2/orange.gif","img/card_backs/set2/gray.gif","img/card_backs/set2/blue.gif","""event"",""trial"",""time""
""fullscreenenter"",""1"",""3128""
","
","
","""event"",""trial"",""time""
""fullscreenenter"",""1"",""3128""
","
","","997.9000000021188","","","","real_trial","2021-04-06 05:26:02.179","img/card_backs/set1/green.gif","1","180","1","",""
"casino-fixation","82","337678","0.0-25.0-0.6","A544","false","img/card_backs/set1/purple.gif","img/card_backs/set1/green.gif","img/card_backs/set1/red.gif","img/card_backs/set1/yellow.gif","img/card_backs/set2/pink.gif","img/card_backs/set2/orange.gif","img/card_backs/set2/gray.gif","img/card_backs/set2/blue.gif","""event"",""trial"",""time""
""fullscreenenter"",""1"",""3128""
","
","
","""event"",""trial"",""time""
""fullscreenenter"",""1"",""3128""
","
","","null","","null","","fixation","2021-04-06 05:26:02.681","","","","","",""
"card-selection-trial","83","340305","0.0-25.0-1.6","A544","false","img/card_backs/set1/purple.gif","img/card_backs/set1/green.gif","img/card_backs/set1/red.gif","img/card_backs/set1/yellow.gif","img/card_backs/set2/pink.gif","img/card_backs/set2/orange.gif","img/card_backs/set2/gray.gif","img/card_backs/set2/blue.gif","""event"",""trial"",""time""
""fullscreenenter"",""1"",""3128""
","
","
","""event"",""trial"",""time""
""fullscreenenter"",""1"",""3128""
","
","","621.2750000013621","","","","real_trial","2021-04-06 05:26:05.307","img/card_backs/set1/green.gif","1","200","1","",""
"casino-fixation","84","340808","0.0-25.0-0.7","A544","false","img/card_backs/set1/purple.gif","img/card_backs/set1/green.gif","img/card_backs/set1/red.gif","img/card_backs/set1/yellow.gif","img/card_backs/set2/pink.gif","img/card_backs/set2/orange.gif","img/card_backs/set2/gray.gif","img/card_backs/set2/blue.gif","""event"",""trial"",""time""
""fullscreenenter"",""1"",""3128""
","
","
","""event"",""trial"",""time""
""fullscreenenter"",""1"",""3128""
","
","","null","","null","","fixation","2021-04-06 05:26:05.810","","","","","",""
"card-selection-trial","85","343192","0.0-25.0-1.7","A544","false","img/card_backs/set1/purple.gif","img/card_backs/set1/green.gif","img/card_backs/set1/red.gif","img/card_backs/set1/yellow.gif","img/card_backs/set2/pink.gif","img/card_backs/set2/orange.gif","img/card_backs/set2/gray.gif","img/card_backs/set2/blue.gif","""event"",""trial"",""time""
""fullscreenenter"",""1"",""3128""
","
","
","""event"",""trial"",""time""
""fullscreenenter"",""1"",""3128""
","
","","378.75999999960186","","","","real_trial","2021-04-06 05:26:08.194","img/card_backs/set1/green.gif","1","-240","1","",""
"casino-fixation","86","343694","0.0-25.0-0.8","A544","false","img/card_backs/set1/purple.gif","img/card_backs/set1/green.gif","img/card_backs/set1/red.gif","img/card_backs/set1/yellow.gif","img/card_backs/set2/pink.gif","img/card_backs/set2/orange.gif","img/card_backs/set2/gray.gif","img/card_backs/set2/blue.gif","""event"",""trial"",""time""
""fullscreenenter"",""1"",""3128""
","
","
","""event"",""trial"",""time""
""fullscreenenter"",""1"",""3128""
","
","","null","","null","","fixation","2021-04-06 05:26:08.696","","","","","",""
"card-selection-trial","87","346673","0.0-25.0-1.8","A544","false","img/card_backs/set1/purple.gif","img/card_backs/set1/green.gif","img/card_backs/set1/red.gif","img/card_backs/set1/yellow.gif","img/card_backs/set2/pink.gif","img/card_backs/set2/orange.gif","img/card_backs/set2/gray.gif","img/card_backs/set2/blue.gif","""event"",""trial"",""time""
""fullscreenenter"",""1"",""3128""
","
","
","""event"",""trial"",""time""
""fullscreenenter"",""1"",""3128""
","
","","973.3149999993038","","","","real_trial","2021-04-06 05:26:11.675","img/card_backs/set1/green.gif","2","190","1","",""
"casino-fixation","88","347176","0.0-25.0-0.9","A544","false","img/card_backs/set1/purple.gif","img/card_backs/set1/green.gif","img/card_backs/set1/red.gif","img/card_backs/set1/yellow.gif","img/card_backs/set2/pink.gif","img/card_backs/set2/orange.gif","img/card_backs/set2/gray.gif","img/card_backs/set2/blue.gif","""event"",""trial"",""time""
""fullscreenenter"",""1"",""3128""
","
","
","""event"",""trial"",""time""
""fullscreenenter"",""1"",""3128""
","
","","null","","null","","fixation","2021-04-06 05:26:12.178","","","","","",""
"card-selection-trial","89","349916","0.0-25.0-1.9","A544","false","img/card_backs/set1/purple.gif","img/card_backs/set1/green.gif","img/card_backs/set1/red.gif","img/card_backs/set1/yellow.gif","img/card_backs/set2/pink.gif","img/card_backs/set2/orange.gif","img/card_backs/set2/gray.gif","img/card_backs/set2/blue.gif","""event"",""trial"",""time""
""fullscreenenter"",""1"",""3128""
","
","
","""event"",""trial"",""time""
""fullscreenenter"",""1"",""3128""
","
","","733.6950000026263","","","","real_trial","2021-04-06 05:26:14.918","img/card_backs/set1/green.gif","1","180","1","",""
"casino-fixation","90","350419","0.0-25.0-0.10","A544","false","img/card_backs/set1/purple.gif","img/card_backs/set1/green.gif","img/card_backs/set1/red.gif","img/card_backs/set1/yellow.gif","img/card_backs/set2/pink.gif","img/card_backs/set2/orange.gif","img/card_backs/set2/gray.gif","img/card_backs/set2/blue.gif","""event"",""trial"",""time""
""fullscreenenter"",""1"",""3128""
","
","
","""event"",""trial"",""time""
""fullscreenenter"",""1"",""3128""
","
","","null","","null","","fixation","2021-04-06 05:26:15.421","","","","","",""
"card-selection-trial","91","353076","0.0-25.0-1.10","A544","false","img/card_backs/set1/purple.gif","img/card_backs/set1/green.gif","img/card_backs/set1/red.gif","img/card_backs/set1/yellow.gif","img/card_backs/set2/pink.gif","img/card_backs/set2/orange.gif","img/card_backs/set2/gray.gif","img/card_backs/set2/blue.gif","""event"",""trial"",""time""
""fullscreenenter"",""1"",""3128""
","
","
","""event"",""trial"",""time""
""fullscreenenter"",""1"",""3128""
","
","","650.2349999973667","","","","real_trial","2021-04-06 05:26:18.078","img/card_backs/set1/green.gif","2","-230","1","",""
"casino-fixation","92","353578","0.0-25.0-0.11","A544","false","img/card_backs/set1/purple.gif","img/card_backs/set1/green.gif","img/card_backs/set1/red.gif","img/card_backs/set1/yellow.gif","img/card_backs/set2/pink.gif","img/card_backs/set2/orange.gif","img/card_backs/set2/gray.gif","img/card_backs/set2/blue.gif","""event"",""trial"",""time""
""fullscreenenter"",""1"",""3128""
","
","
","""event"",""trial"",""time""
""fullscreenenter"",""1"",""3128""
","
","","null","","null","","fixation","2021-04-06 05:26:18.580","","","","","",""
"card-selection-trial","93","356637","0.0-25.0-1.11","A544","false","img/card_backs/set1/purple.gif","img/card_backs/set1/green.gif","img/card_backs/set1/red.gif","img/card_backs/set1/yellow.gif","img/card_backs/set2/pink.gif","img/card_backs/set2/orange.gif","img/card_backs/set2/gray.gif","img/card_backs/set2/blue.gif","""event"",""trial"",""time""
""fullscreenenter"",""1"",""3128""
","
","
","""event"",""trial"",""time""
""fullscreenenter"",""1"",""3128""
","
","","1052.465000000666","","","","real_trial","2021-04-06 05:26:21.639","img/card_backs/set1/green.gif","0","180","1","",""
"casino-fixation","94","357140","0.0-25.0-0.12","A544","false","img/card_backs/set1/purple.gif","img/card_backs/set1/green.gif","img/card_backs/set1/red.gif","img/card_backs/set1/yellow.gif","img/card_backs/set2/pink.gif","img/card_backs/set2/orange.gif","img/card_backs/set2/gray.gif","img/card_backs/set2/blue.gif","""event"",""trial"",""time""
""fullscreenenter"",""1"",""3128""
","
","
","""event"",""trial"",""time""
""fullscreenenter"",""1"",""3128""
","
","","null","","null","","fixation","2021-04-06 05:26:22.142","","","","","",""
"card-selection-trial","95","360405","0.0-25.0-1.12","A544","false","img/card_backs/set1/purple.gif","img/card_backs/set1/green.gif","img/card_backs/set1/red.gif","img/card_backs/set1/yellow.gif","img/card_backs/set2/pink.gif","img/card_backs/set2/orange.gif","img/card_backs/set2/gray.gif","img/card_backs/set2/blue.gif","""event"",""trial"",""time""
""fullscreenenter"",""1"",""3128""
","
","
","""event"",""trial"",""time""
""fullscreenenter"",""1"",""3128""
","
","","1257.9599999989732","","","","real_trial","2021-04-06 05:26:25.407","img/card_backs/set1/purple.gif","3","180","1","",""
"casino-fixation","96","360908","0.0-25.0-0.13","A544","false","img/card_backs/set1/purple.gif","img/card_backs/set1/green.gif","img/card_backs/set1/red.gif","img/card_backs/set1/yellow.gif","img/card_backs/set2/pink.gif","img/card_backs/set2/orange.gif","img/card_backs/set2/gray.gif","img/card_backs/set2/blue.gif","""event"",""trial"",""time""
""fullscreenenter"",""1"",""3128""
","
","
","""event"",""trial"",""time""
""fullscreenenter"",""1"",""3128""
","
","","null","","null","","fixation","2021-04-06 05:26:25.910","","","","","",""
"card-selection-trial","97","363832","0.0-25.0-1.13","A544","false","img/card_backs/set1/purple.gif","img/card_backs/set1/green.gif","img/card_backs/set1/red.gif","img/card_backs/set1/yellow.gif","img/card_backs/set2/pink.gif","img/card_backs/set2/orange.gif","img/card_backs/set2/gray.gif","img/card_backs/set2/blue.gif","""event"",""trial"",""time""
""fullscreenenter"",""1"",""3128""
","
","
","""event"",""trial"",""time""
""fullscreenenter"",""1"",""3128""
","
","","918.5649999999441","","","","real_trial","2021-04-06 05:26:28.834","img/card_backs/set1/purple.gif","3","200","1","",""
"casino-fixation","98","364334","0.0-25.0-0.14","A544","false","img/card_backs/set1/purple.gif","img/card_backs/set1/green.gif","img/card_backs/set1/red.gif","img/card_backs/set1/yellow.gif","img/card_backs/set2/pink.gif","img/card_backs/set2/orange.gif","img/card_backs/set2/gray.gif","img/card_backs/set2/blue.gif","""event"",""trial"",""time""
""fullscreenenter"",""1"",""3128""
","
","
","""event"",""trial"",""time""
""fullscreenenter"",""1"",""3128""
","
","","null","","null","","fixation","2021-04-06 05:26:29.336","","","","","",""
"card-selection-trial","99","367165","0.0-25.0-1.14","A544","false","img/card_backs/set1/purple.gif","img/card_backs/set1/green.gif","img/card_backs/set1/red.gif","img/card_backs/set1/yellow.gif","img/card_backs/set2/pink.gif","img/card_backs/set2/orange.gif","img/card_backs/set2/gray.gif","img/card_backs/set2/blue.gif","""event"",""trial"",""time""
""fullscreenenter"",""1"",""3128""
","
","
","""event"",""trial"",""time""
""fullscreenenter"",""1"",""3128""
","
","","825.7950000006822","","","","real_trial","2021-04-06 05:26:32.167","img/card_backs/set1/purple.gif","1","200","1","",""
"casino-fixation","100","367667","0.0-25.0-0.15","A544","false","img/card_backs/set1/purple.gif","img/card_backs/set1/green.gif","img/card_backs/set1/red.gif","img/card_backs/set1/yellow.gif","img/card_backs/set2/pink.gif","img/card_backs/set2/orange.gif","img/card_backs/set2/gray.gif","img/card_backs/set2/blue.gif","""event"",""trial"",""time""
""fullscreenenter"",""1"",""3128""
","
","
","""event"",""trial"",""time""
""fullscreenenter"",""1"",""3128""
","
","","null","","null","","fixation","2021-04-06 05:26:32.669","","","","","",""
"card-selection-trial","101","370450","0.0-25.0-1.15","A544","false","img/card_backs/set1/purple.gif","img/card_backs/set1/green.gif","img/card_backs/set1/red.gif","img/card_backs/set1/yellow.gif","img/card_backs/set2/pink.gif","img/card_backs/set2/orange.gif","img/card_backs/set2/gray.gif","img/card_backs/set2/blue.gif","""event"",""trial"",""time""
""fullscreenenter"",""1"",""3128""
","
","
","""event"",""trial"",""time""
""fullscreenenter"",""1"",""3128""
","
","","778.2699999988545","","","","real_trial","2021-04-06 05:26:35.452","img/card_backs/set1/purple.gif","1","-240","1","",""
"casino-fixation","102","370953","0.0-25.0-0.16","A544","false","img/card_backs/set1/purple.gif","img/card_backs/set1/green.gif","img/card_backs/set1/red.gif","img/card_backs/set1/yellow.gif","img/card_backs/set2/pink.gif","img/card_backs/set2/orange.gif","img/card_backs/set2/gray.gif","img/card_backs/set2/blue.gif","""event"",""trial"",""time""
""fullscreenenter"",""1"",""3128""
","
","
","""event"",""trial"",""time""
""fullscreenenter"",""1"",""3128""
","
","","null","","null","","fixation","2021-04-06 05:26:35.955","","","","","",""
"card-selection-trial","103","373648","0.0-25.0-1.16","A544","false","img/card_backs/set1/purple.gif","img/card_backs/set1/green.gif","img/card_backs/set1/red.gif","img/card_backs/set1/yellow.gif","img/card_backs/set2/pink.gif","img/card_backs/set2/orange.gif","img/card_backs/set2/gray.gif","img/card_backs/set2/blue.gif","""event"",""trial"",""time""
""fullscreenenter"",""1"",""3128""
","
","
","""event"",""trial"",""time""
""fullscreenenter"",""1"",""3128""
","
","","689.4849999989965","","","","real_trial","2021-04-06 05:26:38.650","img/card_backs/set1/purple.gif","3","190","1","",""
"casino-fixation","104","374150","0.0-25.0-0.17","A544","false","img/card_backs/set1/purple.gif","img/card_backs/set1/green.gif","img/card_backs/set1/red.gif","img/card_backs/set1/yellow.gif","img/card_backs/set2/pink.gif","img/card_backs/set2/orange.gif","img/card_backs/set2/gray.gif","img/card_backs/set2/blue.gif","""event"",""trial"",""time""
""fullscreenenter"",""1"",""3128""
","
","
","""event"",""trial"",""time""
""fullscreenenter"",""1"",""3128""
","
","","null","","null","","fixation","2021-04-06 05:26:39.152","","","","","",""
"card-selection-trial","105","377124","0.0-25.0-1.17","A544","false","img/card_backs/set1/purple.gif","img/card_backs/set1/green.gif","img/card_backs/set1/red.gif","img/card_backs/set1/yellow.gif","img/card_backs/set2/pink.gif","img/card_backs/set2/orange.gif","img/card_backs/set2/gray.gif","img/card_backs/set2/blue.gif","""event"",""trial"",""time""
""fullscreenenter"",""1"",""3128""
","
","
","""event"",""trial"",""time""
""fullscreenenter"",""1"",""3128""
","
","","967.73999999644","","","","real_trial","2021-04-06 05:26:42.126","img/card_backs/set1/purple.gif","2","-250","1","",""
"casino-fixation","106","377626","0.0-25.0-0.18","A544","false","img/card_backs/set1/purple.gif","img/card_backs/set1/green.gif","img/card_backs/set1/red.gif","img/card_backs/set1/yellow.gif","img/card_backs/set2/pink.gif","img/card_backs/set2/orange.gif","img/card_backs/set2/gray.gif","img/card_backs/set2/blue.gif","""event"",""trial"",""time""
""fullscreenenter"",""1"",""3128""
","
","
","""event"",""trial"",""time""
""fullscreenenter"",""1"",""3128""
","
","","null","","null","","fixation","2021-04-06 05:26:42.628","","","","","",""
"card-selection-trial","107","380403","0.0-25.0-1.18","A544","false","img/card_backs/set1/purple.gif","img/card_backs/set1/green.gif","img/card_backs/set1/red.gif","img/card_backs/set1/yellow.gif","img/card_backs/set2/pink.gif","img/card_backs/set2/orange.gif","img/card_backs/set2/gray.gif","img/card_backs/set2/blue.gif","""event"",""trial"",""time""
""fullscreenenter"",""1"",""3128""
","
","
","""event"",""trial"",""time""
""fullscreenenter"",""1"",""3128""
","
","","770.039999999397","","","","real_trial","2021-04-06 05:26:45.405","img/card_backs/set1/purple.gif","3","-230","1","",""
"casino-fixation","108","380906","0.0-25.0-0.19","A544","false","img/card_backs/set1/purple.gif","img/card_backs/set1/green.gif","img/card_backs/set1/red.gif","img/card_backs/set1/yellow.gif","img/card_backs/set2/pink.gif","img/card_backs/set2/orange.gif","img/card_backs/set2/gray.gif","img/card_backs/set2/blue.gif","""event"",""trial"",""time""
""fullscreenenter"",""1"",""3128""
","
","
","""event"",""trial"",""time""
""fullscreenenter"",""1"",""3128""
","
","","null","","null","","fixation","2021-04-06 05:26:45.908","","","","","",""
"card-selection-trial","109","383405","0.0-25.0-1.19","A544","false","img/card_backs/set1/purple.gif","img/card_backs/set1/green.gif","img/card_backs/set1/red.gif","img/card_backs/set1/yellow.gif","img/card_backs/set2/pink.gif","img/card_backs/set2/orange.gif","img/card_backs/set2/gray.gif","img/card_backs/set2/blue.gif","""event"",""trial"",""time""
""fullscreenenter"",""1"",""3128""
","
","
","""event"",""trial"",""time""
""fullscreenenter"",""1"",""3128""
","
","","494.234999998298","","","","real_trial","2021-04-06 05:26:48.407","img/card_backs/set1/green.gif","1","-250","1","",""
"casino-fixation","110","383907","0.0-25.0-0.20","A544","false","img/card_backs/set1/purple.gif","img/card_backs/set1/green.gif","img/card_backs/set1/red.gif","img/card_backs/set1/yellow.gif","img/card_backs/set2/pink.gif","img/card_backs/set2/orange.gif","img/card_backs/set2/gray.gif","img/card_backs/set2/blue.gif","""event"",""trial"",""time""
""fullscreenenter"",""1"",""3128""
","
","
","""event"",""trial"",""time""
""fullscreenenter"",""1"",""3128""
","
","","null","","null","","fixation","2021-04-06 05:26:48.909","","","","","",""
"card-selection-trial","111","387630","0.0-25.0-1.20","A544","false","img/card_backs/set1/purple.gif","img/card_backs/set1/green.gif","img/card_backs/set1/red.gif","img/card_backs/set1/yellow.gif","img/card_backs/set2/pink.gif","img/card_backs/set2/orange.gif","img/card_backs/set2/gray.gif","img/card_backs/set2/blue.gif","""event"",""trial"",""time""
""fullscreenenter"",""1"",""3128""
","
","
","""event"",""trial"",""time""
""fullscreenenter"",""1"",""3128""
","
","","1716.5700000005309","","","","real_trial","2021-04-06 05:26:52.632","img/card_backs/set1/purple.gif","1","190","1","",""
"casino-fixation","112","388132","0.0-25.0-0.21","A544","false","img/card_backs/set1/purple.gif","img/card_backs/set1/green.gif","img/card_backs/set1/red.gif","img/card_backs/set1/yellow.gif","img/card_backs/set2/pink.gif","img/card_backs/set2/orange.gif","img/card_backs/set2/gray.gif","img/card_backs/set2/blue.gif","""event"",""trial"",""time""
""fullscreenenter"",""1"",""3128""
","
","
","""event"",""trial"",""time""
""fullscreenenter"",""1"",""3128""
","
","","null","","null","","fixation","2021-04-06 05:26:53.134","","","","","",""
"card-selection-trial","113","391045","0.0-25.0-1.21","A544","false","img/card_backs/set1/purple.gif","img/card_backs/set1/green.gif","img/card_backs/set1/red.gif","img/card_backs/set1/yellow.gif","img/card_backs/set2/pink.gif","img/card_backs/set2/orange.gif","img/card_backs/set2/gray.gif","img/card_backs/set2/blue.gif","""event"",""trial"",""time""
""fullscreenenter"",""1"",""3128""
","
","
","""event"",""trial"",""time""
""fullscreenenter"",""1"",""3128""
","
","","905.9449999985518","","","","real_trial","2021-04-06 05:26:56.047","img/card_backs/set1/purple.gif","2","200","1","",""
"casino-fixation","114","391547","0.0-25.0-0.22","A544","false","img/card_backs/set1/purple.gif","img/card_backs/set1/green.gif","img/card_backs/set1/red.gif","img/card_backs/set1/yellow.gif","img/card_backs/set2/pink.gif","img/card_backs/set2/orange.gif","img/card_backs/set2/gray.gif","img/card_backs/set2/blue.gif","""event"",""trial"",""time""
""fullscreenenter"",""1"",""3128""
","
","
","""event"",""trial"",""time""
""fullscreenenter"",""1"",""3128""
","
","","null","","null","","fixation","2021-04-06 05:26:56.549","","","","","",""
"card-selection-trial","115","394398","0.0-25.0-1.22","A544","false","img/card_backs/set1/purple.gif","img/card_backs/set1/green.gif","img/card_backs/set1/red.gif","img/card_backs/set1/yellow.gif","img/card_backs/set2/pink.gif","img/card_backs/set2/orange.gif","img/card_backs/set2/gray.gif","img/card_backs/set2/blue.gif","""event"",""trial"",""time""
""fullscreenenter"",""1"",""3128""
","
","
","""event"",""trial"",""time""
""fullscreenenter"",""1"",""3128""
","
","","843.7700000031618","","","","real_trial","2021-04-06 05:26:59.400","img/card_backs/set1/green.gif","0","180","1","",""
"casino-fixation","116","394901","0.0-25.0-0.23","A544","false","img/card_backs/set1/purple.gif","img/card_backs/set1/green.gif","img/card_backs/set1/red.gif","img/card_backs/set1/yellow.gif","img/card_backs/set2/pink.gif","img/card_backs/set2/orange.gif","img/card_backs/set2/gray.gif","img/card_backs/set2/blue.gif","""event"",""trial"",""time""
""fullscreenenter"",""1"",""3128""
","
","
","""event"",""trial"",""time""
""fullscreenenter"",""1"",""3128""
","
","","null","","null","","fixation","2021-04-06 05:26:59.903","","","","","",""
"card-selection-trial","117","397758","0.0-25.0-1.23","A544","false","img/card_backs/set1/purple.gif","img/card_backs/set1/green.gif","img/card_backs/set1/red.gif","img/card_backs/set1/yellow.gif","img/card_backs/set2/pink.gif","img/card_backs/set2/orange.gif","img/card_backs/set2/gray.gif","img/card_backs/set2/blue.gif","""event"",""trial"",""time""
""fullscreenenter"",""1"",""3128""
","
","
","""event"",""trial"",""time""
""fullscreenenter"",""1"",""3128""
","
","","850.8900000015274","","","","real_trial","2021-04-06 05:27:02.760","img/card_backs/set1/purple.gif","3","-250","1","",""
"casino-fixation","118","398260","0.0-25.0-0.24","A544","false","img/card_backs/set1/purple.gif","img/card_backs/set1/green.gif","img/card_backs/set1/red.gif","img/card_backs/set1/yellow.gif","img/card_backs/set2/pink.gif","img/card_backs/set2/orange.gif","img/card_backs/set2/gray.gif","img/card_backs/set2/blue.gif","""event"",""trial"",""time""
""fullscreenenter"",""1"",""3128""
","
","
","""event"",""trial"",""time""
""fullscreenenter"",""1"",""3128""
","
","","null","","null","","fixation","2021-04-06 05:27:03.262","","","","","",""
"card-selection-trial","119","401202","0.0-25.0-1.24","A544","false","img/card_backs/set1/purple.gif","img/card_backs/set1/green.gif","img/card_backs/set1/red.gif","img/card_backs/set1/yellow.gif","img/card_backs/set2/pink.gif","img/card_backs/set2/orange.gif","img/card_backs/set2/gray.gif","img/card_backs/set2/blue.gif","""event"",""trial"",""time""
""fullscreenenter"",""1"",""3128""
","
","
","""event"",""trial"",""time""
""fullscreenenter"",""1"",""3128""
","
","","935.7500000005239","","","","real_trial","2021-04-06 05:27:06.204","img/card_backs/set1/green.gif","2","200","1","",""
"casino-fixation","120","401704","0.0-25.0-0.25","A544","false","img/card_backs/set1/purple.gif","img/card_backs/set1/green.gif","img/card_backs/set1/red.gif","img/card_backs/set1/yellow.gif","img/card_backs/set2/pink.gif","img/card_backs/set2/orange.gif","img/card_backs/set2/gray.gif","img/card_backs/set2/blue.gif","""event"",""trial"",""time""
""fullscreenenter"",""1"",""3128""
","
","
","""event"",""trial"",""time""
""fullscreenenter"",""1"",""3128""
","
","","null","","null","","fixation","2021-04-06 05:27:06.706","","","","","",""
"card-selection-trial","121","404474","0.0-25.0-1.25","A544","false","img/card_backs/set1/purple.gif","img/card_backs/set1/green.gif","img/card_backs/set1/red.gif","img/card_backs/set1/yellow.gif","img/card_backs/set2/pink.gif","img/card_backs/set2/orange.gif","img/card_backs/set2/gray.gif","img/card_backs/set2/blue.gif","""event"",""trial"",""time""
""fullscreenenter"",""1"",""3128""
","
","
","""event"",""trial"",""time""
""fullscreenenter"",""1"",""3128""
","
","","764.3150000002934","","","","real_trial","2021-04-06 05:27:09.476","img/card_backs/set1/green.gif","3","-230","1","",""
"casino-fixation","122","404977","0.0-25.0-0.26","A544","false","img/card_backs/set1/purple.gif","img/card_backs/set1/green.gif","img/card_backs/set1/red.gif","img/card_backs/set1/yellow.gif","img/card_backs/set2/pink.gif","img/card_backs/set2/orange.gif","img/card_backs/set2/gray.gif","img/card_backs/set2/blue.gif","""event"",""trial"",""time""
""fullscreenenter"",""1"",""3128""
","
","
","""event"",""trial"",""time""
""fullscreenenter"",""1"",""3128""
","
","","null","","null","","fixation","2021-04-06 05:27:09.979","","","","","",""
"card-selection-trial","123","407905","0.0-25.0-1.26","A544","false","img/card_backs/set1/purple.gif","img/card_backs/set1/green.gif","img/card_backs/set1/red.gif","img/card_backs/set1/yellow.gif","img/card_backs/set2/pink.gif","img/card_backs/set2/orange.gif","img/card_backs/set2/gray.gif","img/card_backs/set2/blue.gif","""event"",""trial"",""time""
""fullscreenenter"",""1"",""3128""
","
","
","""event"",""trial"",""time""
""fullscreenenter"",""1"",""3128""
","
","","920.5949999995646","","","","real_trial","2021-04-06 05:27:12.907","img/card_backs/set1/purple.gif","1","-240","1","",""
"casino-fixation","124","408407","0.0-25.0-0.27","A544","false","img/card_backs/set1/purple.gif","img/card_backs/set1/green.gif","img/card_backs/set1/red.gif","img/card_backs/set1/yellow.gif","img/card_backs/set2/pink.gif","img/card_backs/set2/orange.gif","img/card_backs/set2/gray.gif","img/card_backs/set2/blue.gif","""event"",""trial"",""time""
""fullscreenenter"",""1"",""3128""
","
","
","""event"",""trial"",""time""
""fullscreenenter"",""1"",""3128""
","
","","null","","null","","fixation","2021-04-06 05:27:13.409","","","","","",""
"card-selection-trial","125","411082","0.0-25.0-1.27","A544","false","img/card_backs/set1/purple.gif","img/card_backs/set1/green.gif","img/card_backs/set1/red.gif","img/card_backs/set1/yellow.gif","img/card_backs/set2/pink.gif","img/card_backs/set2/orange.gif","img/card_backs/set2/gray.gif","img/card_backs/set2/blue.gif","""event"",""trial"",""time""
""fullscreenenter"",""1"",""3128""
","
","
","""event"",""trial"",""time""
""fullscreenenter"",""1"",""3128""
","
","","669.144999999844","","","","real_trial","2021-04-06 05:27:16.085","img/card_backs/set1/purple.gif","0","-230","1","",""
"casino-fixation","126","411584","0.0-25.0-0.28","A544","false","img/card_backs/set1/purple.gif","img/card_backs/set1/green.gif","img/card_backs/set1/red.gif","img/card_backs/set1/yellow.gif","img/card_backs/set2/pink.gif","img/card_backs/set2/orange.gif","img/card_backs/set2/gray.gif","img/card_backs/set2/blue.gif","""event"",""trial"",""time""
""fullscreenenter"",""1"",""3128""
","
","
","""event"",""trial"",""time""
""fullscreenenter"",""1"",""3128""
","
","","null","","null","","fixation","2021-04-06 05:27:16.587","","","","","",""
"card-selection-trial","127","414299","0.0-25.0-1.28","A544","false","img/card_backs/set1/purple.gif","img/card_backs/set1/green.gif","img/card_backs/set1/red.gif","img/card_backs/set1/yellow.gif","img/card_backs/set2/pink.gif","img/card_backs/set2/orange.gif","img/card_backs/set2/gray.gif","img/card_backs/set2/blue.gif","""event"",""trial"",""time""
""fullscreenenter"",""1"",""3128""
","
","
","""event"",""trial"",""time""
""fullscreenenter"",""1"",""3128""
","
","","708.4649999997346","","","","real_trial","2021-04-06 05:27:19.301","img/card_backs/set1/green.gif","2","180","1","",""
"casino-fixation","128","414802","0.0-25.0-0.29","A544","false","img/card_backs/set1/purple.gif","img/card_backs/set1/green.gif","img/card_backs/set1/red.gif","img/card_backs/set1/yellow.gif","img/card_backs/set2/pink.gif","img/card_backs/set2/orange.gif","img/card_backs/set2/gray.gif","img/card_backs/set2/blue.gif","""event"",""trial"",""time""
""fullscreenenter"",""1"",""3128""
","
","
","""event"",""trial"",""time""
""fullscreenenter"",""1"",""3128""
","
","","null","","null","","fixation","2021-04-06 05:27:19.804","","","","","",""
"card-selection-trial","129","417591","0.0-25.0-1.29","A544","false","img/card_backs/set1/purple.gif","img/card_backs/set1/green.gif","img/card_backs/set1/red.gif","img/card_backs/set1/yellow.gif","img/card_backs/set2/pink.gif","img/card_backs/set2/orange.gif","img/card_backs/set2/gray.gif","img/card_backs/set2/blue.gif","""event"",""trial"",""time""
""fullscreenenter"",""1"",""3128""
","
","
","""event"",""trial"",""time""
""fullscreenenter"",""1"",""3128""
","
","","782.8349999981583","","","","real_trial","2021-04-06 05:27:22.593","img/card_backs/set1/green.gif","0","200","1","",""
"casino-fixation","130","418093","0.0-25.0-0.30","A544","false","img/card_backs/set1/purple.gif","img/card_backs/set1/green.gif","img/card_backs/set1/red.gif","img/card_backs/set1/yellow.gif","img/card_backs/set2/pink.gif","img/card_backs/set2/orange.gif","img/card_backs/set2/gray.gif","img/card_backs/set2/blue.gif","""event"",""trial"",""time""
""fullscreenenter"",""1"",""3128""
","
","
","""event"",""trial"",""time""
""fullscreenenter"",""1"",""3128""
","
","","null","","null","","fixation","2021-04-06 05:27:23.095","","","","","",""
"card-selection-trial","131","420938","0.0-25.0-1.30","A544","false","img/card_backs/set1/purple.gif","img/card_backs/set1/green.gif","img/card_backs/set1/red.gif","img/card_backs/set1/yellow.gif","img/card_backs/set2/pink.gif","img/card_backs/set2/orange.gif","img/card_backs/set2/gray.gif","img/card_backs/set2/blue.gif","""event"",""trial"",""time""
""fullscreenenter"",""1"",""3128""
","
","
","""event"",""trial"",""time""
""fullscreenenter"",""1"",""3128""
","
","","838.2350000028964","","","","real_trial","2021-04-06 05:27:25.940","img/card_backs/set1/green.gif","3","180","1","",""
"casino-fixation","132","421440","0.0-25.0-0.31","A544","false","img/card_backs/set1/purple.gif","img/card_backs/set1/green.gif","img/card_backs/set1/red.gif","img/card_backs/set1/yellow.gif","img/card_backs/set2/pink.gif","img/card_backs/set2/orange.gif","img/card_backs/set2/gray.gif","img/card_backs/set2/blue.gif","""event"",""trial"",""time""
""fullscreenenter"",""1"",""3128""
","
","
","""event"",""trial"",""time""
""fullscreenenter"",""1"",""3128""
","
","","null","","null","","fixation","2021-04-06 05:27:26.442","","","","","",""
"card-selection-trial","133","424116","0.0-25.0-1.31","A544","false","img/card_backs/set1/purple.gif","img/card_backs/set1/green.gif","img/card_backs/set1/red.gif","img/card_backs/set1/yellow.gif","img/card_backs/set2/pink.gif","img/card_backs/set2/orange.gif","img/card_backs/set2/gray.gif","img/card_backs/set2/blue.gif","""event"",""trial"",""time""
""fullscreenenter"",""1"",""3128""
","
","
","""event"",""trial"",""time""
""fullscreenenter"",""1"",""3128""
","
","","668.5749999996624","","","","real_trial","2021-04-06 05:27:29.118","img/card_backs/set1/purple.gif","0","180","1","",""
"casino-fixation","134","424618","0.0-25.0-0.32","A544","false","img/card_backs/set1/purple.gif","img/card_backs/set1/green.gif","img/card_backs/set1/red.gif","img/card_backs/set1/yellow.gif","img/card_backs/set2/pink.gif","img/card_backs/set2/orange.gif","img/card_backs/set2/gray.gif","img/card_backs/set2/blue.gif","""event"",""trial"",""time""
""fullscreenenter"",""1"",""3128""
","
","
","""event"",""trial"",""time""
""fullscreenenter"",""1"",""3128""
","
","","null","","null","","fixation","2021-04-06 05:27:29.620","","","","","",""
"card-selection-trial","135","427121","0.0-25.0-1.32","A544","false","img/card_backs/set1/purple.gif","img/card_backs/set1/green.gif","img/card_backs/set1/red.gif","img/card_backs/set1/yellow.gif","img/card_backs/set2/pink.gif","img/card_backs/set2/orange.gif","img/card_backs/set2/gray.gif","img/card_backs/set2/blue.gif","""event"",""trial"",""time""
""fullscreenenter"",""1"",""3128""
","
","
","""event"",""trial"",""time""
""fullscreenenter"",""1"",""3128""
","
","","496.9700000000885","","","","real_trial","2021-04-06 05:27:32.123","img/card_backs/set1/green.gif","3","200","1","",""
"casino-fixation","136","427623","0.0-25.0-0.33","A544","false","img/card_backs/set1/purple.gif","img/card_backs/set1/green.gif","img/card_backs/set1/red.gif","img/card_backs/set1/yellow.gif","img/card_backs/set2/pink.gif","img/card_backs/set2/orange.gif","img/card_backs/set2/gray.gif","img/card_backs/set2/blue.gif","""event"",""trial"",""time""
""fullscreenenter"",""1"",""3128""
","
","
","""event"",""trial"",""time""
""fullscreenenter"",""1"",""3128""
","
","","null","","null","","fixation","2021-04-06 05:27:32.625","","","","","",""
"card-selection-trial","137","430317","0.0-25.0-1.33","A544","false","img/card_backs/set1/purple.gif","img/card_backs/set1/green.gif","img/card_backs/set1/red.gif","img/card_backs/set1/yellow.gif","img/card_backs/set2/pink.gif","img/card_backs/set2/orange.gif","img/card_backs/set2/gray.gif","img/card_backs/set2/blue.gif","""event"",""trial"",""time""
""fullscreenenter"",""1"",""3128""
","
","
","""event"",""trial"",""time""
""fullscreenenter"",""1"",""3128""
","
","","687.2449999973178","","","","real_trial","2021-04-06 05:27:35.319","img/card_backs/set1/green.gif","0","190","1","",""
"casino-fixation","138","430820","0.0-25.0-0.34","A544","false","img/card_backs/set1/purple.gif","img/card_backs/set1/green.gif","img/card_backs/set1/red.gif","img/card_backs/set1/yellow.gif","img/card_backs/set2/pink.gif","img/card_backs/set2/orange.gif","img/card_backs/set2/gray.gif","img/card_backs/set2/blue.gif","""event"",""trial"",""time""
""fullscreenenter"",""1"",""3128""
","
","
","""event"",""trial"",""time""
""fullscreenenter"",""1"",""3128""
","
","","null","","null","","fixation","2021-04-06 05:27:35.822","","","","","",""
"card-selection-trial","139","433572","0.0-25.0-1.34","A544","false","img/card_backs/set1/purple.gif","img/card_backs/set1/green.gif","img/card_backs/set1/red.gif","img/card_backs/set1/yellow.gif","img/card_backs/set2/pink.gif","img/card_backs/set2/orange.gif","img/card_backs/set2/gray.gif","img/card_backs/set2/blue.gif","""event"",""trial"",""time""
""fullscreenenter"",""1"",""3128""
","
","
","""event"",""trial"",""time""
""fullscreenenter"",""1"",""3128""
","
","","744.9149999992806","","","","real_trial","2021-04-06 05:27:38.574","img/card_backs/set1/purple.gif","3","-240","1","",""
"casino-fixation","140","434074","0.0-25.0-0.35","A544","false","img/card_backs/set1/purple.gif","img/card_backs/set1/green.gif","img/card_backs/set1/red.gif","img/card_backs/set1/yellow.gif","img/card_backs/set2/pink.gif","img/card_backs/set2/orange.gif","img/card_backs/set2/gray.gif","img/card_backs/set2/blue.gif","""event"",""trial"",""time""
""fullscreenenter"",""1"",""3128""
","
","
","""event"",""trial"",""time""
""fullscreenenter"",""1"",""3128""
","
","","null","","null","","fixation","2021-04-06 05:27:39.076","","","","","",""
"card-selection-trial","141","437222","0.0-25.0-1.35","A544","false","img/card_backs/set1/purple.gif","img/card_backs/set1/green.gif","img/card_backs/set1/red.gif","img/card_backs/set1/yellow.gif","img/card_backs/set2/pink.gif","img/card_backs/set2/orange.gif","img/card_backs/set2/gray.gif","img/card_backs/set2/blue.gif","""event"",""trial"",""time""
""fullscreenenter"",""1"",""3128""
","
","
","""event"",""trial"",""time""
""fullscreenenter"",""1"",""3128""
","
","","1142.200000002049","","","","real_trial","2021-04-06 05:27:42.224","img/card_backs/set1/green.gif","2","-240","1","",""
"casino-fixation","142","437724","0.0-25.0-0.36","A544","false","img/card_backs/set1/purple.gif","img/card_backs/set1/green.gif","img/card_backs/set1/red.gif","img/card_backs/set1/yellow.gif","img/card_backs/set2/pink.gif","img/card_backs/set2/orange.gif","img/card_backs/set2/gray.gif","img/card_backs/set2/blue.gif","""event"",""trial"",""time""
""fullscreenenter"",""1"",""3128""
","
","
","""event"",""trial"",""time""
""fullscreenenter"",""1"",""3128""
","
","","null","","null","","fixation","2021-04-06 05:27:42.726","","","","","",""
"card-selection-trial","143","440463","0.0-25.0-1.36","A544","false","img/card_backs/set1/purple.gif","img/card_backs/set1/green.gif","img/card_backs/set1/red.gif","img/card_backs/set1/yellow.gif","img/card_backs/set2/pink.gif","img/card_backs/set2/orange.gif","img/card_backs/set2/gray.gif","img/card_backs/set2/blue.gif","""event"",""trial"",""time""
""fullscreenenter"",""1"",""3128""
","
","
","""event"",""trial"",""time""
""fullscreenenter"",""1"",""3128""
","
","","731.6900000005262","","","","real_trial","2021-04-06 05:27:45.465","img/card_backs/set1/purple.gif","2","-250","1","",""
"casino-fixation","144","440965","0.0-25.0-0.37","A544","false","img/card_backs/set1/purple.gif","img/card_backs/set1/green.gif","img/card_backs/set1/red.gif","img/card_backs/set1/yellow.gif","img/card_backs/set2/pink.gif","img/card_backs/set2/orange.gif","img/card_backs/set2/gray.gif","img/card_backs/set2/blue.gif","""event"",""trial"",""time""
""fullscreenenter"",""1"",""3128""
","
","
","""event"",""trial"",""time""
""fullscreenenter"",""1"",""3128""
","
","","null","","null","","fixation","2021-04-06 05:27:45.968","","","","","",""
"card-selection-trial","145","443367","0.0-25.0-1.37","A544","false","img/card_backs/set1/purple.gif","img/card_backs/set1/green.gif","img/card_backs/set1/red.gif","img/card_backs/set1/yellow.gif","img/card_backs/set2/pink.gif","img/card_backs/set2/orange.gif","img/card_backs/set2/gray.gif","img/card_backs/set2/blue.gif","""event"",""trial"",""time""
""fullscreenenter"",""1"",""3128""
","
","
","""event"",""trial"",""time""
""fullscreenenter"",""1"",""3128""
","
","","394.8850000015227","","","","real_trial","2021-04-06 05:27:48.369","img/card_backs/set1/green.gif","0","-250","1","",""
"casino-fixation","146","443870","0.0-25.0-0.38","A544","false","img/card_backs/set1/purple.gif","img/card_backs/set1/green.gif","img/card_backs/set1/red.gif","img/card_backs/set1/yellow.gif","img/card_backs/set2/pink.gif","img/card_backs/set2/orange.gif","img/card_backs/set2/gray.gif","img/card_backs/set2/blue.gif","""event"",""trial"",""time""
""fullscreenenter"",""1"",""3128""
","
","
","""event"",""trial"",""time""
""fullscreenenter"",""1"",""3128""
","
","","null","","null","","fixation","2021-04-06 05:27:48.872","","","","","",""
"card-selection-trial","147","446583","0.0-25.0-1.38","A544","false","img/card_backs/set1/purple.gif","img/card_backs/set1/green.gif","img/card_backs/set1/red.gif","img/card_backs/set1/yellow.gif","img/card_backs/set2/pink.gif","img/card_backs/set2/orange.gif","img/card_backs/set2/gray.gif","img/card_backs/set2/blue.gif","""event"",""trial"",""time""
""fullscreenenter"",""1"",""3128""
","
","
","""event"",""trial"",""time""
""fullscreenenter"",""1"",""3128""
","
","","705.2450000009849","","","","real_trial","2021-04-06 05:27:51.585","img/card_backs/set1/green.gif","3","-250","1","",""
"casino-fixation","148","447086","0.0-25.0-0.39","A544","false","img/card_backs/set1/purple.gif","img/card_backs/set1/green.gif","img/card_backs/set1/red.gif","img/card_backs/set1/yellow.gif","img/card_backs/set2/pink.gif","img/card_backs/set2/orange.gif","img/card_backs/set2/gray.gif","img/card_backs/set2/blue.gif","""event"",""trial"",""time""
""fullscreenenter"",""1"",""3128""
","
","
","""event"",""trial"",""time""
""fullscreenenter"",""1"",""3128""
","
","","null","","null","","fixation","2021-04-06 05:27:52.088","","","","","",""
"card-selection-trial","149","449519","0.0-25.0-1.39","A544","false","img/card_backs/set1/purple.gif","img/card_backs/set1/green.gif","img/card_backs/set1/red.gif","img/card_backs/set1/yellow.gif","img/card_backs/set2/pink.gif","img/card_backs/set2/orange.gif","img/card_backs/set2/gray.gif","img/card_backs/set2/blue.gif","""event"",""trial"",""time""
""fullscreenenter"",""1"",""3128""
","
","
","""event"",""trial"",""time""
""fullscreenenter"",""1"",""3128""
","
","","426.26000000018394","","","","real_trial","2021-04-06 05:27:54.521","img/card_backs/set1/green.gif","3","190","1","",""
"casino-fixation","150","450021","0.0-25.0-0.40","A544","false","img/card_backs/set1/purple.gif","img/card_backs/set1/green.gif","img/card_backs/set1/red.gif","img/card_backs/set1/yellow.gif","img/card_backs/set2/pink.gif","img/card_backs/set2/orange.gif","img/card_backs/set2/gray.gif","img/card_backs/set2/blue.gif","""event"",""trial"",""time""
""fullscreenenter"",""1"",""3128""
","
","
","""event"",""trial"",""time""
""fullscreenenter"",""1"",""3128""
","
","","null","","null","","fixation","2021-04-06 05:27:55.023","","","","","",""
"card-selection-trial","151","452583","0.0-25.0-1.40","A544","false","img/card_backs/set1/purple.gif","img/card_backs/set1/green.gif","img/card_backs/set1/red.gif","img/card_backs/set1/yellow.gif","img/card_backs/set2/pink.gif","img/card_backs/set2/orange.gif","img/card_backs/set2/gray.gif","img/card_backs/set2/blue.gif","""event"",""trial"",""time""
""fullscreenenter"",""1"",""3128""
","
","
","""event"",""trial"",""time""
""fullscreenenter"",""1"",""3128""
","
","","555.9250000006286","","","","real_trial","2021-04-06 05:27:57.585","img/card_backs/set1/green.gif","0","180","1","",""
"casino-fixation","152","453085","0.0-25.0-0.41","A544","false","img/card_backs/set1/purple.gif","img/card_backs/set1/green.gif","img/card_backs/set1/red.gif","img/card_backs/set1/yellow.gif","img/card_backs/set2/pink.gif","img/card_backs/set2/orange.gif","img/card_backs/set2/gray.gif","img/card_backs/set2/blue.gif","""event"",""trial"",""time""
""fullscreenenter"",""1"",""3128""
","
","
","""event"",""trial"",""time""
""fullscreenenter"",""1"",""3128""
","
","","null","","null","","fixation","2021-04-06 05:27:58.087","","","","","",""
"card-selection-trial","153","455984","0.0-25.0-1.41","A544","false","img/card_backs/set1/purple.gif","img/card_backs/set1/green.gif","img/card_backs/set1/red.gif","img/card_backs/set1/yellow.gif","img/card_backs/set2/pink.gif","img/card_backs/set2/orange.gif","img/card_backs/set2/gray.gif","img/card_backs/set2/blue.gif","""event"",""trial"",""time""
""fullscreenenter"",""1"",""3128""
","
","
","""event"",""trial"",""time""
""fullscreenenter"",""1"",""3128""
","
","","891.765000000305","","","","real_trial","2021-04-06 05:28:00.986","img/card_backs/set1/purple.gif","1","180","1","",""
"casino-fixation","154","456487","0.0-25.0-0.42","A544","false","img/card_backs/set1/purple.gif","img/card_backs/set1/green.gif","img/card_backs/set1/red.gif","img/card_backs/set1/yellow.gif","img/card_backs/set2/pink.gif","img/card_backs/set2/orange.gif","img/card_backs/set2/gray.gif","img/card_backs/set2/blue.gif","""event"",""trial"",""time""
""fullscreenenter"",""1"",""3128""
","
","
","""event"",""trial"",""time""
""fullscreenenter"",""1"",""3128""
","
","","null","","null","","fixation","2021-04-06 05:28:01.489","","","","","",""
"card-selection-trial","155","459520","0.0-25.0-1.42","A544","false","img/card_backs/set1/purple.gif","img/card_backs/set1/green.gif","img/card_backs/set1/red.gif","img/card_backs/set1/yellow.gif","img/card_backs/set2/pink.gif","img/card_backs/set2/orange.gif","img/card_backs/set2/gray.gif","img/card_backs/set2/blue.gif","""event"",""trial"",""time""
""fullscreenenter"",""1"",""3128""
","
","
","""event"",""trial"",""time""
""fullscreenenter"",""1"",""3128""
","
","","1026.530000002822","","","","real_trial","2021-04-06 05:28:04.522","img/card_backs/set1/purple.gif","2","180","1","",""
"casino-fixation","156","460022","0.0-25.0-0.43","A544","false","img/card_backs/set1/purple.gif","img/card_backs/set1/green.gif","img/card_backs/set1/red.gif","img/card_backs/set1/yellow.gif","img/card_backs/set2/pink.gif","img/card_backs/set2/orange.gif","img/card_backs/set2/gray.gif","img/card_backs/set2/blue.gif","""event"",""trial"",""time""
""fullscreenenter"",""1"",""3128""
","
","
","""event"",""trial"",""time""
""fullscreenenter"",""1"",""3128""
","
","","null","","null","","fixation","2021-04-06 05:28:05.024","","","","","",""
"card-selection-trial","157","462887","0.0-25.0-1.43","A544","false","img/card_backs/set1/purple.gif","img/card_backs/set1/green.gif","img/card_backs/set1/red.gif","img/card_backs/set1/yellow.gif","img/card_backs/set2/pink.gif","img/card_backs/set2/orange.gif","img/card_backs/set2/gray.gif","img/card_backs/set2/blue.gif","""event"",""trial"",""time""
""fullscreenenter"",""1"",""3128""
","
","
","""event"",""trial"",""time""
""fullscreenenter"",""1"",""3128""
","
","","859.134999998787","","","","real_trial","2021-04-06 05:28:07.889","img/card_backs/set1/purple.gif","1","200","1","",""
"casino-fixation","158","463389","0.0-25.0-0.44","A544","false","img/card_backs/set1/purple.gif","img/card_backs/set1/green.gif","img/card_backs/set1/red.gif","img/card_backs/set1/yellow.gif","img/card_backs/set2/pink.gif","img/card_backs/set2/orange.gif","img/card_backs/set2/gray.gif","img/card_backs/set2/blue.gif","""event"",""trial"",""time""
""fullscreenenter"",""1"",""3128""
","
","
","""event"",""trial"",""time""
""fullscreenenter"",""1"",""3128""
","
","","null","","null","","fixation","2021-04-06 05:28:08.391","","","","","",""
"card-selection-trial","159","465944","0.0-25.0-1.44","A544","false","img/card_backs/set1/purple.gif","img/card_backs/set1/green.gif","img/card_backs/set1/red.gif","img/card_backs/set1/yellow.gif","img/card_backs/set2/pink.gif","img/card_backs/set2/orange.gif","img/card_backs/set2/gray.gif","img/card_backs/set2/blue.gif","""event"",""trial"",""time""
""fullscreenenter"",""1"",""3128""
","
","
","""event"",""trial"",""time""
""fullscreenenter"",""1"",""3128""
","
","","549.220000000787","","","","real_trial","2021-04-06 05:28:10.946","img/card_backs/set1/purple.gif","0","200","1","",""
"casino-fixation","160","466447","0.0-25.0-0.45","A544","false","img/card_backs/set1/purple.gif","img/card_backs/set1/green.gif","img/card_backs/set1/red.gif","img/card_backs/set1/yellow.gif","img/card_backs/set2/pink.gif","img/card_backs/set2/orange.gif","img/card_backs/set2/gray.gif","img/card_backs/set2/blue.gif","""event"",""trial"",""time""
""fullscreenenter"",""1"",""3128""
","
","
","""event"",""trial"",""time""
""fullscreenenter"",""1"",""3128""
","
","","null","","null","","fixation","2021-04-06 05:28:11.449","","","","","",""
"card-selection-trial","161","469448","0.0-25.0-1.45","A544","false","img/card_backs/set1/purple.gif","img/card_backs/set1/green.gif","img/card_backs/set1/red.gif","img/card_backs/set1/yellow.gif","img/card_backs/set2/pink.gif","img/card_backs/set2/orange.gif","img/card_backs/set2/gray.gif","img/card_backs/set2/blue.gif","""event"",""trial"",""time""
""fullscreenenter"",""1"",""3128""
","
","
","""event"",""trial"",""time""
""fullscreenenter"",""1"",""3128""
","
","","995.0049999970361","","","","real_trial","2021-04-06 05:28:14.451","img/card_backs/set1/purple.gif","3","180","1","",""
"casino-fixation","162","469951","0.0-25.0-0.46","A544","false","img/card_backs/set1/purple.gif","img/card_backs/set1/green.gif","img/card_backs/set1/red.gif","img/card_backs/set1/yellow.gif","img/card_backs/set2/pink.gif","img/card_backs/set2/orange.gif","img/card_backs/set2/gray.gif","img/card_backs/set2/blue.gif","""event"",""trial"",""time""
""fullscreenenter"",""1"",""3128""
","
","
","""event"",""trial"",""time""
""fullscreenenter"",""1"",""3128""
","
","","null","","null","","fixation","2021-04-06 05:28:14.953","","","","","",""
"card-selection-trial","163","472534","0.0-25.0-1.46","A544","false","img/card_backs/set1/purple.gif","img/card_backs/set1/green.gif","img/card_backs/set1/red.gif","img/card_backs/set1/yellow.gif","img/card_backs/set2/pink.gif","img/card_backs/set2/orange.gif","img/card_backs/set2/gray.gif","img/card_backs/set2/blue.gif","""event"",""trial"",""time""
""fullscreenenter"",""1"",""3128""
","
","
","""event"",""trial"",""time""
""fullscreenenter"",""1"",""3128""
","
","","577.0000000011642","","","","real_trial","2021-04-06 05:28:17.536","img/card_backs/set1/purple.gif","3","200","1","",""
"casino-fixation","164","473036","0.0-25.0-0.47","A544","false","img/card_backs/set1/purple.gif","img/card_backs/set1/green.gif","img/card_backs/set1/red.gif","img/card_backs/set1/yellow.gif","img/card_backs/set2/pink.gif","img/card_backs/set2/orange.gif","img/card_backs/set2/gray.gif","img/card_backs/set2/blue.gif","""event"",""trial"",""time""
""fullscreenenter"",""1"",""3128""
","
","
","""event"",""trial"",""time""
""fullscreenenter"",""1"",""3128""
","
","","null","","null","","fixation","2021-04-06 05:28:18.038","","","","","",""
"card-selection-trial","165","475572","0.0-25.0-1.47","A544","false","img/card_backs/set1/purple.gif","img/card_backs/set1/green.gif","img/card_backs/set1/red.gif","img/card_backs/set1/yellow.gif","img/card_backs/set2/pink.gif","img/card_backs/set2/orange.gif","img/card_backs/set2/gray.gif","img/card_backs/set2/blue.gif","""event"",""trial"",""time""
""fullscreenenter"",""1"",""3128""
","
","
","""event"",""trial"",""time""
""fullscreenenter"",""1"",""3128""
","
","","529.0399999975925","","","","real_trial","2021-04-06 05:28:20.574","img/card_backs/set1/green.gif","1","190","1","",""
"casino-fixation","166","476074","0.0-25.0-0.48","A544","false","img/card_backs/set1/purple.gif","img/card_backs/set1/green.gif","img/card_backs/set1/red.gif","img/card_backs/set1/yellow.gif","img/card_backs/set2/pink.gif","img/card_backs/set2/orange.gif","img/card_backs/set2/gray.gif","img/card_backs/set2/blue.gif","""event"",""trial"",""time""
""fullscreenenter"",""1"",""3128""
","
","
","""event"",""trial"",""time""
""fullscreenenter"",""1"",""3128""
","
","","null","","null","","fixation","2021-04-06 05:28:21.076","","","","","",""
