"trial_type","trial_index","time_elapsed","internal_node_id","sub_id","risk_good_first","block1_A","block1_B","block1_C","block1_D","block2_A","block2_B","block2_C","block2_D","interactions","blur_events","focus_events","fullscreenenter_events","fullscreenexit_events","success","rt","stimulus","key_press","button_pressed","task_part","timestamp","card_choice","choice_position","points_earned","block","correct","response"
"pavlovia","0","7","0.0-0.0","A1232","true","img/card_backs/set1/red.gif","img/card_backs/set1/green.gif","img/card_backs/set1/yellow.gif","img/card_backs/set1/purple.gif","img/card_backs/set2/gray.gif","img/card_backs/set2/pink.gif","img/card_backs/set2/blue.gif","img/card_backs/set2/orange.gif","""event"",""trial"",""time""
""fullscreenenter"",""1"",""1453""
","
","
","""event"",""trial"",""time""
""fullscreenenter"",""1"",""1453""
","
","","","","","","","","","","","","",""
"fullscreen","1","2395","0.0-1.0","A1232","true","img/card_backs/set1/red.gif","img/card_backs/set1/green.gif","img/card_backs/set1/yellow.gif","img/card_backs/set1/purple.gif","img/card_backs/set2/gray.gif","img/card_backs/set2/pink.gif","img/card_backs/set2/blue.gif","img/card_backs/set2/orange.gif","""event"",""trial"",""time""
""fullscreenenter"",""1"",""1453""
","
","
","""event"",""trial"",""time""
""fullscreenenter"",""1"",""1453""
","
","true","","","","","","","","","","","",""
"audio-keyboard-response","2","3888","0.0-2.0","A1232","true","img/card_backs/set1/red.gif","img/card_backs/set1/green.gif","img/card_backs/set1/yellow.gif","img/card_backs/set1/purple.gif","img/card_backs/set2/gray.gif","img/card_backs/set2/pink.gif","img/card_backs/set2/blue.gif","img/card_backs/set2/orange.gif","""event"",""trial"",""time""
""fullscreenenter"",""1"",""1453""
","
","
","""event"",""trial"",""time""
""fullscreenenter"",""1"",""1453""
","
","","0","audio/beep_loop.wav","32","","","","","","","","",""
"audio-button-response","3","5680","0.0-3.0","A1232","true","img/card_backs/set1/red.gif","img/card_backs/set1/green.gif","img/card_backs/set1/yellow.gif","img/card_backs/set1/purple.gif","img/card_backs/set2/gray.gif","img/card_backs/set2/pink.gif","img/card_backs/set2/blue.gif","img/card_backs/set2/orange.gif","""event"",""trial"",""time""
""fullscreenenter"",""1"",""1453""
","
","
","""event"",""trial"",""time""
""fullscreenenter"",""1"",""1453""
","
","","NaN","audio/turtle.mp3","","3","","","","","","","",""
"audio-button-response","4","7760","0.0-4.0","A1232","true","img/card_backs/set1/red.gif","img/card_backs/set1/green.gif","img/card_backs/set1/yellow.gif","img/card_backs/set1/purple.gif","img/card_backs/set2/gray.gif","img/card_backs/set2/pink.gif","img/card_backs/set2/blue.gif","img/card_backs/set2/orange.gif","""event"",""trial"",""time""
""fullscreenenter"",""1"",""1453""
","
","
","""event"",""trial"",""time""
""fullscreenenter"",""1"",""1453""
","
","","NaN","audio/shark.mp3","","2","","","","","","","",""
"fullscreen","5","10964","0.0-5.0","A1232","true","img/card_backs/set1/red.gif","img/card_backs/set1/green.gif","img/card_backs/set1/yellow.gif","img/card_backs/set1/purple.gif","img/card_backs/set2/gray.gif","img/card_backs/set2/pink.gif","img/card_backs/set2/blue.gif","img/card_backs/set2/orange.gif","""event"",""trial"",""time""
""fullscreenenter"",""1"",""1453""
","
","
","""event"",""trial"",""time""
""fullscreenenter"",""1"",""1453""
","
","true","","","","","","","","","","","",""
"casino-keyboard-response","6","13986","0.0-6.0-0.0","A1232","true","img/card_backs/set1/red.gif","img/card_backs/set1/green.gif","img/card_backs/set1/yellow.gif","img/card_backs/set1/purple.gif","img/card_backs/set2/gray.gif","img/card_backs/set2/pink.gif","img/card_backs/set2/blue.gif","img/card_backs/set2/orange.gif","""event"",""trial"",""time""
""fullscreenenter"",""1"",""1453""
","
","
","""event"",""trial"",""time""
""fullscreenenter"",""1"",""1453""
","
","","3019.999999999998","Welcome to the casino!","71","","instructions","2021-07-30 15:01:02.156","","","","","",""
"casino-keyboard-response","7","27616","0.0-6.0-0.1","A1232","true","img/card_backs/set1/red.gif","img/card_backs/set1/green.gif","img/card_backs/set1/yellow.gif","img/card_backs/set1/purple.gif","img/card_backs/set2/gray.gif","img/card_backs/set2/pink.gif","img/card_backs/set2/blue.gif","img/card_backs/set2/orange.gif","""event"",""trial"",""time""
""fullscreenenter"",""1"",""1453""
","
","
","""event"",""trial"",""time""
""fullscreenenter"",""1"",""1453""
","
","","13629","Today you will be playing a game to earn tokens. </br> At the end of the experiment, you will be paid a bonus based on how many tokens you win. ","69","","instructions","2021-07-30 15:01:15.788","","","","","",""
"casino-keyboard-response","8","37534","0.0-6.0-0.2","A1232","true","img/card_backs/set1/red.gif","img/card_backs/set1/green.gif","img/card_backs/set1/yellow.gif","img/card_backs/set1/purple.gif","img/card_backs/set2/gray.gif","img/card_backs/set2/pink.gif","img/card_backs/set2/blue.gif","img/card_backs/set2/orange.gif","""event"",""trial"",""time""
""fullscreenenter"",""1"",""1453""
","
","
","""event"",""trial"",""time""
""fullscreenenter"",""1"",""1453""
","
","","9916","On every turn, you will be shown four different decks of cards. </br> You need to select a card from one of the four decks.  ","75","","instructions","2021-07-30 15:01:25.704","","","","","",""
"casino-keyboard-response","9","42225","0.0-6.0-0.3","A1232","true","img/card_backs/set1/red.gif","img/card_backs/set1/green.gif","img/card_backs/set1/yellow.gif","img/card_backs/set1/purple.gif","img/card_backs/set2/gray.gif","img/card_backs/set2/pink.gif","img/card_backs/set2/blue.gif","img/card_backs/set2/orange.gif","""event"",""trial"",""time""
""fullscreenenter"",""1"",""1453""
","
","
","""event"",""trial"",""time""
""fullscreenenter"",""1"",""1453""
","
","","4690.000000000007","On the next screen, you will see what the decks will look like. ","66","","instructions","2021-07-30 15:01:30.395","","","","","",""
"card-selection-trial","10","46229","0.0-7.0-0.0","A1232","true","img/card_backs/set1/red.gif","img/card_backs/set1/green.gif","img/card_backs/set1/yellow.gif","img/card_backs/set1/purple.gif","img/card_backs/set2/gray.gif","img/card_backs/set2/pink.gif","img/card_backs/set2/blue.gif","img/card_backs/set2/orange.gif","""event"",""trial"",""time""
""fullscreenenter"",""1"",""1453""
","
","
","""event"",""trial"",""time""
""fullscreenenter"",""1"",""1453""
","
","","null","","","","practice","2021-07-30 15:01:34.400","null","null","null","0","",""
"casino-keyboard-response","11","53407","0.0-8.0-0.0","A1232","true","img/card_backs/set1/red.gif","img/card_backs/set1/green.gif","img/card_backs/set1/yellow.gif","img/card_backs/set1/purple.gif","img/card_backs/set2/gray.gif","img/card_backs/set2/pink.gif","img/card_backs/set2/blue.gif","img/card_backs/set2/orange.gif","""event"",""trial"",""time""
""fullscreenenter"",""1"",""1453""
","
","
","""event"",""trial"",""time""
""fullscreenenter"",""1"",""1453""
","
","","7175.999999999993","You should pick a card from a deck using the '2', '4', '6', and '8' keys at the top of the keyboard.","85","","instructions","2021-07-30 15:01:41.577","","","","","",""
"casino-keyboard-response","12","58494","0.0-8.0-0.1","A1232","true","img/card_backs/set1/red.gif","img/card_backs/set1/green.gif","img/card_backs/set1/yellow.gif","img/card_backs/set1/purple.gif","img/card_backs/set2/gray.gif","img/card_backs/set2/pink.gif","img/card_backs/set2/blue.gif","img/card_backs/set2/orange.gif","""event"",""trial"",""time""
""fullscreenenter"",""1"",""1453""
","
","
","""event"",""trial"",""time""
""fullscreenenter"",""1"",""1453""
","
","","5086.999999999993","Once you select a card, it will turn over and you will see how many tokens you earned.","83","","instructions","2021-07-30 15:01:46.664","","","","","",""
"casino-keyboard-response","13","72736","0.0-8.0-0.2","A1232","true","img/card_backs/set1/red.gif","img/card_backs/set1/green.gif","img/card_backs/set1/yellow.gif","img/card_backs/set1/purple.gif","img/card_backs/set2/gray.gif","img/card_backs/set2/pink.gif","img/card_backs/set2/blue.gif","img/card_backs/set2/orange.gif","""event"",""trial"",""time""
""fullscreenenter"",""1"",""1453""
","
","
","""event"",""trial"",""time""
""fullscreenenter"",""1"",""1453""
","
","","14241","Let's try practicing that! </br> First, try to put your fingers over the '2', '4', '6', and '8' keys. </br>  You can use whatever fingers are most comfortable for you. Try to find a comfortable position now. ","50","","instructions","2021-07-30 15:02:00.906","","","","","",""
"casino-keyboard-response","14","78568","0.0-8.0-0.3","A1232","true","img/card_backs/set1/red.gif","img/card_backs/set1/green.gif","img/card_backs/set1/yellow.gif","img/card_backs/set1/purple.gif","img/card_backs/set2/gray.gif","img/card_backs/set2/pink.gif","img/card_backs/set2/blue.gif","img/card_backs/set2/orange.gif","""event"",""trial"",""time""
""fullscreenenter"",""1"",""1453""
","
","
","""event"",""trial"",""time""
""fullscreenenter"",""1"",""1453""
","
","","5832","Okay ready? </br> On the next screen, press '2' to select the left deck. ","50","","instructions","2021-07-30 15:02:06.739","","","","","",""
"card-selection-trial","15","81450","0.0-9.0-0.0","A1232","true","img/card_backs/set1/red.gif","img/card_backs/set1/green.gif","img/card_backs/set1/yellow.gif","img/card_backs/set1/purple.gif","img/card_backs/set2/gray.gif","img/card_backs/set2/pink.gif","img/card_backs/set2/blue.gif","img/card_backs/set2/orange.gif","""event"",""trial"",""time""
""fullscreenenter"",""1"",""1453""
","
","
","""event"",""trial"",""time""
""fullscreenenter"",""1"",""1453""
","
","","830.0000000000146","","","","practice_card_selection","2021-07-30 15:02:09.620","img/practice_cards/backs/brown.gif","0","-100","","",""
"casino-keyboard-response","16","86916","0.0-10.0-0.0","A1232","true","img/card_backs/set1/red.gif","img/card_backs/set1/green.gif","img/card_backs/set1/yellow.gif","img/card_backs/set1/purple.gif","img/card_backs/set2/gray.gif","img/card_backs/set2/pink.gif","img/card_backs/set2/blue.gif","img/card_backs/set2/orange.gif","""event"",""trial"",""time""
""fullscreenenter"",""1"",""1453""
","
","
","""event"",""trial"",""time""
""fullscreenenter"",""1"",""1453""
","
","","5464","Great! Now on the next screen, try pressing '6' to select the third deck.","54","","instructions","2021-07-30 15:02:15.086","","","","","",""
"card-selection-trial","17","89485","0.0-11.0-0.0","A1232","true","img/card_backs/set1/red.gif","img/card_backs/set1/green.gif","img/card_backs/set1/yellow.gif","img/card_backs/set1/purple.gif","img/card_backs/set2/gray.gif","img/card_backs/set2/pink.gif","img/card_backs/set2/blue.gif","img/card_backs/set2/orange.gif","""event"",""trial"",""time""
""fullscreenenter"",""1"",""1453""
","
","
","""event"",""trial"",""time""
""fullscreenenter"",""1"",""1453""
","
","","520","","","","practice_card_selection","2021-07-30 15:02:17.655","img/practice_cards/backs/dark_green.gif","2","-200","","",""
"casino-keyboard-response","18","94346","0.0-12.0-0.0","A1232","true","img/card_backs/set1/red.gif","img/card_backs/set1/green.gif","img/card_backs/set1/yellow.gif","img/card_backs/set1/purple.gif","img/card_backs/set2/gray.gif","img/card_backs/set2/pink.gif","img/card_backs/set2/blue.gif","img/card_backs/set2/orange.gif","""event"",""trial"",""time""
""fullscreenenter"",""1"",""1453""
","
","
","""event"",""trial"",""time""
""fullscreenenter"",""1"",""1453""
","
","","4860","Now on the next screen, try pressing '4' to select the second deck.","52","","instructions","2021-07-30 15:02:22.516","","","","","",""
"card-selection-trial","19","98106","0.0-13.0-0.0","A1232","true","img/card_backs/set1/red.gif","img/card_backs/set1/green.gif","img/card_backs/set1/yellow.gif","img/card_backs/set1/purple.gif","img/card_backs/set2/gray.gif","img/card_backs/set2/pink.gif","img/card_backs/set2/blue.gif","img/card_backs/set2/orange.gif","""event"",""trial"",""time""
""fullscreenenter"",""1"",""1453""
","
","
","""event"",""trial"",""time""
""fullscreenenter"",""1"",""1453""
","
","","1715","","","","practice_card_selection","2021-07-30 15:02:26.276","img/practice_cards/backs/brown.gif","1","-100","","",""
"casino-keyboard-response","20","102561","0.0-14.0-0.0","A1232","true","img/card_backs/set1/red.gif","img/card_backs/set1/green.gif","img/card_backs/set1/yellow.gif","img/card_backs/set1/purple.gif","img/card_backs/set2/gray.gif","img/card_backs/set2/pink.gif","img/card_backs/set2/blue.gif","img/card_backs/set2/orange.gif","""event"",""trial"",""time""
""fullscreenenter"",""1"",""1453""
","
","
","""event"",""trial"",""time""
""fullscreenenter"",""1"",""1453""
","
","","4453.000000000015","Finally, try pressing '8' to select the deck all the way on the right.","56","","instructions","2021-07-30 15:02:30.731","","","","","",""
"card-selection-trial","21","104981","0.0-15.0-0.0","A1232","true","img/card_backs/set1/red.gif","img/card_backs/set1/green.gif","img/card_backs/set1/yellow.gif","img/card_backs/set1/purple.gif","img/card_backs/set2/gray.gif","img/card_backs/set2/pink.gif","img/card_backs/set2/blue.gif","img/card_backs/set2/orange.gif","""event"",""trial"",""time""
""fullscreenenter"",""1"",""1453""
","
","
","""event"",""trial"",""time""
""fullscreenenter"",""1"",""1453""
","
","","372","","","","practice_card_selection","2021-07-30 15:02:33.151","img/practice_cards/backs/dark_green.gif","3","200","","",""
"casino-keyboard-response","22","122766","0.0-16.0-0.0","A1232","true","img/card_backs/set1/red.gif","img/card_backs/set1/green.gif","img/card_backs/set1/yellow.gif","img/card_backs/set1/purple.gif","img/card_backs/set2/gray.gif","img/card_backs/set2/pink.gif","img/card_backs/set2/blue.gif","img/card_backs/set2/orange.gif","""event"",""trial"",""time""
""fullscreenenter"",""1"",""1453""
","
","
","""event"",""trial"",""time""
""fullscreenenter"",""1"",""1453""
","
","","17784","Great! It seems like you are getting the hang of this.","80","","instructions","2021-07-30 15:02:50.936","","","","","",""
"casino-keyboard-response","23","130869","0.0-16.0-0.1","A1232","true","img/card_backs/set1/red.gif","img/card_backs/set1/green.gif","img/card_backs/set1/yellow.gif","img/card_backs/set1/purple.gif","img/card_backs/set2/gray.gif","img/card_backs/set2/pink.gif","img/card_backs/set2/blue.gif","img/card_backs/set2/orange.gif","""event"",""trial"",""time""
""fullscreenenter"",""1"",""1453""
","
","
","""event"",""trial"",""time""
""fullscreenenter"",""1"",""1453""
","
","","8102","You may have noticed that some cards will cause you to <b> win </b> tokens while other cards will cause you to <b> lose </b>  tokens.","70","","instructions","2021-07-30 15:02:59.039","","","","","",""
"casino-keyboard-response","24","138977","0.0-16.0-0.2","A1232","true","img/card_backs/set1/red.gif","img/card_backs/set1/green.gif","img/card_backs/set1/yellow.gif","img/card_backs/set1/purple.gif","img/card_backs/set2/gray.gif","img/card_backs/set2/pink.gif","img/card_backs/set2/blue.gif","img/card_backs/set2/orange.gif","""event"",""trial"",""time""
""fullscreenenter"",""1"",""1453""
","
","
","""event"",""trial"",""time""
""fullscreenenter"",""1"",""1453""
","
","","8107","Each deck has a mix of cards that will cause you to win and lose tokens. </br> However, the cards in each colored deck are different.","73","","instructions","2021-07-30 15:03:07.147","","","","","",""
"casino-keyboard-response","25","147084","0.0-16.0-0.3","A1232","true","img/card_backs/set1/red.gif","img/card_backs/set1/green.gif","img/card_backs/set1/yellow.gif","img/card_backs/set1/purple.gif","img/card_backs/set2/gray.gif","img/card_backs/set2/pink.gif","img/card_backs/set2/blue.gif","img/card_backs/set2/orange.gif","""event"",""trial"",""time""
""fullscreenenter"",""1"",""1453""
","
","
","""event"",""trial"",""time""
""fullscreenenter"",""1"",""1453""
","
","","8107","Some colored decks are luckier than others. </br> If you choose the lucky decks, you will earn more tokens than if you choose the unlucky decks.","69","","instructions","2021-07-30 15:03:15.254","","","","","",""
"casino-keyboard-response","26","154082","0.0-16.0-0.4","A1232","true","img/card_backs/set1/red.gif","img/card_backs/set1/green.gif","img/card_backs/set1/yellow.gif","img/card_backs/set1/purple.gif","img/card_backs/set2/gray.gif","img/card_backs/set2/pink.gif","img/card_backs/set2/blue.gif","img/card_backs/set2/orange.gif","""event"",""trial"",""time""
""fullscreenenter"",""1"",""1453""
","
","
","""event"",""trial"",""time""
""fullscreenenter"",""1"",""1453""
","
","","6997","You should try to figure out which decks are lucky. </br> Then, try to choose the lucky decks so you can win the most tokens.","87","","instructions","2021-07-30 15:03:22.253","","","","","",""
"casino-keyboard-response","27","165239","0.0-16.0-0.5","A1232","true","img/card_backs/set1/red.gif","img/card_backs/set1/green.gif","img/card_backs/set1/yellow.gif","img/card_backs/set1/purple.gif","img/card_backs/set2/gray.gif","img/card_backs/set2/pink.gif","img/card_backs/set2/blue.gif","img/card_backs/set2/orange.gif","""event"",""trial"",""time""
""fullscreenenter"",""1"",""1453""
","
","
","""event"",""trial"",""time""
""fullscreenenter"",""1"",""1453""
","
","","11156","To make it trickier, the casino dealer will switch the locations of the decks on every turn. </br> The color of the deck determines how lucky it is. The location does not matter.","88","","instructions","2021-07-30 15:03:33.409","","","","","",""
"casino-keyboard-response","28","174248","0.0-16.0-0.6","A1232","true","img/card_backs/set1/red.gif","img/card_backs/set1/green.gif","img/card_backs/set1/yellow.gif","img/card_backs/set1/purple.gif","img/card_backs/set2/gray.gif","img/card_backs/set2/pink.gif","img/card_backs/set2/blue.gif","img/card_backs/set2/orange.gif","""event"",""trial"",""time""
""fullscreenenter"",""1"",""1453""
","
","
","""event"",""trial"",""time""
""fullscreenenter"",""1"",""1453""
","
","","9008.00000000003","The mix of cards in each colored deck will stay the same throughout the game. </br> That means that a deck that is lucky early on will stay lucky.","79","","instructions","2021-07-30 15:03:42.418","","","","","",""
"casino-keyboard-response","29","181993","0.0-16.0-0.7","A1232","true","img/card_backs/set1/red.gif","img/card_backs/set1/green.gif","img/card_backs/set1/yellow.gif","img/card_backs/set1/purple.gif","img/card_backs/set2/gray.gif","img/card_backs/set2/pink.gif","img/card_backs/set2/blue.gif","img/card_backs/set2/orange.gif","""event"",""trial"",""time""
""fullscreenenter"",""1"",""1453""
","
","
","""event"",""trial"",""time""
""fullscreenenter"",""1"",""1453""
","
","","7744","Remember though, all the decks have a <b> mix </b> of both <b> good </b> and <b> bad </b> cards so it may take a couple of turns to figure out if a deck is lucky.","69","","instructions","2021-07-30 15:03:50.163","","","","","",""
"casino-keyboard-response","30","189942","0.0-16.0-0.8","A1232","true","img/card_backs/set1/red.gif","img/card_backs/set1/green.gif","img/card_backs/set1/yellow.gif","img/card_backs/set1/purple.gif","img/card_backs/set2/gray.gif","img/card_backs/set2/pink.gif","img/card_backs/set2/blue.gif","img/card_backs/set2/orange.gif","""event"",""trial"",""time""
""fullscreenenter"",""1"",""1453""
","
","
","""event"",""trial"",""time""
""fullscreenenter"",""1"",""1453""
","
","","7948","At the end of the game, you will be paid bonus money based on how many tokens you win. </br> If you win more tokens, you will earn more money!","72","","instructions","2021-07-30 15:03:58.112","","","","","",""
"casino-keyboard-response","31","200055","0.0-16.0-0.9","A1232","true","img/card_backs/set1/red.gif","img/card_backs/set1/green.gif","img/card_backs/set1/yellow.gif","img/card_backs/set1/purple.gif","img/card_backs/set2/gray.gif","img/card_backs/set2/pink.gif","img/card_backs/set2/blue.gif","img/card_backs/set2/orange.gif","""event"",""trial"",""time""
""fullscreenenter"",""1"",""1453""
","
","
","""event"",""trial"",""time""
""fullscreenenter"",""1"",""1453""
","
","","10113","You will never <b> lose </b> money. </br> If you end up with fewer than 0 tokens, you will earn $0 of bonus money, but you will still be paid for playing the game.","83","","instructions","2021-07-30 15:04:08.225","","","","","",""
"casino-keyboard-response","32","204088","0.0-16.0-0.10","A1232","true","img/card_backs/set1/red.gif","img/card_backs/set1/green.gif","img/card_backs/set1/yellow.gif","img/card_backs/set1/purple.gif","img/card_backs/set2/gray.gif","img/card_backs/set2/pink.gif","img/card_backs/set2/blue.gif","img/card_backs/set2/orange.gif","""event"",""trial"",""time""
""fullscreenenter"",""1"",""1453""
","
","
","""event"",""trial"",""time""
""fullscreenenter"",""1"",""1453""
","
","","4032","You will have 10 seconds to make each choice.","82","","instructions","2021-07-30 15:04:12.258","","","","","",""
"casino-keyboard-response","33","217407","0.0-16.0-0.11","A1232","true","img/card_backs/set1/red.gif","img/card_backs/set1/green.gif","img/card_backs/set1/yellow.gif","img/card_backs/set1/purple.gif","img/card_backs/set2/gray.gif","img/card_backs/set2/pink.gif","img/card_backs/set2/blue.gif","img/card_backs/set2/orange.gif","""event"",""trial"",""time""
""fullscreenenter"",""1"",""1453""
","
","
","""event"",""trial"",""time""
""fullscreenenter"",""1"",""1453""
","
","","13318","Before you play the game for real, you will play with practice decks. </br> The tokens you earn during practice won't count toward your total.","86","","instructions","2021-07-30 15:04:25.577","","","","","",""
"casino-keyboard-response","34","226146","0.0-16.0-0.12","A1232","true","img/card_backs/set1/red.gif","img/card_backs/set1/green.gif","img/card_backs/set1/yellow.gif","img/card_backs/set1/purple.gif","img/card_backs/set2/gray.gif","img/card_backs/set2/pink.gif","img/card_backs/set2/blue.gif","img/card_backs/set2/orange.gif","""event"",""trial"",""time""
""fullscreenenter"",""1"",""1453""
","
","
","""event"",""trial"",""time""
""fullscreenenter"",""1"",""1453""
","
","","8738","Ready? Remember, use the '2', '4', '6', and '8' keys to select the decks. </br> Put your fingers on those keys now and then press '2' to begin.","50","","instructions","2021-07-30 15:04:34.316","","","","","",""
"casino-fixation","35","226648","0.0-17.0-0.0","A1232","true","img/card_backs/set1/red.gif","img/card_backs/set1/green.gif","img/card_backs/set1/yellow.gif","img/card_backs/set1/purple.gif","img/card_backs/set2/gray.gif","img/card_backs/set2/pink.gif","img/card_backs/set2/blue.gif","img/card_backs/set2/orange.gif","""event"",""trial"",""time""
""fullscreenenter"",""1"",""1453""
","
","
","""event"",""trial"",""time""
""fullscreenenter"",""1"",""1453""
","
","","null","","null","","fixation","2021-07-30 15:04:34.818","","","","","",""
"card-selection-trial","36","230422","0.0-17.0-1.0","A1232","true","img/card_backs/set1/red.gif","img/card_backs/set1/green.gif","img/card_backs/set1/yellow.gif","img/card_backs/set1/purple.gif","img/card_backs/set2/gray.gif","img/card_backs/set2/pink.gif","img/card_backs/set2/blue.gif","img/card_backs/set2/orange.gif","""event"",""trial"",""time""
""fullscreenenter"",""1"",""1453""
","
","
","""event"",""trial"",""time""
""fullscreenenter"",""1"",""1453""
","
","","1770","","","","practice","2021-07-30 15:04:38.592","img/practice_cards/backs/black.gif","1","100","0","",""
"casino-fixation","37","230924","0.0-17.0-0.1","A1232","true","img/card_backs/set1/red.gif","img/card_backs/set1/green.gif","img/card_backs/set1/yellow.gif","img/card_backs/set1/purple.gif","img/card_backs/set2/gray.gif","img/card_backs/set2/pink.gif","img/card_backs/set2/blue.gif","img/card_backs/set2/orange.gif","""event"",""trial"",""time""
""fullscreenenter"",""1"",""1453""
","
","
","""event"",""trial"",""time""
""fullscreenenter"",""1"",""1453""
","
","","null","","null","","fixation","2021-07-30 15:04:39.094","","","","","",""
"card-selection-trial","38","234039","0.0-17.0-1.1","A1232","true","img/card_backs/set1/red.gif","img/card_backs/set1/green.gif","img/card_backs/set1/yellow.gif","img/card_backs/set1/purple.gif","img/card_backs/set2/gray.gif","img/card_backs/set2/pink.gif","img/card_backs/set2/blue.gif","img/card_backs/set2/orange.gif","""event"",""trial"",""time""
""fullscreenenter"",""1"",""1453""
","
","
","""event"",""trial"",""time""
""fullscreenenter"",""1"",""1453""
","
","","1112.000000000029","","","","practice","2021-07-30 15:04:42.209","img/practice_cards/backs/black.gif","1","-100","0","",""
"casino-fixation","39","234541","0.0-17.0-0.2","A1232","true","img/card_backs/set1/red.gif","img/card_backs/set1/green.gif","img/card_backs/set1/yellow.gif","img/card_backs/set1/purple.gif","img/card_backs/set2/gray.gif","img/card_backs/set2/pink.gif","img/card_backs/set2/blue.gif","img/card_backs/set2/orange.gif","""event"",""trial"",""time""
""fullscreenenter"",""1"",""1453""
","
","
","""event"",""trial"",""time""
""fullscreenenter"",""1"",""1453""
","
","","null","","null","","fixation","2021-07-30 15:04:42.711","","","","","",""
"card-selection-trial","40","237571","0.0-17.0-1.2","A1232","true","img/card_backs/set1/red.gif","img/card_backs/set1/green.gif","img/card_backs/set1/yellow.gif","img/card_backs/set1/purple.gif","img/card_backs/set2/gray.gif","img/card_backs/set2/pink.gif","img/card_backs/set2/blue.gif","img/card_backs/set2/orange.gif","""event"",""trial"",""time""
""fullscreenenter"",""1"",""1453""
","
","
","""event"",""trial"",""time""
""fullscreenenter"",""1"",""1453""
","
","","1025.000000000029","","","","practice","2021-07-30 15:04:45.741","img/practice_cards/backs/dark_blue.gif","2","200","0","",""
"casino-fixation","41","238073","0.0-17.0-0.3","A1232","true","img/card_backs/set1/red.gif","img/card_backs/set1/green.gif","img/card_backs/set1/yellow.gif","img/card_backs/set1/purple.gif","img/card_backs/set2/gray.gif","img/card_backs/set2/pink.gif","img/card_backs/set2/blue.gif","img/card_backs/set2/orange.gif","""event"",""trial"",""time""
""fullscreenenter"",""1"",""1453""
","
","
","""event"",""trial"",""time""
""fullscreenenter"",""1"",""1453""
","
","","null","","null","","fixation","2021-07-30 15:04:46.243","","","","","",""
"card-selection-trial","42","240631","0.0-17.0-1.3","A1232","true","img/card_backs/set1/red.gif","img/card_backs/set1/green.gif","img/card_backs/set1/yellow.gif","img/card_backs/set1/purple.gif","img/card_backs/set2/gray.gif","img/card_backs/set2/pink.gif","img/card_backs/set2/blue.gif","img/card_backs/set2/orange.gif","""event"",""trial"",""time""
""fullscreenenter"",""1"",""1453""
","
","
","""event"",""trial"",""time""
""fullscreenenter"",""1"",""1453""
","
","","553","","","","practice","2021-07-30 15:04:48.801","img/practice_cards/backs/dark_green.gif","2","-200","0","",""
"casino-fixation","43","241132","0.0-17.0-0.4","A1232","true","img/card_backs/set1/red.gif","img/card_backs/set1/green.gif","img/card_backs/set1/yellow.gif","img/card_backs/set1/purple.gif","img/card_backs/set2/gray.gif","img/card_backs/set2/pink.gif","img/card_backs/set2/blue.gif","img/card_backs/set2/orange.gif","""event"",""trial"",""time""
""fullscreenenter"",""1"",""1453""
","
","
","""event"",""trial"",""time""
""fullscreenenter"",""1"",""1453""
","
","","null","","null","","fixation","2021-07-30 15:04:49.303","","","","","",""
"card-selection-trial","44","243774","0.0-17.0-1.4","A1232","true","img/card_backs/set1/red.gif","img/card_backs/set1/green.gif","img/card_backs/set1/yellow.gif","img/card_backs/set1/purple.gif","img/card_backs/set2/gray.gif","img/card_backs/set2/pink.gif","img/card_backs/set2/blue.gif","img/card_backs/set2/orange.gif","""event"",""trial"",""time""
""fullscreenenter"",""1"",""1453""
","
","
","""event"",""trial"",""time""
""fullscreenenter"",""1"",""1453""
","
","","637","","","","practice","2021-07-30 15:04:51.944","img/practice_cards/backs/dark_green.gif","2","200","0","",""
"casino-fixation","45","244276","0.0-17.0-0.5","A1232","true","img/card_backs/set1/red.gif","img/card_backs/set1/green.gif","img/card_backs/set1/yellow.gif","img/card_backs/set1/purple.gif","img/card_backs/set2/gray.gif","img/card_backs/set2/pink.gif","img/card_backs/set2/blue.gif","img/card_backs/set2/orange.gif","""event"",""trial"",""time""
""fullscreenenter"",""1"",""1453""
","
","
","""event"",""trial"",""time""
""fullscreenenter"",""1"",""1453""
","
","","null","","null","","fixation","2021-07-30 15:04:52.446","","","","","",""
"card-selection-trial","46","246678","0.0-17.0-1.5","A1232","true","img/card_backs/set1/red.gif","img/card_backs/set1/green.gif","img/card_backs/set1/yellow.gif","img/card_backs/set1/purple.gif","img/card_backs/set2/gray.gif","img/card_backs/set2/pink.gif","img/card_backs/set2/blue.gif","img/card_backs/set2/orange.gif","""event"",""trial"",""time""
""fullscreenenter"",""1"",""1453""
","
","
","""event"",""trial"",""time""
""fullscreenenter"",""1"",""1453""
","
","","398","","","","practice","2021-07-30 15:04:54.848","img/practice_cards/backs/dark_green.gif","3","-200","0","",""
"casino-fixation","47","247181","0.0-17.0-0.6","A1232","true","img/card_backs/set1/red.gif","img/card_backs/set1/green.gif","img/card_backs/set1/yellow.gif","img/card_backs/set1/purple.gif","img/card_backs/set2/gray.gif","img/card_backs/set2/pink.gif","img/card_backs/set2/blue.gif","img/card_backs/set2/orange.gif","""event"",""trial"",""time""
""fullscreenenter"",""1"",""1453""
","
","
","""event"",""trial"",""time""
""fullscreenenter"",""1"",""1453""
","
","","null","","null","","fixation","2021-07-30 15:04:55.351","","","","","",""
"card-selection-trial","48","249734","0.0-17.0-1.6","A1232","true","img/card_backs/set1/red.gif","img/card_backs/set1/green.gif","img/card_backs/set1/yellow.gif","img/card_backs/set1/purple.gif","img/card_backs/set2/gray.gif","img/card_backs/set2/pink.gif","img/card_backs/set2/blue.gif","img/card_backs/set2/orange.gif","""event"",""trial"",""time""
""fullscreenenter"",""1"",""1453""
","
","
","""event"",""trial"",""time""
""fullscreenenter"",""1"",""1453""
","
","","546","","","","practice","2021-07-30 15:04:57.904","img/practice_cards/backs/dark_blue.gif","0","-200","0","",""
"casino-fixation","49","250236","0.0-17.0-0.7","A1232","true","img/card_backs/set1/red.gif","img/card_backs/set1/green.gif","img/card_backs/set1/yellow.gif","img/card_backs/set1/purple.gif","img/card_backs/set2/gray.gif","img/card_backs/set2/pink.gif","img/card_backs/set2/blue.gif","img/card_backs/set2/orange.gif","""event"",""trial"",""time""
""fullscreenenter"",""1"",""1453""
","
","
","""event"",""trial"",""time""
""fullscreenenter"",""1"",""1453""
","
","","null","","null","","fixation","2021-07-30 15:04:58.406","","","","","",""
"card-selection-trial","50","252571","0.0-17.0-1.7","A1232","true","img/card_backs/set1/red.gif","img/card_backs/set1/green.gif","img/card_backs/set1/yellow.gif","img/card_backs/set1/purple.gif","img/card_backs/set2/gray.gif","img/card_backs/set2/pink.gif","img/card_backs/set2/blue.gif","img/card_backs/set2/orange.gif","""event"",""trial"",""time""
""fullscreenenter"",""1"",""1453""
","
","
","""event"",""trial"",""time""
""fullscreenenter"",""1"",""1453""
","
","","330","","","","practice","2021-07-30 15:05:00.741","img/practice_cards/backs/dark_blue.gif","2","200","0","",""
"casino-fixation","51","253073","0.0-17.0-0.8","A1232","true","img/card_backs/set1/red.gif","img/card_backs/set1/green.gif","img/card_backs/set1/yellow.gif","img/card_backs/set1/purple.gif","img/card_backs/set2/gray.gif","img/card_backs/set2/pink.gif","img/card_backs/set2/blue.gif","img/card_backs/set2/orange.gif","""event"",""trial"",""time""
""fullscreenenter"",""1"",""1453""
","
","
","""event"",""trial"",""time""
""fullscreenenter"",""1"",""1453""
","
","","null","","null","","fixation","2021-07-30 15:05:01.243","","","","","",""
"card-selection-trial","52","255455","0.0-17.0-1.8","A1232","true","img/card_backs/set1/red.gif","img/card_backs/set1/green.gif","img/card_backs/set1/yellow.gif","img/card_backs/set1/purple.gif","img/card_backs/set2/gray.gif","img/card_backs/set2/pink.gif","img/card_backs/set2/blue.gif","img/card_backs/set2/orange.gif","""event"",""trial"",""time""
""fullscreenenter"",""1"",""1453""
","
","
","""event"",""trial"",""time""
""fullscreenenter"",""1"",""1453""
","
","","376.9999999999418","","","","practice","2021-07-30 15:05:03.625","img/practice_cards/backs/dark_blue.gif","2","200","0","",""
"casino-fixation","53","255957","0.0-17.0-0.9","A1232","true","img/card_backs/set1/red.gif","img/card_backs/set1/green.gif","img/card_backs/set1/yellow.gif","img/card_backs/set1/purple.gif","img/card_backs/set2/gray.gif","img/card_backs/set2/pink.gif","img/card_backs/set2/blue.gif","img/card_backs/set2/orange.gif","""event"",""trial"",""time""
""fullscreenenter"",""1"",""1453""
","
","
","""event"",""trial"",""time""
""fullscreenenter"",""1"",""1453""
","
","","null","","null","","fixation","2021-07-30 15:05:04.127","","","","","",""
"card-selection-trial","54","258372","0.0-17.0-1.9","A1232","true","img/card_backs/set1/red.gif","img/card_backs/set1/green.gif","img/card_backs/set1/yellow.gif","img/card_backs/set1/purple.gif","img/card_backs/set2/gray.gif","img/card_backs/set2/pink.gif","img/card_backs/set2/blue.gif","img/card_backs/set2/orange.gif","""event"",""trial"",""time""
""fullscreenenter"",""1"",""1453""
","
","
","""event"",""trial"",""time""
""fullscreenenter"",""1"",""1453""
","
","","410.0000000000291","","","","practice","2021-07-30 15:05:06.542","img/practice_cards/backs/dark_blue.gif","1","-200","0","",""
"casino-keyboard-response","55","261102","0.0-18.0","A1232","true","img/card_backs/set1/red.gif","img/card_backs/set1/green.gif","img/card_backs/set1/yellow.gif","img/card_backs/set1/purple.gif","img/card_backs/set2/gray.gif","img/card_backs/set2/pink.gif","img/card_backs/set2/blue.gif","img/card_backs/set2/orange.gif","""event"",""trial"",""time""
""fullscreenenter"",""1"",""1453""
","
","
","""event"",""trial"",""time""
""fullscreenenter"",""1"",""1453""
","
","","2726","You earned 0 tokens during the practice round!","82","","","2021-07-30 15:05:09.272","","","","","",""
"casino-keyboard-response","56","265025","0.0-19.0-0.0","A1232","true","img/card_backs/set1/red.gif","img/card_backs/set1/green.gif","img/card_backs/set1/yellow.gif","img/card_backs/set1/purple.gif","img/card_backs/set2/gray.gif","img/card_backs/set2/pink.gif","img/card_backs/set2/blue.gif","img/card_backs/set2/orange.gif","""event"",""trial"",""time""
""fullscreenenter"",""1"",""1453""
","
","
","""event"",""trial"",""time""
""fullscreenenter"",""1"",""1453""
","
","","3922","Nice job! You are almost ready to play the real game.","86","","instructions","2021-07-30 15:05:13.195","","","","","",""
"casino-keyboard-response","57","271109","0.0-19.0-0.1","A1232","true","img/card_backs/set1/red.gif","img/card_backs/set1/green.gif","img/card_backs/set1/yellow.gif","img/card_backs/set1/purple.gif","img/card_backs/set2/gray.gif","img/card_backs/set2/pink.gif","img/card_backs/set2/blue.gif","img/card_backs/set2/orange.gif","""event"",""trial"",""time""
""fullscreenenter"",""1"",""1453""
","
","
","""event"",""trial"",""time""
""fullscreenenter"",""1"",""1453""
","
","","6083","You will play two rounds of the real game. In each round, you will pick 100 cards in total.","73","","instructions","2021-07-30 15:05:19.279","","","","","",""
"casino-keyboard-response","58","275029","0.0-19.0-0.2","A1232","true","img/card_backs/set1/red.gif","img/card_backs/set1/green.gif","img/card_backs/set1/yellow.gif","img/card_backs/set1/purple.gif","img/card_backs/set2/gray.gif","img/card_backs/set2/pink.gif","img/card_backs/set2/blue.gif","img/card_backs/set2/orange.gif","""event"",""trial"",""time""
""fullscreenenter"",""1"",""1453""
","
","
","""event"",""trial"",""time""
""fullscreenenter"",""1"",""1453""
","
","","3920","We are now going to ask you some questions about how the game works.","66","","instructions","2021-07-30 15:05:23.199","","","","","",""
"casino-keyboard-response","59","280930","0.0-19.0-0.3","A1232","true","img/card_backs/set1/red.gif","img/card_backs/set1/green.gif","img/card_backs/set1/yellow.gif","img/card_backs/set1/purple.gif","img/card_backs/set2/gray.gif","img/card_backs/set2/pink.gif","img/card_backs/set2/blue.gif","img/card_backs/set2/orange.gif","""event"",""trial"",""time""
""fullscreenenter"",""1"",""1453""
","
","
","""event"",""trial"",""time""
""fullscreenenter"",""1"",""1453""
","
","","5900","Answer carefully. You will not be able to begin the game until you answer them correctly.","67","","instructions","2021-07-30 15:05:29.100","","","","","",""
"casino-comp_q","60","284562","0.0-20.0-0.0","A1232","true","img/card_backs/set1/red.gif","img/card_backs/set1/green.gif","img/card_backs/set1/yellow.gif","img/card_backs/set1/purple.gif","img/card_backs/set2/gray.gif","img/card_backs/set2/pink.gif","img/card_backs/set2/blue.gif","img/card_backs/set2/orange.gif","""event"",""trial"",""time""
""fullscreenenter"",""1"",""1453""
","
","
","""event"",""trial"",""time""
""fullscreenenter"",""1"",""1453""
","
","","3631","True or False: All the decks have some cards that cause you to win tokens and some cards that cause you to lose tokens.","84","","","2021-07-30 15:05:32.732","","","","","",""
"casino-keyboard-response","61","287118","0.0-20.0-1.0","A1232","true","img/card_backs/set1/red.gif","img/card_backs/set1/green.gif","img/card_backs/set1/yellow.gif","img/card_backs/set1/purple.gif","img/card_backs/set2/gray.gif","img/card_backs/set2/pink.gif","img/card_backs/set2/blue.gif","img/card_backs/set2/orange.gif","""event"",""trial"",""time""
""fullscreenenter"",""1"",""1453""
","
","
","""event"",""trial"",""time""
""fullscreenenter"",""1"",""1453""
","
","","2555","True is correct! All the decks have a mix of winning and losing cards.","77","","","2021-07-30 15:05:35.288","","","","","true",""
"casino-comp_q","62","289815","0.0-21.0-0.0","A1232","true","img/card_backs/set1/red.gif","img/card_backs/set1/green.gif","img/card_backs/set1/yellow.gif","img/card_backs/set1/purple.gif","img/card_backs/set2/gray.gif","img/card_backs/set2/pink.gif","img/card_backs/set2/blue.gif","img/card_backs/set2/orange.gif","""event"",""trial"",""time""
""fullscreenenter"",""1"",""1453""
","
","
","""event"",""trial"",""time""
""fullscreenenter"",""1"",""1453""
","
","","2695.999999999942","True or False: You will have as much time as you want to make your response.","70","","","2021-07-30 15:05:37.985","","","","","",""
"casino-keyboard-response","63","292345","0.0-21.0-1.0","A1232","true","img/card_backs/set1/red.gif","img/card_backs/set1/green.gif","img/card_backs/set1/yellow.gif","img/card_backs/set1/purple.gif","img/card_backs/set2/gray.gif","img/card_backs/set2/pink.gif","img/card_backs/set2/blue.gif","img/card_backs/set2/orange.gif","""event"",""trial"",""time""
""fullscreenenter"",""1"",""1453""
","
","
","""event"",""trial"",""time""
""fullscreenenter"",""1"",""1453""
","
","","2530","False is correct! You will only have 10 seconds to make each choice.","75","","","2021-07-30 15:05:40.516","","","","","true",""
"casino-comp_q","64","295436","0.0-22.0-0.0","A1232","true","img/card_backs/set1/red.gif","img/card_backs/set1/green.gif","img/card_backs/set1/yellow.gif","img/card_backs/set1/purple.gif","img/card_backs/set2/gray.gif","img/card_backs/set2/pink.gif","img/card_backs/set2/blue.gif","img/card_backs/set2/orange.gif","""event"",""trial"",""time""
""fullscreenenter"",""1"",""1453""
","
","
","""event"",""trial"",""time""
""fullscreenenter"",""1"",""1453""
","
","","3089","True or False: The location of the deck determines how lucky it is.","70","","","2021-07-30 15:05:43.606","","","","","",""
"casino-keyboard-response","65","297999","0.0-22.0-1.0","A1232","true","img/card_backs/set1/red.gif","img/card_backs/set1/green.gif","img/card_backs/set1/yellow.gif","img/card_backs/set1/purple.gif","img/card_backs/set2/gray.gif","img/card_backs/set2/pink.gif","img/card_backs/set2/blue.gif","img/card_backs/set2/orange.gif","""event"",""trial"",""time""
""fullscreenenter"",""1"",""1453""
","
","
","""event"",""trial"",""time""
""fullscreenenter"",""1"",""1453""
","
","","2563","False is correct! The <i>color</i>  of the deck determines how lucky or unlucky it is.","68","","","2021-07-30 15:05:46.169","","","","","true",""
"casino-keyboard-response","66","302957","0.0-23.0-0.0","A1232","true","img/card_backs/set1/red.gif","img/card_backs/set1/green.gif","img/card_backs/set1/yellow.gif","img/card_backs/set1/purple.gif","img/card_backs/set2/gray.gif","img/card_backs/set2/pink.gif","img/card_backs/set2/blue.gif","img/card_backs/set2/orange.gif","""event"",""trial"",""time""
""fullscreenenter"",""1"",""1453""
","
","
","""event"",""trial"",""time""
""fullscreenenter"",""1"",""1453""
","
","","4957.000000000058","Great job! Now it's time to start the real game.","82","","instructions","2021-07-30 15:05:51.128","","","","","",""
"casino-keyboard-response","67","307803","0.0-23.0-0.1","A1232","true","img/card_backs/set1/red.gif","img/card_backs/set1/green.gif","img/card_backs/set1/yellow.gif","img/card_backs/set1/purple.gif","img/card_backs/set2/gray.gif","img/card_backs/set2/pink.gif","img/card_backs/set2/blue.gif","img/card_backs/set2/orange.gif","""event"",""trial"",""time""
""fullscreenenter"",""1"",""1453""
","
","
","""event"",""trial"",""time""
""fullscreenenter"",""1"",""1453""
","
","","4845","Before we start, we're going to head into a new room of the casino.","86","","instructions","2021-07-30 15:05:55.973","","","","","",""
"casino-keyboard-response","68","314032","0.0-24.0-0.0","A1232","true","img/card_backs/set1/red.gif","img/card_backs/set1/green.gif","img/card_backs/set1/yellow.gif","img/card_backs/set1/purple.gif","img/card_backs/set2/gray.gif","img/card_backs/set2/pink.gif","img/card_backs/set2/blue.gif","img/card_backs/set2/orange.gif","""event"",""trial"",""time""
""fullscreenenter"",""1"",""1453""
","
","
","""event"",""trial"",""time""
""fullscreenenter"",""1"",""1453""
","
","","6229","Here we are! The real game will use different cards, but the rules will be the same.","71","","instructions","2021-07-30 15:06:02.202","","","","","",""
"casino-keyboard-response","69","319005","0.0-24.0-0.1","A1232","true","img/card_backs/set1/red.gif","img/card_backs/set1/green.gif","img/card_backs/set1/yellow.gif","img/card_backs/set1/purple.gif","img/card_backs/set2/gray.gif","img/card_backs/set2/pink.gif","img/card_backs/set2/blue.gif","img/card_backs/set2/orange.gif","""event"",""trial"",""time""
""fullscreenenter"",""1"",""1453""
","
","
","""event"",""trial"",""time""
""fullscreenenter"",""1"",""1453""
","
","","4972.000000000058","Ready? Put your fingers over the '2', '4', 6', and '8' keys so you are ready to play the game. </br> Then press 2 to start.","50","","instructions","2021-07-30 15:06:07.175","","","","","",""
"casino-fixation","70","319507","0.0-25.0-0.0","A1232","true","img/card_backs/set1/red.gif","img/card_backs/set1/green.gif","img/card_backs/set1/yellow.gif","img/card_backs/set1/purple.gif","img/card_backs/set2/gray.gif","img/card_backs/set2/pink.gif","img/card_backs/set2/blue.gif","img/card_backs/set2/orange.gif","""event"",""trial"",""time""
""fullscreenenter"",""1"",""1453""
","
","
","""event"",""trial"",""time""
""fullscreenenter"",""1"",""1453""
","
","","null","","null","","fixation","2021-07-30 15:06:07.677","","","","","",""
"card-selection-trial","71","322879","0.0-25.0-1.0","A1232","true","img/card_backs/set1/red.gif","img/card_backs/set1/green.gif","img/card_backs/set1/yellow.gif","img/card_backs/set1/purple.gif","img/card_backs/set2/gray.gif","img/card_backs/set2/pink.gif","img/card_backs/set2/blue.gif","img/card_backs/set2/orange.gif","""event"",""trial"",""time""
""fullscreenenter"",""1"",""1453""
","
","
","""event"",""trial"",""time""
""fullscreenenter"",""1"",""1453""
","
","","1366","","","","real_trial","2021-07-30 15:06:11.050","img/card_backs/set1/green.gif","1","-200","1","",""
"casino-fixation","72","323381","0.0-25.0-0.1","A1232","true","img/card_backs/set1/red.gif","img/card_backs/set1/green.gif","img/card_backs/set1/yellow.gif","img/card_backs/set1/purple.gif","img/card_backs/set2/gray.gif","img/card_backs/set2/pink.gif","img/card_backs/set2/blue.gif","img/card_backs/set2/orange.gif","""event"",""trial"",""time""
""fullscreenenter"",""1"",""1453""
","
","
","""event"",""trial"",""time""
""fullscreenenter"",""1"",""1453""
","
","","null","","null","","fixation","2021-07-30 15:06:11.551","","","","","",""
"card-selection-trial","73","326060","0.0-25.0-1.1","A1232","true","img/card_backs/set1/red.gif","img/card_backs/set1/green.gif","img/card_backs/set1/yellow.gif","img/card_backs/set1/purple.gif","img/card_backs/set2/gray.gif","img/card_backs/set2/pink.gif","img/card_backs/set2/blue.gif","img/card_backs/set2/orange.gif","""event"",""trial"",""time""
""fullscreenenter"",""1"",""1453""
","
","
","""event"",""trial"",""time""
""fullscreenenter"",""1"",""1453""
","
","","675","","","","real_trial","2021-07-30 15:06:14.230","img/card_backs/set1/yellow.gif","0","40","1","",""
"casino-fixation","74","326562","0.0-25.0-0.2","A1232","true","img/card_backs/set1/red.gif","img/card_backs/set1/green.gif","img/card_backs/set1/yellow.gif","img/card_backs/set1/purple.gif","img/card_backs/set2/gray.gif","img/card_backs/set2/pink.gif","img/card_backs/set2/blue.gif","img/card_backs/set2/orange.gif","""event"",""trial"",""time""
""fullscreenenter"",""1"",""1453""
","
","
","""event"",""trial"",""time""
""fullscreenenter"",""1"",""1453""
","
","","null","","null","","fixation","2021-07-30 15:06:14.732","","","","","",""
"card-selection-trial","75","330683","0.0-25.0-1.2","A1232","true","img/card_backs/set1/red.gif","img/card_backs/set1/green.gif","img/card_backs/set1/yellow.gif","img/card_backs/set1/purple.gif","img/card_backs/set2/gray.gif","img/card_backs/set2/pink.gif","img/card_backs/set2/blue.gif","img/card_backs/set2/orange.gif","""event"",""trial"",""time""
""fullscreenenter"",""1"",""1453""
","
","
","""event"",""trial"",""time""
""fullscreenenter"",""1"",""1453""
","
","","2117","","","","real_trial","2021-07-30 15:06:18.853","img/card_backs/set1/purple.gif","2","-90","1","",""
"casino-fixation","76","331186","0.0-25.0-0.3","A1232","true","img/card_backs/set1/red.gif","img/card_backs/set1/green.gif","img/card_backs/set1/yellow.gif","img/card_backs/set1/purple.gif","img/card_backs/set2/gray.gif","img/card_backs/set2/pink.gif","img/card_backs/set2/blue.gif","img/card_backs/set2/orange.gif","""event"",""trial"",""time""
""fullscreenenter"",""1"",""1453""
","
","
","""event"",""trial"",""time""
""fullscreenenter"",""1"",""1453""
","
","","null","","null","","fixation","2021-07-30 15:06:19.356","","","","","",""
"card-selection-trial","77","335630","0.0-25.0-1.3","A1232","true","img/card_backs/set1/red.gif","img/card_backs/set1/green.gif","img/card_backs/set1/yellow.gif","img/card_backs/set1/purple.gif","img/card_backs/set2/gray.gif","img/card_backs/set2/pink.gif","img/card_backs/set2/blue.gif","img/card_backs/set2/orange.gif","""event"",""trial"",""time""
""fullscreenenter"",""1"",""1453""
","
","
","""event"",""trial"",""time""
""fullscreenenter"",""1"",""1453""
","
","","2440","","","","real_trial","2021-07-30 15:06:23.800","img/card_backs/set1/yellow.gif","3","40","1","",""
"casino-fixation","78","336132","0.0-25.0-0.4","A1232","true","img/card_backs/set1/red.gif","img/card_backs/set1/green.gif","img/card_backs/set1/yellow.gif","img/card_backs/set1/purple.gif","img/card_backs/set2/gray.gif","img/card_backs/set2/pink.gif","img/card_backs/set2/blue.gif","img/card_backs/set2/orange.gif","""event"",""trial"",""time""
""fullscreenenter"",""1"",""1453""
","
","
","""event"",""trial"",""time""
""fullscreenenter"",""1"",""1453""
","
","","null","","null","","fixation","2021-07-30 15:06:24.302","","","","","",""
"card-selection-trial","79","339390","0.0-25.0-1.4","A1232","true","img/card_backs/set1/red.gif","img/card_backs/set1/green.gif","img/card_backs/set1/yellow.gif","img/card_backs/set1/purple.gif","img/card_backs/set2/gray.gif","img/card_backs/set2/pink.gif","img/card_backs/set2/blue.gif","img/card_backs/set2/orange.gif","""event"",""trial"",""time""
""fullscreenenter"",""1"",""1453""
","
","
","""event"",""trial"",""time""
""fullscreenenter"",""1"",""1453""
","
","","1254","","","","real_trial","2021-07-30 15:06:27.560","img/card_backs/set1/purple.gif","3","60","1","",""
"casino-fixation","80","339893","0.0-25.0-0.5","A1232","true","img/card_backs/set1/red.gif","img/card_backs/set1/green.gif","img/card_backs/set1/yellow.gif","img/card_backs/set1/purple.gif","img/card_backs/set2/gray.gif","img/card_backs/set2/pink.gif","img/card_backs/set2/blue.gif","img/card_backs/set2/orange.gif","""event"",""trial"",""time""
""fullscreenenter"",""1"",""1453""
","
","
","""event"",""trial"",""time""
""fullscreenenter"",""1"",""1453""
","
","","null","","null","","fixation","2021-07-30 15:06:28.063","","","","","",""
"card-selection-trial","81","342575","0.0-25.0-1.5","A1232","true","img/card_backs/set1/red.gif","img/card_backs/set1/green.gif","img/card_backs/set1/yellow.gif","img/card_backs/set1/purple.gif","img/card_backs/set2/gray.gif","img/card_backs/set2/pink.gif","img/card_backs/set2/blue.gif","img/card_backs/set2/orange.gif","""event"",""trial"",""time""
""fullscreenenter"",""1"",""1453""
","
","
","""event"",""trial"",""time""
""fullscreenenter"",""1"",""1453""
","
","","676.9999999999418","","","","real_trial","2021-07-30 15:06:30.745","img/card_backs/set1/green.gif","0","250","1","",""
"casino-fixation","82","343077","0.0-25.0-0.6","A1232","true","img/card_backs/set1/red.gif","img/card_backs/set1/green.gif","img/card_backs/set1/yellow.gif","img/card_backs/set1/purple.gif","img/card_backs/set2/gray.gif","img/card_backs/set2/pink.gif","img/card_backs/set2/blue.gif","img/card_backs/set2/orange.gif","""event"",""trial"",""time""
""fullscreenenter"",""1"",""1453""
","
","
","""event"",""trial"",""time""
""fullscreenenter"",""1"",""1453""
","
","","null","","null","","fixation","2021-07-30 15:06:31.247","","","","","",""
"card-selection-trial","83","346262","0.0-25.0-1.6","A1232","true","img/card_backs/set1/red.gif","img/card_backs/set1/green.gif","img/card_backs/set1/yellow.gif","img/card_backs/set1/purple.gif","img/card_backs/set2/gray.gif","img/card_backs/set2/pink.gif","img/card_backs/set2/blue.gif","img/card_backs/set2/orange.gif","""event"",""trial"",""time""
""fullscreenenter"",""1"",""1453""
","
","
","""event"",""trial"",""time""
""fullscreenenter"",""1"",""1453""
","
","","1181","","","","real_trial","2021-07-30 15:06:34.433","img/card_backs/set1/red.gif","0","250","1","",""
"casino-fixation","84","346764","0.0-25.0-0.7","A1232","true","img/card_backs/set1/red.gif","img/card_backs/set1/green.gif","img/card_backs/set1/yellow.gif","img/card_backs/set1/purple.gif","img/card_backs/set2/gray.gif","img/card_backs/set2/pink.gif","img/card_backs/set2/blue.gif","img/card_backs/set2/orange.gif","""event"",""trial"",""time""
""fullscreenenter"",""1"",""1453""
","
","
","""event"",""trial"",""time""
""fullscreenenter"",""1"",""1453""
","
","","null","","null","","fixation","2021-07-30 15:06:34.934","","","","","",""
"card-selection-trial","85","351343","0.0-25.0-1.7","A1232","true","img/card_backs/set1/red.gif","img/card_backs/set1/green.gif","img/card_backs/set1/yellow.gif","img/card_backs/set1/purple.gif","img/card_backs/set2/gray.gif","img/card_backs/set2/pink.gif","img/card_backs/set2/blue.gif","img/card_backs/set2/orange.gif","""event"",""trial"",""time""
""fullscreenenter"",""1"",""1453""
","
","
","""event"",""trial"",""time""
""fullscreenenter"",""1"",""1453""
","
","","2573","","","","real_trial","2021-07-30 15:06:39.513","img/card_backs/set1/purple.gif","1","-110","1","",""
"casino-fixation","86","351845","0.0-25.0-0.8","A1232","true","img/card_backs/set1/red.gif","img/card_backs/set1/green.gif","img/card_backs/set1/yellow.gif","img/card_backs/set1/purple.gif","img/card_backs/set2/gray.gif","img/card_backs/set2/pink.gif","img/card_backs/set2/blue.gif","img/card_backs/set2/orange.gif","""event"",""trial"",""time""
""fullscreenenter"",""1"",""1453""
","
","
","""event"",""trial"",""time""
""fullscreenenter"",""1"",""1453""
","
","","null","","null","","fixation","2021-07-30 15:06:40.015","","","","","",""
"card-selection-trial","87","354481","0.0-25.0-1.8","A1232","true","img/card_backs/set1/red.gif","img/card_backs/set1/green.gif","img/card_backs/set1/yellow.gif","img/card_backs/set1/purple.gif","img/card_backs/set2/gray.gif","img/card_backs/set2/pink.gif","img/card_backs/set2/blue.gif","img/card_backs/set2/orange.gif","""event"",""trial"",""time""
""fullscreenenter"",""1"",""1453""
","
","
","""event"",""trial"",""time""
""fullscreenenter"",""1"",""1453""
","
","","633.0000000000582","","","","real_trial","2021-07-30 15:06:42.651","img/card_backs/set1/red.gif","3","260","1","",""
"casino-fixation","88","354983","0.0-25.0-0.9","A1232","true","img/card_backs/set1/red.gif","img/card_backs/set1/green.gif","img/card_backs/set1/yellow.gif","img/card_backs/set1/purple.gif","img/card_backs/set2/gray.gif","img/card_backs/set2/pink.gif","img/card_backs/set2/blue.gif","img/card_backs/set2/orange.gif","""event"",""trial"",""time""
""fullscreenenter"",""1"",""1453""
","
","
","""event"",""trial"",""time""
""fullscreenenter"",""1"",""1453""
","
","","null","","null","","fixation","2021-07-30 15:06:43.153","","","","","",""
"card-selection-trial","89","357843","0.0-25.0-1.9","A1232","true","img/card_backs/set1/red.gif","img/card_backs/set1/green.gif","img/card_backs/set1/yellow.gif","img/card_backs/set1/purple.gif","img/card_backs/set2/gray.gif","img/card_backs/set2/pink.gif","img/card_backs/set2/blue.gif","img/card_backs/set2/orange.gif","""event"",""trial"",""time""
""fullscreenenter"",""1"",""1453""
","
","
","""event"",""trial"",""time""
""fullscreenenter"",""1"",""1453""
","
","","855","","","","real_trial","2021-07-30 15:06:46.013","img/card_backs/set1/red.gif","3","250","1","",""
"casino-fixation","90","358345","0.0-25.0-0.10","A1232","true","img/card_backs/set1/red.gif","img/card_backs/set1/green.gif","img/card_backs/set1/yellow.gif","img/card_backs/set1/purple.gif","img/card_backs/set2/gray.gif","img/card_backs/set2/pink.gif","img/card_backs/set2/blue.gif","img/card_backs/set2/orange.gif","""event"",""trial"",""time""
""fullscreenenter"",""1"",""1453""
","
","
","""event"",""trial"",""time""
""fullscreenenter"",""1"",""1453""
","
","","null","","null","","fixation","2021-07-30 15:06:46.515","","","","","",""
"card-selection-trial","91","362016","0.0-25.0-1.10","A1232","true","img/card_backs/set1/red.gif","img/card_backs/set1/green.gif","img/card_backs/set1/yellow.gif","img/card_backs/set1/purple.gif","img/card_backs/set2/gray.gif","img/card_backs/set2/pink.gif","img/card_backs/set2/blue.gif","img/card_backs/set2/orange.gif","""event"",""trial"",""time""
""fullscreenenter"",""1"",""1453""
","
","
","""event"",""trial"",""time""
""fullscreenenter"",""1"",""1453""
","
","","1667","","","","real_trial","2021-07-30 15:06:50.186","img/card_backs/set1/purple.gif","2","60","1","",""
"casino-fixation","92","362518","0.0-25.0-0.11","A1232","true","img/card_backs/set1/red.gif","img/card_backs/set1/green.gif","img/card_backs/set1/yellow.gif","img/card_backs/set1/purple.gif","img/card_backs/set2/gray.gif","img/card_backs/set2/pink.gif","img/card_backs/set2/blue.gif","img/card_backs/set2/orange.gif","""event"",""trial"",""time""
""fullscreenenter"",""1"",""1453""
","
","
","""event"",""trial"",""time""
""fullscreenenter"",""1"",""1453""
","
","","null","","null","","fixation","2021-07-30 15:06:50.688","","","","","",""
"card-selection-trial","93","365049","0.0-25.0-1.11","A1232","true","img/card_backs/set1/red.gif","img/card_backs/set1/green.gif","img/card_backs/set1/yellow.gif","img/card_backs/set1/purple.gif","img/card_backs/set2/gray.gif","img/card_backs/set2/pink.gif","img/card_backs/set2/blue.gif","img/card_backs/set2/orange.gif","""event"",""trial"",""time""
""fullscreenenter"",""1"",""1453""
","
","
","""event"",""trial"",""time""
""fullscreenenter"",""1"",""1453""
","
","","525.9999999999418","","","","real_trial","2021-07-30 15:06:53.219","img/card_backs/set1/purple.gif","2","60","1","",""
"casino-fixation","94","365551","0.0-25.0-0.12","A1232","true","img/card_backs/set1/red.gif","img/card_backs/set1/green.gif","img/card_backs/set1/yellow.gif","img/card_backs/set1/purple.gif","img/card_backs/set2/gray.gif","img/card_backs/set2/pink.gif","img/card_backs/set2/blue.gif","img/card_backs/set2/orange.gif","""event"",""trial"",""time""
""fullscreenenter"",""1"",""1453""
","
","
","""event"",""trial"",""time""
""fullscreenenter"",""1"",""1453""
","
","","null","","null","","fixation","2021-07-30 15:06:53.721","","","","","",""
"card-selection-trial","95","368621","0.0-25.0-1.12","A1232","true","img/card_backs/set1/red.gif","img/card_backs/set1/green.gif","img/card_backs/set1/yellow.gif","img/card_backs/set1/purple.gif","img/card_backs/set2/gray.gif","img/card_backs/set2/pink.gif","img/card_backs/set2/blue.gif","img/card_backs/set2/orange.gif","""event"",""trial"",""time""
""fullscreenenter"",""1"",""1453""
","
","
","""event"",""trial"",""time""
""fullscreenenter"",""1"",""1453""
","
","","1067","","","","real_trial","2021-07-30 15:06:56.791","img/card_backs/set1/purple.gif","0","50","1","",""
"casino-fixation","96","369123","0.0-25.0-0.13","A1232","true","img/card_backs/set1/red.gif","img/card_backs/set1/green.gif","img/card_backs/set1/yellow.gif","img/card_backs/set1/purple.gif","img/card_backs/set2/gray.gif","img/card_backs/set2/pink.gif","img/card_backs/set2/blue.gif","img/card_backs/set2/orange.gif","""event"",""trial"",""time""
""fullscreenenter"",""1"",""1453""
","
","
","""event"",""trial"",""time""
""fullscreenenter"",""1"",""1453""
","
","","null","","null","","fixation","2021-07-30 15:06:57.295","","","","","",""
"card-selection-trial","97","371885","0.0-25.0-1.13","A1232","true","img/card_backs/set1/red.gif","img/card_backs/set1/green.gif","img/card_backs/set1/yellow.gif","img/card_backs/set1/purple.gif","img/card_backs/set2/gray.gif","img/card_backs/set2/pink.gif","img/card_backs/set2/blue.gif","img/card_backs/set2/orange.gif","""event"",""trial"",""time""
""fullscreenenter"",""1"",""1453""
","
","
","""event"",""trial"",""time""
""fullscreenenter"",""1"",""1453""
","
","","755","","","","real_trial","2021-07-30 15:07:00.055","img/card_backs/set1/purple.gif","3","-110","1","",""
"casino-fixation","98","372388","0.0-25.0-0.14","A1232","true","img/card_backs/set1/red.gif","img/card_backs/set1/green.gif","img/card_backs/set1/yellow.gif","img/card_backs/set1/purple.gif","img/card_backs/set2/gray.gif","img/card_backs/set2/pink.gif","img/card_backs/set2/blue.gif","img/card_backs/set2/orange.gif","""event"",""trial"",""time""
""fullscreenenter"",""1"",""1453""
","
","
","""event"",""trial"",""time""
""fullscreenenter"",""1"",""1453""
","
","","null","","null","","fixation","2021-07-30 15:07:00.559","","","","","",""
"card-selection-trial","99","375236","0.0-25.0-1.14","A1232","true","img/card_backs/set1/red.gif","img/card_backs/set1/green.gif","img/card_backs/set1/yellow.gif","img/card_backs/set1/purple.gif","img/card_backs/set2/gray.gif","img/card_backs/set2/pink.gif","img/card_backs/set2/blue.gif","img/card_backs/set2/orange.gif","""event"",""trial"",""time""
""fullscreenenter"",""1"",""1453""
","
","
","""event"",""trial"",""time""
""fullscreenenter"",""1"",""1453""
","
","","843.9999999999418","","","","real_trial","2021-07-30 15:07:03.407","img/card_backs/set1/purple.gif","1","-90","1","",""
"casino-fixation","100","375738","0.0-25.0-0.15","A1232","true","img/card_backs/set1/red.gif","img/card_backs/set1/green.gif","img/card_backs/set1/yellow.gif","img/card_backs/set1/purple.gif","img/card_backs/set2/gray.gif","img/card_backs/set2/pink.gif","img/card_backs/set2/blue.gif","img/card_backs/set2/orange.gif","""event"",""trial"",""time""
""fullscreenenter"",""1"",""1453""
","
","
","""event"",""trial"",""time""
""fullscreenenter"",""1"",""1453""
","
","","null","","null","","fixation","2021-07-30 15:07:03.908","","","","","",""
"card-selection-trial","101","378535","0.0-25.0-1.15","A1232","true","img/card_backs/set1/red.gif","img/card_backs/set1/green.gif","img/card_backs/set1/yellow.gif","img/card_backs/set1/purple.gif","img/card_backs/set2/gray.gif","img/card_backs/set2/pink.gif","img/card_backs/set2/blue.gif","img/card_backs/set2/orange.gif","""event"",""trial"",""time""
""fullscreenenter"",""1"",""1453""
","
","
","""event"",""trial"",""time""
""fullscreenenter"",""1"",""1453""
","
","","792.0000000000582","","","","real_trial","2021-07-30 15:07:06.705","img/card_backs/set1/purple.gif","2","-100","1","",""
"casino-fixation","102","379036","0.0-25.0-0.16","A1232","true","img/card_backs/set1/red.gif","img/card_backs/set1/green.gif","img/card_backs/set1/yellow.gif","img/card_backs/set1/purple.gif","img/card_backs/set2/gray.gif","img/card_backs/set2/pink.gif","img/card_backs/set2/blue.gif","img/card_backs/set2/orange.gif","""event"",""trial"",""time""
""fullscreenenter"",""1"",""1453""
","
","
","""event"",""trial"",""time""
""fullscreenenter"",""1"",""1453""
","
","","null","","null","","fixation","2021-07-30 15:07:07.206","","","","","",""
"card-selection-trial","103","381914","0.0-25.0-1.16","A1232","true","img/card_backs/set1/red.gif","img/card_backs/set1/green.gif","img/card_backs/set1/yellow.gif","img/card_backs/set1/purple.gif","img/card_backs/set2/gray.gif","img/card_backs/set2/pink.gif","img/card_backs/set2/blue.gif","img/card_backs/set2/orange.gif","""event"",""trial"",""time""
""fullscreenenter"",""1"",""1453""
","
","
","""event"",""trial"",""time""
""fullscreenenter"",""1"",""1453""
","
","","875","","","","real_trial","2021-07-30 15:07:10.084","img/card_backs/set1/purple.gif","0","-100","1","",""
"casino-fixation","104","382416","0.0-25.0-0.17","A1232","true","img/card_backs/set1/red.gif","img/card_backs/set1/green.gif","img/card_backs/set1/yellow.gif","img/card_backs/set1/purple.gif","img/card_backs/set2/gray.gif","img/card_backs/set2/pink.gif","img/card_backs/set2/blue.gif","img/card_backs/set2/orange.gif","""event"",""trial"",""time""
""fullscreenenter"",""1"",""1453""
","
","
","""event"",""trial"",""time""
""fullscreenenter"",""1"",""1453""
","
","","null","","null","","fixation","2021-07-30 15:07:10.586","","","","","",""
"card-selection-trial","105","385740","0.0-25.0-1.17","A1232","true","img/card_backs/set1/red.gif","img/card_backs/set1/green.gif","img/card_backs/set1/yellow.gif","img/card_backs/set1/purple.gif","img/card_backs/set2/gray.gif","img/card_backs/set2/pink.gif","img/card_backs/set2/blue.gif","img/card_backs/set2/orange.gif","""event"",""trial"",""time""
""fullscreenenter"",""1"",""1453""
","
","
","""event"",""trial"",""time""
""fullscreenenter"",""1"",""1453""
","
","","1320","","","","real_trial","2021-07-30 15:07:13.910","img/card_backs/set1/yellow.gif","1","-100","1","",""
"casino-fixation","106","386242","0.0-25.0-0.18","A1232","true","img/card_backs/set1/red.gif","img/card_backs/set1/green.gif","img/card_backs/set1/yellow.gif","img/card_backs/set1/purple.gif","img/card_backs/set2/gray.gif","img/card_backs/set2/pink.gif","img/card_backs/set2/blue.gif","img/card_backs/set2/orange.gif","""event"",""trial"",""time""
""fullscreenenter"",""1"",""1453""
","
","
","""event"",""trial"",""time""
""fullscreenenter"",""1"",""1453""
","
","","null","","null","","fixation","2021-07-30 15:07:14.412","","","","","",""
"card-selection-trial","107","388939","0.0-25.0-1.18","A1232","true","img/card_backs/set1/red.gif","img/card_backs/set1/green.gif","img/card_backs/set1/yellow.gif","img/card_backs/set1/purple.gif","img/card_backs/set2/gray.gif","img/card_backs/set2/pink.gif","img/card_backs/set2/blue.gif","img/card_backs/set2/orange.gif","""event"",""trial"",""time""
""fullscreenenter"",""1"",""1453""
","
","
","""event"",""trial"",""time""
""fullscreenenter"",""1"",""1453""
","
","","694","","","","real_trial","2021-07-30 15:07:17.109","img/card_backs/set1/yellow.gif","2","60","1","",""
"casino-fixation","108","389441","0.0-25.0-0.19","A1232","true","img/card_backs/set1/red.gif","img/card_backs/set1/green.gif","img/card_backs/set1/yellow.gif","img/card_backs/set1/purple.gif","img/card_backs/set2/gray.gif","img/card_backs/set2/pink.gif","img/card_backs/set2/blue.gif","img/card_backs/set2/orange.gif","""event"",""trial"",""time""
""fullscreenenter"",""1"",""1453""
","
","
","""event"",""trial"",""time""
""fullscreenenter"",""1"",""1453""
","
","","null","","null","","fixation","2021-07-30 15:07:17.611","","","","","",""
"card-selection-trial","109","392193","0.0-25.0-1.19","A1232","true","img/card_backs/set1/red.gif","img/card_backs/set1/green.gif","img/card_backs/set1/yellow.gif","img/card_backs/set1/purple.gif","img/card_backs/set2/gray.gif","img/card_backs/set2/pink.gif","img/card_backs/set2/blue.gif","img/card_backs/set2/orange.gif","""event"",""trial"",""time""
""fullscreenenter"",""1"",""1453""
","
","
","""event"",""trial"",""time""
""fullscreenenter"",""1"",""1453""
","
","","747.9999999999418","","","","real_trial","2021-07-30 15:07:20.363","img/card_backs/set1/purple.gif","0","-100","1","",""
"casino-fixation","110","392695","0.0-25.0-0.20","A1232","true","img/card_backs/set1/red.gif","img/card_backs/set1/green.gif","img/card_backs/set1/yellow.gif","img/card_backs/set1/purple.gif","img/card_backs/set2/gray.gif","img/card_backs/set2/pink.gif","img/card_backs/set2/blue.gif","img/card_backs/set2/orange.gif","""event"",""trial"",""time""
""fullscreenenter"",""1"",""1453""
","
","
","""event"",""trial"",""time""
""fullscreenenter"",""1"",""1453""
","
","","null","","null","","fixation","2021-07-30 15:07:20.865","","","","","",""
"card-selection-trial","111","395429","0.0-25.0-1.20","A1232","true","img/card_backs/set1/red.gif","img/card_backs/set1/green.gif","img/card_backs/set1/yellow.gif","img/card_backs/set1/purple.gif","img/card_backs/set2/gray.gif","img/card_backs/set2/pink.gif","img/card_backs/set2/blue.gif","img/card_backs/set2/orange.gif","""event"",""trial"",""time""
""fullscreenenter"",""1"",""1453""
","
","
","""event"",""trial"",""time""
""fullscreenenter"",""1"",""1453""
","
","","728.0000000000582","","","","real_trial","2021-07-30 15:07:23.599","img/card_backs/set1/purple.gif","1","40","1","",""
"casino-fixation","112","395931","0.0-25.0-0.21","A1232","true","img/card_backs/set1/red.gif","img/card_backs/set1/green.gif","img/card_backs/set1/yellow.gif","img/card_backs/set1/purple.gif","img/card_backs/set2/gray.gif","img/card_backs/set2/pink.gif","img/card_backs/set2/blue.gif","img/card_backs/set2/orange.gif","""event"",""trial"",""time""
""fullscreenenter"",""1"",""1453""
","
","
","""event"",""trial"",""time""
""fullscreenenter"",""1"",""1453""
","
","","null","","null","","fixation","2021-07-30 15:07:24.101","","","","","",""
"card-selection-trial","113","398674","0.0-25.0-1.21","A1232","true","img/card_backs/set1/red.gif","img/card_backs/set1/green.gif","img/card_backs/set1/yellow.gif","img/card_backs/set1/purple.gif","img/card_backs/set2/gray.gif","img/card_backs/set2/pink.gif","img/card_backs/set2/blue.gif","img/card_backs/set2/orange.gif","""event"",""trial"",""time""
""fullscreenenter"",""1"",""1453""
","
","
","""event"",""trial"",""time""
""fullscreenenter"",""1"",""1453""
","
","","738","","","","real_trial","2021-07-30 15:07:26.844","img/card_backs/set1/green.gif","0","-190","1","",""
"casino-fixation","114","399176","0.0-25.0-0.22","A1232","true","img/card_backs/set1/red.gif","img/card_backs/set1/green.gif","img/card_backs/set1/yellow.gif","img/card_backs/set1/purple.gif","img/card_backs/set2/gray.gif","img/card_backs/set2/pink.gif","img/card_backs/set2/blue.gif","img/card_backs/set2/orange.gif","""event"",""trial"",""time""
""fullscreenenter"",""1"",""1453""
","
","
","""event"",""trial"",""time""
""fullscreenenter"",""1"",""1453""
","
","","null","","null","","fixation","2021-07-30 15:07:27.346","","","","","",""
"card-selection-trial","115","402220","0.0-25.0-1.22","A1232","true","img/card_backs/set1/red.gif","img/card_backs/set1/green.gif","img/card_backs/set1/yellow.gif","img/card_backs/set1/purple.gif","img/card_backs/set2/gray.gif","img/card_backs/set2/pink.gif","img/card_backs/set2/blue.gif","img/card_backs/set2/orange.gif","""event"",""trial"",""time""
""fullscreenenter"",""1"",""1453""
","
","
","""event"",""trial"",""time""
""fullscreenenter"",""1"",""1453""
","
","","1039","","","","real_trial","2021-07-30 15:07:30.390","img/card_backs/set1/yellow.gif","1","50","1","",""
"casino-fixation","116","402722","0.0-25.0-0.23","A1232","true","img/card_backs/set1/red.gif","img/card_backs/set1/green.gif","img/card_backs/set1/yellow.gif","img/card_backs/set1/purple.gif","img/card_backs/set2/gray.gif","img/card_backs/set2/pink.gif","img/card_backs/set2/blue.gif","img/card_backs/set2/orange.gif","""event"",""trial"",""time""
""fullscreenenter"",""1"",""1453""
","
","
","""event"",""trial"",""time""
""fullscreenenter"",""1"",""1453""
","
","","null","","null","","fixation","2021-07-30 15:07:30.893","","","","","",""
"card-selection-trial","117","405823","0.0-25.0-1.23","A1232","true","img/card_backs/set1/red.gif","img/card_backs/set1/green.gif","img/card_backs/set1/yellow.gif","img/card_backs/set1/purple.gif","img/card_backs/set2/gray.gif","img/card_backs/set2/pink.gif","img/card_backs/set2/blue.gif","img/card_backs/set2/orange.gif","""event"",""trial"",""time""
""fullscreenenter"",""1"",""1453""
","
","
","""event"",""trial"",""time""
""fullscreenenter"",""1"",""1453""
","
","","1093","","","","real_trial","2021-07-30 15:07:33.993","img/card_backs/set1/purple.gif","2","50","1","",""
"casino-fixation","118","406325","0.0-25.0-0.24","A1232","true","img/card_backs/set1/red.gif","img/card_backs/set1/green.gif","img/card_backs/set1/yellow.gif","img/card_backs/set1/purple.gif","img/card_backs/set2/gray.gif","img/card_backs/set2/pink.gif","img/card_backs/set2/blue.gif","img/card_backs/set2/orange.gif","""event"",""trial"",""time""
""fullscreenenter"",""1"",""1453""
","
","
","""event"",""trial"",""time""
""fullscreenenter"",""1"",""1453""
","
","","null","","null","","fixation","2021-07-30 15:07:34.495","","","","","",""
"card-selection-trial","119","409542","0.0-25.0-1.24","A1232","true","img/card_backs/set1/red.gif","img/card_backs/set1/green.gif","img/card_backs/set1/yellow.gif","img/card_backs/set1/purple.gif","img/card_backs/set2/gray.gif","img/card_backs/set2/pink.gif","img/card_backs/set2/blue.gif","img/card_backs/set2/orange.gif","""event"",""trial"",""time""
""fullscreenenter"",""1"",""1453""
","
","
","""event"",""trial"",""time""
""fullscreenenter"",""1"",""1453""
","
","","1212","","","","real_trial","2021-07-30 15:07:37.712","img/card_backs/set1/purple.gif","1","60","1","",""
"casino-fixation","120","410044","0.0-25.0-0.25","A1232","true","img/card_backs/set1/red.gif","img/card_backs/set1/green.gif","img/card_backs/set1/yellow.gif","img/card_backs/set1/purple.gif","img/card_backs/set2/gray.gif","img/card_backs/set2/pink.gif","img/card_backs/set2/blue.gif","img/card_backs/set2/orange.gif","""event"",""trial"",""time""
""fullscreenenter"",""1"",""1453""
","
","
","""event"",""trial"",""time""
""fullscreenenter"",""1"",""1453""
","
","","null","","null","","fixation","2021-07-30 15:07:38.214","","","","","",""
"card-selection-trial","121","412987","0.0-25.0-1.25","A1232","true","img/card_backs/set1/red.gif","img/card_backs/set1/green.gif","img/card_backs/set1/yellow.gif","img/card_backs/set1/purple.gif","img/card_backs/set2/gray.gif","img/card_backs/set2/pink.gif","img/card_backs/set2/blue.gif","img/card_backs/set2/orange.gif","""event"",""trial"",""time""
""fullscreenenter"",""1"",""1453""
","
","
","""event"",""trial"",""time""
""fullscreenenter"",""1"",""1453""
","
","","939","","","","real_trial","2021-07-30 15:07:41.157","img/card_backs/set1/green.gif","1","250","1","",""
"casino-fixation","122","413489","0.0-25.0-0.26","A1232","true","img/card_backs/set1/red.gif","img/card_backs/set1/green.gif","img/card_backs/set1/yellow.gif","img/card_backs/set1/purple.gif","img/card_backs/set2/gray.gif","img/card_backs/set2/pink.gif","img/card_backs/set2/blue.gif","img/card_backs/set2/orange.gif","""event"",""trial"",""time""
""fullscreenenter"",""1"",""1453""
","
","
","""event"",""trial"",""time""
""fullscreenenter"",""1"",""1453""
","
","","null","","null","","fixation","2021-07-30 15:07:41.659","","","","","",""
"card-selection-trial","123","416406","0.0-25.0-1.26","A1232","true","img/card_backs/set1/red.gif","img/card_backs/set1/green.gif","img/card_backs/set1/yellow.gif","img/card_backs/set1/purple.gif","img/card_backs/set2/gray.gif","img/card_backs/set2/pink.gif","img/card_backs/set2/blue.gif","img/card_backs/set2/orange.gif","""event"",""trial"",""time""
""fullscreenenter"",""1"",""1453""
","
","
","""event"",""trial"",""time""
""fullscreenenter"",""1"",""1453""
","
","","913","","","","real_trial","2021-07-30 15:07:44.576","img/card_backs/set1/green.gif","2","-210","1","",""
"casino-fixation","124","416908","0.0-25.0-0.27","A1232","true","img/card_backs/set1/red.gif","img/card_backs/set1/green.gif","img/card_backs/set1/yellow.gif","img/card_backs/set1/purple.gif","img/card_backs/set2/gray.gif","img/card_backs/set2/pink.gif","img/card_backs/set2/blue.gif","img/card_backs/set2/orange.gif","""event"",""trial"",""time""
""fullscreenenter"",""1"",""1453""
","
","
","""event"",""trial"",""time""
""fullscreenenter"",""1"",""1453""
","
","","null","","null","","fixation","2021-07-30 15:07:45.078","","","","","",""
"card-selection-trial","125","419445","0.0-25.0-1.27","A1232","true","img/card_backs/set1/red.gif","img/card_backs/set1/green.gif","img/card_backs/set1/yellow.gif","img/card_backs/set1/purple.gif","img/card_backs/set2/gray.gif","img/card_backs/set2/pink.gif","img/card_backs/set2/blue.gif","img/card_backs/set2/orange.gif","""event"",""trial"",""time""
""fullscreenenter"",""1"",""1453""
","
","
","""event"",""trial"",""time""
""fullscreenenter"",""1"",""1453""
","
","","532.0000000000582","","","","real_trial","2021-07-30 15:07:47.615","img/card_backs/set1/green.gif","0","240","1","",""
"casino-fixation","126","419947","0.0-25.0-0.28","A1232","true","img/card_backs/set1/red.gif","img/card_backs/set1/green.gif","img/card_backs/set1/yellow.gif","img/card_backs/set1/purple.gif","img/card_backs/set2/gray.gif","img/card_backs/set2/pink.gif","img/card_backs/set2/blue.gif","img/card_backs/set2/orange.gif","""event"",""trial"",""time""
""fullscreenenter"",""1"",""1453""
","
","
","""event"",""trial"",""time""
""fullscreenenter"",""1"",""1453""
","
","","null","","null","","fixation","2021-07-30 15:07:48.117","","","","","",""
"card-selection-trial","127","422833","0.0-25.0-1.28","A1232","true","img/card_backs/set1/red.gif","img/card_backs/set1/green.gif","img/card_backs/set1/yellow.gif","img/card_backs/set1/purple.gif","img/card_backs/set2/gray.gif","img/card_backs/set2/pink.gif","img/card_backs/set2/blue.gif","img/card_backs/set2/orange.gif","""event"",""trial"",""time""
""fullscreenenter"",""1"",""1453""
","
","
","""event"",""trial"",""time""
""fullscreenenter"",""1"",""1453""
","
","","878.9999999999418","","","","real_trial","2021-07-30 15:07:51.003","img/card_backs/set1/yellow.gif","2","-100","1","",""
"casino-fixation","128","423335","0.0-25.0-0.29","A1232","true","img/card_backs/set1/red.gif","img/card_backs/set1/green.gif","img/card_backs/set1/yellow.gif","img/card_backs/set1/purple.gif","img/card_backs/set2/gray.gif","img/card_backs/set2/pink.gif","img/card_backs/set2/blue.gif","img/card_backs/set2/orange.gif","""event"",""trial"",""time""
""fullscreenenter"",""1"",""1453""
","
","
","""event"",""trial"",""time""
""fullscreenenter"",""1"",""1453""
","
","","null","","null","","fixation","2021-07-30 15:07:51.505","","","","","",""
"card-selection-trial","129","425708","0.0-25.0-1.29","A1232","true","img/card_backs/set1/red.gif","img/card_backs/set1/green.gif","img/card_backs/set1/yellow.gif","img/card_backs/set1/purple.gif","img/card_backs/set2/gray.gif","img/card_backs/set2/pink.gif","img/card_backs/set2/blue.gif","img/card_backs/set2/orange.gif","""event"",""trial"",""time""
""fullscreenenter"",""1"",""1453""
","
","
","""event"",""trial"",""time""
""fullscreenenter"",""1"",""1453""
","
","","369.9999999999418","","","","real_trial","2021-07-30 15:07:53.878","img/card_backs/set1/yellow.gif","2","-110","1","",""
"casino-fixation","130","426211","0.0-25.0-0.30","A1232","true","img/card_backs/set1/red.gif","img/card_backs/set1/green.gif","img/card_backs/set1/yellow.gif","img/card_backs/set1/purple.gif","img/card_backs/set2/gray.gif","img/card_backs/set2/pink.gif","img/card_backs/set2/blue.gif","img/card_backs/set2/orange.gif","""event"",""trial"",""time""
""fullscreenenter"",""1"",""1453""
","
","
","""event"",""trial"",""time""
""fullscreenenter"",""1"",""1453""
","
","","null","","null","","fixation","2021-07-30 15:07:54.381","","","","","",""
"card-selection-trial","131","428926","0.0-25.0-1.30","A1232","true","img/card_backs/set1/red.gif","img/card_backs/set1/green.gif","img/card_backs/set1/yellow.gif","img/card_backs/set1/purple.gif","img/card_backs/set2/gray.gif","img/card_backs/set2/pink.gif","img/card_backs/set2/blue.gif","img/card_backs/set2/orange.gif","""event"",""trial"",""time""
""fullscreenenter"",""1"",""1453""
","
","
","""event"",""trial"",""time""
""fullscreenenter"",""1"",""1453""
","
","","710","","","","real_trial","2021-07-30 15:07:57.096","img/card_backs/set1/red.gif","0","-200","1","",""
"casino-fixation","132","429429","0.0-25.0-0.31","A1232","true","img/card_backs/set1/red.gif","img/card_backs/set1/green.gif","img/card_backs/set1/yellow.gif","img/card_backs/set1/purple.gif","img/card_backs/set2/gray.gif","img/card_backs/set2/pink.gif","img/card_backs/set2/blue.gif","img/card_backs/set2/orange.gif","""event"",""trial"",""time""
""fullscreenenter"",""1"",""1453""
","
","
","""event"",""trial"",""time""
""fullscreenenter"",""1"",""1453""
","
","","null","","null","","fixation","2021-07-30 15:07:57.599","","","","","",""
"card-selection-trial","133","432286","0.0-25.0-1.31","A1232","true","img/card_backs/set1/red.gif","img/card_backs/set1/green.gif","img/card_backs/set1/yellow.gif","img/card_backs/set1/purple.gif","img/card_backs/set2/gray.gif","img/card_backs/set2/pink.gif","img/card_backs/set2/blue.gif","img/card_backs/set2/orange.gif","""event"",""trial"",""time""
""fullscreenenter"",""1"",""1453""
","
","
","""event"",""trial"",""time""
""fullscreenenter"",""1"",""1453""
","
","","853","","","","real_trial","2021-07-30 15:08:00.456","img/card_backs/set1/yellow.gif","1","50","1","",""
"casino-fixation","134","432788","0.0-25.0-0.32","A1232","true","img/card_backs/set1/red.gif","img/card_backs/set1/green.gif","img/card_backs/set1/yellow.gif","img/card_backs/set1/purple.gif","img/card_backs/set2/gray.gif","img/card_backs/set2/pink.gif","img/card_backs/set2/blue.gif","img/card_backs/set2/orange.gif","""event"",""trial"",""time""
""fullscreenenter"",""1"",""1453""
","
","
","""event"",""trial"",""time""
""fullscreenenter"",""1"",""1453""
","
","","null","","null","","fixation","2021-07-30 15:08:00.958","","","","","",""
"card-selection-trial","135","435379","0.0-25.0-1.32","A1232","true","img/card_backs/set1/red.gif","img/card_backs/set1/green.gif","img/card_backs/set1/yellow.gif","img/card_backs/set1/purple.gif","img/card_backs/set2/gray.gif","img/card_backs/set2/pink.gif","img/card_backs/set2/blue.gif","img/card_backs/set2/orange.gif","""event"",""trial"",""time""
""fullscreenenter"",""1"",""1453""
","
","
","""event"",""trial"",""time""
""fullscreenenter"",""1"",""1453""
","
","","587.0000000000582","","","","real_trial","2021-07-30 15:08:03.549","img/card_backs/set1/yellow.gif","3","-90","1","",""
"casino-fixation","136","435881","0.0-25.0-0.33","A1232","true","img/card_backs/set1/red.gif","img/card_backs/set1/green.gif","img/card_backs/set1/yellow.gif","img/card_backs/set1/purple.gif","img/card_backs/set2/gray.gif","img/card_backs/set2/pink.gif","img/card_backs/set2/blue.gif","img/card_backs/set2/orange.gif","""event"",""trial"",""time""
""fullscreenenter"",""1"",""1453""
","
","
","""event"",""trial"",""time""
""fullscreenenter"",""1"",""1453""
","
","","null","","null","","fixation","2021-07-30 15:08:04.051","","","","","",""
"card-selection-trial","137","439090","0.0-25.0-1.33","A1232","true","img/card_backs/set1/red.gif","img/card_backs/set1/green.gif","img/card_backs/set1/yellow.gif","img/card_backs/set1/purple.gif","img/card_backs/set2/gray.gif","img/card_backs/set2/pink.gif","img/card_backs/set2/blue.gif","img/card_backs/set2/orange.gif","""event"",""trial"",""time""
""fullscreenenter"",""1"",""1453""
","
","
","""event"",""trial"",""time""
""fullscreenenter"",""1"",""1453""
","
","","1205","","","","real_trial","2021-07-30 15:08:07.261","img/card_backs/set1/purple.gif","3","60","1","",""
"casino-fixation","138","439593","0.0-25.0-0.34","A1232","true","img/card_backs/set1/red.gif","img/card_backs/set1/green.gif","img/card_backs/set1/yellow.gif","img/card_backs/set1/purple.gif","img/card_backs/set2/gray.gif","img/card_backs/set2/pink.gif","img/card_backs/set2/blue.gif","img/card_backs/set2/orange.gif","""event"",""trial"",""time""
""fullscreenenter"",""1"",""1453""
","
","
","""event"",""trial"",""time""
""fullscreenenter"",""1"",""1453""
","
","","null","","null","","fixation","2021-07-30 15:08:07.763","","","","","",""
"card-selection-trial","139","442154","0.0-25.0-1.34","A1232","true","img/card_backs/set1/red.gif","img/card_backs/set1/green.gif","img/card_backs/set1/yellow.gif","img/card_backs/set1/purple.gif","img/card_backs/set2/gray.gif","img/card_backs/set2/pink.gif","img/card_backs/set2/blue.gif","img/card_backs/set2/orange.gif","""event"",""trial"",""time""
""fullscreenenter"",""1"",""1453""
","
","
","""event"",""trial"",""time""
""fullscreenenter"",""1"",""1453""
","
","","557","","","","real_trial","2021-07-30 15:08:10.324","img/card_backs/set1/red.gif","0","260","1","",""
"casino-fixation","140","442656","0.0-25.0-0.35","A1232","true","img/card_backs/set1/red.gif","img/card_backs/set1/green.gif","img/card_backs/set1/yellow.gif","img/card_backs/set1/purple.gif","img/card_backs/set2/gray.gif","img/card_backs/set2/pink.gif","img/card_backs/set2/blue.gif","img/card_backs/set2/orange.gif","""event"",""trial"",""time""
""fullscreenenter"",""1"",""1453""
","
","
","""event"",""trial"",""time""
""fullscreenenter"",""1"",""1453""
","
","","null","","null","","fixation","2021-07-30 15:08:10.826","","","","","",""
"card-selection-trial","141","446241","0.0-25.0-1.35","A1232","true","img/card_backs/set1/red.gif","img/card_backs/set1/green.gif","img/card_backs/set1/yellow.gif","img/card_backs/set1/purple.gif","img/card_backs/set2/gray.gif","img/card_backs/set2/pink.gif","img/card_backs/set2/blue.gif","img/card_backs/set2/orange.gif","""event"",""trial"",""time""
""fullscreenenter"",""1"",""1453""
","
","
","""event"",""trial"",""time""
""fullscreenenter"",""1"",""1453""
","
","","1581","","","","real_trial","2021-07-30 15:08:14.411","img/card_backs/set1/red.gif","1","250","1","",""
"casino-fixation","142","446745","0.0-25.0-0.36","A1232","true","img/card_backs/set1/red.gif","img/card_backs/set1/green.gif","img/card_backs/set1/yellow.gif","img/card_backs/set1/purple.gif","img/card_backs/set2/gray.gif","img/card_backs/set2/pink.gif","img/card_backs/set2/blue.gif","img/card_backs/set2/orange.gif","""event"",""trial"",""time""
""fullscreenenter"",""1"",""1453""
","
","
","""event"",""trial"",""time""
""fullscreenenter"",""1"",""1453""
","
","","null","","null","","fixation","2021-07-30 15:08:14.915","","","","","",""
"card-selection-trial","143","449435","0.0-25.0-1.36","A1232","true","img/card_backs/set1/red.gif","img/card_backs/set1/green.gif","img/card_backs/set1/yellow.gif","img/card_backs/set1/purple.gif","img/card_backs/set2/gray.gif","img/card_backs/set2/pink.gif","img/card_backs/set2/blue.gif","img/card_backs/set2/orange.gif","""event"",""trial"",""time""
""fullscreenenter"",""1"",""1453""
","
","
","""event"",""trial"",""time""
""fullscreenenter"",""1"",""1453""
","
","","684","","","","real_trial","2021-07-30 15:08:17.605","img/card_backs/set1/red.gif","2","250","1","",""
"casino-fixation","144","449937","0.0-25.0-0.37","A1232","true","img/card_backs/set1/red.gif","img/card_backs/set1/green.gif","img/card_backs/set1/yellow.gif","img/card_backs/set1/purple.gif","img/card_backs/set2/gray.gif","img/card_backs/set2/pink.gif","img/card_backs/set2/blue.gif","img/card_backs/set2/orange.gif","""event"",""trial"",""time""
""fullscreenenter"",""1"",""1453""
","
","
","""event"",""trial"",""time""
""fullscreenenter"",""1"",""1453""
","
","","null","","null","","fixation","2021-07-30 15:08:18.108","","","","","",""
"card-selection-trial","145","452601","0.0-25.0-1.37","A1232","true","img/card_backs/set1/red.gif","img/card_backs/set1/green.gif","img/card_backs/set1/yellow.gif","img/card_backs/set1/purple.gif","img/card_backs/set2/gray.gif","img/card_backs/set2/pink.gif","img/card_backs/set2/blue.gif","img/card_backs/set2/orange.gif","""event"",""trial"",""time""
""fullscreenenter"",""1"",""1453""
","
","
","""event"",""trial"",""time""
""fullscreenenter"",""1"",""1453""
","
","","659","","","","real_trial","2021-07-30 15:08:20.771","img/card_backs/set1/red.gif","3","-200","1","",""
"casino-fixation","146","453103","0.0-25.0-0.38","A1232","true","img/card_backs/set1/red.gif","img/card_backs/set1/green.gif","img/card_backs/set1/yellow.gif","img/card_backs/set1/purple.gif","img/card_backs/set2/gray.gif","img/card_backs/set2/pink.gif","img/card_backs/set2/blue.gif","img/card_backs/set2/orange.gif","""event"",""trial"",""time""
""fullscreenenter"",""1"",""1453""
","
","
","""event"",""trial"",""time""
""fullscreenenter"",""1"",""1453""
","
","","null","","null","","fixation","2021-07-30 15:08:21.273","","","","","",""
"card-selection-trial","147","456066","0.0-25.0-1.38","A1232","true","img/card_backs/set1/red.gif","img/card_backs/set1/green.gif","img/card_backs/set1/yellow.gif","img/card_backs/set1/purple.gif","img/card_backs/set2/gray.gif","img/card_backs/set2/pink.gif","img/card_backs/set2/blue.gif","img/card_backs/set2/orange.gif","""event"",""trial"",""time""
""fullscreenenter"",""1"",""1453""
","
","
","""event"",""trial"",""time""
""fullscreenenter"",""1"",""1453""
","
","","960","","","","real_trial","2021-07-30 15:08:24.236","img/card_backs/set1/green.gif","2","-200","1","",""
"casino-fixation","148","456568","0.0-25.0-0.39","A1232","true","img/card_backs/set1/red.gif","img/card_backs/set1/green.gif","img/card_backs/set1/yellow.gif","img/card_backs/set1/purple.gif","img/card_backs/set2/gray.gif","img/card_backs/set2/pink.gif","img/card_backs/set2/blue.gif","img/card_backs/set2/orange.gif","""event"",""trial"",""time""
""fullscreenenter"",""1"",""1453""
","
","
","""event"",""trial"",""time""
""fullscreenenter"",""1"",""1453""
","
","","null","","null","","fixation","2021-07-30 15:08:24.738","","","","","",""
"card-selection-trial","149","458983","0.0-25.0-1.39","A1232","true","img/card_backs/set1/red.gif","img/card_backs/set1/green.gif","img/card_backs/set1/yellow.gif","img/card_backs/set1/purple.gif","img/card_backs/set2/gray.gif","img/card_backs/set2/pink.gif","img/card_backs/set2/blue.gif","img/card_backs/set2/orange.gif","""event"",""trial"",""time""
""fullscreenenter"",""1"",""1453""
","
","
","""event"",""trial"",""time""
""fullscreenenter"",""1"",""1453""
","
","","411","","","","real_trial","2021-07-30 15:08:27.153","img/card_backs/set1/red.gif","3","-200","1","",""
"casino-fixation","150","459485","0.0-25.0-0.40","A1232","true","img/card_backs/set1/red.gif","img/card_backs/set1/green.gif","img/card_backs/set1/yellow.gif","img/card_backs/set1/purple.gif","img/card_backs/set2/gray.gif","img/card_backs/set2/pink.gif","img/card_backs/set2/blue.gif","img/card_backs/set2/orange.gif","""event"",""trial"",""time""
""fullscreenenter"",""1"",""1453""
","
","
","""event"",""trial"",""time""
""fullscreenenter"",""1"",""1453""
","
","","null","","null","","fixation","2021-07-30 15:08:27.655","","","","","",""
"card-selection-trial","151","462638","0.0-25.0-1.40","A1232","true","img/card_backs/set1/red.gif","img/card_backs/set1/green.gif","img/card_backs/set1/yellow.gif","img/card_backs/set1/purple.gif","img/card_backs/set2/gray.gif","img/card_backs/set2/pink.gif","img/card_backs/set2/blue.gif","img/card_backs/set2/orange.gif","""event"",""trial"",""time""
""fullscreenenter"",""1"",""1453""
","
","
","""event"",""trial"",""time""
""fullscreenenter"",""1"",""1453""
","
","","1149","","","","real_trial","2021-07-30 15:08:30.808","img/card_backs/set1/yellow.gif","0","60","1","",""
"casino-fixation","152","463140","0.0-25.0-0.41","A1232","true","img/card_backs/set1/red.gif","img/card_backs/set1/green.gif","img/card_backs/set1/yellow.gif","img/card_backs/set1/purple.gif","img/card_backs/set2/gray.gif","img/card_backs/set2/pink.gif","img/card_backs/set2/blue.gif","img/card_backs/set2/orange.gif","""event"",""trial"",""time""
""fullscreenenter"",""1"",""1453""
","
","
","""event"",""trial"",""time""
""fullscreenenter"",""1"",""1453""
","
","","null","","null","","fixation","2021-07-30 15:08:31.310","","","","","",""
"card-selection-trial","153","465682","0.0-25.0-1.41","A1232","true","img/card_backs/set1/red.gif","img/card_backs/set1/green.gif","img/card_backs/set1/yellow.gif","img/card_backs/set1/purple.gif","img/card_backs/set2/gray.gif","img/card_backs/set2/pink.gif","img/card_backs/set2/blue.gif","img/card_backs/set2/orange.gif","""event"",""trial"",""time""
""fullscreenenter"",""1"",""1453""
","
","
","""event"",""trial"",""time""
""fullscreenenter"",""1"",""1453""
","
","","539","","","","real_trial","2021-07-30 15:08:33.852","img/card_backs/set1/red.gif","3","250","1","",""
"casino-fixation","154","466184","0.0-25.0-0.42","A1232","true","img/card_backs/set1/red.gif","img/card_backs/set1/green.gif","img/card_backs/set1/yellow.gif","img/card_backs/set1/purple.gif","img/card_backs/set2/gray.gif","img/card_backs/set2/pink.gif","img/card_backs/set2/blue.gif","img/card_backs/set2/orange.gif","""event"",""trial"",""time""
""fullscreenenter"",""1"",""1453""
","
","
","""event"",""trial"",""time""
""fullscreenenter"",""1"",""1453""
","
","","null","","null","","fixation","2021-07-30 15:08:34.356","","","","","",""
"card-selection-trial","155","468730","0.0-25.0-1.42","A1232","true","img/card_backs/set1/red.gif","img/card_backs/set1/green.gif","img/card_backs/set1/yellow.gif","img/card_backs/set1/purple.gif","img/card_backs/set2/gray.gif","img/card_backs/set2/pink.gif","img/card_backs/set2/blue.gif","img/card_backs/set2/orange.gif","""event"",""trial"",""time""
""fullscreenenter"",""1"",""1453""
","
","
","""event"",""trial"",""time""
""fullscreenenter"",""1"",""1453""
","
","","539.0000000000582","","","","real_trial","2021-07-30 15:08:36.900","img/card_backs/set1/purple.gif","0","-110","1","",""
"casino-fixation","156","469232","0.0-25.0-0.43","A1232","true","img/card_backs/set1/red.gif","img/card_backs/set1/green.gif","img/card_backs/set1/yellow.gif","img/card_backs/set1/purple.gif","img/card_backs/set2/gray.gif","img/card_backs/set2/pink.gif","img/card_backs/set2/blue.gif","img/card_backs/set2/orange.gif","""event"",""trial"",""time""
""fullscreenenter"",""1"",""1453""
","
","
","""event"",""trial"",""time""
""fullscreenenter"",""1"",""1453""
","
","","null","","null","","fixation","2021-07-30 15:08:37.403","","","","","",""
"card-selection-trial","157","471676","0.0-25.0-1.43","A1232","true","img/card_backs/set1/red.gif","img/card_backs/set1/green.gif","img/card_backs/set1/yellow.gif","img/card_backs/set1/purple.gif","img/card_backs/set2/gray.gif","img/card_backs/set2/pink.gif","img/card_backs/set2/blue.gif","img/card_backs/set2/orange.gif","""event"",""trial"",""time""
""fullscreenenter"",""1"",""1453""
","
","
","""event"",""trial"",""time""
""fullscreenenter"",""1"",""1453""
","
","","440","","","","real_trial","2021-07-30 15:08:39.847","img/card_backs/set1/yellow.gif","0","-110","1","",""
"casino-fixation","158","472179","0.0-25.0-0.44","A1232","true","img/card_backs/set1/red.gif","img/card_backs/set1/green.gif","img/card_backs/set1/yellow.gif","img/card_backs/set1/purple.gif","img/card_backs/set2/gray.gif","img/card_backs/set2/pink.gif","img/card_backs/set2/blue.gif","img/card_backs/set2/orange.gif","""event"",""trial"",""time""
""fullscreenenter"",""1"",""1453""
","
","
","""event"",""trial"",""time""
""fullscreenenter"",""1"",""1453""
","
","","null","","null","","fixation","2021-07-30 15:08:40.349","","","","","",""
"card-selection-trial","159","474366","0.0-25.0-1.44","A1232","true","img/card_backs/set1/red.gif","img/card_backs/set1/green.gif","img/card_backs/set1/yellow.gif","img/card_backs/set1/purple.gif","img/card_backs/set2/gray.gif","img/card_backs/set2/pink.gif","img/card_backs/set2/blue.gif","img/card_backs/set2/orange.gif","""event"",""trial"",""time""
""fullscreenenter"",""1"",""1453""
","
","
","""event"",""trial"",""time""
""fullscreenenter"",""1"",""1453""
","
","","183","","","","real_trial","2021-07-30 15:08:42.536","img/card_backs/set1/yellow.gif","3","60","1","",""
"casino-fixation","160","474868","0.0-25.0-0.45","A1232","true","img/card_backs/set1/red.gif","img/card_backs/set1/green.gif","img/card_backs/set1/yellow.gif","img/card_backs/set1/purple.gif","img/card_backs/set2/gray.gif","img/card_backs/set2/pink.gif","img/card_backs/set2/blue.gif","img/card_backs/set2/orange.gif","""event"",""trial"",""time""
""fullscreenenter"",""1"",""1453""
","
","
","""event"",""trial"",""time""
""fullscreenenter"",""1"",""1453""
","
","","null","","null","","fixation","2021-07-30 15:08:43.038","","","","","",""
"card-selection-trial","161","480418","0.0-25.0-1.45","A1232","true","img/card_backs/set1/red.gif","img/card_backs/set1/green.gif","img/card_backs/set1/yellow.gif","img/card_backs/set1/purple.gif","img/card_backs/set2/gray.gif","img/card_backs/set2/pink.gif","img/card_backs/set2/blue.gif","img/card_backs/set2/orange.gif","""event"",""trial"",""time""
""fullscreenenter"",""1"",""1453""
","
","
","""event"",""trial"",""time""
""fullscreenenter"",""1"",""1453""
","
","","3546","","","","real_trial","2021-07-30 15:08:48.589","img/card_backs/set1/green.gif","1","240","1","",""
"casino-fixation","162","480920","0.0-25.0-0.46","A1232","true","img/card_backs/set1/red.gif","img/card_backs/set1/green.gif","img/card_backs/set1/yellow.gif","img/card_backs/set1/purple.gif","img/card_backs/set2/gray.gif","img/card_backs/set2/pink.gif","img/card_backs/set2/blue.gif","img/card_backs/set2/orange.gif","""event"",""trial"",""time""
""fullscreenenter"",""1"",""1453""
","
","
","""event"",""trial"",""time""
""fullscreenenter"",""1"",""1453""
","
","","null","","null","","fixation","2021-07-30 15:08:49.090","","","","","",""
"card-selection-trial","163","483591","0.0-25.0-1.46","A1232","true","img/card_backs/set1/red.gif","img/card_backs/set1/green.gif","img/card_backs/set1/yellow.gif","img/card_backs/set1/purple.gif","img/card_backs/set2/gray.gif","img/card_backs/set2/pink.gif","img/card_backs/set2/blue.gif","img/card_backs/set2/orange.gif","""event"",""trial"",""time""
""fullscreenenter"",""1"",""1453""
","
","
","""event"",""trial"",""time""
""fullscreenenter"",""1"",""1453""
","
","","667","","","","real_trial","2021-07-30 15:08:51.761","img/card_backs/set1/green.gif","1","260","1","",""
"casino-fixation","164","484093","0.0-25.0-0.47","A1232","true","img/card_backs/set1/red.gif","img/card_backs/set1/green.gif","img/card_backs/set1/yellow.gif","img/card_backs/set1/purple.gif","img/card_backs/set2/gray.gif","img/card_backs/set2/pink.gif","img/card_backs/set2/blue.gif","img/card_backs/set2/orange.gif","""event"",""trial"",""time""
""fullscreenenter"",""1"",""1453""
","
","
","""event"",""trial"",""time""
""fullscreenenter"",""1"",""1453""
","
","","null","","null","","fixation","2021-07-30 15:08:52.264","","","","","",""
"card-selection-trial","165","486785","0.0-25.0-1.47","A1232","true","img/card_backs/set1/red.gif","img/card_backs/set1/green.gif","img/card_backs/set1/yellow.gif","img/card_backs/set1/purple.gif","img/card_backs/set2/gray.gif","img/card_backs/set2/pink.gif","img/card_backs/set2/blue.gif","img/card_backs/set2/orange.gif","""event"",""trial"",""time""
""fullscreenenter"",""1"",""1453""
","
","
","""event"",""trial"",""time""
""fullscreenenter"",""1"",""1453""
","
","","686","","","","real_trial","2021-07-30 15:08:54.955","img/card_backs/set1/green.gif","2","-190","1","",""
"casino-fixation","166","487288","0.0-25.0-0.48","A1232","true","img/card_backs/set1/red.gif","img/card_backs/set1/green.gif","img/card_backs/set1/yellow.gif","img/card_backs/set1/purple.gif","img/card_backs/set2/gray.gif","img/card_backs/set2/pink.gif","img/card_backs/set2/blue.gif","img/card_backs/set2/orange.gif","""event"",""trial"",""time""
""fullscreenenter"",""1"",""1453""
","
","
","""event"",""trial"",""time""
""fullscreenenter"",""1"",""1453""
","
","","null","","null","","fixation","2021-07-30 15:08:55.458","","","","","",""
"card-selection-trial","167","490449","0.0-25.0-1.48","A1232","true","img/card_backs/set1/red.gif","img/card_backs/set1/green.gif","img/card_backs/set1/yellow.gif","img/card_backs/set1/purple.gif","img/card_backs/set2/gray.gif","img/card_backs/set2/pink.gif","img/card_backs/set2/blue.gif","img/card_backs/set2/orange.gif","""event"",""trial"",""time""
""fullscreenenter"",""1"",""1453""
","
","
","""event"",""trial"",""time""
""fullscreenenter"",""1"",""1453""
","
","","1158.0000000000582","","","","real_trial","2021-07-30 15:08:58.620","img/card_backs/set1/yellow.gif","1","50","1","",""
"casino-fixation","168","490953","0.0-25.0-0.49","A1232","true","img/card_backs/set1/red.gif","img/card_backs/set1/green.gif","img/card_backs/set1/yellow.gif","img/card_backs/set1/purple.gif","img/card_backs/set2/gray.gif","img/card_backs/set2/pink.gif","img/card_backs/set2/blue.gif","img/card_backs/set2/orange.gif","""event"",""trial"",""time""
""fullscreenenter"",""1"",""1453""
","
","
","""event"",""trial"",""time""
""fullscreenenter"",""1"",""1453""
","
