"trial_type","trial_index","time_elapsed","internal_node_id","sub_id","risk_good_first","block1_A","block1_B","block1_C","block1_D","block2_A","block2_B","block2_C","block2_D","interactions","blur_events","focus_events","fullscreenenter_events","fullscreenexit_events","success","rt","stimulus","key_press","button_pressed","task_part","timestamp","card_choice","choice_position","points_earned","block","correct","response"
"pavlovia","0","9","0.0-0.0","980","false","img/card_backs/set1/green.gif","img/card_backs/set1/red.gif","img/card_backs/set1/purple.gif","img/card_backs/set1/yellow.gif","img/card_backs/set2/pink.gif","img/card_backs/set2/blue.gif","img/card_backs/set2/gray.gif","img/card_backs/set2/orange.gif","""event"",""trial"",""time""
""fullscreenenter"",""1"",""7195""
","
","
","""event"",""trial"",""time""
""fullscreenenter"",""1"",""7195""
","
","","","","","","","","","","","","",""
"fullscreen","1","8159","0.0-1.0","980","false","img/card_backs/set1/green.gif","img/card_backs/set1/red.gif","img/card_backs/set1/purple.gif","img/card_backs/set1/yellow.gif","img/card_backs/set2/pink.gif","img/card_backs/set2/blue.gif","img/card_backs/set2/gray.gif","img/card_backs/set2/orange.gif","""event"",""trial"",""time""
""fullscreenenter"",""1"",""7195""
","
","
","""event"",""trial"",""time""
""fullscreenenter"",""1"",""7195""
","
","true","","","","","","","","","","","",""
"audio-keyboard-response","2","10060","0.0-2.0","980","false","img/card_backs/set1/green.gif","img/card_backs/set1/red.gif","img/card_backs/set1/purple.gif","img/card_backs/set1/yellow.gif","img/card_backs/set2/pink.gif","img/card_backs/set2/blue.gif","img/card_backs/set2/gray.gif","img/card_backs/set2/orange.gif","""event"",""trial"",""time""
""fullscreenenter"",""1"",""7195""
","
","
","""event"",""trial"",""time""
""fullscreenenter"",""1"",""7195""
","
","","1869","audio/beep_loop.wav","32","","","","","","","","",""
"audio-button-response","3","12704","0.0-3.0","980","false","img/card_backs/set1/green.gif","img/card_backs/set1/red.gif","img/card_backs/set1/purple.gif","img/card_backs/set1/yellow.gif","img/card_backs/set2/pink.gif","img/card_backs/set2/blue.gif","img/card_backs/set2/gray.gif","img/card_backs/set2/orange.gif","""event"",""trial"",""time""
""fullscreenenter"",""1"",""7195""
","
","
","""event"",""trial"",""time""
""fullscreenenter"",""1"",""7195""
","
","","NaN","audio/turtle.mp3","","3","","","","","","","",""
"audio-button-response","4","15323","0.0-4.0","980","false","img/card_backs/set1/green.gif","img/card_backs/set1/red.gif","img/card_backs/set1/purple.gif","img/card_backs/set1/yellow.gif","img/card_backs/set2/pink.gif","img/card_backs/set2/blue.gif","img/card_backs/set2/gray.gif","img/card_backs/set2/orange.gif","""event"",""trial"",""time""
""fullscreenenter"",""1"",""7195""
","
","
","""event"",""trial"",""time""
""fullscreenenter"",""1"",""7195""
","
","","NaN","audio/shark.mp3","","2","","","","","","","",""
"fullscreen","5","20059","0.0-5.0","980","false","img/card_backs/set1/green.gif","img/card_backs/set1/red.gif","img/card_backs/set1/purple.gif","img/card_backs/set1/yellow.gif","img/card_backs/set2/pink.gif","img/card_backs/set2/blue.gif","img/card_backs/set2/gray.gif","img/card_backs/set2/orange.gif","""event"",""trial"",""time""
""fullscreenenter"",""1"",""7195""
","
","
","""event"",""trial"",""time""
""fullscreenenter"",""1"",""7195""
","
","true","","","","","","","","","","","",""
"casino-keyboard-response","6","23736","0.0-6.0-0.0","980","false","img/card_backs/set1/green.gif","img/card_backs/set1/red.gif","img/card_backs/set1/purple.gif","img/card_backs/set1/yellow.gif","img/card_backs/set2/pink.gif","img/card_backs/set2/blue.gif","img/card_backs/set2/gray.gif","img/card_backs/set2/orange.gif","""event"",""trial"",""time""
""fullscreenenter"",""1"",""7195""
","
","
","""event"",""trial"",""time""
""fullscreenenter"",""1"",""7195""
","
","","3668.600000143051","Welcome to the casino!","71","","instructions","2021-07-15 17:44:19.798","","","","","",""
"casino-keyboard-response","7","33282","0.0-6.0-0.1","980","false","img/card_backs/set1/green.gif","img/card_backs/set1/red.gif","img/card_backs/set1/purple.gif","img/card_backs/set1/yellow.gif","img/card_backs/set2/pink.gif","img/card_backs/set2/blue.gif","img/card_backs/set2/gray.gif","img/card_backs/set2/orange.gif","""event"",""trial"",""time""
""fullscreenenter"",""1"",""7195""
","
","
","""event"",""trial"",""time""
""fullscreenenter"",""1"",""7195""
","
","","9541.900000095367","Today you will be playing a game to earn tokens. </br> At the end of the experiment, you will be paid a bonus based on how many tokens you win. ","69","","instructions","2021-07-15 17:44:29.343","","","","","",""
"casino-keyboard-response","8","40857","0.0-6.0-0.2","980","false","img/card_backs/set1/green.gif","img/card_backs/set1/red.gif","img/card_backs/set1/purple.gif","img/card_backs/set1/yellow.gif","img/card_backs/set2/pink.gif","img/card_backs/set2/blue.gif","img/card_backs/set2/gray.gif","img/card_backs/set2/orange.gif","""event"",""trial"",""time""
""fullscreenenter"",""1"",""7195""
","
","
","""event"",""trial"",""time""
""fullscreenenter"",""1"",""7195""
","
","","7568.900000095367","On every turn, you will be shown four different decks of cards. </br> You need to select a card from one of the four decks.  ","75","","instructions","2021-07-15 17:44:36.918","","","","","",""
"casino-keyboard-response","9","45968","0.0-6.0-0.3","980","false","img/card_backs/set1/green.gif","img/card_backs/set1/red.gif","img/card_backs/set1/purple.gif","img/card_backs/set1/yellow.gif","img/card_backs/set2/pink.gif","img/card_backs/set2/blue.gif","img/card_backs/set2/gray.gif","img/card_backs/set2/orange.gif","""event"",""trial"",""time""
""fullscreenenter"",""1"",""7195""
","
","
","""event"",""trial"",""time""
""fullscreenenter"",""1"",""7195""
","
","","5110.799999952316","On the next screen, you will see what the decks will look like. ","66","","instructions","2021-07-15 17:44:42.029","","","","","",""
"card-selection-trial","10","49986","0.0-7.0-0.0","980","false","img/card_backs/set1/green.gif","img/card_backs/set1/red.gif","img/card_backs/set1/purple.gif","img/card_backs/set1/yellow.gif","img/card_backs/set2/pink.gif","img/card_backs/set2/blue.gif","img/card_backs/set2/gray.gif","img/card_backs/set2/orange.gif","""event"",""trial"",""time""
""fullscreenenter"",""1"",""7195""
","
","
","""event"",""trial"",""time""
""fullscreenenter"",""1"",""7195""
","
","","null","","","","practice","2021-07-15 17:44:46.047","null","null","null","0","",""
"casino-keyboard-response","11","58238","0.0-8.0-0.0","980","false","img/card_backs/set1/green.gif","img/card_backs/set1/red.gif","img/card_backs/set1/purple.gif","img/card_backs/set1/yellow.gif","img/card_backs/set2/pink.gif","img/card_backs/set2/blue.gif","img/card_backs/set2/gray.gif","img/card_backs/set2/orange.gif","""event"",""trial"",""time""
""fullscreenenter"",""1"",""7195""
","
","
","""event"",""trial"",""time""
""fullscreenenter"",""1"",""7195""
","
","","8248.200000047684","You should pick a card from a deck using the '2', '4', '6', and '8' keys at the top of the keyboard.","85","","instructions","2021-07-15 17:44:54.300","","","","","",""
"casino-keyboard-response","12","63778","0.0-8.0-0.1","980","false","img/card_backs/set1/green.gif","img/card_backs/set1/red.gif","img/card_backs/set1/purple.gif","img/card_backs/set1/yellow.gif","img/card_backs/set2/pink.gif","img/card_backs/set2/blue.gif","img/card_backs/set2/gray.gif","img/card_backs/set2/orange.gif","""event"",""trial"",""time""
""fullscreenenter"",""1"",""7195""
","
","
","""event"",""trial"",""time""
""fullscreenenter"",""1"",""7195""
","
","","5534.799999952316","Once you select a card, it will turn over and you will see how many tokens you earned.","83","","instructions","2021-07-15 17:44:59.839","","","","","",""
"casino-keyboard-response","13","79124","0.0-8.0-0.2","980","false","img/card_backs/set1/green.gif","img/card_backs/set1/red.gif","img/card_backs/set1/purple.gif","img/card_backs/set1/yellow.gif","img/card_backs/set2/pink.gif","img/card_backs/set2/blue.gif","img/card_backs/set2/gray.gif","img/card_backs/set2/orange.gif","""event"",""trial"",""time""
""fullscreenenter"",""1"",""7195""
","
","
","""event"",""trial"",""time""
""fullscreenenter"",""1"",""7195""
","
","","15341.899999856949","Let's try practicing that! </br> First, try to put your fingers over the '2', '4', '6', and '8' keys. </br>  You can use whatever fingers are most comfortable for you. Try to find a comfortable position now. ","50","","instructions","2021-07-15 17:45:15.185","","","","","",""
"casino-keyboard-response","14","85258","0.0-8.0-0.3","980","false","img/card_backs/set1/green.gif","img/card_backs/set1/red.gif","img/card_backs/set1/purple.gif","img/card_backs/set1/yellow.gif","img/card_backs/set2/pink.gif","img/card_backs/set2/blue.gif","img/card_backs/set2/gray.gif","img/card_backs/set2/orange.gif","""event"",""trial"",""time""
""fullscreenenter"",""1"",""7195""
","
","
","""event"",""trial"",""time""
""fullscreenenter"",""1"",""7195""
","
","","6128.899999856949","Okay ready? </br> On the next screen, press '2' to select the left deck. ","50","","instructions","2021-07-15 17:45:21.319","","","","","",""
"card-selection-trial","15","88545","0.0-9.0-0.0","980","false","img/card_backs/set1/green.gif","img/card_backs/set1/red.gif","img/card_backs/set1/purple.gif","img/card_backs/set1/yellow.gif","img/card_backs/set2/pink.gif","img/card_backs/set2/blue.gif","img/card_backs/set2/gray.gif","img/card_backs/set2/orange.gif","""event"",""trial"",""time""
""fullscreenenter"",""1"",""7195""
","
","
","""event"",""trial"",""time""
""fullscreenenter"",""1"",""7195""
","
","","1251.6999998092651","","","","practice_card_selection","2021-07-15 17:45:24.607","img/practice_cards/backs/brown.gif","0","-100","","",""
"casino-keyboard-response","16","94726","0.0-10.0-0.0","980","false","img/card_backs/set1/green.gif","img/card_backs/set1/red.gif","img/card_backs/set1/purple.gif","img/card_backs/set1/yellow.gif","img/card_backs/set2/pink.gif","img/card_backs/set2/blue.gif","img/card_backs/set2/gray.gif","img/card_backs/set2/orange.gif","""event"",""trial"",""time""
""fullscreenenter"",""1"",""7195""
","
","
","""event"",""trial"",""time""
""fullscreenenter"",""1"",""7195""
","
","","6177.900000095367","Great! Now on the next screen, try pressing '6' to select the third deck.","54","","instructions","2021-07-15 17:45:30.787","","","","","",""
"card-selection-trial","17","99590","0.0-11.0-0.0","980","false","img/card_backs/set1/green.gif","img/card_backs/set1/red.gif","img/card_backs/set1/purple.gif","img/card_backs/set1/yellow.gif","img/card_backs/set2/pink.gif","img/card_backs/set2/blue.gif","img/card_backs/set2/gray.gif","img/card_backs/set2/orange.gif","""event"",""trial"",""time""
""fullscreenenter"",""1"",""7195""
","
","
","""event"",""trial"",""time""
""fullscreenenter"",""1"",""7195""
","
","","2842.199999809265","","","","practice_card_selection","2021-07-15 17:45:35.651","img/practice_cards/backs/brown.gif","2","-100","","",""
"casino-keyboard-response","18","104422","0.0-12.0-0.0","980","false","img/card_backs/set1/green.gif","img/card_backs/set1/red.gif","img/card_backs/set1/purple.gif","img/card_backs/set1/yellow.gif","img/card_backs/set2/pink.gif","img/card_backs/set2/blue.gif","img/card_backs/set2/gray.gif","img/card_backs/set2/orange.gif","""event"",""trial"",""time""
""fullscreenenter"",""1"",""7195""
","
","
","""event"",""trial"",""time""
""fullscreenenter"",""1"",""7195""
","
","","4830.599999904633","Now on the next screen, try pressing '4' to select the second deck.","52","","instructions","2021-07-15 17:45:40.483","","","","","",""
"card-selection-trial","19","106838","0.0-13.0-0.0","980","false","img/card_backs/set1/green.gif","img/card_backs/set1/red.gif","img/card_backs/set1/purple.gif","img/card_backs/set1/yellow.gif","img/card_backs/set2/pink.gif","img/card_backs/set2/blue.gif","img/card_backs/set2/gray.gif","img/card_backs/set2/orange.gif","""event"",""trial"",""time""
""fullscreenenter"",""1"",""7195""
","
","
","""event"",""trial"",""time""
""fullscreenenter"",""1"",""7195""
","
","","400.7000000476837","","","","practice_card_selection","2021-07-15 17:45:42.899","img/practice_cards/backs/dark_blue.gif","1","200","","",""
"casino-keyboard-response","20","111502","0.0-14.0-0.0","980","false","img/card_backs/set1/green.gif","img/card_backs/set1/red.gif","img/card_backs/set1/purple.gif","img/card_backs/set1/yellow.gif","img/card_backs/set2/pink.gif","img/card_backs/set2/blue.gif","img/card_backs/set2/gray.gif","img/card_backs/set2/orange.gif","""event"",""trial"",""time""
""fullscreenenter"",""1"",""7195""
","
","
","""event"",""trial"",""time""
""fullscreenenter"",""1"",""7195""
","
","","4661.400000095367","Finally, try pressing '8' to select the deck all the way on the right.","56","","instructions","2021-07-15 17:45:47.564","","","","","",""
"card-selection-trial","21","113962","0.0-15.0-0.0","980","false","img/card_backs/set1/green.gif","img/card_backs/set1/red.gif","img/card_backs/set1/purple.gif","img/card_backs/set1/yellow.gif","img/card_backs/set2/pink.gif","img/card_backs/set2/blue.gif","img/card_backs/set2/gray.gif","img/card_backs/set2/orange.gif","""event"",""trial"",""time""
""fullscreenenter"",""1"",""7195""
","
","
","""event"",""trial"",""time""
""fullscreenenter"",""1"",""7195""
","
","","443.40000009536743","","","","practice_card_selection","2021-07-15 17:45:50.023","img/practice_cards/backs/brown.gif","3","-100","","",""
"casino-keyboard-response","22","118376","0.0-16.0-0.0","980","false","img/card_backs/set1/green.gif","img/card_backs/set1/red.gif","img/card_backs/set1/purple.gif","img/card_backs/set1/yellow.gif","img/card_backs/set2/pink.gif","img/card_backs/set2/blue.gif","img/card_backs/set2/gray.gif","img/card_backs/set2/orange.gif","""event"",""trial"",""time""
""fullscreenenter"",""1"",""7195""
","
","
","""event"",""trial"",""time""
""fullscreenenter"",""1"",""7195""
","
","","4411.400000095367","Great! It seems like you are getting the hang of this.","80","","instructions","2021-07-15 17:45:54.437","","","","","",""
"casino-keyboard-response","23","127955","0.0-16.0-0.1","980","false","img/card_backs/set1/green.gif","img/card_backs/set1/red.gif","img/card_backs/set1/purple.gif","img/card_backs/set1/yellow.gif","img/card_backs/set2/pink.gif","img/card_backs/set2/blue.gif","img/card_backs/set2/gray.gif","img/card_backs/set2/orange.gif","""event"",""trial"",""time""
""fullscreenenter"",""1"",""7195""
","
","
","""event"",""trial"",""time""
""fullscreenenter"",""1"",""7195""
","
","","9574.700000047684","You may have noticed that some cards will cause you to <b> win </b> tokens while other cards will cause you to <b> lose </b>  tokens.","70","","instructions","2021-07-15 17:46:04.017","","","","","",""
"casino-keyboard-response","24","136685","0.0-16.0-0.2","980","false","img/card_backs/set1/green.gif","img/card_backs/set1/red.gif","img/card_backs/set1/purple.gif","img/card_backs/set1/yellow.gif","img/card_backs/set2/pink.gif","img/card_backs/set2/blue.gif","img/card_backs/set2/gray.gif","img/card_backs/set2/orange.gif","""event"",""trial"",""time""
""fullscreenenter"",""1"",""7195""
","
","
","""event"",""trial"",""time""
""fullscreenenter"",""1"",""7195""
","
","","8724.600000143051","Each deck has a mix of cards that will cause you to win and lose tokens. </br> However, the cards in each colored deck are different.","73","","instructions","2021-07-15 17:46:12.746","","","","","",""
"casino-keyboard-response","25","150995","0.0-16.0-0.3","980","false","img/card_backs/set1/green.gif","img/card_backs/set1/red.gif","img/card_backs/set1/purple.gif","img/card_backs/set1/yellow.gif","img/card_backs/set2/pink.gif","img/card_backs/set2/blue.gif","img/card_backs/set2/gray.gif","img/card_backs/set2/orange.gif","""event"",""trial"",""time""
""fullscreenenter"",""1"",""7195""
","
","
","""event"",""trial"",""time""
""fullscreenenter"",""1"",""7195""
","
","","14305.600000143051","Some colored decks are luckier than others. </br> If you choose the lucky decks, you will earn more tokens than if you choose the unlucky decks.","69","","instructions","2021-07-15 17:46:27.056","","","","","",""
"casino-keyboard-response","26","160949","0.0-16.0-0.4","980","false","img/card_backs/set1/green.gif","img/card_backs/set1/red.gif","img/card_backs/set1/purple.gif","img/card_backs/set1/yellow.gif","img/card_backs/set2/pink.gif","img/card_backs/set2/blue.gif","img/card_backs/set2/gray.gif","img/card_backs/set2/orange.gif","""event"",""trial"",""time""
""fullscreenenter"",""1"",""7195""
","
","
","""event"",""trial"",""time""
""fullscreenenter"",""1"",""7195""
","
","","9949.199999809265","You should try to figure out which decks are lucky. </br> Then, try to choose the lucky decks so you can win the most tokens.","87","","instructions","2021-07-15 17:46:37.010","","","","","",""
"casino-keyboard-response","27","172980","0.0-16.0-0.5","980","false","img/card_backs/set1/green.gif","img/card_backs/set1/red.gif","img/card_backs/set1/purple.gif","img/card_backs/set1/yellow.gif","img/card_backs/set2/pink.gif","img/card_backs/set2/blue.gif","img/card_backs/set2/gray.gif","img/card_backs/set2/orange.gif","""event"",""trial"",""time""
""fullscreenenter"",""1"",""7195""
","
","
","""event"",""trial"",""time""
""fullscreenenter"",""1"",""7195""
","
","","12029.599999904633","To make it trickier, the casino dealer will switch the locations of the decks on every turn. </br> The color of the deck determines how lucky it is. The location does not matter.","88","","instructions","2021-07-15 17:46:49.041","","","","","",""
"casino-keyboard-response","28","182763","0.0-16.0-0.6","980","false","img/card_backs/set1/green.gif","img/card_backs/set1/red.gif","img/card_backs/set1/purple.gif","img/card_backs/set1/yellow.gif","img/card_backs/set2/pink.gif","img/card_backs/set2/blue.gif","img/card_backs/set2/gray.gif","img/card_backs/set2/orange.gif","""event"",""trial"",""time""
""fullscreenenter"",""1"",""7195""
","
","
","""event"",""trial"",""time""
""fullscreenenter"",""1"",""7195""
","
","","9778.299999952316","The mix of cards in each colored deck will stay the same throughout the game. </br> That means that a deck that is lucky early on will stay lucky.","79","","instructions","2021-07-15 17:46:58.824","","","","","",""
"casino-keyboard-response","29","192337","0.0-16.0-0.7","980","false","img/card_backs/set1/green.gif","img/card_backs/set1/red.gif","img/card_backs/set1/purple.gif","img/card_backs/set1/yellow.gif","img/card_backs/set2/pink.gif","img/card_backs/set2/blue.gif","img/card_backs/set2/gray.gif","img/card_backs/set2/orange.gif","""event"",""trial"",""time""
""fullscreenenter"",""1"",""7195""
","
","
","""event"",""trial"",""time""
""fullscreenenter"",""1"",""7195""
","
","","9569.299999952316","Remember though, all the decks have a <b> mix </b> of both <b> good </b> and <b> bad </b> cards so it may take a couple of turns to figure out if a deck is lucky.","69","","instructions","2021-07-15 17:47:08.398","","","","","",""
"casino-keyboard-response","30","200672","0.0-16.0-0.8","980","false","img/card_backs/set1/green.gif","img/card_backs/set1/red.gif","img/card_backs/set1/purple.gif","img/card_backs/set1/yellow.gif","img/card_backs/set2/pink.gif","img/card_backs/set2/blue.gif","img/card_backs/set2/gray.gif","img/card_backs/set2/orange.gif","""event"",""trial"",""time""
""fullscreenenter"",""1"",""7195""
","
","
","""event"",""trial"",""time""
""fullscreenenter"",""1"",""7195""
","
","","8331","At the end of the game, you will be paid bonus money based on how many tokens you win. </br> If you win more tokens, you will earn more money!","72","","instructions","2021-07-15 17:47:16.734","","","","","",""
"casino-keyboard-response","31","212427","0.0-16.0-0.9","980","false","img/card_backs/set1/green.gif","img/card_backs/set1/red.gif","img/card_backs/set1/purple.gif","img/card_backs/set1/yellow.gif","img/card_backs/set2/pink.gif","img/card_backs/set2/blue.gif","img/card_backs/set2/gray.gif","img/card_backs/set2/orange.gif","""event"",""trial"",""time""
""fullscreenenter"",""1"",""7195""
","
","
","""event"",""trial"",""time""
""fullscreenenter"",""1"",""7195""
","
","","11749.5","You will never <b> lose </b> money. </br> If you end up with fewer than 0 tokens, you will earn $0 of bonus money, but you will still be paid for playing the game.","83","","instructions","2021-07-15 17:47:28.488","","","","","",""
"casino-keyboard-response","32","219474","0.0-16.0-0.10","980","false","img/card_backs/set1/green.gif","img/card_backs/set1/red.gif","img/card_backs/set1/purple.gif","img/card_backs/set1/yellow.gif","img/card_backs/set2/pink.gif","img/card_backs/set2/blue.gif","img/card_backs/set2/gray.gif","img/card_backs/set2/orange.gif","""event"",""trial"",""time""
""fullscreenenter"",""1"",""7195""
","
","
","""event"",""trial"",""time""
""fullscreenenter"",""1"",""7195""
","
","","7042.099999904633","You will have 10 seconds to make each choice.","82","","instructions","2021-07-15 17:47:35.535","","","","","",""
"casino-keyboard-response","33","228705","0.0-16.0-0.11","980","false","img/card_backs/set1/green.gif","img/card_backs/set1/red.gif","img/card_backs/set1/purple.gif","img/card_backs/set1/yellow.gif","img/card_backs/set2/pink.gif","img/card_backs/set2/blue.gif","img/card_backs/set2/gray.gif","img/card_backs/set2/orange.gif","""event"",""trial"",""time""
""fullscreenenter"",""1"",""7195""
","
","
","""event"",""trial"",""time""
""fullscreenenter"",""1"",""7195""
","
","","9223.400000095367","Before you play the game for real, you will play with practice decks. </br> The tokens you earn during practice won't count toward your total.","86","","instructions","2021-07-15 17:47:44.766","","","","","",""
"casino-keyboard-response","34","240379","0.0-16.0-0.12","980","false","img/card_backs/set1/green.gif","img/card_backs/set1/red.gif","img/card_backs/set1/purple.gif","img/card_backs/set1/yellow.gif","img/card_backs/set2/pink.gif","img/card_backs/set2/blue.gif","img/card_backs/set2/gray.gif","img/card_backs/set2/orange.gif","""event"",""trial"",""time""
""fullscreenenter"",""1"",""7195""
","
","
","""event"",""trial"",""time""
""fullscreenenter"",""1"",""7195""
","
","","11673","Ready? Remember, use the '2', '4', '6', and '8' keys to select the decks. </br> Put your fingers on those keys now and then press '2' to begin.","50","","instructions","2021-07-15 17:47:56.441","","","","","",""
"casino-fixation","35","240891","0.0-17.0-0.0","980","false","img/card_backs/set1/green.gif","img/card_backs/set1/red.gif","img/card_backs/set1/purple.gif","img/card_backs/set1/yellow.gif","img/card_backs/set2/pink.gif","img/card_backs/set2/blue.gif","img/card_backs/set2/gray.gif","img/card_backs/set2/orange.gif","""event"",""trial"",""time""
""fullscreenenter"",""1"",""7195""
","
","
","""event"",""trial"",""time""
""fullscreenenter"",""1"",""7195""
","
","","null","","null","","fixation","2021-07-15 17:47:56.952","","","","","",""
"card-selection-trial","36","244697","0.0-17.0-1.0","980","false","img/card_backs/set1/green.gif","img/card_backs/set1/red.gif","img/card_backs/set1/purple.gif","img/card_backs/set1/yellow.gif","img/card_backs/set2/pink.gif","img/card_backs/set2/blue.gif","img/card_backs/set2/gray.gif","img/card_backs/set2/orange.gif","""event"",""trial"",""time""
""fullscreenenter"",""1"",""7195""
","
","
","""event"",""trial"",""time""
""fullscreenenter"",""1"",""7195""
","
","","1793.9000000953674","","","","practice","2021-07-15 17:48:00.758","img/practice_cards/backs/dark_blue.gif","1","200","0","",""
"casino-fixation","37","245203","0.0-17.0-0.1","980","false","img/card_backs/set1/green.gif","img/card_backs/set1/red.gif","img/card_backs/set1/purple.gif","img/card_backs/set1/yellow.gif","img/card_backs/set2/pink.gif","img/card_backs/set2/blue.gif","img/card_backs/set2/gray.gif","img/card_backs/set2/orange.gif","""event"",""trial"",""time""
""fullscreenenter"",""1"",""7195""
","
","
","""event"",""trial"",""time""
""fullscreenenter"",""1"",""7195""
","
","","null","","null","","fixation","2021-07-15 17:48:01.264","","","","","",""
"card-selection-trial","38","249511","0.0-17.0-1.1","980","false","img/card_backs/set1/green.gif","img/card_backs/set1/red.gif","img/card_backs/set1/purple.gif","img/card_backs/set1/yellow.gif","img/card_backs/set2/pink.gif","img/card_backs/set2/blue.gif","img/card_backs/set2/gray.gif","img/card_backs/set2/orange.gif","""event"",""trial"",""time""
""fullscreenenter"",""1"",""7195""
","
","
","""event"",""trial"",""time""
""fullscreenenter"",""1"",""7195""
","
","","2287.4000000953674","","","","practice","2021-07-15 17:48:05.572","img/practice_cards/backs/brown.gif","3","-100","0","",""
"casino-fixation","39","250019","0.0-17.0-0.2","980","false","img/card_backs/set1/green.gif","img/card_backs/set1/red.gif","img/card_backs/set1/purple.gif","img/card_backs/set1/yellow.gif","img/card_backs/set2/pink.gif","img/card_backs/set2/blue.gif","img/card_backs/set2/gray.gif","img/card_backs/set2/orange.gif","""event"",""trial"",""time""
""fullscreenenter"",""1"",""7195""
","
","
","""event"",""trial"",""time""
""fullscreenenter"",""1"",""7195""
","
","","null","","null","","fixation","2021-07-15 17:48:06.080","","","","","",""
"card-selection-trial","40","254902","0.0-17.0-1.2","980","false","img/card_backs/set1/green.gif","img/card_backs/set1/red.gif","img/card_backs/set1/purple.gif","img/card_backs/set1/yellow.gif","img/card_backs/set2/pink.gif","img/card_backs/set2/blue.gif","img/card_backs/set2/gray.gif","img/card_backs/set2/orange.gif","""event"",""trial"",""time""
""fullscreenenter"",""1"",""7195""
","
","
","""event"",""trial"",""time""
""fullscreenenter"",""1"",""7195""
","
","","2863","","","","practice","2021-07-15 17:48:10.964","img/practice_cards/backs/dark_green.gif","1","200","0","",""
"casino-fixation","41","255408","0.0-17.0-0.3","980","false","img/card_backs/set1/green.gif","img/card_backs/set1/red.gif","img/card_backs/set1/purple.gif","img/card_backs/set1/yellow.gif","img/card_backs/set2/pink.gif","img/card_backs/set2/blue.gif","img/card_backs/set2/gray.gif","img/card_backs/set2/orange.gif","""event"",""trial"",""time""
""fullscreenenter"",""1"",""7195""
","
","
","""event"",""trial"",""time""
""fullscreenenter"",""1"",""7195""
","
","","null","","null","","fixation","2021-07-15 17:48:11.469","","","","","",""
"card-selection-trial","42","258196","0.0-17.0-1.3","980","false","img/card_backs/set1/green.gif","img/card_backs/set1/red.gif","img/card_backs/set1/purple.gif","img/card_backs/set1/yellow.gif","img/card_backs/set2/pink.gif","img/card_backs/set2/blue.gif","img/card_backs/set2/gray.gif","img/card_backs/set2/orange.gif","""event"",""trial"",""time""
""fullscreenenter"",""1"",""7195""
","
","
","""event"",""trial"",""time""
""fullscreenenter"",""1"",""7195""
","
","","773.5","","","","practice","2021-07-15 17:48:14.257","img/practice_cards/backs/dark_green.gif","1","200","0","",""
"casino-fixation","43","258702","0.0-17.0-0.4","980","false","img/card_backs/set1/green.gif","img/card_backs/set1/red.gif","img/card_backs/set1/purple.gif","img/card_backs/set1/yellow.gif","img/card_backs/set2/pink.gif","img/card_backs/set2/blue.gif","img/card_backs/set2/gray.gif","img/card_backs/set2/orange.gif","""event"",""trial"",""time""
""fullscreenenter"",""1"",""7195""
","
","
","""event"",""trial"",""time""
""fullscreenenter"",""1"",""7195""
","
","","null","","null","","fixation","2021-07-15 17:48:14.763","","","","","",""
"card-selection-trial","44","261509","0.0-17.0-1.4","980","false","img/card_backs/set1/green.gif","img/card_backs/set1/red.gif","img/card_backs/set1/purple.gif","img/card_backs/set1/yellow.gif","img/card_backs/set2/pink.gif","img/card_backs/set2/blue.gif","img/card_backs/set2/gray.gif","img/card_backs/set2/orange.gif","""event"",""trial"",""time""
""fullscreenenter"",""1"",""7195""
","
","
","""event"",""trial"",""time""
""fullscreenenter"",""1"",""7195""
","
","","789.5","","","","practice","2021-07-15 17:48:17.570","img/practice_cards/backs/dark_blue.gif","1","-200","0","",""
"casino-fixation","45","262019","0.0-17.0-0.5","980","false","img/card_backs/set1/green.gif","img/card_backs/set1/red.gif","img/card_backs/set1/purple.gif","img/card_backs/set1/yellow.gif","img/card_backs/set2/pink.gif","img/card_backs/set2/blue.gif","img/card_backs/set2/gray.gif","img/card_backs/set2/orange.gif","""event"",""trial"",""time""
""fullscreenenter"",""1"",""7195""
","
","
","""event"",""trial"",""time""
""fullscreenenter"",""1"",""7195""
","
","","null","","null","","fixation","2021-07-15 17:48:18.080","","","","","",""
"card-selection-trial","46","265370","0.0-17.0-1.5","980","false","img/card_backs/set1/green.gif","img/card_backs/set1/red.gif","img/card_backs/set1/purple.gif","img/card_backs/set1/yellow.gif","img/card_backs/set2/pink.gif","img/card_backs/set2/blue.gif","img/card_backs/set2/gray.gif","img/card_backs/set2/orange.gif","""event"",""trial"",""time""
""fullscreenenter"",""1"",""7195""
","
","
","""event"",""trial"",""time""
""fullscreenenter"",""1"",""7195""
","
","","1338.7999999523163","","","","practice","2021-07-15 17:48:21.431","img/practice_cards/backs/dark_green.gif","0","200","0","",""
"casino-fixation","47","265881","0.0-17.0-0.6","980","false","img/card_backs/set1/green.gif","img/card_backs/set1/red.gif","img/card_backs/set1/purple.gif","img/card_backs/set1/yellow.gif","img/card_backs/set2/pink.gif","img/card_backs/set2/blue.gif","img/card_backs/set2/gray.gif","img/card_backs/set2/orange.gif","""event"",""trial"",""time""
""fullscreenenter"",""1"",""7195""
","
","
","""event"",""trial"",""time""
""fullscreenenter"",""1"",""7195""
","
","","null","","null","","fixation","2021-07-15 17:48:21.942","","","","","",""
"card-selection-trial","48","269501","0.0-17.0-1.6","980","false","img/card_backs/set1/green.gif","img/card_backs/set1/red.gif","img/card_backs/set1/purple.gif","img/card_backs/set1/yellow.gif","img/card_backs/set2/pink.gif","img/card_backs/set2/blue.gif","img/card_backs/set2/gray.gif","img/card_backs/set2/orange.gif","""event"",""trial"",""time""
""fullscreenenter"",""1"",""7195""
","
","
","""event"",""trial"",""time""
""fullscreenenter"",""1"",""7195""
","
","","1599.2999999523163","","","","practice","2021-07-15 17:48:25.563","img/practice_cards/backs/dark_green.gif","3","-200","0","",""
"casino-fixation","49","270006","0.0-17.0-0.7","980","false","img/card_backs/set1/green.gif","img/card_backs/set1/red.gif","img/card_backs/set1/purple.gif","img/card_backs/set1/yellow.gif","img/card_backs/set2/pink.gif","img/card_backs/set2/blue.gif","img/card_backs/set2/gray.gif","img/card_backs/set2/orange.gif","""event"",""trial"",""time""
""fullscreenenter"",""1"",""7195""
","
","
","""event"",""trial"",""time""
""fullscreenenter"",""1"",""7195""
","
","","null","","null","","fixation","2021-07-15 17:48:26.067","","","","","",""
"card-selection-trial","50","273257","0.0-17.0-1.7","980","false","img/card_backs/set1/green.gif","img/card_backs/set1/red.gif","img/card_backs/set1/purple.gif","img/card_backs/set1/yellow.gif","img/card_backs/set2/pink.gif","img/card_backs/set2/blue.gif","img/card_backs/set2/gray.gif","img/card_backs/set2/orange.gif","""event"",""trial"",""time""
""fullscreenenter"",""1"",""7195""
","
","
","""event"",""trial"",""time""
""fullscreenenter"",""1"",""7195""
","
","","1240.5","","","","practice","2021-07-15 17:48:29.318","img/practice_cards/backs/dark_green.gif","2","-200","0","",""
"casino-fixation","51","273762","0.0-17.0-0.8","980","false","img/card_backs/set1/green.gif","img/card_backs/set1/red.gif","img/card_backs/set1/purple.gif","img/card_backs/set1/yellow.gif","img/card_backs/set2/pink.gif","img/card_backs/set2/blue.gif","img/card_backs/set2/gray.gif","img/card_backs/set2/orange.gif","""event"",""trial"",""time""
""fullscreenenter"",""1"",""7195""
","
","
","""event"",""trial"",""time""
""fullscreenenter"",""1"",""7195""
","
","","null","","null","","fixation","2021-07-15 17:48:29.823","","","","","",""
"card-selection-trial","52","277292","0.0-17.0-1.8","980","false","img/card_backs/set1/green.gif","img/card_backs/set1/red.gif","img/card_backs/set1/purple.gif","img/card_backs/set1/yellow.gif","img/card_backs/set2/pink.gif","img/card_backs/set2/blue.gif","img/card_backs/set2/gray.gif","img/card_backs/set2/orange.gif","""event"",""trial"",""time""
""fullscreenenter"",""1"",""7195""
","
","
","""event"",""trial"",""time""
""fullscreenenter"",""1"",""7195""
","
","","1517","","","","practice","2021-07-15 17:48:33.353","img/practice_cards/backs/black.gif","1","100","0","",""
"casino-fixation","53","277796","0.0-17.0-0.9","980","false","img/card_backs/set1/green.gif","img/card_backs/set1/red.gif","img/card_backs/set1/purple.gif","img/card_backs/set1/yellow.gif","img/card_backs/set2/pink.gif","img/card_backs/set2/blue.gif","img/card_backs/set2/gray.gif","img/card_backs/set2/orange.gif","""event"",""trial"",""time""
""fullscreenenter"",""1"",""7195""
","
","
","""event"",""trial"",""time""
""fullscreenenter"",""1"",""7195""
","
","","null","","null","","fixation","2021-07-15 17:48:33.857","","","","","",""
"card-selection-trial","54","280786","0.0-17.0-1.9","980","false","img/card_backs/set1/green.gif","img/card_backs/set1/red.gif","img/card_backs/set1/purple.gif","img/card_backs/set1/yellow.gif","img/card_backs/set2/pink.gif","img/card_backs/set2/blue.gif","img/card_backs/set2/gray.gif","img/card_backs/set2/orange.gif","""event"",""trial"",""time""
""fullscreenenter"",""1"",""7195""
","
","
","""event"",""trial"",""time""
""fullscreenenter"",""1"",""7195""
","
","","978.2999999523163","","","","practice","2021-07-15 17:48:36.847","img/practice_cards/backs/black.gif","0","-100","0","",""
"casino-keyboard-response","55","284308","0.0-18.0","980","false","img/card_backs/set1/green.gif","img/card_backs/set1/red.gif","img/card_backs/set1/purple.gif","img/card_backs/set1/yellow.gif","img/card_backs/set2/pink.gif","img/card_backs/set2/blue.gif","img/card_backs/set2/gray.gif","img/card_backs/set2/orange.gif","""event"",""trial"",""time""
""fullscreenenter"",""1"",""7195""
","
","
","""event"",""trial"",""time""
""fullscreenenter"",""1"",""7195""
","
","","3519","You earned 100 tokens during the practice round!","82","","","2021-07-15 17:48:40.370","","","","","",""
"casino-keyboard-response","56","290448","0.0-19.0-0.0","980","false","img/card_backs/set1/green.gif","img/card_backs/set1/red.gif","img/card_backs/set1/purple.gif","img/card_backs/set1/yellow.gif","img/card_backs/set2/pink.gif","img/card_backs/set2/blue.gif","img/card_backs/set2/gray.gif","img/card_backs/set2/orange.gif","""event"",""trial"",""time""
""fullscreenenter"",""1"",""7195""
","
","
","""event"",""trial"",""time""
""fullscreenenter"",""1"",""7195""
","
","","6135.600000143051","Nice job! You are almost ready to play the real game.","86","","instructions","2021-07-15 17:48:46.510","","","","","",""
"casino-keyboard-response","57","297466","0.0-19.0-0.1","980","false","img/card_backs/set1/green.gif","img/card_backs/set1/red.gif","img/card_backs/set1/purple.gif","img/card_backs/set1/yellow.gif","img/card_backs/set2/pink.gif","img/card_backs/set2/blue.gif","img/card_backs/set2/gray.gif","img/card_backs/set2/orange.gif","""event"",""trial"",""time""
""fullscreenenter"",""1"",""7195""
","
","
","""event"",""trial"",""time""
""fullscreenenter"",""1"",""7195""
","
","","7012.700000047684","You will play two rounds of the real game. In each round, you will pick 100 cards in total.","73","","instructions","2021-07-15 17:48:53.527","","","","","",""
"casino-keyboard-response","58","302476","0.0-19.0-0.2","980","false","img/card_backs/set1/green.gif","img/card_backs/set1/red.gif","img/card_backs/set1/purple.gif","img/card_backs/set1/yellow.gif","img/card_backs/set2/pink.gif","img/card_backs/set2/blue.gif","img/card_backs/set2/gray.gif","img/card_backs/set2/orange.gif","""event"",""trial"",""time""
""fullscreenenter"",""1"",""7195""
","
","
","""event"",""trial"",""time""
""fullscreenenter"",""1"",""7195""
","
","","5007.700000047684","We are now going to ask you some questions about how the game works.","66","","instructions","2021-07-15 17:48:58.537","","","","","",""
"casino-keyboard-response","59","309996","0.0-19.0-0.3","980","false","img/card_backs/set1/green.gif","img/card_backs/set1/red.gif","img/card_backs/set1/purple.gif","img/card_backs/set1/yellow.gif","img/card_backs/set2/pink.gif","img/card_backs/set2/blue.gif","img/card_backs/set2/gray.gif","img/card_backs/set2/orange.gif","""event"",""trial"",""time""
""fullscreenenter"",""1"",""7195""
","
","
","""event"",""trial"",""time""
""fullscreenenter"",""1"",""7195""
","
","","7518.400000095367","Answer carefully. You will not be able to begin the game until you answer them correctly.","67","","instructions","2021-07-15 17:49:06.057","","","","","",""
"casino-comp_q","60","319940","0.0-20.0-0.0","980","false","img/card_backs/set1/green.gif","img/card_backs/set1/red.gif","img/card_backs/set1/purple.gif","img/card_backs/set1/yellow.gif","img/card_backs/set2/pink.gif","img/card_backs/set2/blue.gif","img/card_backs/set2/gray.gif","img/card_backs/set2/orange.gif","""event"",""trial"",""time""
""fullscreenenter"",""1"",""7195""
","
","
","""event"",""trial"",""time""
""fullscreenenter"",""1"",""7195""
","
","","9905.200000047684","True or False: All the decks have some cards that cause you to win tokens and some cards that cause you to lose tokens.","84","","","2021-07-15 17:49:16.002","","","","","",""
"casino-keyboard-response","61","324854","0.0-20.0-1.0","980","false","img/card_backs/set1/green.gif","img/card_backs/set1/red.gif","img/card_backs/set1/purple.gif","img/card_backs/set1/yellow.gif","img/card_backs/set2/pink.gif","img/card_backs/set2/blue.gif","img/card_backs/set2/gray.gif","img/card_backs/set2/orange.gif","""event"",""trial"",""time""
""fullscreenenter"",""1"",""7195""
","
","
","""event"",""trial"",""time""
""fullscreenenter"",""1"",""7195""
","
","","4908","True is correct! All the decks have a mix of winning and losing cards.","77","","","2021-07-15 17:49:20.916","","","","","true",""
"casino-comp_q","62","332173","0.0-21.0-0.0","980","false","img/card_backs/set1/green.gif","img/card_backs/set1/red.gif","img/card_backs/set1/purple.gif","img/card_backs/set1/yellow.gif","img/card_backs/set2/pink.gif","img/card_backs/set2/blue.gif","img/card_backs/set2/gray.gif","img/card_backs/set2/orange.gif","""event"",""trial"",""time""
""fullscreenenter"",""1"",""7195""
","
","
","""event"",""trial"",""time""
""fullscreenenter"",""1"",""7195""
","
","","7312","True or False: You will have as much time as you want to make your response.","70","","","2021-07-15 17:49:28.234","","","","","",""
"casino-keyboard-response","63","336428","0.0-21.0-1.0","980","false","img/card_backs/set1/green.gif","img/card_backs/set1/red.gif","img/card_backs/set1/purple.gif","img/card_backs/set1/yellow.gif","img/card_backs/set2/pink.gif","img/card_backs/set2/blue.gif","img/card_backs/set2/gray.gif","img/card_backs/set2/orange.gif","""event"",""trial"",""time""
""fullscreenenter"",""1"",""7195""
","
","
","""event"",""trial"",""time""
""fullscreenenter"",""1"",""7195""
","
","","4245.299999952316","False is correct! You will only have 10 seconds to make each choice.","75","","","2021-07-15 17:49:32.489","","","","","true",""
"casino-comp_q","64","343955","0.0-22.0-0.0","980","false","img/card_backs/set1/green.gif","img/card_backs/set1/red.gif","img/card_backs/set1/purple.gif","img/card_backs/set1/yellow.gif","img/card_backs/set2/pink.gif","img/card_backs/set2/blue.gif","img/card_backs/set2/gray.gif","img/card_backs/set2/orange.gif","""event"",""trial"",""time""
""fullscreenenter"",""1"",""7195""
","
","
","""event"",""trial"",""time""
""fullscreenenter"",""1"",""7195""
","
","","7522.099999904633","True or False: The location of the deck determines how lucky it is.","70","","","2021-07-15 17:49:40.016","","","","","",""
"casino-keyboard-response","65","350528","0.0-22.0-1.0","980","false","img/card_backs/set1/green.gif","img/card_backs/set1/red.gif","img/card_backs/set1/purple.gif","img/card_backs/set1/yellow.gif","img/card_backs/set2/pink.gif","img/card_backs/set2/blue.gif","img/card_backs/set2/gray.gif","img/card_backs/set2/orange.gif","""event"",""trial"",""time""
""fullscreenenter"",""1"",""7195""
","
","
","""event"",""trial"",""time""
""fullscreenenter"",""1"",""7195""
","
","","6568.799999952316","False is correct! The <i>color</i>  of the deck determines how lucky or unlucky it is.","68","","","2021-07-15 17:49:46.589","","","","","true",""
"casino-keyboard-response","66","355971","0.0-23.0-0.0","980","false","img/card_backs/set1/green.gif","img/card_backs/set1/red.gif","img/card_backs/set1/purple.gif","img/card_backs/set1/yellow.gif","img/card_backs/set2/pink.gif","img/card_backs/set2/blue.gif","img/card_backs/set2/gray.gif","img/card_backs/set2/orange.gif","""event"",""trial"",""time""
""fullscreenenter"",""1"",""7195""
","
","
","""event"",""trial"",""time""
""fullscreenenter"",""1"",""7195""
","
","","5438.599999904633","Great job! Now it's time to start the real game.","82","","instructions","2021-07-15 17:49:52.033","","","","","",""
"casino-keyboard-response","67","361694","0.0-23.0-0.1","980","false","img/card_backs/set1/green.gif","img/card_backs/set1/red.gif","img/card_backs/set1/purple.gif","img/card_backs/set1/yellow.gif","img/card_backs/set2/pink.gif","img/card_backs/set2/blue.gif","img/card_backs/set2/gray.gif","img/card_backs/set2/orange.gif","""event"",""trial"",""time""
""fullscreenenter"",""1"",""7195""
","
","
","""event"",""trial"",""time""
""fullscreenenter"",""1"",""7195""
","
","","5718.400000095367","Before we start, we're going to head into a new room of the casino.","86","","instructions","2021-07-15 17:49:57.755","","","","","",""
"casino-keyboard-response","68","368174","0.0-24.0-0.0","980","false","img/card_backs/set1/green.gif","img/card_backs/set1/red.gif","img/card_backs/set1/purple.gif","img/card_backs/set1/yellow.gif","img/card_backs/set2/pink.gif","img/card_backs/set2/blue.gif","img/card_backs/set2/gray.gif","img/card_backs/set2/orange.gif","""event"",""trial"",""time""
""fullscreenenter"",""1"",""7195""
","
","
","""event"",""trial"",""time""
""fullscreenenter"",""1"",""7195""
","
","","6475","Here we are! The real game will use different cards, but the rules will be the same.","71","","instructions","2021-07-15 17:50:04.235","","","","","",""
"casino-keyboard-response","69","377708","0.0-24.0-0.1","980","false","img/card_backs/set1/green.gif","img/card_backs/set1/red.gif","img/card_backs/set1/purple.gif","img/card_backs/set1/yellow.gif","img/card_backs/set2/pink.gif","img/card_backs/set2/blue.gif","img/card_backs/set2/gray.gif","img/card_backs/set2/orange.gif","""event"",""trial"",""time""
""fullscreenenter"",""1"",""7195""
","
","
","""event"",""trial"",""time""
""fullscreenenter"",""1"",""7195""
","
","","9529.600000143051","Ready? Put your fingers over the '2', '4', 6', and '8' keys so you are ready to play the game. </br> Then press 2 to start.","50","","instructions","2021-07-15 17:50:13.769","","","","","",""
"casino-fixation","70","378214","0.0-25.0-0.0","980","false","img/card_backs/set1/green.gif","img/card_backs/set1/red.gif","img/card_backs/set1/purple.gif","img/card_backs/set1/yellow.gif","img/card_backs/set2/pink.gif","img/card_backs/set2/blue.gif","img/card_backs/set2/gray.gif","img/card_backs/set2/orange.gif","""event"",""trial"",""time""
""fullscreenenter"",""1"",""7195""
","
","
","""event"",""trial"",""time""
""fullscreenenter"",""1"",""7195""
","
","","null","","null","","fixation","2021-07-15 17:50:14.275","","","","","",""
"card-selection-trial","71","382323","0.0-25.0-1.0","980","false","img/card_backs/set1/green.gif","img/card_backs/set1/red.gif","img/card_backs/set1/purple.gif","img/card_backs/set1/yellow.gif","img/card_backs/set2/pink.gif","img/card_backs/set2/blue.gif","img/card_backs/set2/gray.gif","img/card_backs/set2/orange.gif","""event"",""trial"",""time""
""fullscreenenter"",""1"",""7195""
","
","
","""event"",""trial"",""time""
""fullscreenenter"",""1"",""7195""
","
","","2095.899999856949","","","","real_trial","2021-07-15 17:50:18.384","img/card_backs/set1/yellow.gif","2","120","1","",""
"casino-fixation","72","382836","0.0-25.0-0.1","980","false","img/card_backs/set1/green.gif","img/card_backs/set1/red.gif","img/card_backs/set1/purple.gif","img/card_backs/set1/yellow.gif","img/card_backs/set2/pink.gif","img/card_backs/set2/blue.gif","img/card_backs/set2/gray.gif","img/card_backs/set2/orange.gif","""event"",""trial"",""time""
""fullscreenenter"",""1"",""7195""
","
","
","""event"",""trial"",""time""
""fullscreenenter"",""1"",""7195""
","
","","null","","null","","fixation","2021-07-15 17:50:18.898","","","","","",""
"card-selection-trial","73","386134","0.0-25.0-1.1","980","false","img/card_backs/set1/green.gif","img/card_backs/set1/red.gif","img/card_backs/set1/purple.gif","img/card_backs/set1/yellow.gif","img/card_backs/set2/pink.gif","img/card_backs/set2/blue.gif","img/card_backs/set2/gray.gif","img/card_backs/set2/orange.gif","""event"",""trial"",""time""
""fullscreenenter"",""1"",""7195""
","
","
","""event"",""trial"",""time""
""fullscreenenter"",""1"",""7195""
","
","","1278.7999999523163","","","","real_trial","2021-07-15 17:50:22.195","img/card_backs/set1/yellow.gif","0","-60","1","",""
"casino-fixation","74","386646","0.0-25.0-0.2","980","false","img/card_backs/set1/green.gif","img/card_backs/set1/red.gif","img/card_backs/set1/purple.gif","img/card_backs/set1/yellow.gif","img/card_backs/set2/pink.gif","img/card_backs/set2/blue.gif","img/card_backs/set2/gray.gif","img/card_backs/set2/orange.gif","""event"",""trial"",""time""
""fullscreenenter"",""1"",""7195""
","
","
","""event"",""trial"",""time""
""fullscreenenter"",""1"",""7195""
","
","","null","","null","","fixation","2021-07-15 17:50:22.707","","","","","",""
"card-selection-trial","75","390279","0.0-25.0-1.2","980","false","img/card_backs/set1/green.gif","img/card_backs/set1/red.gif","img/card_backs/set1/purple.gif","img/card_backs/set1/yellow.gif","img/card_backs/set2/pink.gif","img/card_backs/set2/blue.gif","img/card_backs/set2/gray.gif","img/card_backs/set2/orange.gif","""event"",""trial"",""time""
""fullscreenenter"",""1"",""7195""
","
","
","""event"",""trial"",""time""
""fullscreenenter"",""1"",""7195""
","
","","1618.4000000953674","","","","real_trial","2021-07-15 17:50:26.340","img/card_backs/set1/purple.gif","2","-60","1","",""
"casino-fixation","76","390790","0.0-25.0-0.3","980","false","img/card_backs/set1/green.gif","img/card_backs/set1/red.gif","img/card_backs/set1/purple.gif","img/card_backs/set1/yellow.gif","img/card_backs/set2/pink.gif","img/card_backs/set2/blue.gif","img/card_backs/set2/gray.gif","img/card_backs/set2/orange.gif","""event"",""trial"",""time""
""fullscreenenter"",""1"",""7195""
","
","
","""event"",""trial"",""time""
""fullscreenenter"",""1"",""7195""
","
","","null","","null","","fixation","2021-07-15 17:50:26.851","","","","","",""
"card-selection-trial","77","394103","0.0-25.0-1.3","980","false","img/card_backs/set1/green.gif","img/card_backs/set1/red.gif","img/card_backs/set1/purple.gif","img/card_backs/set1/yellow.gif","img/card_backs/set2/pink.gif","img/card_backs/set2/blue.gif","img/card_backs/set2/gray.gif","img/card_backs/set2/orange.gif","""event"",""trial"",""time""
""fullscreenenter"",""1"",""7195""
","
","
","""event"",""trial"",""time""
""fullscreenenter"",""1"",""7195""
","
","","1292.7999999523163","","","","real_trial","2021-07-15 17:50:30.164","img/card_backs/set1/red.gif","1","180","1","",""
"casino-fixation","78","394612","0.0-25.0-0.4","980","false","img/card_backs/set1/green.gif","img/card_backs/set1/red.gif","img/card_backs/set1/purple.gif","img/card_backs/set1/yellow.gif","img/card_backs/set2/pink.gif","img/card_backs/set2/blue.gif","img/card_backs/set2/gray.gif","img/card_backs/set2/orange.gif","""event"",""trial"",""time""
""fullscreenenter"",""1"",""7195""
","
","
","""event"",""trial"",""time""
""fullscreenenter"",""1"",""7195""
","
","","null","","null","","fixation","2021-07-15 17:50:30.673","","","","","",""
"card-selection-trial","79","400167","0.0-25.0-1.4","980","false","img/card_backs/set1/green.gif","img/card_backs/set1/red.gif","img/card_backs/set1/purple.gif","img/card_backs/set1/yellow.gif","img/card_backs/set2/pink.gif","img/card_backs/set2/blue.gif","img/card_backs/set2/gray.gif","img/card_backs/set2/orange.gif","""event"",""trial"",""time""
""fullscreenenter"",""1"",""7195""
","
","
","""event"",""trial"",""time""
""fullscreenenter"",""1"",""7195""
","
","","3538.0999999046326","","","","real_trial","2021-07-15 17:50:36.228","img/card_backs/set1/purple.gif","3","-50","1","",""
"casino-fixation","80","400673","0.0-25.0-0.5","980","false","img/card_backs/set1/green.gif","img/card_backs/set1/red.gif","img/card_backs/set1/purple.gif","img/card_backs/set1/yellow.gif","img/card_backs/set2/pink.gif","img/card_backs/set2/blue.gif","img/card_backs/set2/gray.gif","img/card_backs/set2/orange.gif","""event"",""trial"",""time""
""fullscreenenter"",""1"",""7195""
","
","
","""event"",""trial"",""time""
""fullscreenenter"",""1"",""7195""
","
","","null","","null","","fixation","2021-07-15 17:50:36.734","","","","","",""
"card-selection-trial","81","404305","0.0-25.0-1.5","980","false","img/card_backs/set1/green.gif","img/card_backs/set1/red.gif","img/card_backs/set1/purple.gif","img/card_backs/set1/yellow.gif","img/card_backs/set2/pink.gif","img/card_backs/set2/blue.gif","img/card_backs/set2/gray.gif","img/card_backs/set2/orange.gif","""event"",""trial"",""time""
""fullscreenenter"",""1"",""7195""
","
","
","""event"",""trial"",""time""
""fullscreenenter"",""1"",""7195""
","
","","1614.1999998092651","","","","real_trial","2021-07-15 17:50:40.366","img/card_backs/set1/red.gif","1","200","1","",""
"casino-fixation","82","404814","0.0-25.0-0.6","980","false","img/card_backs/set1/green.gif","img/card_backs/set1/red.gif","img/card_backs/set1/purple.gif","img/card_backs/set1/yellow.gif","img/card_backs/set2/pink.gif","img/card_backs/set2/blue.gif","img/card_backs/set2/gray.gif","img/card_backs/set2/orange.gif","""event"",""trial"",""time""
""fullscreenenter"",""1"",""7195""
","
","
","""event"",""trial"",""time""
""fullscreenenter"",""1"",""7195""
","
","","null","","null","","fixation","2021-07-15 17:50:40.875","","","","","",""
"card-selection-trial","83","408381","0.0-25.0-1.6","980","false","img/card_backs/set1/green.gif","img/card_backs/set1/red.gif","img/card_backs/set1/purple.gif","img/card_backs/set1/yellow.gif","img/card_backs/set2/pink.gif","img/card_backs/set2/blue.gif","img/card_backs/set2/gray.gif","img/card_backs/set2/orange.gif","""event"",""trial"",""time""
""fullscreenenter"",""1"",""7195""
","
","
","""event"",""trial"",""time""
""fullscreenenter"",""1"",""7195""
","
","","1556.1000001430511","","","","real_trial","2021-07-15 17:50:44.442","img/card_backs/set1/purple.gif","0","-60","1","",""
"casino-fixation","84","408886","0.0-25.0-0.7","980","false","img/card_backs/set1/green.gif","img/card_backs/set1/red.gif","img/card_backs/set1/purple.gif","img/card_backs/set1/yellow.gif","img/card_backs/set2/pink.gif","img/card_backs/set2/blue.gif","img/card_backs/set2/gray.gif","img/card_backs/set2/orange.gif","""event"",""trial"",""time""
""fullscreenenter"",""1"",""7195""
","
","
","""event"",""trial"",""time""
""fullscreenenter"",""1"",""7195""
","
","","null","","null","","fixation","2021-07-15 17:50:44.947","","","","","",""
"card-selection-trial","85","412809","0.0-25.0-1.7","980","false","img/card_backs/set1/green.gif","img/card_backs/set1/red.gif","img/card_backs/set1/purple.gif","img/card_backs/set1/yellow.gif","img/card_backs/set2/pink.gif","img/card_backs/set2/blue.gif","img/card_backs/set2/gray.gif","img/card_backs/set2/orange.gif","""event"",""trial"",""time""
""fullscreenenter"",""1"",""7195""
","
","
","""event"",""trial"",""time""
""fullscreenenter"",""1"",""7195""
","
","","1911.2000000476837","","","","real_trial","2021-07-15 17:50:48.870","img/card_backs/set1/yellow.gif","1","-60","1","",""
"casino-fixation","86","413313","0.0-25.0-0.8","980","false","img/card_backs/set1/green.gif","img/card_backs/set1/red.gif","img/card_backs/set1/purple.gif","img/card_backs/set1/yellow.gif","img/card_backs/set2/pink.gif","img/card_backs/set2/blue.gif","img/card_backs/set2/gray.gif","img/card_backs/set2/orange.gif","""event"",""trial"",""time""
""fullscreenenter"",""1"",""7195""
","
","
","""event"",""trial"",""time""
""fullscreenenter"",""1"",""7195""
","
","","null","","null","","fixation","2021-07-15 17:50:49.375","","","","","",""
"card-selection-trial","87","423263","0.0-25.0-1.8","980","false","img/card_backs/set1/green.gif","img/card_backs/set1/red.gif","img/card_backs/set1/purple.gif","img/card_backs/set1/yellow.gif","img/card_backs/set2/pink.gif","img/card_backs/set2/blue.gif","img/card_backs/set2/gray.gif","img/card_backs/set2/orange.gif","""event"",""trial"",""time""
""fullscreenenter"",""1"",""7195""
","
","
","""event"",""trial"",""time""
""fullscreenenter"",""1"",""7195""
","
","","7938.299999952316","","","","real_trial","2021-07-15 17:50:59.324","img/card_backs/set1/red.gif","1","-230","1","",""
"casino-fixation","88","423768","0.0-25.0-0.9","980","false","img/card_backs/set1/green.gif","img/card_backs/set1/red.gif","img/card_backs/set1/purple.gif","img/card_backs/set1/yellow.gif","img/card_backs/set2/pink.gif","img/card_backs/set2/blue.gif","img/card_backs/set2/gray.gif","img/card_backs/set2/orange.gif","""event"",""trial"",""time""
""fullscreenenter"",""1"",""7195""
","
","
","""event"",""trial"",""time""
""fullscreenenter"",""1"",""7195""
","
","","null","","null","","fixation","2021-07-15 17:50:59.829","","","","","",""
"card-selection-trial","89","427314","0.0-25.0-1.9","980","false","img/card_backs/set1/green.gif","img/card_backs/set1/red.gif","img/card_backs/set1/purple.gif","img/card_backs/set1/yellow.gif","img/card_backs/set2/pink.gif","img/card_backs/set2/blue.gif","img/card_backs/set2/gray.gif","img/card_backs/set2/orange.gif","""event"",""trial"",""time""
""fullscreenenter"",""1"",""7195""
","
","
","""event"",""trial"",""time""
""fullscreenenter"",""1"",""7195""
","
","","1534","","","","real_trial","2021-07-15 17:51:03.376","img/card_backs/set1/red.gif","2","200","1","",""
"casino-fixation","90","427820","0.0-25.0-0.10","980","false","img/card_backs/set1/green.gif","img/card_backs/set1/red.gif","img/card_backs/set1/purple.gif","img/card_backs/set1/yellow.gif","img/card_backs/set2/pink.gif","img/card_backs/set2/blue.gif","img/card_backs/set2/gray.gif","img/card_backs/set2/orange.gif","""event"",""trial"",""time""
""fullscreenenter"",""1"",""7195""
","
","
","""event"",""trial"",""time""
""fullscreenenter"",""1"",""7195""
","
","","null","","null","","fixation","2021-07-15 17:51:03.881","","","","","",""
"card-selection-trial","91","432162","0.0-25.0-1.10","980","false","img/card_backs/set1/green.gif","img/card_backs/set1/red.gif","img/card_backs/set1/purple.gif","img/card_backs/set1/yellow.gif","img/card_backs/set2/pink.gif","img/card_backs/set2/blue.gif","img/card_backs/set2/gray.gif","img/card_backs/set2/orange.gif","""event"",""trial"",""time""
""fullscreenenter"",""1"",""7195""
","
","
","""event"",""trial"",""time""
""fullscreenenter"",""1"",""7195""
","
","","2329.7999999523163","","","","real_trial","2021-07-15 17:51:08.223","img/card_backs/set1/red.gif","0","190","1","",""
"casino-fixation","92","432667","0.0-25.0-0.11","980","false","img/card_backs/set1/green.gif","img/card_backs/set1/red.gif","img/card_backs/set1/purple.gif","img/card_backs/set1/yellow.gif","img/card_backs/set2/pink.gif","img/card_backs/set2/blue.gif","img/card_backs/set2/gray.gif","img/card_backs/set2/orange.gif","""event"",""trial"",""time""
""fullscreenenter"",""1"",""7195""
","
","
","""event"",""trial"",""time""
""fullscreenenter"",""1"",""7195""
","
","","null","","null","","fixation","2021-07-15 17:51:08.729","","","","","",""
"card-selection-trial","93","436205","0.0-25.0-1.11","980","false","img/card_backs/set1/green.gif","img/card_backs/set1/red.gif","img/card_backs/set1/purple.gif","img/card_backs/set1/yellow.gif","img/card_backs/set2/pink.gif","img/card_backs/set2/blue.gif","img/card_backs/set2/gray.gif","img/card_backs/set2/orange.gif","""event"",""trial"",""time""
""fullscreenenter"",""1"",""7195""
","
","
","""event"",""trial"",""time""
""fullscreenenter"",""1"",""7195""
","
","","1527.4000000953674","","","","real_trial","2021-07-15 17:51:12.267","img/card_backs/set1/red.gif","2","190","1","",""
"casino-fixation","94","436710","0.0-25.0-0.12","980","false","img/card_backs/set1/green.gif","img/card_backs/set1/red.gif","img/card_backs/set1/purple.gif","img/card_backs/set1/yellow.gif","img/card_backs/set2/pink.gif","img/card_backs/set2/blue.gif","img/card_backs/set2/gray.gif","img/card_backs/set2/orange.gif","""event"",""trial"",""time""
""fullscreenenter"",""1"",""7195""
","
","
","""event"",""trial"",""time""
""fullscreenenter"",""1"",""7195""
","
","","null","","null","","fixation","2021-07-15 17:51:12.771","","","","","",""
"card-selection-trial","95","440323","0.0-25.0-1.12","980","false","img/card_backs/set1/green.gif","img/card_backs/set1/red.gif","img/card_backs/set1/purple.gif","img/card_backs/set1/yellow.gif","img/card_backs/set2/pink.gif","img/card_backs/set2/blue.gif","img/card_backs/set2/gray.gif","img/card_backs/set2/orange.gif","""event"",""trial"",""time""
""fullscreenenter"",""1"",""7195""
","
","
","""event"",""trial"",""time""
""fullscreenenter"",""1"",""7195""
","
","","1601.2999999523163","","","","real_trial","2021-07-15 17:51:16.384","img/card_backs/set1/green.gif","2","-250","1","",""
"casino-fixation","96","440827","0.0-25.0-0.13","980","false","img/card_backs/set1/green.gif","img/card_backs/set1/red.gif","img/card_backs/set1/purple.gif","img/card_backs/set1/yellow.gif","img/card_backs/set2/pink.gif","img/card_backs/set2/blue.gif","img/card_backs/set2/gray.gif","img/card_backs/set2/orange.gif","""event"",""trial"",""time""
""fullscreenenter"",""1"",""7195""
","
","
","""event"",""trial"",""time""
""fullscreenenter"",""1"",""7195""
","
","","null","","null","","fixation","2021-07-15 17:51:16.888","","","","","",""
"card-selection-trial","97","443991","0.0-25.0-1.13","980","false","img/card_backs/set1/green.gif","img/card_backs/set1/red.gif","img/card_backs/set1/purple.gif","img/card_backs/set1/yellow.gif","img/card_backs/set2/pink.gif","img/card_backs/set2/blue.gif","img/card_backs/set2/gray.gif","img/card_backs/set2/orange.gif","""event"",""trial"",""time""
""fullscreenenter"",""1"",""7195""
","
","
","""event"",""trial"",""time""
""fullscreenenter"",""1"",""7195""
","
","","1152.7000000476837","","","","real_trial","2021-07-15 17:51:20.052","img/card_backs/set1/red.gif","0","-240","1","",""
"casino-fixation","98","444495","0.0-25.0-0.14","980","false","img/card_backs/set1/green.gif","img/card_backs/set1/red.gif","img/card_backs/set1/purple.gif","img/card_backs/set1/yellow.gif","img/card_backs/set2/pink.gif","img/card_backs/set2/blue.gif","img/card_backs/set2/gray.gif","img/card_backs/set2/orange.gif","""event"",""trial"",""time""
""fullscreenenter"",""1"",""7195""
","
","
","""event"",""trial"",""time""
""fullscreenenter"",""1"",""7195""
","
","","null","","null","","fixation","2021-07-15 17:51:20.556","","","","","",""
"card-selection-trial","99","447673","0.0-25.0-1.14","980","false","img/card_backs/set1/green.gif","img/card_backs/set1/red.gif","img/card_backs/set1/purple.gif","img/card_backs/set1/yellow.gif","img/card_backs/set2/pink.gif","img/card_backs/set2/blue.gif","img/card_backs/set2/gray.gif","img/card_backs/set2/orange.gif","""event"",""trial"",""time""
""fullscreenenter"",""1"",""7195""
","
","
","""event"",""trial"",""time""
""fullscreenenter"",""1"",""7195""
","
","","1166.7999999523163","","","","real_trial","2021-07-15 17:51:23.735","img/card_backs/set1/purple.gif","0","120","1","",""
"casino-fixation","100","448176","0.0-25.0-0.15","980","false","img/card_backs/set1/green.gif","img/card_backs/set1/red.gif","img/card_backs/set1/purple.gif","img/card_backs/set1/yellow.gif","img/card_backs/set2/pink.gif","img/card_backs/set2/blue.gif","img/card_backs/set2/gray.gif","img/card_backs/set2/orange.gif","""event"",""trial"",""time""
""fullscreenenter"",""1"",""7195""
","
","
","""event"",""trial"",""time""
""fullscreenenter"",""1"",""7195""
","
","","null","","null","","fixation","2021-07-15 17:51:24.237","","","","","",""
"card-selection-trial","101","454274","0.0-25.0-1.15","980","false","img/card_backs/set1/green.gif","img/card_backs/set1/red.gif","img/card_backs/set1/purple.gif","img/card_backs/set1/yellow.gif","img/card_backs/set2/pink.gif","img/card_backs/set2/blue.gif","img/card_backs/set2/gray.gif","img/card_backs/set2/orange.gif","""event"",""trial"",""time""
""fullscreenenter"",""1"",""7195""
","
","
","""event"",""trial"",""time""
""fullscreenenter"",""1"",""7195""
","
","","4087.0999999046326","","","","real_trial","2021-07-15 17:51:30.335","img/card_backs/set1/purple.gif","3","110","1","",""
"casino-fixation","102","454779","0.0-25.0-0.16","980","false","img/card_backs/set1/green.gif","img/card_backs/set1/red.gif","img/card_backs/set1/purple.gif","img/card_backs/set1/yellow.gif","img/card_backs/set2/pink.gif","img/card_backs/set2/blue.gif","img/card_backs/set2/gray.gif","img/card_backs/set2/orange.gif","""event"",""trial"",""time""
""fullscreenenter"",""1"",""7195""
","
","
","""event"",""trial"",""time""
""fullscreenenter"",""1"",""7195""
","
","","null","","null","","fixation","2021-07-15 17:51:30.841","","","","","",""
"card-selection-trial","103","461191","0.0-25.0-1.16","980","false","img/card_backs/set1/green.gif","img/card_backs/set1/red.gif","img/card_backs/set1/purple.gif","img/card_backs/set1/yellow.gif","img/card_backs/set2/pink.gif","img/card_backs/set2/blue.gif","img/card_backs/set2/gray.gif","img/card_backs/set2/orange.gif","""event"",""trial"",""time""
""fullscreenenter"",""1"",""7195""
","
","
","""event"",""trial"",""time""
""fullscreenenter"",""1"",""7195""
","
","","4399.599999904633","","","","real_trial","2021-07-15 17:51:37.252","img/card_backs/set1/purple.gif","2","-60","1","",""
"casino-fixation","104","461696","0.0-25.0-0.17","980","false","img/card_backs/set1/green.gif","img/card_backs/set1/red.gif","img/card_backs/set1/purple.gif","img/card_backs/set1/yellow.gif","img/card_backs/set2/pink.gif","img/card_backs/set2/blue.gif","img/card_backs/set2/gray.gif","img/card_backs/set2/orange.gif","""event"",""trial"",""time""
""fullscreenenter"",""1"",""7195""
","
","
","""event"",""trial"",""time""
""fullscreenenter"",""1"",""7195""
","
","","null","","null","","fixation","2021-07-15 17:51:37.758","","","","","",""
"card-selection-trial","105","466075","0.0-25.0-1.17","980","false","img/card_backs/set1/green.gif","img/card_backs/set1/red.gif","img/card_backs/set1/purple.gif","img/card_backs/set1/yellow.gif","img/card_backs/set2/pink.gif","img/card_backs/set2/blue.gif","img/card_backs/set2/gray.gif","img/card_backs/set2/orange.gif","""event"",""trial"",""time""
""fullscreenenter"",""1"",""7195""
","
","
","""event"",""trial"",""time""
""fullscreenenter"",""1"",""7195""
","
","","2367.0999999046326","","","","real_trial","2021-07-15 17:51:42.137","img/card_backs/set1/purple.gif","3","110","1","",""
"casino-fixation","106","466580","0.0-25.0-0.18","980","false","img/card_backs/set1/green.gif","img/card_backs/set1/red.gif","img/card_backs/set1/purple.gif","img/card_backs/set1/yellow.gif","img/card_backs/set2/pink.gif","img/card_backs/set2/blue.gif","img/card_backs/set2/gray.gif","img/card_backs/set2/orange.gif","""event"",""trial"",""time""
""fullscreenenter"",""1"",""7195""
","
","
","""event"",""trial"",""time""
""fullscreenenter"",""1"",""7195""
","
","","null","","null","","fixation","2021-07-15 17:51:42.641","","","","","",""
"card-selection-trial","107","469780","0.0-25.0-1.18","980","false","img/card_backs/set1/green.gif","img/card_backs/set1/red.gif","img/card_backs/set1/purple.gif","img/card_backs/set1/yellow.gif","img/card_backs/set2/pink.gif","img/card_backs/set2/blue.gif","img/card_backs/set2/gray.gif","img/card_backs/set2/orange.gif","""event"",""trial"",""time""
""fullscreenenter"",""1"",""7195""
","
","
","""event"",""trial"",""time""
""fullscreenenter"",""1"",""7195""
","
","","1188.4000000953674","","","","real_trial","2021-07-15 17:51:45.841","img/card_backs/set1/purple.gif","0","-70","1","",""
"casino-fixation","108","470283","0.0-25.0-0.19","980","false","img/card_backs/set1/green.gif","img/card_backs/set1/red.gif","img/card_backs/set1/purple.gif","img/card_backs/set1/yellow.gif","img/card_backs/set2/pink.gif","img/card_backs/set2/blue.gif","img/card_backs/set2/gray.gif","img/card_backs/set2/orange.gif","""event"",""trial"",""time""
""fullscreenenter"",""1"",""7195""
","
","
","""event"",""trial"",""time""
""fullscreenenter"",""1"",""7195""
","
","","null","","null","","fixation","2021-07-15 17:51:46.344","","","","","",""
"card-selection-trial","109","474837","0.0-25.0-1.19","980","false","img/card_backs/set1/green.gif","img/card_backs/set1/red.gif","img/card_backs/set1/purple.gif","img/card_backs/set1/yellow.gif","img/card_backs/set2/pink.gif","img/card_backs/set2/blue.gif","img/card_backs/set2/gray.gif","img/card_backs/set2/orange.gif","""event"",""trial"",""time""
""fullscreenenter"",""1"",""7195""
","
","
","""event"",""trial"",""time""
""fullscreenenter"",""1"",""7195""
","
","","2543.100000143051","","","","real_trial","2021-07-15 17:51:50.898","img/card_backs/set1/yellow.gif","1","-50","1","",""
"casino-fixation","110","475343","0.0-25.0-0.20","980","false","img/card_backs/set1/green.gif","img/card_backs/set1/red.gif","img/card_backs/set1/purple.gif","img/card_backs/set1/yellow.gif","img/card_backs/set2/pink.gif","img/card_backs/set2/blue.gif","img/card_backs/set2/gray.gif","img/card_backs/set2/orange.gif","""event"",""trial"",""time""
""fullscreenenter"",""1"",""7195""
","
","
","""event"",""trial"",""time""
""fullscreenenter"",""1"",""7195""
","
","","null","","null","","fixation","2021-07-15 17:51:51.404","","","","","",""
"card-selection-trial","111","478622","0.0-25.0-1.20","980","false","img/card_backs/set1/green.gif","img/card_backs/set1/red.gif","img/card_backs/set1/purple.gif","img/card_backs/set1/yellow.gif","img/card_backs/set2/pink.gif","img/card_backs/set2/blue.gif","img/card_backs/set2/gray.gif","img/card_backs/set2/orange.gif","""event"",""trial"",""time""
""fullscreenenter"",""1"",""7195""
","
","
","""event"",""trial"",""time""
""fullscreenenter"",""1"",""7195""
","
","","1267.2000000476837","","","","real_trial","2021-07-15 17:51:54.683","img/card_backs/set1/red.gif","0","-230","1","",""
"casino-fixation","112","479126","0.0-25.0-0.21","980","false","img/card_backs/set1/green.gif","img/card_backs/set1/red.gif","img/card_backs/set1/purple.gif","img/card_backs/set1/yellow.gif","img/card_backs/set2/pink.gif","img/card_backs/set2/blue.gif","img/card_backs/set2/gray.gif","img/card_backs/set2/orange.gif","""event"",""trial"",""time""
""fullscreenenter"",""1"",""7195""
","
","
","""event"",""trial"",""time""
""fullscreenenter"",""1"",""7195""
","
","","null","","null","","fixation","2021-07-15 17:51:55.188","","","","","",""
"card-selection-trial","113","481946","0.0-25.0-1.21","980","false","img/card_backs/set1/green.gif","img/card_backs/set1/red.gif","img/card_backs/set1/purple.gif","img/card_backs/set1/yellow.gif","img/card_backs/set2/pink.gif","img/card_backs/set2/blue.gif","img/card_backs/set2/gray.gif","img/card_backs/set2/orange.gif","""event"",""trial"",""time""
""fullscreenenter"",""1"",""7195""
","
","
","""event"",""trial"",""time""
""fullscreenenter"",""1"",""7195""
","
","","810.2000000476837","","","","real_trial","2021-07-15 17:51:58.009","img/card_backs/set1/yellow.gif","3","-70","1","",""
"casino-fixation","114","482450","0.0-25.0-0.22","980","false","img/card_backs/set1/green.gif","img/card_backs/set1/red.gif","img/card_backs/set1/purple.gif","img/card_backs/set1/yellow.gif","img/card_backs/set2/pink.gif","img/card_backs/set2/blue.gif","img/card_backs/set2/gray.gif","img/card_backs/set2/orange.gif","""event"",""trial"",""time""
""fullscreenenter"",""1"",""7195""
","
","
","""event"",""trial"",""time""
""fullscreenenter"",""1"",""7195""
","
","","null","","null","","fixation","2021-07-15 17:51:58.512","","","","","",""
"card-selection-trial","115","485275","0.0-25.0-1.22","980","false","img/card_backs/set1/green.gif","img/card_backs/set1/red.gif","img/card_backs/set1/purple.gif","img/card_backs/set1/yellow.gif","img/card_backs/set2/pink.gif","img/card_backs/set2/blue.gif","img/card_backs/set2/gray.gif","img/card_backs/set2/orange.gif","""event"",""trial"",""time""
""fullscreenenter"",""1"",""7195""
","
","
","""event"",""trial"",""time""
""fullscreenenter"",""1"",""7195""
","
","","812.7000000476837","","","","real_trial","2021-07-15 17:52:01.336","img/card_backs/set1/green.gif","1","-240","1","",""
"casino-fixation","116","485778","0.0-25.0-0.23","980","false","img/card_backs/set1/green.gif","img/card_backs/set1/red.gif","img/card_backs/set1/purple.gif","img/card_backs/set1/yellow.gif","img/card_backs/set2/pink.gif","img/card_backs/set2/blue.gif","img/card_backs/set2/gray.gif","img/card_backs/set2/orange.gif","""event"",""trial"",""time""
""fullscreenenter"",""1"",""7195""
","
","
","""event"",""trial"",""time""
""fullscreenenter"",""1"",""7195""
","
","","null","","null","","fixation","2021-07-15 17:52:01.839","","","","","",""
"card-selection-trial","117","488765","0.0-25.0-1.23","980","false","img/card_backs/set1/green.gif","img/card_backs/set1/red.gif","img/card_backs/set1/purple.gif","img/card_backs/set1/yellow.gif","img/card_backs/set2/pink.gif","img/card_backs/set2/blue.gif","img/card_backs/set2/gray.gif","img/card_backs/set2/orange.gif","""event"",""trial"",""time""
""fullscreenenter"",""1"",""7195""
","
","
","""event"",""trial"",""time""
""fullscreenenter"",""1"",""7195""
","
","","976","","","","real_trial","2021-07-15 17:52:04.826","img/card_backs/set1/green.gif","2","-240","1","",""
"casino-fixation","118","489269","0.0-25.0-0.24","980","false","img/card_backs/set1/green.gif","img/card_backs/set1/red.gif","img/card_backs/set1/purple.gif","img/card_backs/set1/yellow.gif","img/card_backs/set2/pink.gif","img/card_backs/set2/blue.gif","img/card_backs/set2/gray.gif","img/card_backs/set2/orange.gif","""event"",""trial"",""time""
""fullscreenenter"",""1"",""7195""
","
","
","""event"",""trial"",""time""
""fullscreenenter"",""1"",""7195""
","
","","null","","null","","fixation","2021-07-15 17:52:05.330","","","","","",""
"card-selection-trial","119","493855","0.0-25.0-1.24","980","false","img/card_backs/set1/green.gif","img/card_backs/set1/red.gif","img/card_backs/set1/purple.gif","img/card_backs/set1/yellow.gif","img/card_backs/set2/pink.gif","img/card_backs/set2/blue.gif","img/card_backs/set2/gray.gif","img/card_backs/set2/orange.gif","""event"",""trial"",""time""
""fullscreenenter"",""1"",""7195""
","
","
","""event"",""trial"",""time""
""fullscreenenter"",""1"",""7195""
","
","","2574.5","","","","real_trial","2021-07-15 17:52:09.917","img/card_backs/set1/red.gif","1","190","1","",""
"casino-fixation","120","494360","0.0-25.0-0.25","980","false","img/card_backs/set1/green.gif","img/card_backs/set1/red.gif","img/card_backs/set1/purple.gif","img/card_backs/set1/yellow.gif","img/card_backs/set2/pink.gif","img/card_backs/set2/blue.gif","img/card_backs/set2/gray.gif","img/card_backs/set2/orange.gif","""event"",""trial"",""time""
""fullscreenenter"",""1"",""7195""
","
","
","""event"",""trial"",""time""
""fullscreenenter"",""1"",""7195""
","
","","null","","null","","fixation","2021-07-15 17:52:10.421","","","","","",""
"card-selection-trial","121","497902","0.0-25.0-1.25","980","false","img/card_backs/set1/green.gif","img/card_backs/set1/red.gif","img/card_backs/set1/purple.gif","img/card_backs/set1/yellow.gif","img/card_backs/set2/pink.gif","img/card_backs/set2/blue.gif","img/card_backs/set2/gray.gif","img/card_backs/set2/orange.gif","""event"",""trial"",""time""
""fullscreenenter"",""1"",""7195""
","
","
","""event"",""trial"",""time""
""fullscreenenter"",""1"",""7195""
","
","","1529.9000000953674","","","","real_trial","2021-07-15 17:52:13.963","img/card_backs/set1/red.gif","1","-230","1","",""
"casino-fixation","122","498406","0.0-25.0-0.26","980","false","img/card_backs/set1/green.gif","img/card_backs/set1/red.gif","img/card_backs/set1/purple.gif","img/card_backs/set1/yellow.gif","img/card_backs/set2/pink.gif","img/card_backs/set2/blue.gif","img/card_backs/set2/gray.gif","img/card_backs/set2/orange.gif","""event"",""trial"",""time""
""fullscreenenter"",""1"",""7195""
","
","
","""event"",""trial"",""time""
""fullscreenenter"",""1"",""7195""
","
","","null","","null","","fixation","2021-07-15 17:52:14.467","","","","","",""
"card-selection-trial","123","505808","0.0-25.0-1.26","980","false","img/card_backs/set1/green.gif","img/card_backs/set1/red.gif","img/card_backs/set1/purple.gif","img/card_backs/set1/yellow.gif","img/card_backs/set2/pink.gif","img/card_backs/set2/blue.gif","img/card_backs/set2/gray.gif","img/card_backs/set2/orange.gif","""event"",""trial"",""time""
""fullscreenenter"",""1"",""7195""
","
","
","""event"",""trial"",""time""
""fullscreenenter"",""1"",""7195""
","
","","5390.399999856949","","","","real_trial","2021-07-15 17:52:21.870","img/card_backs/set1/red.gif","1","-250","1","",""
"casino-fixation","124","506313","0.0-25.0-0.27","980","false","img/card_backs/set1/green.gif","img/card_backs/set1/red.gif","img/card_backs/set1/purple.gif","img/card_backs/set1/yellow.gif","img/card_backs/set2/pink.gif","img/card_backs/set2/blue.gif","img/card_backs/set2/gray.gif","img/card_backs/set2/orange.gif","""event"",""trial"",""time""
""fullscreenenter"",""1"",""7195""
","
","
","""event"",""trial"",""time""
""fullscreenenter"",""1"",""7195""
","
","","null","","null","","fixation","2021-07-15 17:52:22.374","","","","","",""
"card-selection-trial","125","509077","0.0-25.0-1.27","980","false","img/card_backs/set1/green.gif","img/card_backs/set1/red.gif","img/card_backs/set1/purple.gif","img/card_backs/set1/yellow.gif","img/card_backs/set2/pink.gif","img/card_backs/set2/blue.gif","img/card_backs/set2/gray.gif","img/card_backs/set2/orange.gif","""event"",""trial"",""time""
""fullscreenenter"",""1"",""7195""
","
","
","""event"",""trial"",""time""
""fullscreenenter"",""1"",""7195""
","
","","752.5999999046326","","","","real_trial","2021-07-15 17:52:25.138","img/card_backs/set1/red.gif","1","-240","1","",""
"casino-fixation","126","509580","0.0-25.0-0.28","980","false","img/card_backs/set1/green.gif","img/card_backs/set1/red.gif","img/card_backs/set1/purple.gif","img/card_backs/set1/yellow.gif","img/card_backs/set2/pink.gif","img/card_backs/set2/blue.gif","img/card_backs/set2/gray.gif","img/card_backs/set2/orange.gif","""event"",""trial"",""time""
""fullscreenenter"",""1"",""7195""
","
","
","""event"",""trial"",""time""
""fullscreenenter"",""1"",""7195""
","
","","null","","null","","fixation","2021-07-15 17:52:25.641","","","","","",""
"card-selection-trial","127","512601","0.0-25.0-1.28","980","false","img/card_backs/set1/green.gif","img/card_backs/set1/red.gif","img/card_backs/set1/purple.gif","img/card_backs/set1/yellow.gif","img/card_backs/set2/pink.gif","img/card_backs/set2/blue.gif","img/card_backs/set2/gray.gif","img/card_backs/set2/orange.gif","""event"",""trial"",""time""
""fullscreenenter"",""1"",""7195""
","
","
","""event"",""trial"",""time""
""fullscreenenter"",""1"",""7195""
","
","","1008.7999999523163","","","","real_trial","2021-07-15 17:52:28.662","img/card_backs/set1/red.gif","2","-250","1","",""
"casino-fixation","128","513106","0.0-25.0-0.29","980","false","img/card_backs/set1/green.gif","img/card_backs/set1/red.gif","img/card_backs/set1/purple.gif","img/card_backs/set1/yellow.gif","img/card_backs/set2/pink.gif","img/card_backs/set2/blue.gif","img/card_backs/set2/gray.gif","img/card_backs/set2/orange.gif","""event"",""trial"",""time""
""fullscreenenter"",""1"",""7195""
","
","
","""event"",""trial"",""time""
""fullscreenenter"",""1"",""7195""
","
","","null","","null","","fixation","2021-07-15 17:52:29.167","","","","","",""
"card-selection-trial","129","516295","0.0-25.0-1.29","980","false","img/card_backs/set1/green.gif","img/card_backs/set1/red.gif","img/card_backs/set1/purple.gif","img/card_backs/set1/yellow.gif","img/card_backs/set2/pink.gif","img/card_backs/set2/blue.gif","img/card_backs/set2/gray.gif","img/card_backs/set2/orange.gif","""event"",""trial"",""time""
""fullscreenenter"",""1"",""7195""
","
","
","""event"",""trial"",""time""
""fullscreenenter"",""1"",""7195""
","
","","1177.4000000953674","","","","real_trial","2021-07-15 17:52:32.356","img/card_backs/set1/red.gif","0","190","1","",""
"casino-fixation","130","516800","0.0-25.0-0.30","980","false","img/card_backs/set1/green.gif","img/card_backs/set1/red.gif","img/card_backs/set1/purple.gif","img/card_backs/set1/yellow.gif","img/card_backs/set2/pink.gif","img/card_backs/set2/blue.gif","img/card_backs/set2/gray.gif","img/card_backs/set2/orange.gif","""event"",""trial"",""time""
""fullscreenenter"",""1"",""7195""
","
","
","""event"",""trial"",""time""
""fullscreenenter"",""1"",""7195""
","
","","null","","null","","fixation","2021-07-15 17:52:32.861","","","","","",""
"card-selection-trial","131","520094","0.0-25.0-1.30","980","false","img/card_backs/set1/green.gif","img/card_backs/set1/red.gif","img/card_backs/set1/purple.gif","img/card_backs/set1/yellow.gif","img/card_backs/set2/pink.gif","img/card_backs/set2/blue.gif","img/card_backs/set2/gray.gif","img/card_backs/set2/orange.gif","""event"",""trial"",""time""
""fullscreenenter"",""1"",""7195""
","
","
","""event"",""trial"",""time""
""fullscreenenter"",""1"",""7195""
","
","","1282.5","","","","real_trial","2021-07-15 17:52:36.155","img/card_backs/set1/red.gif","0","190","1","",""
"casino-fixation","132","520596","0.0-25.0-0.31","980","false","img/card_backs/set1/green.gif","img/card_backs/set1/red.gif","img/card_backs/set1/purple.gif","img/card_backs/set1/yellow.gif","img/card_backs/set2/pink.gif","img/card_backs/set2/blue.gif","img/card_backs/set2/gray.gif","img/card_backs/set2/orange.gif","""event"",""trial"",""time""
""fullscreenenter"",""1"",""7195""
","
","
","""event"",""trial"",""time""
""fullscreenenter"",""1"",""7195""
","
","","null","","null","","fixation","2021-07-15 17:52:36.657","","","","","",""
"card-selection-trial","133","523159","0.0-25.0-1.31","980","false","img/card_backs/set1/green.gif","img/card_backs/set1/red.gif","img/card_backs/set1/purple.gif","img/card_backs/set1/yellow.gif","img/card_backs/set2/pink.gif","img/card_backs/set2/blue.gif","img/card_backs/set2/gray.gif","img/card_backs/set2/orange.gif","""event"",""trial"",""time""
""fullscreenenter"",""1"",""7195""
","
","
","""event"",""trial"",""time""
""fullscreenenter"",""1"",""7195""
","
","","550.1999998092651","","","","real_trial","2021-07-15 17:52:39.220","img/card_backs/set1/red.gif","0","180","1","",""
"casino-fixation","134","523662","0.0-25.0-0.32","980","false","img/card_backs/set1/green.gif","img/card_backs/set1/red.gif","img/card_backs/set1/purple.gif","img/card_backs/set1/yellow.gif","img/card_backs/set2/pink.gif","img/card_backs/set2/blue.gif","img/card_backs/set2/gray.gif","img/card_backs/set2/orange.gif","""event"",""trial"",""time""
""fullscreenenter"",""1"",""7195""
","
","
","""event"",""trial"",""time""
""fullscreenenter"",""1"",""7195""
","
","","null","","null","","fixation","2021-07-15 17:52:39.723","","","","","",""
"card-selection-trial","135","526978","0.0-25.0-1.32","980","false","img/card_backs/set1/green.gif","img/card_backs/set1/red.gif","img/card_backs/set1/purple.gif","img/card_backs/set1/yellow.gif","img/card_backs/set2/pink.gif","img/card_backs/set2/blue.gif","img/card_backs/set2/gray.gif","img/card_backs/set2/orange.gif","""event"",""trial"",""time""
""fullscreenenter"",""1"",""7195""
","
","
","""event"",""trial"",""time""
""fullscreenenter"",""1"",""7195""
","
","","1304.0999999046326","","","","real_trial","2021-07-15 17:52:43.039","img/card_backs/set1/red.gif","1","-230","1","",""
"casino-fixation","136","527483","0.0-25.0-0.33","980","false","img/card_backs/set1/green.gif","img/card_backs/set1/red.gif","img/card_backs/set1/purple.gif","img/card_backs/set1/yellow.gif","img/card_backs/set2/pink.gif","img/card_backs/set2/blue.gif","img/card_backs/set2/gray.gif","img/card_backs/set2/orange.gif","""event"",""trial"",""time""
""fullscreenenter"",""1"",""7195""
","
","
","""event"",""trial"",""time""
""fullscreenenter"",""1"",""7195""
","
","","null","","null","","fixation","2021-07-15 17:52:43.544","","","","","",""
"card-selection-trial","137","530176","0.0-25.0-1.33","980","false","img/card_backs/set1/green.gif","img/card_backs/set1/red.gif","img/card_backs/set1/purple.gif","img/card_backs/set1/yellow.gif","img/card_backs/set2/pink.gif","img/card_backs/set2/blue.gif","img/card_backs/set2/gray.gif","img/card_backs/set2/orange.gif","""event"",""trial"",""time""
""fullscreenenter"",""1"",""7195""
","
","
","""event"",""trial"",""time""
""fullscreenenter"",""1"",""7195""
","
","","681.7999999523163","","","","real_trial","2021-07-15 17:52:46.237","img/card_backs/set1/red.gif","1","-250","1","",""
"casino-fixation","138","530681","0.0-25.0-0.34","980","false","img/card_backs/set1/green.gif","img/card_backs/set1/red.gif","img/card_backs/set1/purple.gif","img/card_backs/set1/yellow.gif","img/card_backs/set2/pink.gif","img/card_backs/set2/blue.gif","img/card_backs/set2/gray.gif","img/card_backs/set2/orange.gif","""event"",""trial"",""time""
""fullscreenenter"",""1"",""7195""
","
","
","""event"",""trial"",""time""
""fullscreenenter"",""1"",""7195""
","
","","null","","null","","fixation","2021-07-15 17:52:46.742","","","","","",""
"card-selection-trial","139","533479","0.0-25.0-1.34","980","false","img/card_backs/set1/green.gif","img/card_backs/set1/red.gif","img/card_backs/set1/purple.gif","img/card_backs/set1/yellow.gif","img/card_backs/set2/pink.gif","img/card_backs/set2/blue.gif","img/card_backs/set2/gray.gif","img/card_backs/set2/orange.gif","""event"",""trial"",""time""
""fullscreenenter"",""1"",""7195""
","
","
","""event"",""trial"",""time""
""fullscreenenter"",""1"",""7195""
","
","","785.0999999046326","","","","real_trial","2021-07-15 17:52:49.540","img/card_backs/set1/red.gif","0","190","1","",""
"casino-fixation","140","533982","0.0-25.0-0.35","980","false","img/card_backs/set1/green.gif","img/card_backs/set1/red.gif","img/card_backs/set1/purple.gif","img/card_backs/set1/yellow.gif","img/card_backs/set2/pink.gif","img/card_backs/set2/blue.gif","img/card_backs/set2/gray.gif","img/card_backs/set2/orange.gif","""event"",""trial"",""time""
""fullscreenenter"",""1"",""7195""
","
","
","""event"",""trial"",""time""
""fullscreenenter"",""1"",""7195""
","
","","null","","null","","fixation","2021-07-15 17:52:50.043","","","","","",""
"card-selection-trial","141","536535","0.0-25.0-1.35","980","false","img/card_backs/set1/green.gif","img/card_backs/set1/red.gif","img/card_backs/set1/purple.gif","img/card_backs/set1/yellow.gif","img/card_backs/set2/pink.gif","img/card_backs/set2/blue.gif","img/card_backs/set2/gray.gif","img/card_backs/set2/orange.gif","""event"",""trial"",""time""
""fullscreenenter"",""1"",""7195""
","
","
","""event"",""trial"",""time""
""fullscreenenter"",""1"",""7195""
","
","","541.9000000953674","","","","real_trial","2021-07-15 17:52:52.597","img/card_backs/set1/yellow.gif","0","110","1","",""
"casino-fixation","142","537041","0.0-25.0-0.36","980","false","img/card_backs/set1/green.gif","img/card_backs/set1/red.gif","img/card_backs/set1/purple.gif","img/card_backs/set1/yellow.gif","img/card_backs/set2/pink.gif","img/card_backs/set2/blue.gif","img/card_backs/set2/gray.gif","img/card_backs/set2/orange.gif","""event"",""trial"",""time""
""fullscreenenter"",""1"",""7195""
","
","
","""event"",""trial"",""time""
""fullscreenenter"",""1"",""7195""
","
","","null","","null","","fixation","2021-07-15 17:52:53.102","","","","","",""
"card-selection-trial","143","540825","0.0-25.0-1.36","980","false","img/card_backs/set1/green.gif","img/card_backs/set1/red.gif","img/card_backs/set1/purple.gif","img/card_backs/set1/yellow.gif","img/card_backs/set2/pink.gif","img/card_backs/set2/blue.gif","img/card_backs/set2/gray.gif","img/card_backs/set2/orange.gif","""event"",""trial"",""time""
""fullscreenenter"",""1"",""7195""
","
","
","""event"",""trial"",""time""
""fullscreenenter"",""1"",""7195""
","
","","1772.2999999523163","","","","real_trial","2021-07-15 17:52:56.886","img/card_backs/set1/red.gif","2","-240","1","",""
"casino-fixation","144","541330","0.0-25.0-0.37","980","false","img/card_backs/set1/green.gif","img/card_backs/set1/red.gif","img/card_backs/set1/purple.gif","img/card_backs/set1/yellow.gif","img/card_backs/set2/pink.gif","img/card_backs/set2/blue.gif","img/card_backs/set2/gray.gif","img/card_backs/set2/orange.gif","""event"",""trial"",""time""
""fullscreenenter"",""1"",""7195""
","
","
","""event"",""trial"",""time""
""fullscreenenter"",""1"",""7195""
","
","","null","","null","","fixation","2021-07-15 17:52:57.392","","","","","",""
"card-selection-trial","145","544852","0.0-25.0-1.37","980","false","img/card_backs/set1/green.gif","img/card_backs/set1/red.gif","img/card_backs/set1/purple.gif","img/card_backs/set1/yellow.gif","img/card_backs/set2/pink.gif","img/card_backs/set2/blue.gif","img/card_backs/set2/gray.gif","img/card_backs/set2/orange.gif","""event"",""trial"",""time""
""fullscreenenter"",""1"",""7195""
","
","
","""event"",""trial"",""time""
""fullscreenenter"",""1"",""7195""
","
","","1511.2999999523163","","","","real_trial","2021-07-15 17:53:00.913","img/card_backs/set1/purple.gif","1","110","1","",""
"casino-fixation","146","545357","0.0-25.0-0.38","980","false","img/card_backs/set1/green.gif","img/card_backs/set1/red.gif","img/card_backs/set1/purple.gif","img/card_backs/set1/yellow.gif","img/card_backs/set2/pink.gif","img/card_backs/set2/blue.gif","img/card_backs/set2/gray.gif","img/card_backs/set2/orange.gif","""event"",""trial"",""time""
""fullscreenenter"",""1"",""7195""
","
","
","""event"",""trial"",""time""
""fullscreenenter"",""1"",""7195""
","
","","null","","null","","fixation","2021-07-15 17:53:01.418","","","","","",""
"card-selection-trial","147","548221","0.0-25.0-1.38","980","false","img/card_backs/set1/green.gif","img/card_backs/set1/red.gif","img/card_backs/set1/purple.gif","img/card_backs/set1/yellow.gif","img/card_backs/set2/pink.gif","img/card_backs/set2/blue.gif","img/card_backs/set2/gray.gif","img/card_backs/set2/orange.gif","""event"",""trial"",""time""
""fullscreenenter"",""1"",""7195""
","
","
","""event"",""trial"",""time""
""fullscreenenter"",""1"",""7195""
","
","","852","","","","real_trial","2021-07-15 17:53:04.282","img/card_backs/set1/red.gif","1","-230","1","",""
"casino-fixation","148","548726","0.0-25.0-0.39","980","false","img/card_backs/set1/green.gif","img/card_backs/set1/red.gif","img/card_backs/set1/purple.gif","img/card_backs/set1/yellow.gif","img/card_backs/set2/pink.gif","img/card_backs/set2/blue.gif","img/card_backs/set2/gray.gif","img/card_backs/set2/orange.gif","""event"",""trial"",""time""
""fullscreenenter"",""1"",""7195""
","
","
","""event"",""trial"",""time""
""fullscreenenter"",""1"",""7195""
","
","","null","","null","","fixation","2021-07-15 17:53:04.787","","","","","",""
"card-selection-trial","149","551478","0.0-25.0-1.39","980","false","img/card_backs/set1/green.gif","img/card_backs/set1/red.gif","img/card_backs/set1/purple.gif","img/card_backs/set1/yellow.gif","img/card_backs/set2/pink.gif","img/card_backs/set2/blue.gif","img/card_backs/set2/gray.gif","img/card_backs/set2/orange.gif","""event"",""trial"",""time""
""fullscreenenter"",""1"",""7195""
","
","
","""event"",""trial"",""time""
""fullscreenenter"",""1"",""7195""
","
","","738.7000000476837","","","","real_trial","2021-07-15 17:53:07.539","img/card_backs/set1/purple.gif","0","-70","1","",""
"casino-fixation","150","551980","0.0-25.0-0.40","980","false","img/card_backs/set1/green.gif","img/card_backs/set1/red.gif","img/card_backs/set1/purple.gif","img/card_backs/set1/yellow.gif","img/card_backs/set2/pink.gif","img/card_backs/set2/blue.gif","img/card_backs/set2/gray.gif","img/card_backs/set2/orange.gif","""event"",""trial"",""time""
""fullscreenenter"",""1"",""7195""
","
","
","""event"",""trial"",""time""
""fullscreenenter"",""1"",""7195""
","
","","null","","null","","fixation","2021-07-15 17:53:08.041","","","","","",""
"card-selection-trial","151","555028","0.0-25.0-1.40","980","false","img/card_backs/set1/green.gif","img/card_backs/set1/red.gif","img/card_backs/set1/purple.gif","img/card_backs/set1/yellow.gif","img/card_backs/set2/pink.gif","img/card_backs/set2/blue.gif","img/card_backs/set2/gray.gif","img/card_backs/set2/orange.gif","""event"",""trial"",""time""
""fullscreenenter"",""1"",""7195""
","
","
","""event"",""trial"",""time""
""fullscreenenter"",""1"",""7195""
","
","","1035.7999999523163","","","","real_trial","2021-07-15 17:53:11.089","img/card_backs/set1/red.gif","0","200","1","",""
"casino-fixation","152","555533","0.0-25.0-0.41","980","false","img/card_backs/set1/green.gif","img/card_backs/set1/red.gif","img/card_backs/set1/purple.gif","img/card_backs/set1/yellow.gif","img/card_backs/set2/pink.gif","img/card_backs/set2/blue.gif","img/card_backs/set2/gray.gif","img/card_backs/set2/orange.gif","""event"",""trial"",""time""
""fullscreenenter"",""1"",""7195""
","
","
","""event"",""trial"",""time""
""fullscreenenter"",""1"",""7195""
","
","","null","","null","","fixation","2021-07-15 17:53:11.594","","","","","",""
"card-selection-trial","153","559040","0.0-25.0-1.41","980","false","img/card_backs/set1/green.gif","img/card_backs/set1/red.gif","img/card_backs/set1/purple.gif","img/card_backs/set1/yellow.gif","img/card_backs/set2/pink.gif","img/card_backs/set2/blue.gif","img/card_backs/set2/gray.gif","img/card_backs/set2/orange.gif","""event"",""trial"",""time""
""fullscreenenter"",""1"",""7195""
","
","
","""event"",""trial"",""time""
""fullscreenenter"",""1"",""7195""
","
","","1492.6999998092651","","","","real_trial","2021-07-15 17:53:15.102","img/card_backs/set1/green.gif","0","-240","1","",""
"casino-fixation","154","559546","0.0-25.0-0.42","980","false","img/card_backs/set1/green.gif","img/card_backs/set1/red.gif","img/card_backs/set1/purple.gif","img/card_backs/set1/yellow.gif","img/card_backs/set2/pink.gif","img/card_backs/set2/blue.gif","img/card_backs/set2/gray.gif","img/card_backs/set2/orange.gif","""event"",""trial"",""time""
""fullscreenenter"",""1"",""7195""
","
","
","""event"",""trial"",""time""
""fullscreenenter"",""1"",""7195""
","
","","null","","null","","fixation","2021-07-15 17:53:15.607","","","","","",""
"card-selection-trial","155","562988","0.0-25.0-1.42","980","false","img/card_backs/set1/green.gif","img/card_backs/set1/red.gif","img/card_backs/set1/purple.gif","img/card_backs/set1/yellow.gif","img/card_backs/set2/pink.gif","img/card_backs/set2/blue.gif","img/card_backs/set2/gray.gif","img/card_backs/set2/orange.gif","""event"",""trial"",""time""
""fullscreenenter"",""1"",""7195""
","
","
","""event"",""trial"",""time""
""fullscreenenter"",""1"",""7195""
","
","","1430.2999999523163","","","","real_trial","2021-07-15 17:53:19.050","img/card_backs/set1/yellow.gif","0","-60","1","",""
"casino-fixation","156","563494","0.0-25.0-0.43","980","false","img/card_backs/set1/green.gif","img/card_backs/set1/red.gif","img/card_backs/set1/purple.gif","img/card_backs/set1/yellow.gif","img/card_backs/set2/pink.gif","img/card_backs/set2/blue.gif","img/card_backs/set2/gray.gif","img/card_backs/set2/orange.gif","""event"",""trial"",""time""
""fullscreenenter"",""1"",""7195""
","
","
","""event"",""trial"",""time""
""fullscreenenter"",""1"",""7195""
","
","","null","","null","","fixation","2021-07-15 17:53:19.555","","","","","",""
"card-selection-trial","157","566163","0.0-25.0-1.43","980","false","img/card_backs/set1/green.gif","img/card_backs/set1/red.gif","img/card_backs/set1/purple.gif","img/card_backs/set1/yellow.gif","img/card_backs/set2/pink.gif","img/card_backs/set2/blue.gif","img/card_backs/set2/gray.gif","img/card_backs/set2/orange.gif","""event"",""trial"",""time""
""fullscreenenter"",""1"",""7195""
","
","
","""event"",""trial"",""time""
""fullscreenenter"",""1"",""7195""
","
","","657.7999999523163","","","","real_trial","2021-07-15 17:53:22.224","img/card_backs/set1/green.gif","1","-250","1","",""
"casino-fixation","158","566668","0.0-25.0-0.44","980","false","img/card_backs/set1/green.gif","img/card_backs/set1/red.gif","img/card_backs/set1/purple.gif","img/card_backs/set1/yellow.gif","img/card_backs/set2/pink.gif","img/card_backs/set2/blue.gif","img/card_backs/set2/gray.gif","img/card_backs/set2/orange.gif","""event"",""trial"",""time""
""fullscreenenter"",""1"",""7195""
","
","
","""event"",""trial"",""time""
""fullscreenenter"",""1"",""7195""
","
","","null","","null","","fixation","2021-07-15 17:53:22.730","","","","","",""
"card-selection-trial","159","569432","0.0-25.0-1.44","980","false","img/card_backs/set1/green.gif","img/card_backs/set1/red.gif","img/card_backs/set1/purple.gif","img/card_backs/set1/yellow.gif","img/card_backs/set2/pink.gif","img/card_backs/set2/blue.gif","img/card_backs/set2/gray.gif","img/card_backs/set2/orange.gif","""event"",""trial"",""time""
""fullscreenenter"",""1"",""7195""
","
","
","""event"",""trial"",""time""
""fullscreenenter"",""1"",""7195""
","
","","751.2000000476837","","","","real_trial","2021-07-15 17:53:25.493","img/card_backs/set1/red.gif","1","180","1","",""
"casino-fixation","160","569935","0.0-25.0-0.45","980","false","img/card_backs/set1/green.gif","img/card_backs/set1/red.gif","img/card_backs/set1/purple.gif","img/card_backs/set1/yellow.gif","img/card_backs/set2/pink.gif","img/card_backs/set2/blue.gif","img/card_backs/set2/gray.gif","img/card_backs/set2/orange.gif","""event"",""trial"",""time""
""fullscreenenter"",""1"",""7195""
","
","
","""event"",""trial"",""time""
""fullscreenenter"",""1"",""7195""
","
","","null","","null","","fixation","2021-07-15 17:53:25.996","","","","","",""
"card-selection-trial","161","572819","0.0-25.0-1.45","980","false","img/card_backs/set1/green.gif","img/card_backs/set1/red.gif","img/card_backs/set1/purple.gif","img/card_backs/set1/yellow.gif","img/card_backs/set2/pink.gif","img/card_backs/set2/blue.gif","img/card_backs/set2/gray.gif","img/card_backs/set2/orange.gif","""event"",""trial"",""time""
""fullscreenenter"",""1"",""7195""
","
","
","""event"",""trial"",""time""
""fullscreenenter"",""1"",""7195""
","
","","872.6999998092651","","","","real_trial","2021-07-15 17:53:28.881","img/card_backs/set1/red.gif","0","200","1","",""
"casino-fixation","162","573325","0.0-25.0-0.46","980","false","img/card_backs/set1/green.gif","img/card_backs/set1/red.gif","img/card_backs/set1/purple.gif","img/card_backs/set1/yellow.gif","img/card_backs/set2/pink.gif","img/card_backs/set2/blue.gif","img/card_backs/set2/gray.gif","img/card_backs/set2/orange.gif","""event"",""trial"",""time""
""fullscreenenter"",""1"",""7195""
","
","
","""event"",""trial"",""time""
""fullscreenenter"",""1"",""7195""
","
","","null","","null","","fixation","2021-07-15 17:53:29.386","","","","","",""
"card-selection-trial","163","576168","0.0-25.0-1.46","980","false","img/card_backs/set1/green.gif","img/card_backs/set1/red.gif","img/card_backs/set1/purple.gif","img/card_backs/set1/yellow.gif","img/card_backs/set2/pink.gif","img/card_backs/set2/blue.gif","img/card_backs/set2/gray.gif","img/card_backs/set2/orange.gif","""event"",""trial"",""time""
""fullscreenenter"",""1"",""7195""
","
","
","""event"",""trial"",""time""
""fullscreenenter"",""1"",""7195""
","
","","831","","","","real_trial","2021-07-15 17:53:32.229","img/card_backs/set1/red.gif","0","180","1","",""
"casino-fixation","164","576673","0.0-25.0-0.47","980","false","img/card_backs/set1/green.gif","img/card_backs/set1/red.gif","img/card_backs/set1/purple.gif","img/card_backs/set1/yellow.gif","img/card_backs/set2/pink.gif","img/card_backs/set2/blue.gif","img/card_backs/set2/gray.gif","img/card_backs/set2/orange.gif","""event"",""trial"",""time""
""fullscreenenter"",""1"",""7195""
","
","
","""event"",""trial"",""time""
""fullscreenenter"",""1"",""7195""
","
","","null","","null","","fixation","2021-07-15 17:53:32.735","","","","","",""
"card-selection-trial","165","580033","0.0-25.0-1.47","980","false","img/card_backs/set1/green.gif","img/card_backs/set1/red.gif","img/card_backs/set1/purple.gif","img/card_backs/set1/yellow.gif","img/card_backs/set2/pink.gif","img/card_backs/set2/blue.gif","img/card_backs/set2/gray.gif","img/card_backs/set2/orange.gif","""event"",""trial"",""time""
""fullscreenenter"",""1"",""7195""
","
","
","""event"",""trial"",""time""
""fullscreenenter"",""1"",""7195""
","
","","1347.1000001430511","","","","real_trial","2021-07-15 17:53:36.094","img/card_backs/set1/red.gif","2","190","1","",""
"casino-fixation","166","580536","0.0-25.0-0.48","980","false","img/card_backs/set1/green.gif","img/card_backs/set1/red.gif","img/card_backs/set1/purple.gif","img/card_backs/set1/yellow.gif","img/card_backs/set2/pink.gif","img/card_backs/set2/blue.gif","img/card_backs/set2/gray.gif","img/card_backs/set2/orange.gif","""event"",""trial"",""time""
""fullscreenenter"",""1"",""7195""
","
","
","""event"",""trial"",""time""
""fullscreenenter"",""1"",""7195""
","
","","null","","null","","fixation","2021-07-15 17:53:36.597","","","","","",""
"card-selection-trial","167","583641","0.0-25.0-1.48","980","false","img/card_backs/set1/green.gif","img/card_backs/set1/red.gif","img/card_backs/set1/purple.gif","img/card_backs/set1/yellow.gif","img/card_backs/set2/pink.gif","img/card_backs/set2/blue.gif","img/card_backs/set2/gray.gif","img/card_backs/set2/orange.gif","""event"",""trial"",""time""
""fullscreenenter"",""1"",""7195""
","
","
","""event"",""trial"",""time""
""fullscreenenter"",""1"",""7195""
","
