"trial_type","trial_index","time_elapsed","internal_node_id","sub_id","risk_good_first","block1_A","block1_B","block1_C","block1_D","block2_A","block2_B","block2_C","block2_D","interactions","blur_events","focus_events","fullscreenenter_events","fullscreenexit_events","success","rt","stimulus","key_press","button_pressed","task_part","timestamp","card_choice","choice_position","points_earned","block","correct","response"
"pavlovia","0","2","0.0-0.0","627","true","img/card_backs/set1/red.gif","img/card_backs/set1/green.gif","img/card_backs/set1/yellow.gif","img/card_backs/set1/purple.gif","img/card_backs/set2/orange.gif","img/card_backs/set2/pink.gif","img/card_backs/set2/gray.gif","img/card_backs/set2/blue.gif","""event"",""trial"",""time""
""fullscreenenter"",""1"",""4195""
","
","
","""event"",""trial"",""time""
""fullscreenenter"",""1"",""4195""
","
","","","","","","","","","","","","",""
"fullscreen","1","5189","0.0-1.0","627","true","img/card_backs/set1/red.gif","img/card_backs/set1/green.gif","img/card_backs/set1/yellow.gif","img/card_backs/set1/purple.gif","img/card_backs/set2/orange.gif","img/card_backs/set2/pink.gif","img/card_backs/set2/gray.gif","img/card_backs/set2/blue.gif","""event"",""trial"",""time""
""fullscreenenter"",""1"",""4195""
","
","
","""event"",""trial"",""time""
""fullscreenenter"",""1"",""4195""
","
","true","","","","","","","","","","","",""
"audio-keyboard-response","2","7844","0.0-2.0","627","true","img/card_backs/set1/red.gif","img/card_backs/set1/green.gif","img/card_backs/set1/yellow.gif","img/card_backs/set1/purple.gif","img/card_backs/set2/orange.gif","img/card_backs/set2/pink.gif","img/card_backs/set2/gray.gif","img/card_backs/set2/blue.gif","""event"",""trial"",""time""
""fullscreenenter"",""1"",""4195""
","
","
","""event"",""trial"",""time""
""fullscreenenter"",""1"",""4195""
","
","","2640","audio/beep_loop.wav","32","","","","","","","","",""
"audio-button-response","3","10671","0.0-3.0","627","true","img/card_backs/set1/red.gif","img/card_backs/set1/green.gif","img/card_backs/set1/yellow.gif","img/card_backs/set1/purple.gif","img/card_backs/set2/orange.gif","img/card_backs/set2/pink.gif","img/card_backs/set2/gray.gif","img/card_backs/set2/blue.gif","""event"",""trial"",""time""
""fullscreenenter"",""1"",""4195""
","
","
","""event"",""trial"",""time""
""fullscreenenter"",""1"",""4195""
","
","","NaN","audio/turtle.mp3","","3","","","","","","","",""
"audio-button-response","4","12591","0.0-4.0","627","true","img/card_backs/set1/red.gif","img/card_backs/set1/green.gif","img/card_backs/set1/yellow.gif","img/card_backs/set1/purple.gif","img/card_backs/set2/orange.gif","img/card_backs/set2/pink.gif","img/card_backs/set2/gray.gif","img/card_backs/set2/blue.gif","""event"",""trial"",""time""
""fullscreenenter"",""1"",""4195""
","
","
","""event"",""trial"",""time""
""fullscreenenter"",""1"",""4195""
","
","","NaN","audio/shark.mp3","","2","","","","","","","",""
"fullscreen","5","15763","0.0-5.0","627","true","img/card_backs/set1/red.gif","img/card_backs/set1/green.gif","img/card_backs/set1/yellow.gif","img/card_backs/set1/purple.gif","img/card_backs/set2/orange.gif","img/card_backs/set2/pink.gif","img/card_backs/set2/gray.gif","img/card_backs/set2/blue.gif","""event"",""trial"",""time""
""fullscreenenter"",""1"",""4195""
","
","
","""event"",""trial"",""time""
""fullscreenenter"",""1"",""4195""
","
","true","","","","","","","","","","","",""
"casino-keyboard-response","6","18604","0.0-6.0-0.0","627","true","img/card_backs/set1/red.gif","img/card_backs/set1/green.gif","img/card_backs/set1/yellow.gif","img/card_backs/set1/purple.gif","img/card_backs/set2/orange.gif","img/card_backs/set2/pink.gif","img/card_backs/set2/gray.gif","img/card_backs/set2/blue.gif","""event"",""trial"",""time""
""fullscreenenter"",""1"",""4195""
","
","
","""event"",""trial"",""time""
""fullscreenenter"",""1"",""4195""
","
","","2839.699999999255","Welcome to the casino!","71","","instructions","2021-07-10 03:12:26.896","","","","","",""
"casino-keyboard-response","7","27988","0.0-6.0-0.1","627","true","img/card_backs/set1/red.gif","img/card_backs/set1/green.gif","img/card_backs/set1/yellow.gif","img/card_backs/set1/purple.gif","img/card_backs/set2/orange.gif","img/card_backs/set2/pink.gif","img/card_backs/set2/gray.gif","img/card_backs/set2/blue.gif","""event"",""trial"",""time""
""fullscreenenter"",""1"",""4195""
","
","
","""event"",""trial"",""time""
""fullscreenenter"",""1"",""4195""
","
","","9382.700000001118","Today you will be playing a game to earn tokens. </br> At the end of the experiment, you will be paid a bonus based on how many tokens you win. ","69","","instructions","2021-07-10 03:12:36.280","","","","","",""
"casino-keyboard-response","8","36300","0.0-6.0-0.2","627","true","img/card_backs/set1/red.gif","img/card_backs/set1/green.gif","img/card_backs/set1/yellow.gif","img/card_backs/set1/purple.gif","img/card_backs/set2/orange.gif","img/card_backs/set2/pink.gif","img/card_backs/set2/gray.gif","img/card_backs/set2/blue.gif","""event"",""trial"",""time""
""fullscreenenter"",""1"",""4195""
","
","
","""event"",""trial"",""time""
""fullscreenenter"",""1"",""4195""
","
","","8310.800000000745","On every turn, you will be shown four different decks of cards. </br> You need to select a card from one of the four decks.  ","75","","instructions","2021-07-10 03:12:44.592","","","","","",""
"casino-keyboard-response","9","41036","0.0-6.0-0.3","627","true","img/card_backs/set1/red.gif","img/card_backs/set1/green.gif","img/card_backs/set1/yellow.gif","img/card_backs/set1/purple.gif","img/card_backs/set2/orange.gif","img/card_backs/set2/pink.gif","img/card_backs/set2/gray.gif","img/card_backs/set2/blue.gif","""event"",""trial"",""time""
""fullscreenenter"",""1"",""4195""
","
","
","""event"",""trial"",""time""
""fullscreenenter"",""1"",""4195""
","
","","4735.300000000745","On the next screen, you will see what the decks will look like. ","66","","instructions","2021-07-10 03:12:49.328","","","","","",""
"card-selection-trial","10","45047","0.0-7.0-0.0","627","true","img/card_backs/set1/red.gif","img/card_backs/set1/green.gif","img/card_backs/set1/yellow.gif","img/card_backs/set1/purple.gif","img/card_backs/set2/orange.gif","img/card_backs/set2/pink.gif","img/card_backs/set2/gray.gif","img/card_backs/set2/blue.gif","""event"",""trial"",""time""
""fullscreenenter"",""1"",""4195""
","
","
","""event"",""trial"",""time""
""fullscreenenter"",""1"",""4195""
","
","","null","","","","practice","2021-07-10 03:12:53.339","null","null","null","0","",""
"casino-keyboard-response","11","52404","0.0-8.0-0.0","627","true","img/card_backs/set1/red.gif","img/card_backs/set1/green.gif","img/card_backs/set1/yellow.gif","img/card_backs/set1/purple.gif","img/card_backs/set2/orange.gif","img/card_backs/set2/pink.gif","img/card_backs/set2/gray.gif","img/card_backs/set2/blue.gif","""event"",""trial"",""time""
""fullscreenenter"",""1"",""4195""
","
","
","""event"",""trial"",""time""
""fullscreenenter"",""1"",""4195""
","
","","7356.4000000003725","You should pick a card from a deck using the '2', '4', '6', and '8' keys at the top of the keyboard.","85","","instructions","2021-07-10 03:13:00.696","","","","","",""
"casino-keyboard-response","12","57700","0.0-8.0-0.1","627","true","img/card_backs/set1/red.gif","img/card_backs/set1/green.gif","img/card_backs/set1/yellow.gif","img/card_backs/set1/purple.gif","img/card_backs/set2/orange.gif","img/card_backs/set2/pink.gif","img/card_backs/set2/gray.gif","img/card_backs/set2/blue.gif","""event"",""trial"",""time""
""fullscreenenter"",""1"",""4195""
","
","
","""event"",""trial"",""time""
""fullscreenenter"",""1"",""4195""
","
","","5294.300000000745","Once you select a card, it will turn over and you will see how many tokens you earned.","83","","instructions","2021-07-10 03:13:05.992","","","","","",""
"casino-keyboard-response","13","72044","0.0-8.0-0.2","627","true","img/card_backs/set1/red.gif","img/card_backs/set1/green.gif","img/card_backs/set1/yellow.gif","img/card_backs/set1/purple.gif","img/card_backs/set2/orange.gif","img/card_backs/set2/pink.gif","img/card_backs/set2/gray.gif","img/card_backs/set2/blue.gif","""event"",""trial"",""time""
""fullscreenenter"",""1"",""4195""
","
","
","""event"",""trial"",""time""
""fullscreenenter"",""1"",""4195""
","
","","14343.900000000373","Let's try practicing that! </br> First, try to put your fingers over the '2', '4', '6', and '8' keys. </br>  You can use whatever fingers are most comfortable for you. Try to find a comfortable position now. ","50","","instructions","2021-07-10 03:13:20.336","","","","","",""
"casino-keyboard-response","14","77708","0.0-8.0-0.3","627","true","img/card_backs/set1/red.gif","img/card_backs/set1/green.gif","img/card_backs/set1/yellow.gif","img/card_backs/set1/purple.gif","img/card_backs/set2/orange.gif","img/card_backs/set2/pink.gif","img/card_backs/set2/gray.gif","img/card_backs/set2/blue.gif","""event"",""trial"",""time""
""fullscreenenter"",""1"",""4195""
","
","
","""event"",""trial"",""time""
""fullscreenenter"",""1"",""4195""
","
","","5662.60000000149","Okay ready? </br> On the next screen, press '2' to select the left deck. ","50","","instructions","2021-07-10 03:13:26.000","","","","","",""
"card-selection-trial","15","80345","0.0-9.0-0.0","627","true","img/card_backs/set1/red.gif","img/card_backs/set1/green.gif","img/card_backs/set1/yellow.gif","img/card_backs/set1/purple.gif","img/card_backs/set2/orange.gif","img/card_backs/set2/pink.gif","img/card_backs/set2/gray.gif","img/card_backs/set2/blue.gif","""event"",""trial"",""time""
""fullscreenenter"",""1"",""4195""
","
","
","""event"",""trial"",""time""
""fullscreenenter"",""1"",""4195""
","
","","626","","","","practice_card_selection","2021-07-10 03:13:28.637","img/practice_cards/backs/dark_blue.gif","0","200","","",""
"casino-keyboard-response","16","85764","0.0-10.0-0.0","627","true","img/card_backs/set1/red.gif","img/card_backs/set1/green.gif","img/card_backs/set1/yellow.gif","img/card_backs/set1/purple.gif","img/card_backs/set2/orange.gif","img/card_backs/set2/pink.gif","img/card_backs/set2/gray.gif","img/card_backs/set2/blue.gif","""event"",""trial"",""time""
""fullscreenenter"",""1"",""4195""
","
","
","""event"",""trial"",""time""
""fullscreenenter"",""1"",""4195""
","
","","5417.799999998882","Great! Now on the next screen, try pressing '6' to select the third deck.","54","","instructions","2021-07-10 03:13:34.056","","","","","",""
"card-selection-trial","17","88279","0.0-11.0-0.0","627","true","img/card_backs/set1/red.gif","img/card_backs/set1/green.gif","img/card_backs/set1/yellow.gif","img/card_backs/set1/purple.gif","img/card_backs/set2/orange.gif","img/card_backs/set2/pink.gif","img/card_backs/set2/gray.gif","img/card_backs/set2/blue.gif","""event"",""trial"",""time""
""fullscreenenter"",""1"",""4195""
","
","
","""event"",""trial"",""time""
""fullscreenenter"",""1"",""4195""
","
","","508.69999999925494","","","","practice_card_selection","2021-07-10 03:13:36.571","img/practice_cards/backs/dark_blue.gif","2","-200","","",""
"casino-keyboard-response","18","92804","0.0-12.0-0.0","627","true","img/card_backs/set1/red.gif","img/card_backs/set1/green.gif","img/card_backs/set1/yellow.gif","img/card_backs/set1/purple.gif","img/card_backs/set2/orange.gif","img/card_backs/set2/pink.gif","img/card_backs/set2/gray.gif","img/card_backs/set2/blue.gif","""event"",""trial"",""time""
""fullscreenenter"",""1"",""4195""
","
","
","""event"",""trial"",""time""
""fullscreenenter"",""1"",""4195""
","
","","4523.5","Now on the next screen, try pressing '4' to select the second deck.","52","","instructions","2021-07-10 03:13:41.096","","","","","",""
"card-selection-trial","19","95305","0.0-13.0-0.0","627","true","img/card_backs/set1/red.gif","img/card_backs/set1/green.gif","img/card_backs/set1/yellow.gif","img/card_backs/set1/purple.gif","img/card_backs/set2/orange.gif","img/card_backs/set2/pink.gif","img/card_backs/set2/gray.gif","img/card_backs/set2/blue.gif","""event"",""trial"",""time""
""fullscreenenter"",""1"",""4195""
","
","
","""event"",""trial"",""time""
""fullscreenenter"",""1"",""4195""
","
","","492.3999999985099","","","","practice_card_selection","2021-07-10 03:13:43.597","img/practice_cards/backs/brown.gif","1","100","","",""
"casino-keyboard-response","20","96004","0.0-14.0-0.0","627","true","img/card_backs/set1/red.gif","img/card_backs/set1/green.gif","img/card_backs/set1/yellow.gif","img/card_backs/set1/purple.gif","img/card_backs/set2/orange.gif","img/card_backs/set2/pink.gif","img/card_backs/set2/gray.gif","img/card_backs/set2/blue.gif","""event"",""trial"",""time""
""fullscreenenter"",""1"",""4195""
","
","
","""event"",""trial"",""time""
""fullscreenenter"",""1"",""4195""
","
","","698.4000000003725","Finally, try pressing '8' to select the deck all the way on the right.","56","","instructions","2021-07-10 03:13:44.296","","","","","",""
"card-selection-trial","21","98540","0.0-15.0-0.0","627","true","img/card_backs/set1/red.gif","img/card_backs/set1/green.gif","img/card_backs/set1/yellow.gif","img/card_backs/set1/purple.gif","img/card_backs/set2/orange.gif","img/card_backs/set2/pink.gif","img/card_backs/set2/gray.gif","img/card_backs/set2/blue.gif","""event"",""trial"",""time""
""fullscreenenter"",""1"",""4195""
","
","
","""event"",""trial"",""time""
""fullscreenenter"",""1"",""4195""
","
","","517.2999999988824","","","","practice_card_selection","2021-07-10 03:13:46.832","img/practice_cards/backs/brown.gif","3","100","","",""
"casino-keyboard-response","22","101932","0.0-16.0-0.0","627","true","img/card_backs/set1/red.gif","img/card_backs/set1/green.gif","img/card_backs/set1/yellow.gif","img/card_backs/set1/purple.gif","img/card_backs/set2/orange.gif","img/card_backs/set2/pink.gif","img/card_backs/set2/gray.gif","img/card_backs/set2/blue.gif","""event"",""trial"",""time""
""fullscreenenter"",""1"",""4195""
","
","
","""event"",""trial"",""time""
""fullscreenenter"",""1"",""4195""
","
","","3391","Great! It seems like you are getting the hang of this.","80","","instructions","2021-07-10 03:13:50.224","","","","","",""
"casino-keyboard-response","23","109004","0.0-16.0-0.1","627","true","img/card_backs/set1/red.gif","img/card_backs/set1/green.gif","img/card_backs/set1/yellow.gif","img/card_backs/set1/purple.gif","img/card_backs/set2/orange.gif","img/card_backs/set2/pink.gif","img/card_backs/set2/gray.gif","img/card_backs/set2/blue.gif","""event"",""trial"",""time""
""fullscreenenter"",""1"",""4195""
","
","
","""event"",""trial"",""time""
""fullscreenenter"",""1"",""4195""
","
","","7071.800000000745","You may have noticed that some cards will cause you to <b> win </b> tokens while other cards will cause you to <b> lose </b>  tokens.","70","","instructions","2021-07-10 03:13:57.296","","","","","",""
"casino-keyboard-response","24","121212","0.0-16.0-0.2","627","true","img/card_backs/set1/red.gif","img/card_backs/set1/green.gif","img/card_backs/set1/yellow.gif","img/card_backs/set1/purple.gif","img/card_backs/set2/orange.gif","img/card_backs/set2/pink.gif","img/card_backs/set2/gray.gif","img/card_backs/set2/blue.gif","""event"",""trial"",""time""
""fullscreenenter"",""1"",""4195""
","
","
","""event"",""trial"",""time""
""fullscreenenter"",""1"",""4195""
","
","","12206.699999999255","Each deck has a mix of cards that will cause you to win and lose tokens. </br> However, the cards in each colored deck are different.","73","","instructions","2021-07-10 03:14:09.504","","","","","",""
"casino-keyboard-response","25","129332","0.0-16.0-0.3","627","true","img/card_backs/set1/red.gif","img/card_backs/set1/green.gif","img/card_backs/set1/yellow.gif","img/card_backs/set1/purple.gif","img/card_backs/set2/orange.gif","img/card_backs/set2/pink.gif","img/card_backs/set2/gray.gif","img/card_backs/set2/blue.gif","""event"",""trial"",""time""
""fullscreenenter"",""1"",""4195""
","
","
","""event"",""trial"",""time""
""fullscreenenter"",""1"",""4195""
","
","","8119.0999999996275","Some colored decks are luckier than others. </br> If you choose the lucky decks, you will earn more tokens than if you choose the unlucky decks.","69","","instructions","2021-07-10 03:14:17.624","","","","","",""
"casino-keyboard-response","26","136259","0.0-16.0-0.4","627","true","img/card_backs/set1/red.gif","img/card_backs/set1/green.gif","img/card_backs/set1/yellow.gif","img/card_backs/set1/purple.gif","img/card_backs/set2/orange.gif","img/card_backs/set2/pink.gif","img/card_backs/set2/gray.gif","img/card_backs/set2/blue.gif","""event"",""trial"",""time""
""fullscreenenter"",""1"",""4195""
","
","
","""event"",""trial"",""time""
""fullscreenenter"",""1"",""4195""
","
","","6926.300000000745","You should try to figure out which decks are lucky. </br> Then, try to choose the lucky decks so you can win the most tokens.","87","","instructions","2021-07-10 03:14:24.551","","","","","",""
"casino-keyboard-response","27","147204","0.0-16.0-0.5","627","true","img/card_backs/set1/red.gif","img/card_backs/set1/green.gif","img/card_backs/set1/yellow.gif","img/card_backs/set1/purple.gif","img/card_backs/set2/orange.gif","img/card_backs/set2/pink.gif","img/card_backs/set2/gray.gif","img/card_backs/set2/blue.gif","""event"",""trial"",""time""
""fullscreenenter"",""1"",""4195""
","
","
","""event"",""trial"",""time""
""fullscreenenter"",""1"",""4195""
","
","","10943.300000000745","To make it trickier, the casino dealer will switch the locations of the decks on every turn. </br> The color of the deck determines how lucky it is. The location does not matter.","88","","instructions","2021-07-10 03:14:35.496","","","","","",""
"casino-keyboard-response","28","156388","0.0-16.0-0.6","627","true","img/card_backs/set1/red.gif","img/card_backs/set1/green.gif","img/card_backs/set1/yellow.gif","img/card_backs/set1/purple.gif","img/card_backs/set2/orange.gif","img/card_backs/set2/pink.gif","img/card_backs/set2/gray.gif","img/card_backs/set2/blue.gif","""event"",""trial"",""time""
""fullscreenenter"",""1"",""4195""
","
","
","""event"",""trial"",""time""
""fullscreenenter"",""1"",""4195""
","
","","9182.799999998882","The mix of cards in each colored deck will stay the same throughout the game. </br> That means that a deck that is lucky early on will stay lucky.","79","","instructions","2021-07-10 03:14:44.680","","","","","",""
"casino-keyboard-response","29","164404","0.0-16.0-0.7","627","true","img/card_backs/set1/red.gif","img/card_backs/set1/green.gif","img/card_backs/set1/yellow.gif","img/card_backs/set1/purple.gif","img/card_backs/set2/orange.gif","img/card_backs/set2/pink.gif","img/card_backs/set2/gray.gif","img/card_backs/set2/blue.gif","""event"",""trial"",""time""
""fullscreenenter"",""1"",""4195""
","
","
","""event"",""trial"",""time""
""fullscreenenter"",""1"",""4195""
","
","","8015.200000001118","Remember though, all the decks have a <b> mix </b> of both <b> good </b> and <b> bad </b> cards so it may take a couple of turns to figure out if a deck is lucky.","69","","instructions","2021-07-10 03:14:52.696","","","","","",""
"casino-keyboard-response","30","172380","0.0-16.0-0.8","627","true","img/card_backs/set1/red.gif","img/card_backs/set1/green.gif","img/card_backs/set1/yellow.gif","img/card_backs/set1/purple.gif","img/card_backs/set2/orange.gif","img/card_backs/set2/pink.gif","img/card_backs/set2/gray.gif","img/card_backs/set2/blue.gif","""event"",""trial"",""time""
""fullscreenenter"",""1"",""4195""
","
","
","""event"",""trial"",""time""
""fullscreenenter"",""1"",""4195""
","
","","7974.5","At the end of the game, you will be paid bonus money based on how many tokens you win. </br> If you win more tokens, you will earn more money!","72","","instructions","2021-07-10 03:15:00.672","","","","","",""
"casino-keyboard-response","31","182452","0.0-16.0-0.9","627","true","img/card_backs/set1/red.gif","img/card_backs/set1/green.gif","img/card_backs/set1/yellow.gif","img/card_backs/set1/purple.gif","img/card_backs/set2/orange.gif","img/card_backs/set2/pink.gif","img/card_backs/set2/gray.gif","img/card_backs/set2/blue.gif","""event"",""trial"",""time""
""fullscreenenter"",""1"",""4195""
","
","
","""event"",""trial"",""time""
""fullscreenenter"",""1"",""4195""
","
","","10070.800000000745","You will never <b> lose </b> money. </br> If you end up with fewer than 0 tokens, you will earn $0 of bonus money, but you will still be paid for playing the game.","83","","instructions","2021-07-10 03:15:10.744","","","","","",""
"casino-keyboard-response","32","186620","0.0-16.0-0.10","627","true","img/card_backs/set1/red.gif","img/card_backs/set1/green.gif","img/card_backs/set1/yellow.gif","img/card_backs/set1/purple.gif","img/card_backs/set2/orange.gif","img/card_backs/set2/pink.gif","img/card_backs/set2/gray.gif","img/card_backs/set2/blue.gif","""event"",""trial"",""time""
""fullscreenenter"",""1"",""4195""
","
","
","""event"",""trial"",""time""
""fullscreenenter"",""1"",""4195""
","
","","4166.699999999255","You will have 10 seconds to make each choice.","82","","instructions","2021-07-10 03:15:14.912","","","","","",""
"casino-keyboard-response","33","194700","0.0-16.0-0.11","627","true","img/card_backs/set1/red.gif","img/card_backs/set1/green.gif","img/card_backs/set1/yellow.gif","img/card_backs/set1/purple.gif","img/card_backs/set2/orange.gif","img/card_backs/set2/pink.gif","img/card_backs/set2/gray.gif","img/card_backs/set2/blue.gif","""event"",""trial"",""time""
""fullscreenenter"",""1"",""4195""
","
","
","""event"",""trial"",""time""
""fullscreenenter"",""1"",""4195""
","
","","8078.699999999255","Before you play the game for real, you will play with practice decks. </br> The tokens you earn during practice won't count toward your total.","86","","instructions","2021-07-10 03:15:22.992","","","","","",""
"casino-keyboard-response","34","196644","0.0-16.0-0.12","627","true","img/card_backs/set1/red.gif","img/card_backs/set1/green.gif","img/card_backs/set1/yellow.gif","img/card_backs/set1/purple.gif","img/card_backs/set2/orange.gif","img/card_backs/set2/pink.gif","img/card_backs/set2/gray.gif","img/card_backs/set2/blue.gif","""event"",""trial"",""time""
""fullscreenenter"",""1"",""4195""
","
","
","""event"",""trial"",""time""
""fullscreenenter"",""1"",""4195""
","
","","1942.4000000003725","Ready? Remember, use the '2', '4', '6', and '8' keys to select the decks. </br> Put your fingers on those keys now and then press '2' to begin.","50","","instructions","2021-07-10 03:15:24.936","","","","","",""
"casino-fixation","35","197156","0.0-17.0-0.0","627","true","img/card_backs/set1/red.gif","img/card_backs/set1/green.gif","img/card_backs/set1/yellow.gif","img/card_backs/set1/purple.gif","img/card_backs/set2/orange.gif","img/card_backs/set2/pink.gif","img/card_backs/set2/gray.gif","img/card_backs/set2/blue.gif","""event"",""trial"",""time""
""fullscreenenter"",""1"",""4195""
","
","
","""event"",""trial"",""time""
""fullscreenenter"",""1"",""4195""
","
","","null","","null","","fixation","2021-07-10 03:15:25.448","","","","","",""
"card-selection-trial","36","200011","0.0-17.0-1.0","627","true","img/card_backs/set1/red.gif","img/card_backs/set1/green.gif","img/card_backs/set1/yellow.gif","img/card_backs/set1/purple.gif","img/card_backs/set2/orange.gif","img/card_backs/set2/pink.gif","img/card_backs/set2/gray.gif","img/card_backs/set2/blue.gif","""event"",""trial"",""time""
""fullscreenenter"",""1"",""4195""
","
","
","""event"",""trial"",""time""
""fullscreenenter"",""1"",""4195""
","
","","837.2000000011176","","","","practice","2021-07-10 03:15:28.303","img/practice_cards/backs/dark_blue.gif","0","200","0","",""
"casino-fixation","37","200523","0.0-17.0-0.1","627","true","img/card_backs/set1/red.gif","img/card_backs/set1/green.gif","img/card_backs/set1/yellow.gif","img/card_backs/set1/purple.gif","img/card_backs/set2/orange.gif","img/card_backs/set2/pink.gif","img/card_backs/set2/gray.gif","img/card_backs/set2/blue.gif","""event"",""trial"",""time""
""fullscreenenter"",""1"",""4195""
","
","
","""event"",""trial"",""time""
""fullscreenenter"",""1"",""4195""
","
","","null","","null","","fixation","2021-07-10 03:15:28.815","","","","","",""
"card-selection-trial","38","203589","0.0-17.0-1.1","627","true","img/card_backs/set1/red.gif","img/card_backs/set1/green.gif","img/card_backs/set1/yellow.gif","img/card_backs/set1/purple.gif","img/card_backs/set2/orange.gif","img/card_backs/set2/pink.gif","img/card_backs/set2/gray.gif","img/card_backs/set2/blue.gif","""event"",""trial"",""time""
""fullscreenenter"",""1"",""4195""
","
","
","""event"",""trial"",""time""
""fullscreenenter"",""1"",""4195""
","
","","1054.5999999996275","","","","practice","2021-07-10 03:15:31.881","img/practice_cards/backs/dark_green.gif","2","200","0","",""
"casino-fixation","39","204098","0.0-17.0-0.2","627","true","img/card_backs/set1/red.gif","img/card_backs/set1/green.gif","img/card_backs/set1/yellow.gif","img/card_backs/set1/purple.gif","img/card_backs/set2/orange.gif","img/card_backs/set2/pink.gif","img/card_backs/set2/gray.gif","img/card_backs/set2/blue.gif","""event"",""trial"",""time""
""fullscreenenter"",""1"",""4195""
","
","
","""event"",""trial"",""time""
""fullscreenenter"",""1"",""4195""
","
","","null","","null","","fixation","2021-07-10 03:15:32.390","","","","","",""
"card-selection-trial","40","206982","0.0-17.0-1.2","627","true","img/card_backs/set1/red.gif","img/card_backs/set1/green.gif","img/card_backs/set1/yellow.gif","img/card_backs/set1/purple.gif","img/card_backs/set2/orange.gif","img/card_backs/set2/pink.gif","img/card_backs/set2/gray.gif","img/card_backs/set2/blue.gif","""event"",""trial"",""time""
""fullscreenenter"",""1"",""4195""
","
","
","""event"",""trial"",""time""
""fullscreenenter"",""1"",""4195""
","
","","879","","","","practice","2021-07-10 03:15:35.274","img/practice_cards/backs/dark_green.gif","0","-200","0","",""
"casino-fixation","41","207489","0.0-17.0-0.3","627","true","img/card_backs/set1/red.gif","img/card_backs/set1/green.gif","img/card_backs/set1/yellow.gif","img/card_backs/set1/purple.gif","img/card_backs/set2/orange.gif","img/card_backs/set2/pink.gif","img/card_backs/set2/gray.gif","img/card_backs/set2/blue.gif","""event"",""trial"",""time""
""fullscreenenter"",""1"",""4195""
","
","
","""event"",""trial"",""time""
""fullscreenenter"",""1"",""4195""
","
","","null","","null","","fixation","2021-07-10 03:15:35.781","","","","","",""
"card-selection-trial","42","210626","0.0-17.0-1.3","627","true","img/card_backs/set1/red.gif","img/card_backs/set1/green.gif","img/card_backs/set1/yellow.gif","img/card_backs/set1/purple.gif","img/card_backs/set2/orange.gif","img/card_backs/set2/pink.gif","img/card_backs/set2/gray.gif","img/card_backs/set2/blue.gif","""event"",""trial"",""time""
""fullscreenenter"",""1"",""4195""
","
","
","""event"",""trial"",""time""
""fullscreenenter"",""1"",""4195""
","
","","1120.9000000003725","","","","practice","2021-07-10 03:15:38.918","img/practice_cards/backs/dark_green.gif","1","-200","0","",""
"casino-fixation","43","211137","0.0-17.0-0.4","627","true","img/card_backs/set1/red.gif","img/card_backs/set1/green.gif","img/card_backs/set1/yellow.gif","img/card_backs/set1/purple.gif","img/card_backs/set2/orange.gif","img/card_backs/set2/pink.gif","img/card_backs/set2/gray.gif","img/card_backs/set2/blue.gif","""event"",""trial"",""time""
""fullscreenenter"",""1"",""4195""
","
","
","""event"",""trial"",""time""
""fullscreenenter"",""1"",""4195""
","
","","null","","null","","fixation","2021-07-10 03:15:39.429","","","","","",""
"card-selection-trial","44","213479","0.0-17.0-1.4","627","true","img/card_backs/set1/red.gif","img/card_backs/set1/green.gif","img/card_backs/set1/yellow.gif","img/card_backs/set1/purple.gif","img/card_backs/set2/orange.gif","img/card_backs/set2/pink.gif","img/card_backs/set2/gray.gif","img/card_backs/set2/blue.gif","""event"",""trial"",""time""
""fullscreenenter"",""1"",""4195""
","
","
","""event"",""trial"",""time""
""fullscreenenter"",""1"",""4195""
","
","","336.69999999925494","","","","practice","2021-07-10 03:15:41.771","img/practice_cards/backs/dark_blue.gif","1","-200","0","",""
"casino-fixation","45","213987","0.0-17.0-0.5","627","true","img/card_backs/set1/red.gif","img/card_backs/set1/green.gif","img/card_backs/set1/yellow.gif","img/card_backs/set1/purple.gif","img/card_backs/set2/orange.gif","img/card_backs/set2/pink.gif","img/card_backs/set2/gray.gif","img/card_backs/set2/blue.gif","""event"",""trial"",""time""
""fullscreenenter"",""1"",""4195""
","
","
","""event"",""trial"",""time""
""fullscreenenter"",""1"",""4195""
","
","","null","","null","","fixation","2021-07-10 03:15:42.279","","","","","",""
"card-selection-trial","46","216516","0.0-17.0-1.5","627","true","img/card_backs/set1/red.gif","img/card_backs/set1/green.gif","img/card_backs/set1/yellow.gif","img/card_backs/set1/purple.gif","img/card_backs/set2/orange.gif","img/card_backs/set2/pink.gif","img/card_backs/set2/gray.gif","img/card_backs/set2/blue.gif","""event"",""trial"",""time""
""fullscreenenter"",""1"",""4195""
","
","
","""event"",""trial"",""time""
""fullscreenenter"",""1"",""4195""
","
","","517.6999999992549","","","","practice","2021-07-10 03:15:44.808","img/practice_cards/backs/dark_blue.gif","2","200","0","",""
"casino-fixation","47","217024","0.0-17.0-0.6","627","true","img/card_backs/set1/red.gif","img/card_backs/set1/green.gif","img/card_backs/set1/yellow.gif","img/card_backs/set1/purple.gif","img/card_backs/set2/orange.gif","img/card_backs/set2/pink.gif","img/card_backs/set2/gray.gif","img/card_backs/set2/blue.gif","""event"",""trial"",""time""
""fullscreenenter"",""1"",""4195""
","
","
","""event"",""trial"",""time""
""fullscreenenter"",""1"",""4195""
","
","","null","","null","","fixation","2021-07-10 03:15:45.316","","","","","",""
"card-selection-trial","48","219279","0.0-17.0-1.6","627","true","img/card_backs/set1/red.gif","img/card_backs/set1/green.gif","img/card_backs/set1/yellow.gif","img/card_backs/set1/purple.gif","img/card_backs/set2/orange.gif","img/card_backs/set2/pink.gif","img/card_backs/set2/gray.gif","img/card_backs/set2/blue.gif","""event"",""trial"",""time""
""fullscreenenter"",""1"",""4195""
","
","
","""event"",""trial"",""time""
""fullscreenenter"",""1"",""4195""
","
","","249.40000000037253","","","","practice","2021-07-10 03:15:47.571","img/practice_cards/backs/black.gif","2","100","0","",""
"casino-fixation","49","219791","0.0-17.0-0.7","627","true","img/card_backs/set1/red.gif","img/card_backs/set1/green.gif","img/card_backs/set1/yellow.gif","img/card_backs/set1/purple.gif","img/card_backs/set2/orange.gif","img/card_backs/set2/pink.gif","img/card_backs/set2/gray.gif","img/card_backs/set2/blue.gif","""event"",""trial"",""time""
""fullscreenenter"",""1"",""4195""
","
","
","""event"",""trial"",""time""
""fullscreenenter"",""1"",""4195""
","
","","null","","null","","fixation","2021-07-10 03:15:48.083","","","","","",""
"card-selection-trial","50","222140","0.0-17.0-1.7","627","true","img/card_backs/set1/red.gif","img/card_backs/set1/green.gif","img/card_backs/set1/yellow.gif","img/card_backs/set1/purple.gif","img/card_backs/set2/orange.gif","img/card_backs/set2/pink.gif","img/card_backs/set2/gray.gif","img/card_backs/set2/blue.gif","""event"",""trial"",""time""
""fullscreenenter"",""1"",""4195""
","
","
","""event"",""trial"",""time""
""fullscreenenter"",""1"",""4195""
","
","","329.7999999988824","","","","practice","2021-07-10 03:15:50.432","img/practice_cards/backs/dark_blue.gif","3","200","0","",""
"casino-fixation","51","222651","0.0-17.0-0.8","627","true","img/card_backs/set1/red.gif","img/card_backs/set1/green.gif","img/card_backs/set1/yellow.gif","img/card_backs/set1/purple.gif","img/card_backs/set2/orange.gif","img/card_backs/set2/pink.gif","img/card_backs/set2/gray.gif","img/card_backs/set2/blue.gif","""event"",""trial"",""time""
""fullscreenenter"",""1"",""4195""
","
","
","""event"",""trial"",""time""
""fullscreenenter"",""1"",""4195""
","
","","null","","null","","fixation","2021-07-10 03:15:50.943","","","","","",""
"card-selection-trial","52","224953","0.0-17.0-1.8","627","true","img/card_backs/set1/red.gif","img/card_backs/set1/green.gif","img/card_backs/set1/yellow.gif","img/card_backs/set1/purple.gif","img/card_backs/set2/orange.gif","img/card_backs/set2/pink.gif","img/card_backs/set2/gray.gif","img/card_backs/set2/blue.gif","""event"",""trial"",""time""
""fullscreenenter"",""1"",""4195""
","
","
","""event"",""trial"",""time""
""fullscreenenter"",""1"",""4195""
","
","","293.69999999925494","","","","practice","2021-07-10 03:15:53.245","img/practice_cards/backs/black.gif","0","100","0","",""
"casino-fixation","53","225463","0.0-17.0-0.9","627","true","img/card_backs/set1/red.gif","img/card_backs/set1/green.gif","img/card_backs/set1/yellow.gif","img/card_backs/set1/purple.gif","img/card_backs/set2/orange.gif","img/card_backs/set2/pink.gif","img/card_backs/set2/gray.gif","img/card_backs/set2/blue.gif","""event"",""trial"",""time""
""fullscreenenter"",""1"",""4195""
","
","
","""event"",""trial"",""time""
""fullscreenenter"",""1"",""4195""
","
","","null","","null","","fixation","2021-07-10 03:15:53.755","","","","","",""
"card-selection-trial","54","227645","0.0-17.0-1.9","627","true","img/card_backs/set1/red.gif","img/card_backs/set1/green.gif","img/card_backs/set1/yellow.gif","img/card_backs/set1/purple.gif","img/card_backs/set2/orange.gif","img/card_backs/set2/pink.gif","img/card_backs/set2/gray.gif","img/card_backs/set2/blue.gif","""event"",""trial"",""time""
""fullscreenenter"",""1"",""4195""
","
","
","""event"",""trial"",""time""
""fullscreenenter"",""1"",""4195""
","
","","177.69999999925494","","","","practice","2021-07-10 03:15:55.938","img/practice_cards/backs/brown.gif","2","-100","0","",""
"casino-keyboard-response","55","230244","0.0-18.0","627","true","img/card_backs/set1/red.gif","img/card_backs/set1/green.gif","img/card_backs/set1/yellow.gif","img/card_backs/set1/purple.gif","img/card_backs/set2/orange.gif","img/card_backs/set2/pink.gif","img/card_backs/set2/gray.gif","img/card_backs/set2/blue.gif","""event"",""trial"",""time""
""fullscreenenter"",""1"",""4195""
","
","
","""event"",""trial"",""time""
""fullscreenenter"",""1"",""4195""
","
","","2597.5","You earned 300 tokens during the practice round!","82","","","2021-07-10 03:15:58.536","","","","","",""
"casino-keyboard-response","56","234196","0.0-19.0-0.0","627","true","img/card_backs/set1/red.gif","img/card_backs/set1/green.gif","img/card_backs/set1/yellow.gif","img/card_backs/set1/purple.gif","img/card_backs/set2/orange.gif","img/card_backs/set2/pink.gif","img/card_backs/set2/gray.gif","img/card_backs/set2/blue.gif","""event"",""trial"",""time""
""fullscreenenter"",""1"",""4195""
","
","
","""event"",""trial"",""time""
""fullscreenenter"",""1"",""4195""
","
","","3950.89999999851","Nice job! You are almost ready to play the real game.","86","","instructions","2021-07-10 03:16:02.488","","","","","",""
"casino-keyboard-response","57","240436","0.0-19.0-0.1","627","true","img/card_backs/set1/red.gif","img/card_backs/set1/green.gif","img/card_backs/set1/yellow.gif","img/card_backs/set1/purple.gif","img/card_backs/set2/orange.gif","img/card_backs/set2/pink.gif","img/card_backs/set2/gray.gif","img/card_backs/set2/blue.gif","""event"",""trial"",""time""
""fullscreenenter"",""1"",""4195""
","
","
","""event"",""trial"",""time""
""fullscreenenter"",""1"",""4195""
","
","","6239","You will play two rounds of the real game. In each round, you will pick 100 cards in total.","73","","instructions","2021-07-10 03:16:08.729","","","","","",""
"casino-keyboard-response","58","244436","0.0-19.0-0.2","627","true","img/card_backs/set1/red.gif","img/card_backs/set1/green.gif","img/card_backs/set1/yellow.gif","img/card_backs/set1/purple.gif","img/card_backs/set2/orange.gif","img/card_backs/set2/pink.gif","img/card_backs/set2/gray.gif","img/card_backs/set2/blue.gif","""event"",""trial"",""time""
""fullscreenenter"",""1"",""4195""
","
","
","""event"",""trial"",""time""
""fullscreenenter"",""1"",""4195""
","
","","3998.199999999255","We are now going to ask you some questions about how the game works.","66","","instructions","2021-07-10 03:16:12.728","","","","","",""
"casino-keyboard-response","59","250397","0.0-19.0-0.3","627","true","img/card_backs/set1/red.gif","img/card_backs/set1/green.gif","img/card_backs/set1/yellow.gif","img/card_backs/set1/purple.gif","img/card_backs/set2/orange.gif","img/card_backs/set2/pink.gif","img/card_backs/set2/gray.gif","img/card_backs/set2/blue.gif","""event"",""trial"",""time""
""fullscreenenter"",""1"",""4195""
","
","
","""event"",""trial"",""time""
""fullscreenenter"",""1"",""4195""
","
","","5960.199999999255","Answer carefully. You will not be able to begin the game until you answer them correctly.","67","","instructions","2021-07-10 03:16:18.689","","","","","",""
"casino-comp_q","60","256124","0.0-20.0-0.0","627","true","img/card_backs/set1/red.gif","img/card_backs/set1/green.gif","img/card_backs/set1/yellow.gif","img/card_backs/set1/purple.gif","img/card_backs/set2/orange.gif","img/card_backs/set2/pink.gif","img/card_backs/set2/gray.gif","img/card_backs/set2/blue.gif","""event"",""trial"",""time""
""fullscreenenter"",""1"",""4195""
","
","
","""event"",""trial"",""time""
""fullscreenenter"",""1"",""4195""
","
","","5726.4000000003725","True or False: All the decks have some cards that cause you to win tokens and some cards that cause you to lose tokens.","84","","","2021-07-10 03:16:24.417","","","","","",""
"casino-keyboard-response","61","259868","0.0-20.0-1.0","627","true","img/card_backs/set1/red.gif","img/card_backs/set1/green.gif","img/card_backs/set1/yellow.gif","img/card_backs/set1/purple.gif","img/card_backs/set2/orange.gif","img/card_backs/set2/pink.gif","img/card_backs/set2/gray.gif","img/card_backs/set2/blue.gif","""event"",""trial"",""time""
""fullscreenenter"",""1"",""4195""
","
","
","""event"",""trial"",""time""
""fullscreenenter"",""1"",""4195""
","
","","3742.2999999988824","True is correct! All the decks have a mix of winning and losing cards.","77","","","2021-07-10 03:16:28.160","","","","","true",""
"casino-comp_q","62","262260","0.0-21.0-0.0","627","true","img/card_backs/set1/red.gif","img/card_backs/set1/green.gif","img/card_backs/set1/yellow.gif","img/card_backs/set1/purple.gif","img/card_backs/set2/orange.gif","img/card_backs/set2/pink.gif","img/card_backs/set2/gray.gif","img/card_backs/set2/blue.gif","""event"",""trial"",""time""
""fullscreenenter"",""1"",""4195""
","
","
","""event"",""trial"",""time""
""fullscreenenter"",""1"",""4195""
","
","","2391.199999999255","True or False: You will have as much time as you want to make your response.","70","","","2021-07-10 03:16:30.552","","","","","",""
"casino-keyboard-response","63","265252","0.0-21.0-1.0","627","true","img/card_backs/set1/red.gif","img/card_backs/set1/green.gif","img/card_backs/set1/yellow.gif","img/card_backs/set1/purple.gif","img/card_backs/set2/orange.gif","img/card_backs/set2/pink.gif","img/card_backs/set2/gray.gif","img/card_backs/set2/blue.gif","""event"",""trial"",""time""
""fullscreenenter"",""1"",""4195""
","
","
","""event"",""trial"",""time""
""fullscreenenter"",""1"",""4195""
","
","","2990.199999999255","False is correct! You will only have 10 seconds to make each choice.","75","","","2021-07-10 03:16:33.544","","","","","true",""
"casino-comp_q","64","267700","0.0-22.0-0.0","627","true","img/card_backs/set1/red.gif","img/card_backs/set1/green.gif","img/card_backs/set1/yellow.gif","img/card_backs/set1/purple.gif","img/card_backs/set2/orange.gif","img/card_backs/set2/pink.gif","img/card_backs/set2/gray.gif","img/card_backs/set2/blue.gif","""event"",""trial"",""time""
""fullscreenenter"",""1"",""4195""
","
","
","""event"",""trial"",""time""
""fullscreenenter"",""1"",""4195""
","
","","2446.800000000745","True or False: The location of the deck determines how lucky it is.","70","","","2021-07-10 03:16:35.992","","","","","",""
"casino-keyboard-response","65","270660","0.0-22.0-1.0","627","true","img/card_backs/set1/red.gif","img/card_backs/set1/green.gif","img/card_backs/set1/yellow.gif","img/card_backs/set1/purple.gif","img/card_backs/set2/orange.gif","img/card_backs/set2/pink.gif","img/card_backs/set2/gray.gif","img/card_backs/set2/blue.gif","""event"",""trial"",""time""
""fullscreenenter"",""1"",""4195""
","
","
","""event"",""trial"",""time""
""fullscreenenter"",""1"",""4195""
","
","","2959.7000000029802","False is correct! The <i>color</i>  of the deck determines how lucky or unlucky it is.","68","","","2021-07-10 03:16:38.952","","","","","true",""
"casino-keyboard-response","66","275277","0.0-23.0-0.0","627","true","img/card_backs/set1/red.gif","img/card_backs/set1/green.gif","img/card_backs/set1/yellow.gif","img/card_backs/set1/purple.gif","img/card_backs/set2/orange.gif","img/card_backs/set2/pink.gif","img/card_backs/set2/gray.gif","img/card_backs/set2/blue.gif","""event"",""trial"",""time""
""fullscreenenter"",""1"",""4195""
","
","
","""event"",""trial"",""time""
""fullscreenenter"",""1"",""4195""
","
","","4615.39999999851","Great job! Now it's time to start the real game.","82","","instructions","2021-07-10 03:16:43.569","","","","","",""
"casino-keyboard-response","67","280276","0.0-23.0-0.1","627","true","img/card_backs/set1/red.gif","img/card_backs/set1/green.gif","img/card_backs/set1/yellow.gif","img/card_backs/set1/purple.gif","img/card_backs/set2/orange.gif","img/card_backs/set2/pink.gif","img/card_backs/set2/gray.gif","img/card_backs/set2/blue.gif","""event"",""trial"",""time""
""fullscreenenter"",""1"",""4195""
","
","
","""event"",""trial"",""time""
""fullscreenenter"",""1"",""4195""
","
","","4998.599999997765","Before we start, we're going to head into a new room of the casino.","86","","instructions","2021-07-10 03:16:48.568","","","","","",""
"casino-keyboard-response","68","286076","0.0-24.0-0.0","627","true","img/card_backs/set1/red.gif","img/card_backs/set1/green.gif","img/card_backs/set1/yellow.gif","img/card_backs/set1/purple.gif","img/card_backs/set2/orange.gif","img/card_backs/set2/pink.gif","img/card_backs/set2/gray.gif","img/card_backs/set2/blue.gif","""event"",""trial"",""time""
""fullscreenenter"",""1"",""4195""
","
","
","""event"",""trial"",""time""
""fullscreenenter"",""1"",""4195""
","
","","5798.5","Here we are! The real game will use different cards, but the rules will be the same.","71","","instructions","2021-07-10 03:16:54.368","","","","","",""
"casino-keyboard-response","69","287220","0.0-24.0-0.1","627","true","img/card_backs/set1/red.gif","img/card_backs/set1/green.gif","img/card_backs/set1/yellow.gif","img/card_backs/set1/purple.gif","img/card_backs/set2/orange.gif","img/card_backs/set2/pink.gif","img/card_backs/set2/gray.gif","img/card_backs/set2/blue.gif","""event"",""trial"",""time""
""fullscreenenter"",""1"",""4195""
","
","
","""event"",""trial"",""time""
""fullscreenenter"",""1"",""4195""
","
","","1143.199999999255","Ready? Put your fingers over the '2', '4', 6', and '8' keys so you are ready to play the game. </br> Then press 2 to start.","50","","instructions","2021-07-10 03:16:55.512","","","","","",""
"casino-fixation","70","287735","0.0-25.0-0.0","627","true","img/card_backs/set1/red.gif","img/card_backs/set1/green.gif","img/card_backs/set1/yellow.gif","img/card_backs/set1/purple.gif","img/card_backs/set2/orange.gif","img/card_backs/set2/pink.gif","img/card_backs/set2/gray.gif","img/card_backs/set2/blue.gif","""event"",""trial"",""time""
""fullscreenenter"",""1"",""4195""
","
","
","""event"",""trial"",""time""
""fullscreenenter"",""1"",""4195""
","
","","null","","null","","fixation","2021-07-10 03:16:56.028","","","","","",""
"card-selection-trial","71","290383","0.0-25.0-1.0","627","true","img/card_backs/set1/red.gif","img/card_backs/set1/green.gif","img/card_backs/set1/yellow.gif","img/card_backs/set1/purple.gif","img/card_backs/set2/orange.gif","img/card_backs/set2/pink.gif","img/card_backs/set2/gray.gif","img/card_backs/set2/blue.gif","""event"",""trial"",""time""
""fullscreenenter"",""1"",""4195""
","
","
","""event"",""trial"",""time""
""fullscreenenter"",""1"",""4195""
","
","","642","","","","real_trial","2021-07-10 03:16:58.675","img/card_backs/set1/red.gif","0","-210","1","",""
"casino-fixation","72","290885","0.0-25.0-0.1","627","true","img/card_backs/set1/red.gif","img/card_backs/set1/green.gif","img/card_backs/set1/yellow.gif","img/card_backs/set1/purple.gif","img/card_backs/set2/orange.gif","img/card_backs/set2/pink.gif","img/card_backs/set2/gray.gif","img/card_backs/set2/blue.gif","""event"",""trial"",""time""
""fullscreenenter"",""1"",""4195""
","
","
","""event"",""trial"",""time""
""fullscreenenter"",""1"",""4195""
","
","","null","","null","","fixation","2021-07-10 03:16:59.177","","","","","",""
"card-selection-trial","73","293820","0.0-25.0-1.1","627","true","img/card_backs/set1/red.gif","img/card_backs/set1/green.gif","img/card_backs/set1/yellow.gif","img/card_backs/set1/purple.gif","img/card_backs/set2/orange.gif","img/card_backs/set2/pink.gif","img/card_backs/set2/gray.gif","img/card_backs/set2/blue.gif","""event"",""trial"",""time""
""fullscreenenter"",""1"",""4195""
","
","
","""event"",""trial"",""time""
""fullscreenenter"",""1"",""4195""
","
","","931.6999999992549","","","","real_trial","2021-07-10 03:17:02.112","img/card_backs/set1/yellow.gif","1","40","1","",""
"casino-fixation","74","294326","0.0-25.0-0.2","627","true","img/card_backs/set1/red.gif","img/card_backs/set1/green.gif","img/card_backs/set1/yellow.gif","img/card_backs/set1/purple.gif","img/card_backs/set2/orange.gif","img/card_backs/set2/pink.gif","img/card_backs/set2/gray.gif","img/card_backs/set2/blue.gif","""event"",""trial"",""time""
""fullscreenenter"",""1"",""4195""
","
","
","""event"",""trial"",""time""
""fullscreenenter"",""1"",""4195""
","
","","null","","null","","fixation","2021-07-10 03:17:02.618","","","","","",""
"card-selection-trial","75","296616","0.0-25.0-1.2","627","true","img/card_backs/set1/red.gif","img/card_backs/set1/green.gif","img/card_backs/set1/yellow.gif","img/card_backs/set1/purple.gif","img/card_backs/set2/orange.gif","img/card_backs/set2/pink.gif","img/card_backs/set2/gray.gif","img/card_backs/set2/blue.gif","""event"",""trial"",""time""
""fullscreenenter"",""1"",""4195""
","
","
","""event"",""trial"",""time""
""fullscreenenter"",""1"",""4195""
","
","","283.5","","","","real_trial","2021-07-10 03:17:04.908","img/card_backs/set1/yellow.gif","3","-90","1","",""
"casino-fixation","76","297125","0.0-25.0-0.3","627","true","img/card_backs/set1/red.gif","img/card_backs/set1/green.gif","img/card_backs/set1/yellow.gif","img/card_backs/set1/purple.gif","img/card_backs/set2/orange.gif","img/card_backs/set2/pink.gif","img/card_backs/set2/gray.gif","img/card_backs/set2/blue.gif","""event"",""trial"",""time""
""fullscreenenter"",""1"",""4195""
","
","
","""event"",""trial"",""time""
""fullscreenenter"",""1"",""4195""
","
","","null","","null","","fixation","2021-07-10 03:17:05.417","","","","","",""
"card-selection-trial","77","300123","0.0-25.0-1.3","627","true","img/card_backs/set1/red.gif","img/card_backs/set1/green.gif","img/card_backs/set1/yellow.gif","img/card_backs/set1/purple.gif","img/card_backs/set2/orange.gif","img/card_backs/set2/pink.gif","img/card_backs/set2/gray.gif","img/card_backs/set2/blue.gif","""event"",""trial"",""time""
""fullscreenenter"",""1"",""4195""
","
","
","""event"",""trial"",""time""
""fullscreenenter"",""1"",""4195""
","
","","987.6999999992549","","","","real_trial","2021-07-10 03:17:08.415","img/card_backs/set1/yellow.gif","2","-110","1","",""
"casino-fixation","78","300632","0.0-25.0-0.4","627","true","img/card_backs/set1/red.gif","img/card_backs/set1/green.gif","img/card_backs/set1/yellow.gif","img/card_backs/set1/purple.gif","img/card_backs/set2/orange.gif","img/card_backs/set2/pink.gif","img/card_backs/set2/gray.gif","img/card_backs/set2/blue.gif","""event"",""trial"",""time""
""fullscreenenter"",""1"",""4195""
","
","
","""event"",""trial"",""time""
""fullscreenenter"",""1"",""4195""
","
","","null","","null","","fixation","2021-07-10 03:17:08.924","","","","","",""
"card-selection-trial","79","303714","0.0-25.0-1.4","627","true","img/card_backs/set1/red.gif","img/card_backs/set1/green.gif","img/card_backs/set1/yellow.gif","img/card_backs/set1/purple.gif","img/card_backs/set2/orange.gif","img/card_backs/set2/pink.gif","img/card_backs/set2/gray.gif","img/card_backs/set2/blue.gif","""event"",""trial"",""time""
""fullscreenenter"",""1"",""4195""
","
","
","""event"",""trial"",""time""
""fullscreenenter"",""1"",""4195""
","
","","1073.199999999255","","","","real_trial","2021-07-10 03:17:12.007","img/card_backs/set1/purple.gif","0","-110","1","",""
"casino-fixation","80","304216","0.0-25.0-0.5","627","true","img/card_backs/set1/red.gif","img/card_backs/set1/green.gif","img/card_backs/set1/yellow.gif","img/card_backs/set1/purple.gif","img/card_backs/set2/orange.gif","img/card_backs/set2/pink.gif","img/card_backs/set2/gray.gif","img/card_backs/set2/blue.gif","""event"",""trial"",""time""
""fullscreenenter"",""1"",""4195""
","
","
","""event"",""trial"",""time""
""fullscreenenter"",""1"",""4195""
","
","","null","","null","","fixation","2021-07-10 03:17:12.508","","","","","",""
"card-selection-trial","81","306456","0.0-25.0-1.5","627","true","img/card_backs/set1/red.gif","img/card_backs/set1/green.gif","img/card_backs/set1/yellow.gif","img/card_backs/set1/purple.gif","img/card_backs/set2/orange.gif","img/card_backs/set2/pink.gif","img/card_backs/set2/gray.gif","img/card_backs/set2/blue.gif","""event"",""trial"",""time""
""fullscreenenter"",""1"",""4195""
","
","
","""event"",""trial"",""time""
""fullscreenenter"",""1"",""4195""
","
","","232.39999999850988","","","","real_trial","2021-07-10 03:17:14.748","img/card_backs/set1/red.gif","0","250","1","",""
"casino-fixation","82","306966","0.0-25.0-0.6","627","true","img/card_backs/set1/red.gif","img/card_backs/set1/green.gif","img/card_backs/set1/yellow.gif","img/card_backs/set1/purple.gif","img/card_backs/set2/orange.gif","img/card_backs/set2/pink.gif","img/card_backs/set2/gray.gif","img/card_backs/set2/blue.gif","""event"",""trial"",""time""
""fullscreenenter"",""1"",""4195""
","
","
","""event"",""trial"",""time""
""fullscreenenter"",""1"",""4195""
","
","","null","","null","","fixation","2021-07-10 03:17:15.258","","","","","",""
"card-selection-trial","83","310320","0.0-25.0-1.6","627","true","img/card_backs/set1/red.gif","img/card_backs/set1/green.gif","img/card_backs/set1/yellow.gif","img/card_backs/set1/purple.gif","img/card_backs/set2/orange.gif","img/card_backs/set2/pink.gif","img/card_backs/set2/gray.gif","img/card_backs/set2/blue.gif","""event"",""trial"",""time""
""fullscreenenter"",""1"",""4195""
","
","
","""event"",""trial"",""time""
""fullscreenenter"",""1"",""4195""
","
","","1347.4000000022352","","","","real_trial","2021-07-10 03:17:18.612","img/card_backs/set1/green.gif","1","240","1","",""
"casino-fixation","84","310828","0.0-25.0-0.7","627","true","img/card_backs/set1/red.gif","img/card_backs/set1/green.gif","img/card_backs/set1/yellow.gif","img/card_backs/set1/purple.gif","img/card_backs/set2/orange.gif","img/card_backs/set2/pink.gif","img/card_backs/set2/gray.gif","img/card_backs/set2/blue.gif","""event"",""trial"",""time""
""fullscreenenter"",""1"",""4195""
","
","
","""event"",""trial"",""time""
""fullscreenenter"",""1"",""4195""
","
","","null","","null","","fixation","2021-07-10 03:17:19.120","","","","","",""
"card-selection-trial","85","313394","0.0-25.0-1.7","627","true","img/card_backs/set1/red.gif","img/card_backs/set1/green.gif","img/card_backs/set1/yellow.gif","img/card_backs/set1/purple.gif","img/card_backs/set2/orange.gif","img/card_backs/set2/pink.gif","img/card_backs/set2/gray.gif","img/card_backs/set2/blue.gif","""event"",""trial"",""time""
""fullscreenenter"",""1"",""4195""
","
","
","""event"",""trial"",""time""
""fullscreenenter"",""1"",""4195""
","
","","549.0999999977648","","","","real_trial","2021-07-10 03:17:21.686","img/card_backs/set1/green.gif","3","-200","1","",""
"casino-fixation","86","313904","0.0-25.0-0.8","627","true","img/card_backs/set1/red.gif","img/card_backs/set1/green.gif","img/card_backs/set1/yellow.gif","img/card_backs/set1/purple.gif","img/card_backs/set2/orange.gif","img/card_backs/set2/pink.gif","img/card_backs/set2/gray.gif","img/card_backs/set2/blue.gif","""event"",""trial"",""time""
""fullscreenenter"",""1"",""4195""
","
","
","""event"",""trial"",""time""
""fullscreenenter"",""1"",""4195""
","
","","null","","null","","fixation","2021-07-10 03:17:22.196","","","","","",""
"card-selection-trial","87","316687","0.0-25.0-1.8","627","true","img/card_backs/set1/red.gif","img/card_backs/set1/green.gif","img/card_backs/set1/yellow.gif","img/card_backs/set1/purple.gif","img/card_backs/set2/orange.gif","img/card_backs/set2/pink.gif","img/card_backs/set2/gray.gif","img/card_backs/set2/blue.gif","""event"",""trial"",""time""
""fullscreenenter"",""1"",""4195""
","
","
","""event"",""trial"",""time""
""fullscreenenter"",""1"",""4195""
","
","","777.7999999970198","","","","real_trial","2021-07-10 03:17:24.979","img/card_backs/set1/purple.gif","3","-110","1","",""
"casino-fixation","88","317193","0.0-25.0-0.9","627","true","img/card_backs/set1/red.gif","img/card_backs/set1/green.gif","img/card_backs/set1/yellow.gif","img/card_backs/set1/purple.gif","img/card_backs/set2/orange.gif","img/card_backs/set2/pink.gif","img/card_backs/set2/gray.gif","img/card_backs/set2/blue.gif","""event"",""trial"",""time""
""fullscreenenter"",""1"",""4195""
","
","
","""event"",""trial"",""time""
""fullscreenenter"",""1"",""4195""
","
","","null","","null","","fixation","2021-07-10 03:17:25.485","","","","","",""
"card-selection-trial","89","319420","0.0-25.0-1.9","627","true","img/card_backs/set1/red.gif","img/card_backs/set1/green.gif","img/card_backs/set1/yellow.gif","img/card_backs/set1/purple.gif","img/card_backs/set2/orange.gif","img/card_backs/set2/pink.gif","img/card_backs/set2/gray.gif","img/card_backs/set2/blue.gif","""event"",""trial"",""time""
""fullscreenenter"",""1"",""4195""
","
","
","""event"",""trial"",""time""
""fullscreenenter"",""1"",""4195""
","
","","223.30000000074506","","","","real_trial","2021-07-10 03:17:27.712","img/card_backs/set1/yellow.gif","2","-90","1","",""
"casino-fixation","90","319922","0.0-25.0-0.10","627","true","img/card_backs/set1/red.gif","img/card_backs/set1/green.gif","img/card_backs/set1/yellow.gif","img/card_backs/set1/purple.gif","img/card_backs/set2/orange.gif","img/card_backs/set2/pink.gif","img/card_backs/set2/gray.gif","img/card_backs/set2/blue.gif","""event"",""trial"",""time""
""fullscreenenter"",""1"",""4195""
","
","
","""event"",""trial"",""time""
""fullscreenenter"",""1"",""4195""
","
","","null","","null","","fixation","2021-07-10 03:17:28.214","","","","","",""
"card-selection-trial","91","322141","0.0-25.0-1.10","627","true","img/card_backs/set1/red.gif","img/card_backs/set1/green.gif","img/card_backs/set1/yellow.gif","img/card_backs/set1/purple.gif","img/card_backs/set2/orange.gif","img/card_backs/set2/pink.gif","img/card_backs/set2/gray.gif","img/card_backs/set2/blue.gif","""event"",""trial"",""time""
""fullscreenenter"",""1"",""4195""
","
","
","""event"",""trial"",""time""
""fullscreenenter"",""1"",""4195""
","
","","214.10000000149012","","","","real_trial","2021-07-10 03:17:30.433","img/card_backs/set1/red.gif","2","-210","1","",""
"casino-fixation","92","322644","0.0-25.0-0.11","627","true","img/card_backs/set1/red.gif","img/card_backs/set1/green.gif","img/card_backs/set1/yellow.gif","img/card_backs/set1/purple.gif","img/card_backs/set2/orange.gif","img/card_backs/set2/pink.gif","img/card_backs/set2/gray.gif","img/card_backs/set2/blue.gif","""event"",""trial"",""time""
""fullscreenenter"",""1"",""4195""
","
","
","""event"",""trial"",""time""
""fullscreenenter"",""1"",""4195""
","
","","null","","null","","fixation","2021-07-10 03:17:30.936","","","","","",""
"card-selection-trial","93","325173","0.0-25.0-1.11","627","true","img/card_backs/set1/red.gif","img/card_backs/set1/green.gif","img/card_backs/set1/yellow.gif","img/card_backs/set1/purple.gif","img/card_backs/set2/orange.gif","img/card_backs/set2/pink.gif","img/card_backs/set2/gray.gif","img/card_backs/set2/blue.gif","""event"",""trial"",""time""
""fullscreenenter"",""1"",""4195""
","
","
","""event"",""trial"",""time""
""fullscreenenter"",""1"",""4195""
","
","","525.2999999970198","","","","real_trial","2021-07-10 03:17:33.465","img/card_backs/set1/yellow.gif","0","-90","1","",""
"casino-fixation","94","325675","0.0-25.0-0.12","627","true","img/card_backs/set1/red.gif","img/card_backs/set1/green.gif","img/card_backs/set1/yellow.gif","img/card_backs/set1/purple.gif","img/card_backs/set2/orange.gif","img/card_backs/set2/pink.gif","img/card_backs/set2/gray.gif","img/card_backs/set2/blue.gif","""event"",""trial"",""time""
""fullscreenenter"",""1"",""4195""
","
","
","""event"",""trial"",""time""
""fullscreenenter"",""1"",""4195""
","
","","null","","null","","fixation","2021-07-10 03:17:33.967","","","","","",""
"card-selection-trial","95","328053","0.0-25.0-1.12","627","true","img/card_backs/set1/red.gif","img/card_backs/set1/green.gif","img/card_backs/set1/yellow.gif","img/card_backs/set1/purple.gif","img/card_backs/set2/orange.gif","img/card_backs/set2/pink.gif","img/card_backs/set2/gray.gif","img/card_backs/set2/blue.gif","""event"",""trial"",""time""
""fullscreenenter"",""1"",""4195""
","
","
","""event"",""trial"",""time""
""fullscreenenter"",""1"",""4195""
","
","","373.3999999985099","","","","real_trial","2021-07-10 03:17:36.345","img/card_backs/set1/yellow.gif","1","-100","1","",""
"casino-fixation","96","328554","0.0-25.0-0.13","627","true","img/card_backs/set1/red.gif","img/card_backs/set1/green.gif","img/card_backs/set1/yellow.gif","img/card_backs/set1/purple.gif","img/card_backs/set2/orange.gif","img/card_backs/set2/pink.gif","img/card_backs/set2/gray.gif","img/card_backs/set2/blue.gif","""event"",""trial"",""time""
""fullscreenenter"",""1"",""4195""
","
","
","""event"",""trial"",""time""
""fullscreenenter"",""1"",""4195""
","
","","null","","null","","fixation","2021-07-10 03:17:36.846","","","","","",""
"card-selection-trial","97","330652","0.0-25.0-1.13","627","true","img/card_backs/set1/red.gif","img/card_backs/set1/green.gif","img/card_backs/set1/yellow.gif","img/card_backs/set1/purple.gif","img/card_backs/set2/orange.gif","img/card_backs/set2/pink.gif","img/card_backs/set2/gray.gif","img/card_backs/set2/blue.gif","""event"",""trial"",""time""
""fullscreenenter"",""1"",""4195""
","
","
","""event"",""trial"",""time""
""fullscreenenter"",""1"",""4195""
","
","","93.5","","","","real_trial","2021-07-10 03:17:38.944","img/card_backs/set1/green.gif","0","240","1","",""
"casino-fixation","98","331154","0.0-25.0-0.14","627","true","img/card_backs/set1/red.gif","img/card_backs/set1/green.gif","img/card_backs/set1/yellow.gif","img/card_backs/set1/purple.gif","img/card_backs/set2/orange.gif","img/card_backs/set2/pink.gif","img/card_backs/set2/gray.gif","img/card_backs/set2/blue.gif","""event"",""trial"",""time""
""fullscreenenter"",""1"",""4195""
","
","
","""event"",""trial"",""time""
""fullscreenenter"",""1"",""4195""
","
","","null","","null","","fixation","2021-07-10 03:17:39.446","","","","","",""
"card-selection-trial","99","333310","0.0-25.0-1.14","627","true","img/card_backs/set1/red.gif","img/card_backs/set1/green.gif","img/card_backs/set1/yellow.gif","img/card_backs/set1/purple.gif","img/card_backs/set2/orange.gif","img/card_backs/set2/pink.gif","img/card_backs/set2/gray.gif","img/card_backs/set2/blue.gif","""event"",""trial"",""time""
""fullscreenenter"",""1"",""4195""
","
","
","""event"",""trial"",""time""
""fullscreenenter"",""1"",""4195""
","
","","142.40000000223517","","","","real_trial","2021-07-10 03:17:41.603","img/card_backs/set1/purple.gif","0","50","1","",""
"casino-fixation","100","333812","0.0-25.0-0.15","627","true","img/card_backs/set1/red.gif","img/card_backs/set1/green.gif","img/card_backs/set1/yellow.gif","img/card_backs/set1/purple.gif","img/card_backs/set2/orange.gif","img/card_backs/set2/pink.gif","img/card_backs/set2/gray.gif","img/card_backs/set2/blue.gif","""event"",""trial"",""time""
""fullscreenenter"",""1"",""4195""
","
","
","""event"",""trial"",""time""
""fullscreenenter"",""1"",""4195""
","
","","null","","null","","fixation","2021-07-10 03:17:42.104","","","","","",""
"card-selection-trial","101","336157","0.0-25.0-1.15","627","true","img/card_backs/set1/red.gif","img/card_backs/set1/green.gif","img/card_backs/set1/yellow.gif","img/card_backs/set1/purple.gif","img/card_backs/set2/orange.gif","img/card_backs/set2/pink.gif","img/card_backs/set2/gray.gif","img/card_backs/set2/blue.gif","""event"",""trial"",""time""
""fullscreenenter"",""1"",""4195""
","
","
","""event"",""trial"",""time""
""fullscreenenter"",""1"",""4195""
","
","","339.80000000074506","","","","real_trial","2021-07-10 03:17:44.449","img/card_backs/set1/purple.gif","1","-110","1","",""
"casino-fixation","102","336659","0.0-25.0-0.16","627","true","img/card_backs/set1/red.gif","img/card_backs/set1/green.gif","img/card_backs/set1/yellow.gif","img/card_backs/set1/purple.gif","img/card_backs/set2/orange.gif","img/card_backs/set2/pink.gif","img/card_backs/set2/gray.gif","img/card_backs/set2/blue.gif","""event"",""trial"",""time""
""fullscreenenter"",""1"",""4195""
","
","
","""event"",""trial"",""time""
""fullscreenenter"",""1"",""4195""
","
","","null","","null","","fixation","2021-07-10 03:17:44.951","","","","","",""
"card-selection-trial","103","338780","0.0-25.0-1.16","627","true","img/card_backs/set1/red.gif","img/card_backs/set1/green.gif","img/card_backs/set1/yellow.gif","img/card_backs/set1/purple.gif","img/card_backs/set2/orange.gif","img/card_backs/set2/pink.gif","img/card_backs/set2/gray.gif","img/card_backs/set2/blue.gif","""event"",""trial"",""time""
""fullscreenenter"",""1"",""4195""
","
","
","""event"",""trial"",""time""
""fullscreenenter"",""1"",""4195""
","
","","117.30000000074506","","","","real_trial","2021-07-10 03:17:47.072","img/card_backs/set1/green.gif","0","260","1","",""
"casino-fixation","104","339282","0.0-25.0-0.17","627","true","img/card_backs/set1/red.gif","img/card_backs/set1/green.gif","img/card_backs/set1/yellow.gif","img/card_backs/set1/purple.gif","img/card_backs/set2/orange.gif","img/card_backs/set2/pink.gif","img/card_backs/set2/gray.gif","img/card_backs/set2/blue.gif","""event"",""trial"",""time""
""fullscreenenter"",""1"",""4195""
","
","
","""event"",""trial"",""time""
""fullscreenenter"",""1"",""4195""
","
","","null","","null","","fixation","2021-07-10 03:17:47.574","","","","","",""
"card-selection-trial","105","341396","0.0-25.0-1.17","627","true","img/card_backs/set1/red.gif","img/card_backs/set1/green.gif","img/card_backs/set1/yellow.gif","img/card_backs/set1/purple.gif","img/card_backs/set2/orange.gif","img/card_backs/set2/pink.gif","img/card_backs/set2/gray.gif","img/card_backs/set2/blue.gif","""event"",""trial"",""time""
""fullscreenenter"",""1"",""4195""
","
","
","""event"",""trial"",""time""
""fullscreenenter"",""1"",""4195""
","
","","111.30000000074506","","","","real_trial","2021-07-10 03:17:49.688","img/card_backs/set1/yellow.gif","3","50","1","",""
"casino-fixation","106","341899","0.0-25.0-0.18","627","true","img/card_backs/set1/red.gif","img/card_backs/set1/green.gif","img/card_backs/set1/yellow.gif","img/card_backs/set1/purple.gif","img/card_backs/set2/orange.gif","img/card_backs/set2/pink.gif","img/card_backs/set2/gray.gif","img/card_backs/set2/blue.gif","""event"",""trial"",""time""
""fullscreenenter"",""1"",""4195""
","
","
","""event"",""trial"",""time""
""fullscreenenter"",""1"",""4195""
","
","","null","","null","","fixation","2021-07-10 03:17:50.191","","","","","",""
"card-selection-trial","107","344125","0.0-25.0-1.18","627","true","img/card_backs/set1/red.gif","img/card_backs/set1/green.gif","img/card_backs/set1/yellow.gif","img/card_backs/set1/purple.gif","img/card_backs/set2/orange.gif","img/card_backs/set2/pink.gif","img/card_backs/set2/gray.gif","img/card_backs/set2/blue.gif","""event"",""trial"",""time""
""fullscreenenter"",""1"",""4195""
","
","
","""event"",""trial"",""time""
""fullscreenenter"",""1"",""4195""
","
","","221.10000000149012","","","","real_trial","2021-07-10 03:17:52.417","img/card_backs/set1/purple.gif","0","40","1","",""
"casino-fixation","108","344626","0.0-25.0-0.19","627","true","img/card_backs/set1/red.gif","img/card_backs/set1/green.gif","img/card_backs/set1/yellow.gif","img/card_backs/set1/purple.gif","img/card_backs/set2/orange.gif","img/card_backs/set2/pink.gif","img/card_backs/set2/gray.gif","img/card_backs/set2/blue.gif","""event"",""trial"",""time""
""fullscreenenter"",""1"",""4195""
","
","
","""event"",""trial"",""time""
""fullscreenenter"",""1"",""4195""
","
","","null","","null","","fixation","2021-07-10 03:17:52.918","","","","","",""
"card-selection-trial","109","346733","0.0-25.0-1.19","627","true","img/card_backs/set1/red.gif","img/card_backs/set1/green.gif","img/card_backs/set1/yellow.gif","img/card_backs/set1/purple.gif","img/card_backs/set2/orange.gif","img/card_backs/set2/pink.gif","img/card_backs/set2/gray.gif","img/card_backs/set2/blue.gif","""event"",""trial"",""time""
""fullscreenenter"",""1"",""4195""
","
","
","""event"",""trial"",""time""
""fullscreenenter"",""1"",""4195""
","
","","102","","","","real_trial","2021-07-10 03:17:55.025","img/card_backs/set1/yellow.gif","2","50","1","",""
"casino-fixation","110","347241","0.0-25.0-0.20","627","true","img/card_backs/set1/red.gif","img/card_backs/set1/green.gif","img/card_backs/set1/yellow.gif","img/card_backs/set1/purple.gif","img/card_backs/set2/orange.gif","img/card_backs/set2/pink.gif","img/card_backs/set2/gray.gif","img/card_backs/set2/blue.gif","""event"",""trial"",""time""
""fullscreenenter"",""1"",""4195""
","
","
","""event"",""trial"",""time""
""fullscreenenter"",""1"",""4195""
","
","","null","","null","","fixation","2021-07-10 03:17:55.533","","","","","",""
"card-selection-trial","111","349797","0.0-25.0-1.20","627","true","img/card_backs/set1/red.gif","img/card_backs/set1/green.gif","img/card_backs/set1/yellow.gif","img/card_backs/set1/purple.gif","img/card_backs/set2/orange.gif","img/card_backs/set2/pink.gif","img/card_backs/set2/gray.gif","img/card_backs/set2/blue.gif","""event"",""trial"",""time""
""fullscreenenter"",""1"",""4195""
","
","
","""event"",""trial"",""time""
""fullscreenenter"",""1"",""4195""
","
","","552.1999999992549","","","","real_trial","2021-07-10 03:17:58.089","img/card_backs/set1/green.gif","3","250","1","",""
"casino-fixation","112","350298","0.0-25.0-0.21","627","true","img/card_backs/set1/red.gif","img/card_backs/set1/green.gif","img/card_backs/set1/yellow.gif","img/card_backs/set1/purple.gif","img/card_backs/set2/orange.gif","img/card_backs/set2/pink.gif","img/card_backs/set2/gray.gif","img/card_backs/set2/blue.gif","""event"",""trial"",""time""
""fullscreenenter"",""1"",""4195""
","
","
","""event"",""trial"",""time""
""fullscreenenter"",""1"",""4195""
","
","","null","","null","","fixation","2021-07-10 03:17:58.590","","","","","",""
"card-selection-trial","113","353110","0.0-25.0-1.21","627","true","img/card_backs/set1/red.gif","img/card_backs/set1/green.gif","img/card_backs/set1/yellow.gif","img/card_backs/set1/purple.gif","img/card_backs/set2/orange.gif","img/card_backs/set2/pink.gif","img/card_backs/set2/gray.gif","img/card_backs/set2/blue.gif","""event"",""trial"",""time""
""fullscreenenter"",""1"",""4195""
","
","
","""event"",""trial"",""time""
""fullscreenenter"",""1"",""4195""
","
","","796.6999999992549","","","","real_trial","2021-07-10 03:18:01.402","img/card_backs/set1/red.gif","1","-210","1","",""
"casino-fixation","114","353612","0.0-25.0-0.22","627","true","img/card_backs/set1/red.gif","img/card_backs/set1/green.gif","img/card_backs/set1/yellow.gif","img/card_backs/set1/purple.gif","img/card_backs/set2/orange.gif","img/card_backs/set2/pink.gif","img/card_backs/set2/gray.gif","img/card_backs/set2/blue.gif","""event"",""trial"",""time""
""fullscreenenter"",""1"",""4195""
","
","
","""event"",""trial"",""time""
""fullscreenenter"",""1"",""4195""
","
","","null","","null","","fixation","2021-07-10 03:18:01.904","","","","","",""
"card-selection-trial","115","357100","0.0-25.0-1.22","627","true","img/card_backs/set1/red.gif","img/card_backs/set1/green.gif","img/card_backs/set1/yellow.gif","img/card_backs/set1/purple.gif","img/card_backs/set2/orange.gif","img/card_backs/set2/pink.gif","img/card_backs/set2/gray.gif","img/card_backs/set2/blue.gif","""event"",""trial"",""time""
""fullscreenenter"",""1"",""4195""
","
","
","""event"",""trial"",""time""
""fullscreenenter"",""1"",""4195""
","
","","1484.800000000745","","","","real_trial","2021-07-10 03:18:05.392","img/card_backs/set1/green.gif","3","260","1","",""
"casino-fixation","116","357602","0.0-25.0-0.23","627","true","img/card_backs/set1/red.gif","img/card_backs/set1/green.gif","img/card_backs/set1/yellow.gif","img/card_backs/set1/purple.gif","img/card_backs/set2/orange.gif","img/card_backs/set2/pink.gif","img/card_backs/set2/gray.gif","img/card_backs/set2/blue.gif","""event"",""trial"",""time""
""fullscreenenter"",""1"",""4195""
","
","
","""event"",""trial"",""time""
""fullscreenenter"",""1"",""4195""
","
","","null","","null","","fixation","2021-07-10 03:18:05.894","","","","","",""
"card-selection-trial","117","360308","0.0-25.0-1.23","627","true","img/card_backs/set1/red.gif","img/card_backs/set1/green.gif","img/card_backs/set1/yellow.gif","img/card_backs/set1/purple.gif","img/card_backs/set2/orange.gif","img/card_backs/set2/pink.gif","img/card_backs/set2/gray.gif","img/card_backs/set2/blue.gif","""event"",""trial"",""time""
""fullscreenenter"",""1"",""4195""
","
","
","""event"",""trial"",""time""
""fullscreenenter"",""1"",""4195""
","
","","703","","","","real_trial","2021-07-10 03:18:08.600","img/card_backs/set1/green.gif","1","-200","1","",""
"casino-fixation","118","360811","0.0-25.0-0.24","627","true","img/card_backs/set1/red.gif","img/card_backs/set1/green.gif","img/card_backs/set1/yellow.gif","img/card_backs/set1/purple.gif","img/card_backs/set2/orange.gif","img/card_backs/set2/pink.gif","img/card_backs/set2/gray.gif","img/card_backs/set2/blue.gif","""event"",""trial"",""time""
""fullscreenenter"",""1"",""4195""
","
","
","""event"",""trial"",""time""
""fullscreenenter"",""1"",""4195""
","
","","null","","null","","fixation","2021-07-10 03:18:09.103","","","","","",""
"card-selection-trial","119","363389","0.0-25.0-1.24","627","true","img/card_backs/set1/red.gif","img/card_backs/set1/green.gif","img/card_backs/set1/yellow.gif","img/card_backs/set1/purple.gif","img/card_backs/set2/orange.gif","img/card_backs/set2/pink.gif","img/card_backs/set2/gray.gif","img/card_backs/set2/blue.gif","""event"",""trial"",""time""
""fullscreenenter"",""1"",""4195""
","
","
","""event"",""trial"",""time""
""fullscreenenter"",""1"",""4195""
","
","","573.6999999992549","","","","real_trial","2021-07-10 03:18:11.681","img/card_backs/set1/green.gif","0","240","1","",""
"casino-fixation","120","363891","0.0-25.0-0.25","627","true","img/card_backs/set1/red.gif","img/card_backs/set1/green.gif","img/card_backs/set1/yellow.gif","img/card_backs/set1/purple.gif","img/card_backs/set2/orange.gif","img/card_backs/set2/pink.gif","img/card_backs/set2/gray.gif","img/card_backs/set2/blue.gif","""event"",""trial"",""time""
""fullscreenenter"",""1"",""4195""
","
","
","""event"",""trial"",""time""
""fullscreenenter"",""1"",""4195""
","
","","null","","null","","fixation","2021-07-10 03:18:12.183","","","","","",""
"card-selection-trial","121","366557","0.0-25.0-1.25","627","true","img/card_backs/set1/red.gif","img/card_backs/set1/green.gif","img/card_backs/set1/yellow.gif","img/card_backs/set1/purple.gif","img/card_backs/set2/orange.gif","img/card_backs/set2/pink.gif","img/card_backs/set2/gray.gif","img/card_backs/set2/blue.gif","""event"",""trial"",""time""
""fullscreenenter"",""1"",""4195""
","
","
","""event"",""trial"",""time""
""fullscreenenter"",""1"",""4195""
","
","","652.6000000014901","","","","real_trial","2021-07-10 03:18:14.849","img/card_backs/set1/green.gif","3","240","1","",""
"casino-fixation","122","367058","0.0-25.0-0.26","627","true","img/card_backs/set1/red.gif","img/card_backs/set1/green.gif","img/card_backs/set1/yellow.gif","img/card_backs/set1/purple.gif","img/card_backs/set2/orange.gif","img/card_backs/set2/pink.gif","img/card_backs/set2/gray.gif","img/card_backs/set2/blue.gif","""event"",""trial"",""time""
""fullscreenenter"",""1"",""4195""
","
","
","""event"",""trial"",""time""
""fullscreenenter"",""1"",""4195""
","
","","null","","null","","fixation","2021-07-10 03:18:15.350","","","","","",""
"card-selection-trial","123","369630","0.0-25.0-1.26","627","true","img/card_backs/set1/red.gif","img/card_backs/set1/green.gif","img/card_backs/set1/yellow.gif","img/card_backs/set1/purple.gif","img/card_backs/set2/orange.gif","img/card_backs/set2/pink.gif","img/card_backs/set2/gray.gif","img/card_backs/set2/blue.gif","""event"",""trial"",""time""
""fullscreenenter"",""1"",""4195""
","
","
","""event"",""trial"",""time""
""fullscreenenter"",""1"",""4195""
","
","","566.5","","","","real_trial","2021-07-10 03:18:17.922","img/card_backs/set1/green.gif","3","-210","1","",""
"casino-fixation","124","370132","0.0-25.0-0.27","627","true","img/card_backs/set1/red.gif","img/card_backs/set1/green.gif","img/card_backs/set1/yellow.gif","img/card_backs/set1/purple.gif","img/card_backs/set2/orange.gif","img/card_backs/set2/pink.gif","img/card_backs/set2/gray.gif","img/card_backs/set2/blue.gif","""event"",""trial"",""time""
""fullscreenenter"",""1"",""4195""
","
","
","""event"",""trial"",""time""
""fullscreenenter"",""1"",""4195""
","
","","null","","null","","fixation","2021-07-10 03:18:18.424","","","","","",""
"card-selection-trial","125","372654","0.0-25.0-1.27","627","true","img/card_backs/set1/red.gif","img/card_backs/set1/green.gif","img/card_backs/set1/yellow.gif","img/card_backs/set1/purple.gif","img/card_backs/set2/orange.gif","img/card_backs/set2/pink.gif","img/card_backs/set2/gray.gif","img/card_backs/set2/blue.gif","""event"",""trial"",""time""
""fullscreenenter"",""1"",""4195""
","
","
","""event"",""trial"",""time""
""fullscreenenter"",""1"",""4195""
","
","","517.3999999985099","","","","real_trial","2021-07-10 03:18:20.946","img/card_backs/set1/green.gif","3","-190","1","",""
"casino-fixation","126","373170","0.0-25.0-0.28","627","true","img/card_backs/set1/red.gif","img/card_backs/set1/green.gif","img/card_backs/set1/yellow.gif","img/card_backs/set1/purple.gif","img/card_backs/set2/orange.gif","img/card_backs/set2/pink.gif","img/card_backs/set2/gray.gif","img/card_backs/set2/blue.gif","""event"",""trial"",""time""
""fullscreenenter"",""1"",""4195""
","
","
","""event"",""trial"",""time""
""fullscreenenter"",""1"",""4195""
","
","","null","","null","","fixation","2021-07-10 03:18:21.462","","","","","",""
"card-selection-trial","127","375669","0.0-25.0-1.28","627","true","img/card_backs/set1/red.gif","img/card_backs/set1/green.gif","img/card_backs/set1/yellow.gif","img/card_backs/set1/purple.gif","img/card_backs/set2/orange.gif","img/card_backs/set2/pink.gif","img/card_backs/set2/gray.gif","img/card_backs/set2/blue.gif","""event"",""trial"",""time""
""fullscreenenter"",""1"",""4195""
","
","
","""event"",""trial"",""time""
""fullscreenenter"",""1"",""4195""
","
","","495.5","","","","real_trial","2021-07-10 03:18:23.961","img/card_backs/set1/green.gif","3","260","1","",""
"casino-fixation","128","376170","0.0-25.0-0.29","627","true","img/card_backs/set1/red.gif","img/card_backs/set1/green.gif","img/card_backs/set1/yellow.gif","img/card_backs/set1/purple.gif","img/card_backs/set2/orange.gif","img/card_backs/set2/pink.gif","img/card_backs/set2/gray.gif","img/card_backs/set2/blue.gif","""event"",""trial"",""time""
""fullscreenenter"",""1"",""4195""
","
","
","""event"",""trial"",""time""
""fullscreenenter"",""1"",""4195""
","
","","null","","null","","fixation","2021-07-10 03:18:24.462","","","","","",""
"card-selection-trial","129","379317","0.0-25.0-1.29","627","true","img/card_backs/set1/red.gif","img/card_backs/set1/green.gif","img/card_backs/set1/yellow.gif","img/card_backs/set1/purple.gif","img/card_backs/set2/orange.gif","img/card_backs/set2/pink.gif","img/card_backs/set2/gray.gif","img/card_backs/set2/blue.gif","""event"",""trial"",""time""
""fullscreenenter"",""1"",""4195""
","
","
","""event"",""trial"",""time""
""fullscreenenter"",""1"",""4195""
","
","","1142.5","","","","real_trial","2021-07-10 03:18:27.609","img/card_backs/set1/green.gif","1","250","1","",""
"casino-fixation","130","379818","0.0-25.0-0.30","627","true","img/card_backs/set1/red.gif","img/card_backs/set1/green.gif","img/card_backs/set1/yellow.gif","img/card_backs/set1/purple.gif","img/card_backs/set2/orange.gif","img/card_backs/set2/pink.gif","img/card_backs/set2/gray.gif","img/card_backs/set2/blue.gif","""event"",""trial"",""time""
""fullscreenenter"",""1"",""4195""
","
","
","""event"",""trial"",""time""
""fullscreenenter"",""1"",""4195""
","
","","null","","null","","fixation","2021-07-10 03:18:28.110","","","","","",""
"card-selection-trial","131","382501","0.0-25.0-1.30","627","true","img/card_backs/set1/red.gif","img/card_backs/set1/green.gif","img/card_backs/set1/yellow.gif","img/card_backs/set1/purple.gif","img/card_backs/set2/orange.gif","img/card_backs/set2/pink.gif","img/card_backs/set2/gray.gif","img/card_backs/set2/blue.gif","""event"",""trial"",""time""
""fullscreenenter"",""1"",""4195""
","
","
","""event"",""trial"",""time""
""fullscreenenter"",""1"",""4195""
","
","","678.1999999992549","","","","real_trial","2021-07-10 03:18:30.793","img/card_backs/set1/green.gif","1","250","1","",""
"casino-fixation","132","383003","0.0-25.0-0.31","627","true","img/card_backs/set1/red.gif","img/card_backs/set1/green.gif","img/card_backs/set1/yellow.gif","img/card_backs/set1/purple.gif","img/card_backs/set2/orange.gif","img/card_backs/set2/pink.gif","img/card_backs/set2/gray.gif","img/card_backs/set2/blue.gif","""event"",""trial"",""time""
""fullscreenenter"",""1"",""4195""
","
","
","""event"",""trial"",""time""
""fullscreenenter"",""1"",""4195""
","
","","null","","null","","fixation","2021-07-10 03:18:31.295","","","","","",""
"card-selection-trial","133","385478","0.0-25.0-1.31","627","true","img/card_backs/set1/red.gif","img/card_backs/set1/green.gif","img/card_backs/set1/yellow.gif","img/card_backs/set1/purple.gif","img/card_backs/set2/orange.gif","img/card_backs/set2/pink.gif","img/card_backs/set2/gray.gif","img/card_backs/set2/blue.gif","""event"",""trial"",""time""
""fullscreenenter"",""1"",""4195""
","
","
","""event"",""trial"",""time""
""fullscreenenter"",""1"",""4195""
","
","","470.5","","","","real_trial","2021-07-10 03:18:33.770","img/card_backs/set1/green.gif","3","250","1","",""
"casino-fixation","134","385980","0.0-25.0-0.32","627","true","img/card_backs/set1/red.gif","img/card_backs/set1/green.gif","img/card_backs/set1/yellow.gif","img/card_backs/set1/purple.gif","img/card_backs/set2/orange.gif","img/card_backs/set2/pink.gif","img/card_backs/set2/gray.gif","img/card_backs/set2/blue.gif","""event"",""trial"",""time""
""fullscreenenter"",""1"",""4195""
","
","
","""event"",""trial"",""time""
""fullscreenenter"",""1"",""4195""
","
","","null","","null","","fixation","2021-07-10 03:18:34.272","","","","","",""
"card-selection-trial","135","388669","0.0-25.0-1.32","627","true","img/card_backs/set1/red.gif","img/card_backs/set1/green.gif","img/card_backs/set1/yellow.gif","img/card_backs/set1/purple.gif","img/card_backs/set2/orange.gif","img/card_backs/set2/pink.gif","img/card_backs/set2/gray.gif","img/card_backs/set2/blue.gif","""event"",""trial"",""time""
""fullscreenenter"",""1"",""4195""
","
","
","""event"",""trial"",""time""
""fullscreenenter"",""1"",""4195""
","
","","684.5","","","","real_trial","2021-07-10 03:18:36.961","img/card_backs/set1/green.gif","0","240","1","",""
"casino-fixation","136","389170","0.0-25.0-0.33","627","true","img/card_backs/set1/red.gif","img/card_backs/set1/green.gif","img/card_backs/set1/yellow.gif","img/card_backs/set1/purple.gif","img/card_backs/set2/orange.gif","img/card_backs/set2/pink.gif","img/card_backs/set2/gray.gif","img/card_backs/set2/blue.gif","""event"",""trial"",""time""
""fullscreenenter"",""1"",""4195""
","
","
","""event"",""trial"",""time""
""fullscreenenter"",""1"",""4195""
","
","","null","","null","","fixation","2021-07-10 03:18:37.462","","","","","",""
"card-selection-trial","137","391709","0.0-25.0-1.33","627","true","img/card_backs/set1/red.gif","img/card_backs/set1/green.gif","img/card_backs/set1/yellow.gif","img/card_backs/set1/purple.gif","img/card_backs/set2/orange.gif","img/card_backs/set2/pink.gif","img/card_backs/set2/gray.gif","img/card_backs/set2/blue.gif","""event"",""trial"",""time""
""fullscreenenter"",""1"",""4195""
","
","
","""event"",""trial"",""time""
""fullscreenenter"",""1"",""4195""
","
","","534.3999999985099","","","","real_trial","2021-07-10 03:18:40.001","img/card_backs/set1/green.gif","3","-210","1","",""
"casino-fixation","138","392211","0.0-25.0-0.34","627","true","img/card_backs/set1/red.gif","img/card_backs/set1/green.gif","img/card_backs/set1/yellow.gif","img/card_backs/set1/purple.gif","img/card_backs/set2/orange.gif","img/card_backs/set2/pink.gif","img/card_backs/set2/gray.gif","img/card_backs/set2/blue.gif","""event"",""trial"",""time""
""fullscreenenter"",""1"",""4195""
","
","
","""event"",""trial"",""time""
""fullscreenenter"",""1"",""4195""
","
","","null","","null","","fixation","2021-07-10 03:18:40.503","","","","","",""
"card-selection-trial","139","394860","0.0-25.0-1.34","627","true","img/card_backs/set1/red.gif","img/card_backs/set1/green.gif","img/card_backs/set1/yellow.gif","img/card_backs/set1/purple.gif","img/card_backs/set2/orange.gif","img/card_backs/set2/pink.gif","img/card_backs/set2/gray.gif","img/card_backs/set2/blue.gif","""event"",""trial"",""time""
""fullscreenenter"",""1"",""4195""
","
","
","""event"",""trial"",""time""
""fullscreenenter"",""1"",""4195""
","
","","645.9000000022352","","","","real_trial","2021-07-10 03:18:43.152","img/card_backs/set1/green.gif","0","250","1","",""
"casino-fixation","140","395373","0.0-25.0-0.35","627","true","img/card_backs/set1/red.gif","img/card_backs/set1/green.gif","img/card_backs/set1/yellow.gif","img/card_backs/set1/purple.gif","img/card_backs/set2/orange.gif","img/card_backs/set2/pink.gif","img/card_backs/set2/gray.gif","img/card_backs/set2/blue.gif","""event"",""trial"",""time""
""fullscreenenter"",""1"",""4195""
","
","
","""event"",""trial"",""time""
""fullscreenenter"",""1"",""4195""
","
","","null","","null","","fixation","2021-07-10 03:18:43.665","","","","","",""
"card-selection-trial","141","398044","0.0-25.0-1.35","627","true","img/card_backs/set1/red.gif","img/card_backs/set1/green.gif","img/card_backs/set1/yellow.gif","img/card_backs/set1/purple.gif","img/card_backs/set2/orange.gif","img/card_backs/set2/pink.gif","img/card_backs/set2/gray.gif","img/card_backs/set2/blue.gif","""event"",""trial"",""time""
""fullscreenenter"",""1"",""4195""
","
","
","""event"",""trial"",""time""
""fullscreenenter"",""1"",""4195""
","
","","666.8999999985099","","","","real_trial","2021-07-10 03:18:46.336","img/card_backs/set1/green.gif","2","250","1","",""
"casino-fixation","142","398545","0.0-25.0-0.36","627","true","img/card_backs/set1/red.gif","img/card_backs/set1/green.gif","img/card_backs/set1/yellow.gif","img/card_backs/set1/purple.gif","img/card_backs/set2/orange.gif","img/card_backs/set2/pink.gif","img/card_backs/set2/gray.gif","img/card_backs/set2/blue.gif","""event"",""trial"",""time""
""fullscreenenter"",""1"",""4195""
","
","
","""event"",""trial"",""time""
""fullscreenenter"",""1"",""4195""
","
","","null","","null","","fixation","2021-07-10 03:18:46.837","","","","","",""
"card-selection-trial","143","401189","0.0-25.0-1.36","627","true","img/card_backs/set1/red.gif","img/card_backs/set1/green.gif","img/card_backs/set1/yellow.gif","img/card_backs/set1/purple.gif","img/card_backs/set2/orange.gif","img/card_backs/set2/pink.gif","img/card_backs/set2/gray.gif","img/card_backs/set2/blue.gif","""event"",""trial"",""time""
""fullscreenenter"",""1"",""4195""
","
","
","""event"",""trial"",""time""
""fullscreenenter"",""1"",""4195""
","
","","639.5999999977648","","","","real_trial","2021-07-10 03:18:49.481","img/card_backs/set1/green.gif","1","-190","1","",""
"casino-fixation","144","401691","0.0-25.0-0.37","627","true","img/card_backs/set1/red.gif","img/card_backs/set1/green.gif","img/card_backs/set1/yellow.gif","img/card_backs/set1/purple.gif","img/card_backs/set2/orange.gif","img/card_backs/set2/pink.gif","img/card_backs/set2/gray.gif","img/card_backs/set2/blue.gif","""event"",""trial"",""time""
""fullscreenenter"",""1"",""4195""
","
","
","""event"",""trial"",""time""
""fullscreenenter"",""1"",""4195""
","
","","null","","null","","fixation","2021-07-10 03:18:49.983","","","","","",""
"card-selection-trial","145","404172","0.0-25.0-1.37","627","true","img/card_backs/set1/red.gif","img/card_backs/set1/green.gif","img/card_backs/set1/yellow.gif","img/card_backs/set1/purple.gif","img/card_backs/set2/orange.gif","img/card_backs/set2/pink.gif","img/card_backs/set2/gray.gif","img/card_backs/set2/blue.gif","""event"",""trial"",""time""
""fullscreenenter"",""1"",""4195""
","
","
","""event"",""trial"",""time""
""fullscreenenter"",""1"",""4195""
","
","","478.69999999925494","","","","real_trial","2021-07-10 03:18:52.464","img/card_backs/set1/green.gif","3","-210","1","",""
"casino-fixation","146","404675","0.0-25.0-0.38","627","true","img/card_backs/set1/red.gif","img/card_backs/set1/green.gif","img/card_backs/set1/yellow.gif","img/card_backs/set1/purple.gif","img/card_backs/set2/orange.gif","img/card_backs/set2/pink.gif","img/card_backs/set2/gray.gif","img/card_backs/set2/blue.gif","""event"",""trial"",""time""
""fullscreenenter"",""1"",""4195""
","
","
","""event"",""trial"",""time""
""fullscreenenter"",""1"",""4195""
","
","","null","","null","","fixation","2021-07-10 03:18:52.967","","","","","",""
"card-selection-trial","147","407149","0.0-25.0-1.38","627","true","img/card_backs/set1/red.gif","img/card_backs/set1/green.gif","img/card_backs/set1/yellow.gif","img/card_backs/set1/purple.gif","img/card_backs/set2/orange.gif","img/card_backs/set2/pink.gif","img/card_backs/set2/gray.gif","img/card_backs/set2/blue.gif","""event"",""trial"",""time""
""fullscreenenter"",""1"",""4195""
","
","
","""event"",""trial"",""time""
""fullscreenenter"",""1"",""4195""
","
","","470.19999999925494","","","","real_trial","2021-07-10 03:18:55.441","img/card_backs/set1/yellow.gif","0","-110","1","",""
"casino-fixation","148","407651","0.0-25.0-0.39","627","true","img/card_backs/set1/red.gif","img/card_backs/set1/green.gif","img/card_backs/set1/yellow.gif","img/card_backs/set1/purple.gif","img/card_backs/set2/orange.gif","img/card_backs/set2/pink.gif","img/card_backs/set2/gray.gif","img/card_backs/set2/blue.gif","""event"",""trial"",""time""
""fullscreenenter"",""1"",""4195""
","
","
","""event"",""trial"",""time""
""fullscreenenter"",""1"",""4195""
","
","","null","","null","","fixation","2021-07-10 03:18:55.943","","","","","",""
"card-selection-trial","149","410310","0.0-25.0-1.39","627","true","img/card_backs/set1/red.gif","img/card_backs/set1/green.gif","img/card_backs/set1/yellow.gif","img/card_backs/set1/purple.gif","img/card_backs/set2/orange.gif","img/card_backs/set2/pink.gif","img/card_backs/set2/gray.gif","img/card_backs/set2/blue.gif","""event"",""trial"",""time""
""fullscreenenter"",""1"",""4195""
","
","
","""event"",""trial"",""time""
""fullscreenenter"",""1"",""4195""
","
","","654.1000000014901","","","","real_trial","2021-07-10 03:18:58.602","img/card_backs/set1/green.gif","1","260","1","",""
"casino-fixation","150","410812","0.0-25.0-0.40","627","true","img/card_backs/set1/red.gif","img/card_backs/set1/green.gif","img/card_backs/set1/yellow.gif","img/card_backs/set1/purple.gif","img/card_backs/set2/orange.gif","img/card_backs/set2/pink.gif","img/card_backs/set2/gray.gif","img/card_backs/set2/blue.gif","""event"",""trial"",""time""
""fullscreenenter"",""1"",""4195""
","
","
","""event"",""trial"",""time""
""fullscreenenter"",""1"",""4195""
","
","","null","","null","","fixation","2021-07-10 03:18:59.104","","","","","",""
"card-selection-trial","151","413405","0.0-25.0-1.40","627","true","img/card_backs/set1/red.gif","img/card_backs/set1/green.gif","img/card_backs/set1/yellow.gif","img/card_backs/set1/purple.gif","img/card_backs/set2/orange.gif","img/card_backs/set2/pink.gif","img/card_backs/set2/gray.gif","img/card_backs/set2/blue.gif","""event"",""trial"",""time""
""fullscreenenter"",""1"",""4195""
","
","
","""event"",""trial"",""time""
""fullscreenenter"",""1"",""4195""
","
","","589","","","","real_trial","2021-07-10 03:19:01.697","img/card_backs/set1/green.gif","0","-190","1","",""
"casino-fixation","152","413906","0.0-25.0-0.41","627","true","img/card_backs/set1/red.gif","img/card_backs/set1/green.gif","img/card_backs/set1/yellow.gif","img/card_backs/set1/purple.gif","img/card_backs/set2/orange.gif","img/card_backs/set2/pink.gif","img/card_backs/set2/gray.gif","img/card_backs/set2/blue.gif","""event"",""trial"",""time""
""fullscreenenter"",""1"",""4195""
","
","
","""event"",""trial"",""time""
""fullscreenenter"",""1"",""4195""
","
","","null","","null","","fixation","2021-07-10 03:19:02.198","","","","","",""
"card-selection-trial","153","417502","0.0-25.0-1.41","627","true","img/card_backs/set1/red.gif","img/card_backs/set1/green.gif","img/card_backs/set1/yellow.gif","img/card_backs/set1/purple.gif","img/card_backs/set2/orange.gif","img/card_backs/set2/pink.gif","img/card_backs/set2/gray.gif","img/card_backs/set2/blue.gif","""event"",""trial"",""time""
""fullscreenenter"",""1"",""4195""
","
","
","""event"",""trial"",""time""
""fullscreenenter"",""1"",""4195""
","
","","1583.300000000745","","","","real_trial","2021-07-10 03:19:05.794","img/card_backs/set1/green.gif","2","240","1","",""
"casino-fixation","154","418005","0.0-25.0-0.42","627","true","img/card_backs/set1/red.gif","img/card_backs/set1/green.gif","img/card_backs/set1/yellow.gif","img/card_backs/set1/purple.gif","img/card_backs/set2/orange.gif","img/card_backs/set2/pink.gif","img/card_backs/set2/gray.gif","img/card_backs/set2/blue.gif","""event"",""trial"",""time""
""fullscreenenter"",""1"",""4195""
","
","
","""event"",""trial"",""time""
""fullscreenenter"",""1"",""4195""
","
","","null","","null","","fixation","2021-07-10 03:19:06.297","","","","","",""
"card-selection-trial","155","421100","0.0-25.0-1.42","627","true","img/card_backs/set1/red.gif","img/card_backs/set1/green.gif","img/card_backs/set1/yellow.gif","img/card_backs/set1/purple.gif","img/card_backs/set2/orange.gif","img/card_backs/set2/pink.gif","img/card_backs/set2/gray.gif","img/card_backs/set2/blue.gif","""event"",""trial"",""time""
""fullscreenenter"",""1"",""4195""
","
","
","""event"",""trial"",""time""
""fullscreenenter"",""1"",""4195""
","
","","1076.0999999977648","","","","real_trial","2021-07-10 03:19:09.392","img/card_backs/set1/green.gif","2","260","1","",""
"casino-fixation","156","421602","0.0-25.0-0.43","627","true","img/card_backs/set1/red.gif","img/card_backs/set1/green.gif","img/card_backs/set1/yellow.gif","img/card_backs/set1/purple.gif","img/card_backs/set2/orange.gif","img/card_backs/set2/pink.gif","img/card_backs/set2/gray.gif","img/card_backs/set2/blue.gif","""event"",""trial"",""time""
""fullscreenenter"",""1"",""4195""
","
","
","""event"",""trial"",""time""
""fullscreenenter"",""1"",""4195""
","
","","null","","null","","fixation","2021-07-10 03:19:09.894","","","","","",""
"card-selection-trial","157","424085","0.0-25.0-1.43","627","true","img/card_backs/set1/red.gif","img/card_backs/set1/green.gif","img/card_backs/set1/yellow.gif","img/card_backs/set1/purple.gif","img/card_backs/set2/orange.gif","img/card_backs/set2/pink.gif","img/card_backs/set2/gray.gif","img/card_backs/set2/blue.gif","""event"",""trial"",""time""
""fullscreenenter"",""1"",""4195""
","
","
","""event"",""trial"",""time""
""fullscreenenter"",""1"",""4195""
","
","","478.80000000074506","","","","real_trial","2021-07-10 03:19:12.377","img/card_backs/set1/green.gif","3","250","1","",""
"casino-fixation","158","424587","0.0-25.0-0.44","627","true","img/card_backs/set1/red.gif","img/card_backs/set1/green.gif","img/card_backs/set1/yellow.gif","img/card_backs/set1/purple.gif","img/card_backs/set2/orange.gif","img/card_backs/set2/pink.gif","img/card_backs/set2/gray.gif","img/card_backs/set2/blue.gif","""event"",""trial"",""time""
""fullscreenenter"",""1"",""4195""
","
","
","""event"",""trial"",""time""
""fullscreenenter"",""1"",""4195""
","
","","null","","null","","fixation","2021-07-10 03:19:12.879","","","","","",""
"card-selection-trial","159","427228","0.0-25.0-1.44","627","true","img/card_backs/set1/red.gif","img/card_backs/set1/green.gif","img/card_backs/set1/yellow.gif","img/card_backs/set1/purple.gif","img/card_backs/set2/orange.gif","img/card_backs/set2/pink.gif","img/card_backs/set2/gray.gif","img/card_backs/set2/blue.gif","""event"",""trial"",""time""
""fullscreenenter"",""1"",""4195""
","
","
","""event"",""trial"",""time""
""fullscreenenter"",""1"",""4195""
","
","","637.8999999985099","","","","real_trial","2021-07-10 03:19:15.520","img/card_backs/set1/green.gif","1","260","1","",""
"casino-fixation","160","427731","0.0-25.0-0.45","627","true","img/card_backs/set1/red.gif","img/card_backs/set1/green.gif","img/card_backs/set1/yellow.gif","img/card_backs/set1/purple.gif","img/card_backs/set2/orange.gif","img/card_backs/set2/pink.gif","img/card_backs/set2/gray.gif","img/card_backs/set2/blue.gif","""event"",""trial"",""time""
""fullscreenenter"",""1"",""4195""
","
","
","""event"",""trial"",""time""
""fullscreenenter"",""1"",""4195""
","
","","null","","null","","fixation","2021-07-10 03:19:16.023","","","","","",""
"card-selection-trial","161","430421","0.0-25.0-1.45","627","true","img/card_backs/set1/red.gif","img/card_backs/set1/green.gif","img/card_backs/set1/yellow.gif","img/card_backs/set1/purple.gif","img/card_backs/set2/orange.gif","img/card_backs/set2/pink.gif","img/card_backs/set2/gray.gif","img/card_backs/set2/blue.gif","""event"",""trial"",""time""
""fullscreenenter"",""1"",""4195""
","
","
","""event"",""trial"",""time""
""fullscreenenter"",""1"",""4195""
","
","","685.3000000007451","","","","real_trial","2021-07-10 03:19:18.713","img/card_backs/set1/green.gif","0","250","1","",""
"casino-fixation","162","430930","0.0-25.0-0.46","627","true","img/card_backs/set1/red.gif","img/card_backs/set1/green.gif","img/card_backs/set1/yellow.gif","img/card_backs/set1/purple.gif","img/card_backs/set2/orange.gif","img/card_backs/set2/pink.gif","img/card_backs/set2/gray.gif","img/card_backs/set2/blue.gif","""event"",""trial"",""time""
""fullscreenenter"",""1"",""4195""
","
","
","""event"",""trial"",""time""
""fullscreenenter"",""1"",""4195""
","
","","null","","null","","fixation","2021-07-10 03:19:19.222","","","","","",""
"card-selection-trial","163","434565","0.0-25.0-1.46","627","true","img/card_backs/set1/red.gif","img/card_backs/set1/green.gif","img/card_backs/set1/yellow.gif","img/card_backs/set1/purple.gif","img/card_backs/set2/orange.gif","img/card_backs/set2/pink.gif","img/card_backs/set2/gray.gif","img/card_backs/set2/blue.gif","""event"",""trial"",""time""
""fullscreenenter"",""1"",""4195""
","
","
","""event"",""trial"",""time""
""fullscreenenter"",""1"",""4195""
","
","","1631.0999999977648","","","","real_trial","2021-07-10 03:19:22.857","img/card_backs/set1/green.gif","2","240","1","",""
"casino-fixation","164","435067","0.0-25.0-0.47","627","true","img/card_backs/set1/red.gif","img/card_backs/set1/green.gif","img/card_backs/set1/yellow.gif","img/card_backs/set1/purple.gif","img/card_backs/set2/orange.gif","img/card_backs/set2/pink.gif","img/card_backs/set2/gray.gif","img/card_backs/set2/blue.gif","""event"",""trial"",""time""
""fullscreenenter"",""1"",""4195""
","
","
","""event"",""trial"",""time""
""fullscreenenter"",""1"",""4195""
","
","","null","","null","","fixation","2021-07-10 03:19:23.359","","","","","",""
"card-selection-trial","165","437588","0.0-25.0-1.47","627","true","img/card_backs/set1/red.gif","img/card_backs/set1/green.gif","img/card_backs/set1/yellow.gif","img/card_backs/set1/purple.gif","img/card_backs/set2/orange.gif","img/card_backs/set2/pink.gif","img/card_backs/set2/gray.gif","img/card_backs/set2/blue.gif","""event"",""trial"",""time""
""fullscreenenter"",""1"",""4195""
","
","
","""event"",""trial"",""time""
""fullscreenenter"",""1"",""4195""
","
","","516.9000000022352","","","","real_trial","2021-07-10 03:19:25.880","img/card_backs/set1/green.gif","0","260","1","",""
"casino-fixation","166","438091","0.0-25.0-0.48","627","true","img/card_backs/set1/red.gif","img/card_backs/set1/green.gif","img/card_backs/set1/yellow.gif","img/card_backs/set1/purple.gif","img/card_backs/set2/orange.gif","img/card_backs/set2/pink.gif","img/card_backs/set2/gray.gif","img/card_backs/set2/blue.gif","""event"",""trial"",""time""
""fullscreenenter"",""1"",""4195""
","
","
","""event"",""trial"",""time""
""fullscreenenter"",""1"",""4195""
","
","","null","","null","","fixation","2021-07-10 03:19:26.383","","","","","",""
"card-selection-trial","167","440629","0.0-25.0-1.48","627","true","img/card_backs/set1/red.gif","img/card_backs/set1/green.gif","img/card_backs/set1/yellow.gif","img/card_backs/set1/purple.gif","img/card_backs/set2/orange.gif","img/card_backs/set2/pink.gif","img/card_backs/set2/gray.gif","img/card_backs/set2/blue.gif","""event"",""trial"",""time""
""fullscreenenter"",""1"",""4195""
","
","
","""event"",""trial"",""time""
""fullscreenenter"",""1"",""4195""
","
","","533.1999999992549","","","","real_trial","2021-07-10 03:19:28.921","img/card_backs/set1/green.gif","3","250","1","",""
