"trial_type","trial_index","time_elapsed","internal_node_id","sub_id","risk_good_first","block1_A","block1_B","block1_C","block1_D","block2_A","block2_B","block2_C","block2_D","interactions","blur_events","focus_events","fullscreenenter_events","fullscreenexit_events","success","rt","stimulus","key_press","button_pressed","task_part","timestamp","card_choice","choice_position","points_earned","block","correct","response"
"pavlovia","0","3","0.0-0.0","842","false","img/card_backs/set1/red.gif","img/card_backs/set1/purple.gif","img/card_backs/set1/yellow.gif","img/card_backs/set1/green.gif","img/card_backs/set2/pink.gif","img/card_backs/set2/orange.gif","img/card_backs/set2/blue.gif","img/card_backs/set2/gray.gif","""event"",""trial"",""time""
""fullscreenenter"",""1"",""2242""
","
","
","""event"",""trial"",""time""
""fullscreenenter"",""1"",""2242""
","
","","","","","","","","","","","","",""
"fullscreen","1","3226","0.0-1.0","842","false","img/card_backs/set1/red.gif","img/card_backs/set1/purple.gif","img/card_backs/set1/yellow.gif","img/card_backs/set1/green.gif","img/card_backs/set2/pink.gif","img/card_backs/set2/orange.gif","img/card_backs/set2/blue.gif","img/card_backs/set2/gray.gif","""event"",""trial"",""time""
""fullscreenenter"",""1"",""2242""
","
","
","""event"",""trial"",""time""
""fullscreenenter"",""1"",""2242""
","
","true","","","","","","","","","","","",""
"audio-keyboard-response","2","5651","0.0-2.0","842","false","img/card_backs/set1/red.gif","img/card_backs/set1/purple.gif","img/card_backs/set1/yellow.gif","img/card_backs/set1/green.gif","img/card_backs/set2/pink.gif","img/card_backs/set2/orange.gif","img/card_backs/set2/blue.gif","img/card_backs/set2/gray.gif","""event"",""trial"",""time""
""fullscreenenter"",""1"",""2242""
","
","
","""event"",""trial"",""time""
""fullscreenenter"",""1"",""2242""
","
","","2331","audio/beep_loop.wav","32","","","","","","","","",""
"audio-button-response","3","7242","0.0-3.0","842","false","img/card_backs/set1/red.gif","img/card_backs/set1/purple.gif","img/card_backs/set1/yellow.gif","img/card_backs/set1/green.gif","img/card_backs/set2/pink.gif","img/card_backs/set2/orange.gif","img/card_backs/set2/blue.gif","img/card_backs/set2/gray.gif","""event"",""trial"",""time""
""fullscreenenter"",""1"",""2242""
","
","
","""event"",""trial"",""time""
""fullscreenenter"",""1"",""2242""
","
","","NaN","audio/turtle.mp3","","3","","","","","","","",""
"audio-button-response","4","9378","0.0-4.0","842","false","img/card_backs/set1/red.gif","img/card_backs/set1/purple.gif","img/card_backs/set1/yellow.gif","img/card_backs/set1/green.gif","img/card_backs/set2/pink.gif","img/card_backs/set2/orange.gif","img/card_backs/set2/blue.gif","img/card_backs/set2/gray.gif","""event"",""trial"",""time""
""fullscreenenter"",""1"",""2242""
","
","
","""event"",""trial"",""time""
""fullscreenenter"",""1"",""2242""
","
","","NaN","audio/shark.mp3","","2","","","","","","","",""
"fullscreen","5","12704","0.0-5.0","842","false","img/card_backs/set1/red.gif","img/card_backs/set1/purple.gif","img/card_backs/set1/yellow.gif","img/card_backs/set1/green.gif","img/card_backs/set2/pink.gif","img/card_backs/set2/orange.gif","img/card_backs/set2/blue.gif","img/card_backs/set2/gray.gif","""event"",""trial"",""time""
""fullscreenenter"",""1"",""2242""
","
","
","""event"",""trial"",""time""
""fullscreenenter"",""1"",""2242""
","
","true","","","","","","","","","","","",""
"casino-keyboard-response","6","16517","0.0-6.0-0.0","842","false","img/card_backs/set1/red.gif","img/card_backs/set1/purple.gif","img/card_backs/set1/yellow.gif","img/card_backs/set1/green.gif","img/card_backs/set2/pink.gif","img/card_backs/set2/orange.gif","img/card_backs/set2/blue.gif","img/card_backs/set2/gray.gif","""event"",""trial"",""time""
""fullscreenenter"",""1"",""2242""
","
","
","""event"",""trial"",""time""
""fullscreenenter"",""1"",""2242""
","
","","3806","Welcome to the casino!","71","","instructions","2021-07-16 01:05:48.676","","","","","",""
"casino-keyboard-response","7","27100","0.0-6.0-0.1","842","false","img/card_backs/set1/red.gif","img/card_backs/set1/purple.gif","img/card_backs/set1/yellow.gif","img/card_backs/set1/green.gif","img/card_backs/set2/pink.gif","img/card_backs/set2/orange.gif","img/card_backs/set2/blue.gif","img/card_backs/set2/gray.gif","""event"",""trial"",""time""
""fullscreenenter"",""1"",""2242""
","
","
","""event"",""trial"",""time""
""fullscreenenter"",""1"",""2242""
","
","","10579.5","Today you will be playing a game to earn tokens. </br> At the end of the experiment, you will be paid a bonus based on how many tokens you win. ","69","","instructions","2021-07-16 01:05:59.259","","","","","",""
"casino-keyboard-response","8","35083","0.0-6.0-0.2","842","false","img/card_backs/set1/red.gif","img/card_backs/set1/purple.gif","img/card_backs/set1/yellow.gif","img/card_backs/set1/green.gif","img/card_backs/set2/pink.gif","img/card_backs/set2/orange.gif","img/card_backs/set2/blue.gif","img/card_backs/set2/gray.gif","""event"",""trial"",""time""
""fullscreenenter"",""1"",""2242""
","
","
","""event"",""trial"",""time""
""fullscreenenter"",""1"",""2242""
","
","","7978.5","On every turn, you will be shown four different decks of cards. </br> You need to select a card from one of the four decks.  ","75","","instructions","2021-07-16 01:06:07.242","","","","","",""
"casino-keyboard-response","9","40105","0.0-6.0-0.3","842","false","img/card_backs/set1/red.gif","img/card_backs/set1/purple.gif","img/card_backs/set1/yellow.gif","img/card_backs/set1/green.gif","img/card_backs/set2/pink.gif","img/card_backs/set2/orange.gif","img/card_backs/set2/blue.gif","img/card_backs/set2/gray.gif","""event"",""trial"",""time""
""fullscreenenter"",""1"",""2242""
","
","
","""event"",""trial"",""time""
""fullscreenenter"",""1"",""2242""
","
","","5019.5","On the next screen, you will see what the decks will look like. ","66","","instructions","2021-07-16 01:06:12.264","","","","","",""
"card-selection-trial","10","44124","0.0-7.0-0.0","842","false","img/card_backs/set1/red.gif","img/card_backs/set1/purple.gif","img/card_backs/set1/yellow.gif","img/card_backs/set1/green.gif","img/card_backs/set2/pink.gif","img/card_backs/set2/orange.gif","img/card_backs/set2/blue.gif","img/card_backs/set2/gray.gif","""event"",""trial"",""time""
""fullscreenenter"",""1"",""2242""
","
","
","""event"",""trial"",""time""
""fullscreenenter"",""1"",""2242""
","
","","null","","","","practice","2021-07-16 01:06:16.283","null","null","null","0","",""
"casino-keyboard-response","11","52372","0.0-8.0-0.0","842","false","img/card_backs/set1/red.gif","img/card_backs/set1/purple.gif","img/card_backs/set1/yellow.gif","img/card_backs/set1/green.gif","img/card_backs/set2/pink.gif","img/card_backs/set2/orange.gif","img/card_backs/set2/blue.gif","img/card_backs/set2/gray.gif","""event"",""trial"",""time""
""fullscreenenter"",""1"",""2242""
","
","
","""event"",""trial"",""time""
""fullscreenenter"",""1"",""2242""
","
","","8244.29999999702","You should pick a card from a deck using the '2', '4', '6', and '8' keys at the top of the keyboard.","85","","instructions","2021-07-16 01:06:24.531","","","","","",""
"casino-keyboard-response","12","58715","0.0-8.0-0.1","842","false","img/card_backs/set1/red.gif","img/card_backs/set1/purple.gif","img/card_backs/set1/yellow.gif","img/card_backs/set1/green.gif","img/card_backs/set2/pink.gif","img/card_backs/set2/orange.gif","img/card_backs/set2/blue.gif","img/card_backs/set2/gray.gif","""event"",""trial"",""time""
""fullscreenenter"",""1"",""2242""
","
","
","""event"",""trial"",""time""
""fullscreenenter"",""1"",""2242""
","
","","6339.79999999702","Once you select a card, it will turn over and you will see how many tokens you earned.","83","","instructions","2021-07-16 01:06:30.874","","","","","",""
"casino-keyboard-response","13","74043","0.0-8.0-0.2","842","false","img/card_backs/set1/red.gif","img/card_backs/set1/purple.gif","img/card_backs/set1/yellow.gif","img/card_backs/set1/green.gif","img/card_backs/set2/pink.gif","img/card_backs/set2/orange.gif","img/card_backs/set2/blue.gif","img/card_backs/set2/gray.gif","""event"",""trial"",""time""
""fullscreenenter"",""1"",""2242""
","
","
","""event"",""trial"",""time""
""fullscreenenter"",""1"",""2242""
","
","","15325.300000011921","Let's try practicing that! </br> First, try to put your fingers over the '2', '4', '6', and '8' keys. </br>  You can use whatever fingers are most comfortable for you. Try to find a comfortable position now. ","50","","instructions","2021-07-16 01:06:46.202","","","","","",""
"casino-keyboard-response","14","79852","0.0-8.0-0.3","842","false","img/card_backs/set1/red.gif","img/card_backs/set1/purple.gif","img/card_backs/set1/yellow.gif","img/card_backs/set1/green.gif","img/card_backs/set2/pink.gif","img/card_backs/set2/orange.gif","img/card_backs/set2/blue.gif","img/card_backs/set2/gray.gif","""event"",""trial"",""time""
""fullscreenenter"",""1"",""2242""
","
","
","""event"",""trial"",""time""
""fullscreenenter"",""1"",""2242""
","
","","5806","Okay ready? </br> On the next screen, press '2' to select the left deck. ","50","","instructions","2021-07-16 01:06:52.011","","","","","",""
"card-selection-trial","15","82595","0.0-9.0-0.0","842","false","img/card_backs/set1/red.gif","img/card_backs/set1/purple.gif","img/card_backs/set1/yellow.gif","img/card_backs/set1/green.gif","img/card_backs/set2/pink.gif","img/card_backs/set2/orange.gif","img/card_backs/set2/blue.gif","img/card_backs/set2/gray.gif","""event"",""trial"",""time""
""fullscreenenter"",""1"",""2242""
","
","
","""event"",""trial"",""time""
""fullscreenenter"",""1"",""2242""
","
","","709.2999999970198","","","","practice_card_selection","2021-07-16 01:06:54.754","img/practice_cards/backs/brown.gif","0","-100","","",""
"casino-keyboard-response","16","88508","0.0-10.0-0.0","842","false","img/card_backs/set1/red.gif","img/card_backs/set1/purple.gif","img/card_backs/set1/yellow.gif","img/card_backs/set1/green.gif","img/card_backs/set2/pink.gif","img/card_backs/set2/orange.gif","img/card_backs/set2/blue.gif","img/card_backs/set2/gray.gif","""event"",""trial"",""time""
""fullscreenenter"",""1"",""2242""
","
","
","""event"",""trial"",""time""
""fullscreenenter"",""1"",""2242""
","
","","5909.100000008941","Great! Now on the next screen, try pressing '6' to select the third deck.","54","","instructions","2021-07-16 01:07:00.667","","","","","",""
"card-selection-trial","17","91162","0.0-11.0-0.0","842","false","img/card_backs/set1/red.gif","img/card_backs/set1/purple.gif","img/card_backs/set1/yellow.gif","img/card_backs/set1/green.gif","img/card_backs/set2/pink.gif","img/card_backs/set2/orange.gif","img/card_backs/set2/blue.gif","img/card_backs/set2/gray.gif","""event"",""trial"",""time""
""fullscreenenter"",""1"",""2242""
","
","
","""event"",""trial"",""time""
""fullscreenenter"",""1"",""2242""
","
","","628.1000000089407","","","","practice_card_selection","2021-07-16 01:07:03.321","img/practice_cards/backs/black.gif","2","100","","",""
"casino-keyboard-response","18","96028","0.0-12.0-0.0","842","false","img/card_backs/set1/red.gif","img/card_backs/set1/purple.gif","img/card_backs/set1/yellow.gif","img/card_backs/set1/green.gif","img/card_backs/set2/pink.gif","img/card_backs/set2/orange.gif","img/card_backs/set2/blue.gif","img/card_backs/set2/gray.gif","""event"",""trial"",""time""
""fullscreenenter"",""1"",""2242""
","
","
","""event"",""trial"",""time""
""fullscreenenter"",""1"",""2242""
","
","","4863.5999999940395","Now on the next screen, try pressing '4' to select the second deck.","52","","instructions","2021-07-16 01:07:08.187","","","","","",""
"card-selection-trial","19","98583","0.0-13.0-0.0","842","false","img/card_backs/set1/red.gif","img/card_backs/set1/purple.gif","img/card_backs/set1/yellow.gif","img/card_backs/set1/green.gif","img/card_backs/set2/pink.gif","img/card_backs/set2/orange.gif","img/card_backs/set2/blue.gif","img/card_backs/set2/gray.gif","""event"",""trial"",""time""
""fullscreenenter"",""1"",""2242""
","
","
","""event"",""trial"",""time""
""fullscreenenter"",""1"",""2242""
","
","","539.8000000119209","","","","practice_card_selection","2021-07-16 01:07:10.742","img/practice_cards/backs/dark_green.gif","1","-200","","",""
"casino-keyboard-response","20","103220","0.0-14.0-0.0","842","false","img/card_backs/set1/red.gif","img/card_backs/set1/purple.gif","img/card_backs/set1/yellow.gif","img/card_backs/set1/green.gif","img/card_backs/set2/pink.gif","img/card_backs/set2/orange.gif","img/card_backs/set2/blue.gif","img/card_backs/set2/gray.gif","""event"",""trial"",""time""
""fullscreenenter"",""1"",""2242""
","
","
","""event"",""trial"",""time""
""fullscreenenter"",""1"",""2242""
","
","","4634.399999991059","Finally, try pressing '8' to select the deck all the way on the right.","56","","instructions","2021-07-16 01:07:15.379","","","","","",""
"card-selection-trial","21","105813","0.0-15.0-0.0","842","false","img/card_backs/set1/red.gif","img/card_backs/set1/purple.gif","img/card_backs/set1/yellow.gif","img/card_backs/set1/green.gif","img/card_backs/set2/pink.gif","img/card_backs/set2/orange.gif","img/card_backs/set2/blue.gif","img/card_backs/set2/gray.gif","""event"",""trial"",""time""
""fullscreenenter"",""1"",""2242""
","
","
","""event"",""trial"",""time""
""fullscreenenter"",""1"",""2242""
","
","","572.9000000059605","","","","practice_card_selection","2021-07-16 01:07:17.972","img/practice_cards/backs/dark_green.gif","3","200","","",""
"casino-keyboard-response","22","110372","0.0-16.0-0.0","842","false","img/card_backs/set1/red.gif","img/card_backs/set1/purple.gif","img/card_backs/set1/yellow.gif","img/card_backs/set1/green.gif","img/card_backs/set2/pink.gif","img/card_backs/set2/orange.gif","img/card_backs/set2/blue.gif","img/card_backs/set2/gray.gif","""event"",""trial"",""time""
""fullscreenenter"",""1"",""2242""
","
","
","""event"",""trial"",""time""
""fullscreenenter"",""1"",""2242""
","
","","4556.699999988079","Great! It seems like you are getting the hang of this.","80","","instructions","2021-07-16 01:07:22.531","","","","","",""
"casino-keyboard-response","23","118428","0.0-16.0-0.1","842","false","img/card_backs/set1/red.gif","img/card_backs/set1/purple.gif","img/card_backs/set1/yellow.gif","img/card_backs/set1/green.gif","img/card_backs/set2/pink.gif","img/card_backs/set2/orange.gif","img/card_backs/set2/blue.gif","img/card_backs/set2/gray.gif","""event"",""trial"",""time""
""fullscreenenter"",""1"",""2242""
","
","
","""event"",""trial"",""time""
""fullscreenenter"",""1"",""2242""
","
","","8053","You may have noticed that some cards will cause you to <b> win </b> tokens while other cards will cause you to <b> lose </b>  tokens.","70","","instructions","2021-07-16 01:07:30.587","","","","","",""
"casino-keyboard-response","24","128252","0.0-16.0-0.2","842","false","img/card_backs/set1/red.gif","img/card_backs/set1/purple.gif","img/card_backs/set1/yellow.gif","img/card_backs/set1/green.gif","img/card_backs/set2/pink.gif","img/card_backs/set2/orange.gif","img/card_backs/set2/blue.gif","img/card_backs/set2/gray.gif","""event"",""trial"",""time""
""fullscreenenter"",""1"",""2242""
","
","
","""event"",""trial"",""time""
""fullscreenenter"",""1"",""2242""
","
","","9820","Each deck has a mix of cards that will cause you to win and lose tokens. </br> However, the cards in each colored deck are different.","73","","instructions","2021-07-16 01:07:40.411","","","","","",""
"casino-keyboard-response","25","138956","0.0-16.0-0.3","842","false","img/card_backs/set1/red.gif","img/card_backs/set1/purple.gif","img/card_backs/set1/yellow.gif","img/card_backs/set1/green.gif","img/card_backs/set2/pink.gif","img/card_backs/set2/orange.gif","img/card_backs/set2/blue.gif","img/card_backs/set2/gray.gif","""event"",""trial"",""time""
""fullscreenenter"",""1"",""2242""
","
","
","""event"",""trial"",""time""
""fullscreenenter"",""1"",""2242""
","
","","10700.5","Some colored decks are luckier than others. </br> If you choose the lucky decks, you will earn more tokens than if you choose the unlucky decks.","69","","instructions","2021-07-16 01:07:51.115","","","","","",""
"casino-keyboard-response","26","147996","0.0-16.0-0.4","842","false","img/card_backs/set1/red.gif","img/card_backs/set1/purple.gif","img/card_backs/set1/yellow.gif","img/card_backs/set1/green.gif","img/card_backs/set2/pink.gif","img/card_backs/set2/orange.gif","img/card_backs/set2/blue.gif","img/card_backs/set2/gray.gif","""event"",""trial"",""time""
""fullscreenenter"",""1"",""2242""
","
","
","""event"",""trial"",""time""
""fullscreenenter"",""1"",""2242""
","
","","9035.59999999404","You should try to figure out which decks are lucky. </br> Then, try to choose the lucky decks so you can win the most tokens.","87","","instructions","2021-07-16 01:08:00.155","","","","","",""
"casino-keyboard-response","27","160061","0.0-16.0-0.5","842","false","img/card_backs/set1/red.gif","img/card_backs/set1/purple.gif","img/card_backs/set1/yellow.gif","img/card_backs/set1/green.gif","img/card_backs/set2/pink.gif","img/card_backs/set2/orange.gif","img/card_backs/set2/blue.gif","img/card_backs/set2/gray.gif","""event"",""trial"",""time""
""fullscreenenter"",""1"",""2242""
","
","
","""event"",""trial"",""time""
""fullscreenenter"",""1"",""2242""
","
","","12059.79999999702","To make it trickier, the casino dealer will switch the locations of the decks on every turn. </br> The color of the deck determines how lucky it is. The location does not matter.","88","","instructions","2021-07-16 01:08:12.220","","","","","",""
"casino-keyboard-response","28","170194","0.0-16.0-0.6","842","false","img/card_backs/set1/red.gif","img/card_backs/set1/purple.gif","img/card_backs/set1/yellow.gif","img/card_backs/set1/green.gif","img/card_backs/set2/pink.gif","img/card_backs/set2/orange.gif","img/card_backs/set2/blue.gif","img/card_backs/set2/gray.gif","""event"",""trial"",""time""
""fullscreenenter"",""1"",""2242""
","
","
","""event"",""trial"",""time""
""fullscreenenter"",""1"",""2242""
","
","","10130","The mix of cards in each colored deck will stay the same throughout the game. </br> That means that a deck that is lucky early on will stay lucky.","79","","instructions","2021-07-16 01:08:22.353","","","","","",""
"casino-keyboard-response","29","179772","0.0-16.0-0.7","842","false","img/card_backs/set1/red.gif","img/card_backs/set1/purple.gif","img/card_backs/set1/yellow.gif","img/card_backs/set1/green.gif","img/card_backs/set2/pink.gif","img/card_backs/set2/orange.gif","img/card_backs/set2/blue.gif","img/card_backs/set2/gray.gif","""event"",""trial"",""time""
""fullscreenenter"",""1"",""2242""
","
","
","""event"",""trial"",""time""
""fullscreenenter"",""1"",""2242""
","
","","9575.89999999106","Remember though, all the decks have a <b> mix </b> of both <b> good </b> and <b> bad </b> cards so it may take a couple of turns to figure out if a deck is lucky.","69","","instructions","2021-07-16 01:08:31.931","","","","","",""
"casino-keyboard-response","30","188364","0.0-16.0-0.8","842","false","img/card_backs/set1/red.gif","img/card_backs/set1/purple.gif","img/card_backs/set1/yellow.gif","img/card_backs/set1/green.gif","img/card_backs/set2/pink.gif","img/card_backs/set2/orange.gif","img/card_backs/set2/blue.gif","img/card_backs/set2/gray.gif","""event"",""trial"",""time""
""fullscreenenter"",""1"",""2242""
","
","
","""event"",""trial"",""time""
""fullscreenenter"",""1"",""2242""
","
","","8588.09999999404","At the end of the game, you will be paid bonus money based on how many tokens you win. </br> If you win more tokens, you will earn more money!","72","","instructions","2021-07-16 01:08:40.523","","","","","",""
"casino-keyboard-response","31","198916","0.0-16.0-0.9","842","false","img/card_backs/set1/red.gif","img/card_backs/set1/purple.gif","img/card_backs/set1/yellow.gif","img/card_backs/set1/green.gif","img/card_backs/set2/pink.gif","img/card_backs/set2/orange.gif","img/card_backs/set2/blue.gif","img/card_backs/set2/gray.gif","""event"",""trial"",""time""
""fullscreenenter"",""1"",""2242""
","
","
","""event"",""trial"",""time""
""fullscreenenter"",""1"",""2242""
","
","","10548.39999999106","You will never <b> lose </b> money. </br> If you end up with fewer than 0 tokens, you will earn $0 of bonus money, but you will still be paid for playing the game.","83","","instructions","2021-07-16 01:08:51.075","","","","","",""
"casino-keyboard-response","32","203963","0.0-16.0-0.10","842","false","img/card_backs/set1/red.gif","img/card_backs/set1/purple.gif","img/card_backs/set1/yellow.gif","img/card_backs/set1/green.gif","img/card_backs/set2/pink.gif","img/card_backs/set2/orange.gif","img/card_backs/set2/blue.gif","img/card_backs/set2/gray.gif","""event"",""trial"",""time""
""fullscreenenter"",""1"",""2242""
","
","
","""event"",""trial"",""time""
""fullscreenenter"",""1"",""2242""
","
","","5044","You will have 10 seconds to make each choice.","82","","instructions","2021-07-16 01:08:56.122","","","","","",""
"casino-keyboard-response","33","213738","0.0-16.0-0.11","842","false","img/card_backs/set1/red.gif","img/card_backs/set1/purple.gif","img/card_backs/set1/yellow.gif","img/card_backs/set1/green.gif","img/card_backs/set2/pink.gif","img/card_backs/set2/orange.gif","img/card_backs/set2/blue.gif","img/card_backs/set2/gray.gif","""event"",""trial"",""time""
""fullscreenenter"",""1"",""2242""
","
","
","""event"",""trial"",""time""
""fullscreenenter"",""1"",""2242""
","
","","9769.79999999702","Before you play the game for real, you will play with practice decks. </br> The tokens you earn during practice won't count toward your total.","86","","instructions","2021-07-16 01:09:05.897","","","","","",""
"casino-keyboard-response","34","224660","0.0-16.0-0.12","842","false","img/card_backs/set1/red.gif","img/card_backs/set1/purple.gif","img/card_backs/set1/yellow.gif","img/card_backs/set1/green.gif","img/card_backs/set2/pink.gif","img/card_backs/set2/orange.gif","img/card_backs/set2/blue.gif","img/card_backs/set2/gray.gif","""event"",""trial"",""time""
""fullscreenenter"",""1"",""2242""
","
","
","""event"",""trial"",""time""
""fullscreenenter"",""1"",""2242""
","
","","10919.79999999702","Ready? Remember, use the '2', '4', '6', and '8' keys to select the decks. </br> Put your fingers on those keys now and then press '2' to begin.","50","","instructions","2021-07-16 01:09:16.819","","","","","",""
"casino-fixation","35","225178","0.0-17.0-0.0","842","false","img/card_backs/set1/red.gif","img/card_backs/set1/purple.gif","img/card_backs/set1/yellow.gif","img/card_backs/set1/green.gif","img/card_backs/set2/pink.gif","img/card_backs/set2/orange.gif","img/card_backs/set2/blue.gif","img/card_backs/set2/gray.gif","""event"",""trial"",""time""
""fullscreenenter"",""1"",""2242""
","
","
","""event"",""trial"",""time""
""fullscreenenter"",""1"",""2242""
","
","","null","","null","","fixation","2021-07-16 01:09:17.338","","","","","",""
"card-selection-trial","36","227960","0.0-17.0-1.0","842","false","img/card_backs/set1/red.gif","img/card_backs/set1/purple.gif","img/card_backs/set1/yellow.gif","img/card_backs/set1/green.gif","img/card_backs/set2/pink.gif","img/card_backs/set2/orange.gif","img/card_backs/set2/blue.gif","img/card_backs/set2/gray.gif","""event"",""trial"",""time""
""fullscreenenter"",""1"",""2242""
","
","
","""event"",""trial"",""time""
""fullscreenenter"",""1"",""2242""
","
","","760.8999999910593","","","","practice","2021-07-16 01:09:20.120","img/practice_cards/backs/dark_green.gif","0","-200","0","",""
"casino-fixation","37","228474","0.0-17.0-0.1","842","false","img/card_backs/set1/red.gif","img/card_backs/set1/purple.gif","img/card_backs/set1/yellow.gif","img/card_backs/set1/green.gif","img/card_backs/set2/pink.gif","img/card_backs/set2/orange.gif","img/card_backs/set2/blue.gif","img/card_backs/set2/gray.gif","""event"",""trial"",""time""
""fullscreenenter"",""1"",""2242""
","
","
","""event"",""trial"",""time""
""fullscreenenter"",""1"",""2242""
","
","","null","","null","","fixation","2021-07-16 01:09:20.634","","","","","",""
"card-selection-trial","38","231000","0.0-17.0-1.1","842","false","img/card_backs/set1/red.gif","img/card_backs/set1/purple.gif","img/card_backs/set1/yellow.gif","img/card_backs/set1/green.gif","img/card_backs/set2/pink.gif","img/card_backs/set2/orange.gif","img/card_backs/set2/blue.gif","img/card_backs/set2/gray.gif","""event"",""trial"",""time""
""fullscreenenter"",""1"",""2242""
","
","
","""event"",""trial"",""time""
""fullscreenenter"",""1"",""2242""
","
","","505.5","","","","practice","2021-07-16 01:09:23.159","img/practice_cards/backs/dark_blue.gif","2","200","0","",""
"casino-fixation","39","231514","0.0-17.0-0.2","842","false","img/card_backs/set1/red.gif","img/card_backs/set1/purple.gif","img/card_backs/set1/yellow.gif","img/card_backs/set1/green.gif","img/card_backs/set2/pink.gif","img/card_backs/set2/orange.gif","img/card_backs/set2/blue.gif","img/card_backs/set2/gray.gif","""event"",""trial"",""time""
""fullscreenenter"",""1"",""2242""
","
","
","""event"",""trial"",""time""
""fullscreenenter"",""1"",""2242""
","
","","null","","null","","fixation","2021-07-16 01:09:23.673","","","","","",""
"card-selection-trial","40","234154","0.0-17.0-1.2","842","false","img/card_backs/set1/red.gif","img/card_backs/set1/purple.gif","img/card_backs/set1/yellow.gif","img/card_backs/set1/green.gif","img/card_backs/set2/pink.gif","img/card_backs/set2/orange.gif","img/card_backs/set2/blue.gif","img/card_backs/set2/gray.gif","""event"",""trial"",""time""
""fullscreenenter"",""1"",""2242""
","
","
","""event"",""trial"",""time""
""fullscreenenter"",""1"",""2242""
","
","","617.7000000029802","","","","practice","2021-07-16 01:09:26.313","img/practice_cards/backs/black.gif","3","-100","0","",""
"casino-fixation","41","234666","0.0-17.0-0.3","842","false","img/card_backs/set1/red.gif","img/card_backs/set1/purple.gif","img/card_backs/set1/yellow.gif","img/card_backs/set1/green.gif","img/card_backs/set2/pink.gif","img/card_backs/set2/orange.gif","img/card_backs/set2/blue.gif","img/card_backs/set2/gray.gif","""event"",""trial"",""time""
""fullscreenenter"",""1"",""2242""
","
","
","""event"",""trial"",""time""
""fullscreenenter"",""1"",""2242""
","
","","null","","null","","fixation","2021-07-16 01:09:26.825","","","","","",""
"card-selection-trial","42","237291","0.0-17.0-1.3","842","false","img/card_backs/set1/red.gif","img/card_backs/set1/purple.gif","img/card_backs/set1/yellow.gif","img/card_backs/set1/green.gif","img/card_backs/set2/pink.gif","img/card_backs/set2/orange.gif","img/card_backs/set2/blue.gif","img/card_backs/set2/gray.gif","""event"",""trial"",""time""
""fullscreenenter"",""1"",""2242""
","
","
","""event"",""trial"",""time""
""fullscreenenter"",""1"",""2242""
","
","","610.1999999880791","","","","practice","2021-07-16 01:09:29.450","img/practice_cards/backs/brown.gif","3","100","0","",""
"casino-fixation","43","237803","0.0-17.0-0.4","842","false","img/card_backs/set1/red.gif","img/card_backs/set1/purple.gif","img/card_backs/set1/yellow.gif","img/card_backs/set1/green.gif","img/card_backs/set2/pink.gif","img/card_backs/set2/orange.gif","img/card_backs/set2/blue.gif","img/card_backs/set2/gray.gif","""event"",""trial"",""time""
""fullscreenenter"",""1"",""2242""
","
","
","""event"",""trial"",""time""
""fullscreenenter"",""1"",""2242""
","
","","null","","null","","fixation","2021-07-16 01:09:29.962","","","","","",""
"card-selection-trial","44","240287","0.0-17.0-1.4","842","false","img/card_backs/set1/red.gif","img/card_backs/set1/purple.gif","img/card_backs/set1/yellow.gif","img/card_backs/set1/green.gif","img/card_backs/set2/pink.gif","img/card_backs/set2/orange.gif","img/card_backs/set2/blue.gif","img/card_backs/set2/gray.gif","""event"",""trial"",""time""
""fullscreenenter"",""1"",""2242""
","
","
","""event"",""trial"",""time""
""fullscreenenter"",""1"",""2242""
","
","","472.70000000298023","","","","practice","2021-07-16 01:09:32.446","img/practice_cards/backs/black.gif","1","100","0","",""
"casino-fixation","45","240797","0.0-17.0-0.5","842","false","img/card_backs/set1/red.gif","img/card_backs/set1/purple.gif","img/card_backs/set1/yellow.gif","img/card_backs/set1/green.gif","img/card_backs/set2/pink.gif","img/card_backs/set2/orange.gif","img/card_backs/set2/blue.gif","img/card_backs/set2/gray.gif","""event"",""trial"",""time""
""fullscreenenter"",""1"",""2242""
","
","
","""event"",""trial"",""time""
""fullscreenenter"",""1"",""2242""
","
","","null","","null","","fixation","2021-07-16 01:09:32.956","","","","","",""
"card-selection-trial","46","243548","0.0-17.0-1.5","842","false","img/card_backs/set1/red.gif","img/card_backs/set1/purple.gif","img/card_backs/set1/yellow.gif","img/card_backs/set1/green.gif","img/card_backs/set2/pink.gif","img/card_backs/set2/orange.gif","img/card_backs/set2/blue.gif","img/card_backs/set2/gray.gif","""event"",""trial"",""time""
""fullscreenenter"",""1"",""2242""
","
","
","""event"",""trial"",""time""
""fullscreenenter"",""1"",""2242""
","
","","726.0999999940395","","","","practice","2021-07-16 01:09:35.708","img/practice_cards/backs/dark_blue.gif","2","-200","0","",""
"casino-fixation","47","244062","0.0-17.0-0.6","842","false","img/card_backs/set1/red.gif","img/card_backs/set1/purple.gif","img/card_backs/set1/yellow.gif","img/card_backs/set1/green.gif","img/card_backs/set2/pink.gif","img/card_backs/set2/orange.gif","img/card_backs/set2/blue.gif","img/card_backs/set2/gray.gif","""event"",""trial"",""time""
""fullscreenenter"",""1"",""2242""
","
","
","""event"",""trial"",""time""
""fullscreenenter"",""1"",""2242""
","
","","null","","null","","fixation","2021-07-16 01:09:36.221","","","","","",""
"card-selection-trial","48","246851","0.0-17.0-1.6","842","false","img/card_backs/set1/red.gif","img/card_backs/set1/purple.gif","img/card_backs/set1/yellow.gif","img/card_backs/set1/green.gif","img/card_backs/set2/pink.gif","img/card_backs/set2/orange.gif","img/card_backs/set2/blue.gif","img/card_backs/set2/gray.gif","""event"",""trial"",""time""
""fullscreenenter"",""1"",""2242""
","
","
","""event"",""trial"",""time""
""fullscreenenter"",""1"",""2242""
","
","","765.4000000059605","","","","practice","2021-07-16 01:09:39.010","img/practice_cards/backs/dark_green.gif","1","-200","0","",""
"casino-fixation","49","247365","0.0-17.0-0.7","842","false","img/card_backs/set1/red.gif","img/card_backs/set1/purple.gif","img/card_backs/set1/yellow.gif","img/card_backs/set1/green.gif","img/card_backs/set2/pink.gif","img/card_backs/set2/orange.gif","img/card_backs/set2/blue.gif","img/card_backs/set2/gray.gif","""event"",""trial"",""time""
""fullscreenenter"",""1"",""2242""
","
","
","""event"",""trial"",""time""
""fullscreenenter"",""1"",""2242""
","
","","null","","null","","fixation","2021-07-16 01:09:39.524","","","","","",""
"card-selection-trial","50","249920","0.0-17.0-1.7","842","false","img/card_backs/set1/red.gif","img/card_backs/set1/purple.gif","img/card_backs/set1/yellow.gif","img/card_backs/set1/green.gif","img/card_backs/set2/pink.gif","img/card_backs/set2/orange.gif","img/card_backs/set2/blue.gif","img/card_backs/set2/gray.gif","""event"",""trial"",""time""
""fullscreenenter"",""1"",""2242""
","
","
","""event"",""trial"",""time""
""fullscreenenter"",""1"",""2242""
","
","","542.8999999910593","","","","practice","2021-07-16 01:09:42.080","img/practice_cards/backs/dark_blue.gif","0","-200","0","",""
"casino-fixation","51","250430","0.0-17.0-0.8","842","false","img/card_backs/set1/red.gif","img/card_backs/set1/purple.gif","img/card_backs/set1/yellow.gif","img/card_backs/set1/green.gif","img/card_backs/set2/pink.gif","img/card_backs/set2/orange.gif","img/card_backs/set2/blue.gif","img/card_backs/set2/gray.gif","""event"",""trial"",""time""
""fullscreenenter"",""1"",""2242""
","
","
","""event"",""trial"",""time""
""fullscreenenter"",""1"",""2242""
","
","","null","","null","","fixation","2021-07-16 01:09:42.590","","","","","",""
"card-selection-trial","52","253677","0.0-17.0-1.8","842","false","img/card_backs/set1/red.gif","img/card_backs/set1/purple.gif","img/card_backs/set1/yellow.gif","img/card_backs/set1/green.gif","img/card_backs/set2/pink.gif","img/card_backs/set2/orange.gif","img/card_backs/set2/blue.gif","img/card_backs/set2/gray.gif","""event"",""trial"",""time""
""fullscreenenter"",""1"",""2242""
","
","
","""event"",""trial"",""time""
""fullscreenenter"",""1"",""2242""
","
","","1230.0999999940395","","","","practice","2021-07-16 01:09:45.836","img/practice_cards/backs/brown.gif","1","-100","0","",""
"casino-fixation","53","254191","0.0-17.0-0.9","842","false","img/card_backs/set1/red.gif","img/card_backs/set1/purple.gif","img/card_backs/set1/yellow.gif","img/card_backs/set1/green.gif","img/card_backs/set2/pink.gif","img/card_backs/set2/orange.gif","img/card_backs/set2/blue.gif","img/card_backs/set2/gray.gif","""event"",""trial"",""time""
""fullscreenenter"",""1"",""2242""
","
","
","""event"",""trial"",""time""
""fullscreenenter"",""1"",""2242""
","
","","null","","null","","fixation","2021-07-16 01:09:46.350","","","","","",""
"card-selection-trial","54","257565","0.0-17.0-1.9","842","false","img/card_backs/set1/red.gif","img/card_backs/set1/purple.gif","img/card_backs/set1/yellow.gif","img/card_backs/set1/green.gif","img/card_backs/set2/pink.gif","img/card_backs/set2/orange.gif","img/card_backs/set2/blue.gif","img/card_backs/set2/gray.gif","""event"",""trial"",""time""
""fullscreenenter"",""1"",""2242""
","
","
","""event"",""trial"",""time""
""fullscreenenter"",""1"",""2242""
","
","","1365.300000011921","","","","practice","2021-07-16 01:09:49.725","img/practice_cards/backs/black.gif","2","-100","0","",""
"casino-keyboard-response","55","260765","0.0-18.0","842","false","img/card_backs/set1/red.gif","img/card_backs/set1/purple.gif","img/card_backs/set1/yellow.gif","img/card_backs/set1/green.gif","img/card_backs/set2/pink.gif","img/card_backs/set2/orange.gif","img/card_backs/set2/blue.gif","img/card_backs/set2/gray.gif","""event"",""trial"",""time""
""fullscreenenter"",""1"",""2242""
","
","
","""event"",""trial"",""time""
""fullscreenenter"",""1"",""2242""
","
","","3196.7999999970198","You earned -700 tokens during the practice round!","82","","","2021-07-16 01:09:52.924","","","","","",""
"casino-keyboard-response","56","266426","0.0-19.0-0.0","842","false","img/card_backs/set1/red.gif","img/card_backs/set1/purple.gif","img/card_backs/set1/yellow.gif","img/card_backs/set1/green.gif","img/card_backs/set2/pink.gif","img/card_backs/set2/orange.gif","img/card_backs/set2/blue.gif","img/card_backs/set2/gray.gif","""event"",""trial"",""time""
""fullscreenenter"",""1"",""2242""
","
","
","""event"",""trial"",""time""
""fullscreenenter"",""1"",""2242""
","
","","5658.5","Nice job! You are almost ready to play the real game.","86","","instructions","2021-07-16 01:09:58.585","","","","","",""
"casino-keyboard-response","57","273787","0.0-19.0-0.1","842","false","img/card_backs/set1/red.gif","img/card_backs/set1/purple.gif","img/card_backs/set1/yellow.gif","img/card_backs/set1/green.gif","img/card_backs/set2/pink.gif","img/card_backs/set2/orange.gif","img/card_backs/set2/blue.gif","img/card_backs/set2/gray.gif","""event"",""trial"",""time""
""fullscreenenter"",""1"",""2242""
","
","
","""event"",""trial"",""time""
""fullscreenenter"",""1"",""2242""
","
","","7358.79999999702","You will play two rounds of the real game. In each round, you will pick 100 cards in total.","73","","instructions","2021-07-16 01:10:05.946","","","","","",""
"casino-keyboard-response","58","278292","0.0-19.0-0.2","842","false","img/card_backs/set1/red.gif","img/card_backs/set1/purple.gif","img/card_backs/set1/yellow.gif","img/card_backs/set1/green.gif","img/card_backs/set2/pink.gif","img/card_backs/set2/orange.gif","img/card_backs/set2/blue.gif","img/card_backs/set2/gray.gif","""event"",""trial"",""time""
""fullscreenenter"",""1"",""2242""
","
","
","""event"",""trial"",""time""
""fullscreenenter"",""1"",""2242""
","
","","4503.699999988079","We are now going to ask you some questions about how the game works.","66","","instructions","2021-07-16 01:10:10.451","","","","","",""
"casino-keyboard-response","59","284757","0.0-19.0-0.3","842","false","img/card_backs/set1/red.gif","img/card_backs/set1/purple.gif","img/card_backs/set1/yellow.gif","img/card_backs/set1/green.gif","img/card_backs/set2/pink.gif","img/card_backs/set2/orange.gif","img/card_backs/set2/blue.gif","img/card_backs/set2/gray.gif","""event"",""trial"",""time""
""fullscreenenter"",""1"",""2242""
","
","
","""event"",""trial"",""time""
""fullscreenenter"",""1"",""2242""
","
","","6461.9000000059605","Answer carefully. You will not be able to begin the game until you answer them correctly.","67","","instructions","2021-07-16 01:10:16.916","","","","","",""
"casino-comp_q","60","291741","0.0-20.0-0.0","842","false","img/card_backs/set1/red.gif","img/card_backs/set1/purple.gif","img/card_backs/set1/yellow.gif","img/card_backs/set1/green.gif","img/card_backs/set2/pink.gif","img/card_backs/set2/orange.gif","img/card_backs/set2/blue.gif","img/card_backs/set2/gray.gif","""event"",""trial"",""time""
""fullscreenenter"",""1"",""2242""
","
","
","""event"",""trial"",""time""
""fullscreenenter"",""1"",""2242""
","
","","6979.399999991059","True or False: All the decks have some cards that cause you to win tokens and some cards that cause you to lose tokens.","84","","","2021-07-16 01:10:23.900","","","","","",""
"casino-keyboard-response","61","295508","0.0-20.0-1.0","842","false","img/card_backs/set1/red.gif","img/card_backs/set1/purple.gif","img/card_backs/set1/yellow.gif","img/card_backs/set1/green.gif","img/card_backs/set2/pink.gif","img/card_backs/set2/orange.gif","img/card_backs/set2/blue.gif","img/card_backs/set2/gray.gif","""event"",""trial"",""time""
""fullscreenenter"",""1"",""2242""
","
","
","""event"",""trial"",""time""
""fullscreenenter"",""1"",""2242""
","
","","3764.2999999970198","True is correct! All the decks have a mix of winning and losing cards.","77","","","2021-07-16 01:10:27.668","","","","","true",""
"casino-comp_q","62","299972","0.0-21.0-0.0","842","false","img/card_backs/set1/red.gif","img/card_backs/set1/purple.gif","img/card_backs/set1/yellow.gif","img/card_backs/set1/green.gif","img/card_backs/set2/pink.gif","img/card_backs/set2/orange.gif","img/card_backs/set2/blue.gif","img/card_backs/set2/gray.gif","""event"",""trial"",""time""
""fullscreenenter"",""1"",""2242""
","
","
","""event"",""trial"",""time""
""fullscreenenter"",""1"",""2242""
","
","","4459.5999999940395","True or False: You will have as much time as you want to make your response.","70","","","2021-07-16 01:10:32.131","","","","","",""
"casino-keyboard-response","63","305428","0.0-21.0-1.0","842","false","img/card_backs/set1/red.gif","img/card_backs/set1/purple.gif","img/card_backs/set1/yellow.gif","img/card_backs/set1/green.gif","img/card_backs/set2/pink.gif","img/card_backs/set2/orange.gif","img/card_backs/set2/blue.gif","img/card_backs/set2/gray.gif","""event"",""trial"",""time""
""fullscreenenter"",""1"",""2242""
","
","
","""event"",""trial"",""time""
""fullscreenenter"",""1"",""2242""
","
","","5448","False is correct! You will only have 10 seconds to make each choice.","75","","","2021-07-16 01:10:37.587","","","","","true",""
"casino-comp_q","64","309556","0.0-22.0-0.0","842","false","img/card_backs/set1/red.gif","img/card_backs/set1/purple.gif","img/card_backs/set1/yellow.gif","img/card_backs/set1/green.gif","img/card_backs/set2/pink.gif","img/card_backs/set2/orange.gif","img/card_backs/set2/blue.gif","img/card_backs/set2/gray.gif","""event"",""trial"",""time""
""fullscreenenter"",""1"",""2242""
","
","
","""event"",""trial"",""time""
""fullscreenenter"",""1"",""2242""
","
","","4125.399999991059","True or False: The location of the deck determines how lucky it is.","70","","","2021-07-16 01:10:41.715","","","","","",""
"casino-keyboard-response","65","313132","0.0-22.0-1.0","842","false","img/card_backs/set1/red.gif","img/card_backs/set1/purple.gif","img/card_backs/set1/yellow.gif","img/card_backs/set1/green.gif","img/card_backs/set2/pink.gif","img/card_backs/set2/orange.gif","img/card_backs/set2/blue.gif","img/card_backs/set2/gray.gif","""event"",""trial"",""time""
""fullscreenenter"",""1"",""2242""
","
","
","""event"",""trial"",""time""
""fullscreenenter"",""1"",""2242""
","
","","3572.5999999940395","False is correct! The <i>color</i>  of the deck determines how lucky or unlucky it is.","68","","","2021-07-16 01:10:45.291","","","","","true",""
"casino-keyboard-response","66","318260","0.0-23.0-0.0","842","false","img/card_backs/set1/red.gif","img/card_backs/set1/purple.gif","img/card_backs/set1/yellow.gif","img/card_backs/set1/green.gif","img/card_backs/set2/pink.gif","img/card_backs/set2/orange.gif","img/card_backs/set2/blue.gif","img/card_backs/set2/gray.gif","""event"",""trial"",""time""
""fullscreenenter"",""1"",""2242""
","
","
","""event"",""trial"",""time""
""fullscreenenter"",""1"",""2242""
","
","","5124.5","Great job! Now it's time to start the real game.","82","","instructions","2021-07-16 01:10:50.419","","","","","",""
"casino-keyboard-response","67","323788","0.0-23.0-0.1","842","false","img/card_backs/set1/red.gif","img/card_backs/set1/purple.gif","img/card_backs/set1/yellow.gif","img/card_backs/set1/green.gif","img/card_backs/set2/pink.gif","img/card_backs/set2/orange.gif","img/card_backs/set2/blue.gif","img/card_backs/set2/gray.gif","""event"",""trial"",""time""
""fullscreenenter"",""1"",""2242""
","
","
","""event"",""trial"",""time""
""fullscreenenter"",""1"",""2242""
","
","","5525.699999988079","Before we start, we're going to head into a new room of the casino.","86","","instructions","2021-07-16 01:10:55.947","","","","","",""
"casino-keyboard-response","68","330291","0.0-24.0-0.0","842","false","img/card_backs/set1/red.gif","img/card_backs/set1/purple.gif","img/card_backs/set1/yellow.gif","img/card_backs/set1/green.gif","img/card_backs/set2/pink.gif","img/card_backs/set2/orange.gif","img/card_backs/set2/blue.gif","img/card_backs/set2/gray.gif","""event"",""trial"",""time""
""fullscreenenter"",""1"",""2242""
","
","
","""event"",""trial"",""time""
""fullscreenenter"",""1"",""2242""
","
","","6500","Here we are! The real game will use different cards, but the rules will be the same.","71","","instructions","2021-07-16 01:11:02.451","","","","","",""
"casino-keyboard-response","69","339163","0.0-24.0-0.1","842","false","img/card_backs/set1/red.gif","img/card_backs/set1/purple.gif","img/card_backs/set1/yellow.gif","img/card_backs/set1/green.gif","img/card_backs/set2/pink.gif","img/card_backs/set2/orange.gif","img/card_backs/set2/blue.gif","img/card_backs/set2/gray.gif","""event"",""trial"",""time""
""fullscreenenter"",""1"",""2242""
","
","
","""event"",""trial"",""time""
""fullscreenenter"",""1"",""2242""
","
","","8867.699999988079","Ready? Put your fingers over the '2', '4', 6', and '8' keys so you are ready to play the game. </br> Then press 2 to start.","50","","instructions","2021-07-16 01:11:11.322","","","","","",""
"casino-fixation","70","339677","0.0-25.0-0.0","842","false","img/card_backs/set1/red.gif","img/card_backs/set1/purple.gif","img/card_backs/set1/yellow.gif","img/card_backs/set1/green.gif","img/card_backs/set2/pink.gif","img/card_backs/set2/orange.gif","img/card_backs/set2/blue.gif","img/card_backs/set2/gray.gif","""event"",""trial"",""time""
""fullscreenenter"",""1"",""2242""
","
","
","""event"",""trial"",""time""
""fullscreenenter"",""1"",""2242""
","
","","null","","null","","fixation","2021-07-16 01:11:11.836","","","","","",""
"card-selection-trial","71","342625","0.0-25.0-1.0","842","false","img/card_backs/set1/red.gif","img/card_backs/set1/purple.gif","img/card_backs/set1/yellow.gif","img/card_backs/set1/green.gif","img/card_backs/set2/pink.gif","img/card_backs/set2/orange.gif","img/card_backs/set2/blue.gif","img/card_backs/set2/gray.gif","""event"",""trial"",""time""
""fullscreenenter"",""1"",""2242""
","
","
","""event"",""trial"",""time""
""fullscreenenter"",""1"",""2242""
","
","","933.0999999940395","","","","real_trial","2021-07-16 01:11:14.784","img/card_backs/set1/purple.gif","1","-230","1","",""
"casino-fixation","72","343138","0.0-25.0-0.1","842","false","img/card_backs/set1/red.gif","img/card_backs/set1/purple.gif","img/card_backs/set1/yellow.gif","img/card_backs/set1/green.gif","img/card_backs/set2/pink.gif","img/card_backs/set2/orange.gif","img/card_backs/set2/blue.gif","img/card_backs/set2/gray.gif","""event"",""trial"",""time""
""fullscreenenter"",""1"",""2242""
","
","
","""event"",""trial"",""time""
""fullscreenenter"",""1"",""2242""
","
","","null","","null","","fixation","2021-07-16 01:11:15.297","","","","","",""
"card-selection-trial","73","345744","0.0-25.0-1.1","842","false","img/card_backs/set1/red.gif","img/card_backs/set1/purple.gif","img/card_backs/set1/yellow.gif","img/card_backs/set1/green.gif","img/card_backs/set2/pink.gif","img/card_backs/set2/orange.gif","img/card_backs/set2/blue.gif","img/card_backs/set2/gray.gif","""event"",""trial"",""time""
""fullscreenenter"",""1"",""2242""
","
","
","""event"",""trial"",""time""
""fullscreenenter"",""1"",""2242""
","
","","578.6000000089407","","","","real_trial","2021-07-16 01:11:17.904","img/card_backs/set1/yellow.gif","0","120","1","",""
"casino-fixation","74","346258","0.0-25.0-0.2","842","false","img/card_backs/set1/red.gif","img/card_backs/set1/purple.gif","img/card_backs/set1/yellow.gif","img/card_backs/set1/green.gif","img/card_backs/set2/pink.gif","img/card_backs/set2/orange.gif","img/card_backs/set2/blue.gif","img/card_backs/set2/gray.gif","""event"",""trial"",""time""
""fullscreenenter"",""1"",""2242""
","
","
","""event"",""trial"",""time""
""fullscreenenter"",""1"",""2242""
","
","","null","","null","","fixation","2021-07-16 01:11:18.417","","","","","",""
"card-selection-trial","75","348995","0.0-25.0-1.2","842","false","img/card_backs/set1/red.gif","img/card_backs/set1/purple.gif","img/card_backs/set1/yellow.gif","img/card_backs/set1/green.gif","img/card_backs/set2/pink.gif","img/card_backs/set2/orange.gif","img/card_backs/set2/blue.gif","img/card_backs/set2/gray.gif","""event"",""trial"",""time""
""fullscreenenter"",""1"",""2242""
","
","
","""event"",""trial"",""time""
""fullscreenenter"",""1"",""2242""
","
","","712","","","","real_trial","2021-07-16 01:11:21.154","img/card_backs/set1/yellow.gif","3","110","1","",""
"casino-fixation","76","349507","0.0-25.0-0.3","842","false","img/card_backs/set1/red.gif","img/card_backs/set1/purple.gif","img/card_backs/set1/yellow.gif","img/card_backs/set1/green.gif","img/card_backs/set2/pink.gif","img/card_backs/set2/orange.gif","img/card_backs/set2/blue.gif","img/card_backs/set2/gray.gif","""event"",""trial"",""time""
""fullscreenenter"",""1"",""2242""
","
","
","""event"",""trial"",""time""
""fullscreenenter"",""1"",""2242""
","
","","null","","null","","fixation","2021-07-16 01:11:21.666","","","","","",""
"card-selection-trial","77","352156","0.0-25.0-1.3","842","false","img/card_backs/set1/red.gif","img/card_backs/set1/purple.gif","img/card_backs/set1/yellow.gif","img/card_backs/set1/green.gif","img/card_backs/set2/pink.gif","img/card_backs/set2/orange.gif","img/card_backs/set2/blue.gif","img/card_backs/set2/gray.gif","""event"",""trial"",""time""
""fullscreenenter"",""1"",""2242""
","
","
","""event"",""trial"",""time""
""fullscreenenter"",""1"",""2242""
","
","","635.6000000089407","","","","real_trial","2021-07-16 01:11:24.315","img/card_backs/set1/yellow.gif","2","120","1","",""
"casino-fixation","78","352667","0.0-25.0-0.4","842","false","img/card_backs/set1/red.gif","img/card_backs/set1/purple.gif","img/card_backs/set1/yellow.gif","img/card_backs/set1/green.gif","img/card_backs/set2/pink.gif","img/card_backs/set2/orange.gif","img/card_backs/set2/blue.gif","img/card_backs/set2/gray.gif","""event"",""trial"",""time""
""fullscreenenter"",""1"",""2242""
","
","
","""event"",""trial"",""time""
""fullscreenenter"",""1"",""2242""
","
","","null","","null","","fixation","2021-07-16 01:11:24.826","","","","","",""
"card-selection-trial","79","355402","0.0-25.0-1.4","842","false","img/card_backs/set1/red.gif","img/card_backs/set1/purple.gif","img/card_backs/set1/yellow.gif","img/card_backs/set1/green.gif","img/card_backs/set2/pink.gif","img/card_backs/set2/orange.gif","img/card_backs/set2/blue.gif","img/card_backs/set2/gray.gif","""event"",""trial"",""time""
""fullscreenenter"",""1"",""2242""
","
","
","""event"",""trial"",""time""
""fullscreenenter"",""1"",""2242""
","
","","713","","","","real_trial","2021-07-16 01:11:27.561","img/card_backs/set1/yellow.gif","1","-60","1","",""
"casino-fixation","80","355906","0.0-25.0-0.5","842","false","img/card_backs/set1/red.gif","img/card_backs/set1/purple.gif","img/card_backs/set1/yellow.gif","img/card_backs/set1/green.gif","img/card_backs/set2/pink.gif","img/card_backs/set2/orange.gif","img/card_backs/set2/blue.gif","img/card_backs/set2/gray.gif","""event"",""trial"",""time""
""fullscreenenter"",""1"",""2242""
","
","
","""event"",""trial"",""time""
""fullscreenenter"",""1"",""2242""
","
","","null","","null","","fixation","2021-07-16 01:11:28.065","","","","","",""
"card-selection-trial","81","358465","0.0-25.0-1.5","842","false","img/card_backs/set1/red.gif","img/card_backs/set1/purple.gif","img/card_backs/set1/yellow.gif","img/card_backs/set1/green.gif","img/card_backs/set2/pink.gif","img/card_backs/set2/orange.gif","img/card_backs/set2/blue.gif","img/card_backs/set2/gray.gif","""event"",""trial"",""time""
""fullscreenenter"",""1"",""2242""
","
","
","""event"",""trial"",""time""
""fullscreenenter"",""1"",""2242""
","
","","537.7999999970198","","","","real_trial","2021-07-16 01:11:30.624","img/card_backs/set1/yellow.gif","3","100","1","",""
"casino-fixation","82","358980","0.0-25.0-0.6","842","false","img/card_backs/set1/red.gif","img/card_backs/set1/purple.gif","img/card_backs/set1/yellow.gif","img/card_backs/set1/green.gif","img/card_backs/set2/pink.gif","img/card_backs/set2/orange.gif","img/card_backs/set2/blue.gif","img/card_backs/set2/gray.gif","""event"",""trial"",""time""
""fullscreenenter"",""1"",""2242""
","
","
","""event"",""trial"",""time""
""fullscreenenter"",""1"",""2242""
","
","","null","","null","","fixation","2021-07-16 01:11:31.139","","","","","",""
"card-selection-trial","83","361676","0.0-25.0-1.6","842","false","img/card_backs/set1/red.gif","img/card_backs/set1/purple.gif","img/card_backs/set1/yellow.gif","img/card_backs/set1/green.gif","img/card_backs/set2/pink.gif","img/card_backs/set2/orange.gif","img/card_backs/set2/blue.gif","img/card_backs/set2/gray.gif","""event"",""trial"",""time""
""fullscreenenter"",""1"",""2242""
","
","
","""event"",""trial"",""time""
""fullscreenenter"",""1"",""2242""
","
","","671.2000000029802","","","","real_trial","2021-07-16 01:11:33.835","img/card_backs/set1/yellow.gif","1","120","1","",""
"casino-fixation","84","362190","0.0-25.0-0.7","842","false","img/card_backs/set1/red.gif","img/card_backs/set1/purple.gif","img/card_backs/set1/yellow.gif","img/card_backs/set1/green.gif","img/card_backs/set2/pink.gif","img/card_backs/set2/orange.gif","img/card_backs/set2/blue.gif","img/card_backs/set2/gray.gif","""event"",""trial"",""time""
""fullscreenenter"",""1"",""2242""
","
","
","""event"",""trial"",""time""
""fullscreenenter"",""1"",""2242""
","
","","null","","null","","fixation","2021-07-16 01:11:34.349","","","","","",""
"card-selection-trial","85","364776","0.0-25.0-1.7","842","false","img/card_backs/set1/red.gif","img/card_backs/set1/purple.gif","img/card_backs/set1/yellow.gif","img/card_backs/set1/green.gif","img/card_backs/set2/pink.gif","img/card_backs/set2/orange.gif","img/card_backs/set2/blue.gif","img/card_backs/set2/gray.gif","""event"",""trial"",""time""
""fullscreenenter"",""1"",""2242""
","
","
","""event"",""trial"",""time""
""fullscreenenter"",""1"",""2242""
","
","","566.9000000059605","","","","real_trial","2021-07-16 01:11:36.935","img/card_backs/set1/yellow.gif","3","-60","1","",""
"casino-fixation","86","365285","0.0-25.0-0.8","842","false","img/card_backs/set1/red.gif","img/card_backs/set1/purple.gif","img/card_backs/set1/yellow.gif","img/card_backs/set1/green.gif","img/card_backs/set2/pink.gif","img/card_backs/set2/orange.gif","img/card_backs/set2/blue.gif","img/card_backs/set2/gray.gif","""event"",""trial"",""time""
""fullscreenenter"",""1"",""2242""
","
","
","""event"",""trial"",""time""
""fullscreenenter"",""1"",""2242""
","
","","null","","null","","fixation","2021-07-16 01:11:37.444","","","","","",""
"card-selection-trial","87","367905","0.0-25.0-1.8","842","false","img/card_backs/set1/red.gif","img/card_backs/set1/purple.gif","img/card_backs/set1/yellow.gif","img/card_backs/set1/green.gif","img/card_backs/set2/pink.gif","img/card_backs/set2/orange.gif","img/card_backs/set2/blue.gif","img/card_backs/set2/gray.gif","""event"",""trial"",""time""
""fullscreenenter"",""1"",""2242""
","
","
","""event"",""trial"",""time""
""fullscreenenter"",""1"",""2242""
","
","","607","","","","real_trial","2021-07-16 01:11:40.065","img/card_backs/set1/yellow.gif","3","100","1","",""
"casino-fixation","88","368421","0.0-25.0-0.9","842","false","img/card_backs/set1/red.gif","img/card_backs/set1/purple.gif","img/card_backs/set1/yellow.gif","img/card_backs/set1/green.gif","img/card_backs/set2/pink.gif","img/card_backs/set2/orange.gif","img/card_backs/set2/blue.gif","img/card_backs/set2/gray.gif","""event"",""trial"",""time""
""fullscreenenter"",""1"",""2242""
","
","
","""event"",""trial"",""time""
""fullscreenenter"",""1"",""2242""
","
","","null","","null","","fixation","2021-07-16 01:11:40.580","","","","","",""
"card-selection-trial","89","371677","0.0-25.0-1.9","842","false","img/card_backs/set1/red.gif","img/card_backs/set1/purple.gif","img/card_backs/set1/yellow.gif","img/card_backs/set1/green.gif","img/card_backs/set2/pink.gif","img/card_backs/set2/orange.gif","img/card_backs/set2/blue.gif","img/card_backs/set2/gray.gif","""event"",""trial"",""time""
""fullscreenenter"",""1"",""2242""
","
","
","""event"",""trial"",""time""
""fullscreenenter"",""1"",""2242""
","
","","1246.8999999910593","","","","real_trial","2021-07-16 01:11:43.836","img/card_backs/set1/green.gif","1","-70","1","",""
"casino-fixation","90","372180","0.0-25.0-0.10","842","false","img/card_backs/set1/red.gif","img/card_backs/set1/purple.gif","img/card_backs/set1/yellow.gif","img/card_backs/set1/green.gif","img/card_backs/set2/pink.gif","img/card_backs/set2/orange.gif","img/card_backs/set2/blue.gif","img/card_backs/set2/gray.gif","""event"",""trial"",""time""
""fullscreenenter"",""1"",""2242""
","
","
","""event"",""trial"",""time""
""fullscreenenter"",""1"",""2242""
","
","","null","","null","","fixation","2021-07-16 01:11:44.339","","","","","",""
"card-selection-trial","91","375935","0.0-25.0-1.10","842","false","img/card_backs/set1/red.gif","img/card_backs/set1/purple.gif","img/card_backs/set1/yellow.gif","img/card_backs/set1/green.gif","img/card_backs/set2/pink.gif","img/card_backs/set2/orange.gif","img/card_backs/set2/blue.gif","img/card_backs/set2/gray.gif","""event"",""trial"",""time""
""fullscreenenter"",""1"",""2242""
","
","
","""event"",""trial"",""time""
""fullscreenenter"",""1"",""2242""
","
","","1745","","","","real_trial","2021-07-16 01:11:48.094","img/card_backs/set1/purple.gif","3","200","1","",""
"casino-fixation","92","376439","0.0-25.0-0.11","842","false","img/card_backs/set1/red.gif","img/card_backs/set1/purple.gif","img/card_backs/set1/yellow.gif","img/card_backs/set1/green.gif","img/card_backs/set2/pink.gif","img/card_backs/set2/orange.gif","img/card_backs/set2/blue.gif","img/card_backs/set2/gray.gif","""event"",""trial"",""time""
""fullscreenenter"",""1"",""2242""
","
","
","""event"",""trial"",""time""
""fullscreenenter"",""1"",""2242""
","
","","null","","null","","fixation","2021-07-16 01:11:48.598","","","","","",""
"card-selection-trial","93","379029","0.0-25.0-1.11","842","false","img/card_backs/set1/red.gif","img/card_backs/set1/purple.gif","img/card_backs/set1/yellow.gif","img/card_backs/set1/green.gif","img/card_backs/set2/pink.gif","img/card_backs/set2/orange.gif","img/card_backs/set2/blue.gif","img/card_backs/set2/gray.gif","""event"",""trial"",""time""
""fullscreenenter"",""1"",""2242""
","
","
","""event"",""trial"",""time""
""fullscreenenter"",""1"",""2242""
","
","","581.6000000089407","","","","real_trial","2021-07-16 01:11:51.188","img/card_backs/set1/purple.gif","0","180","1","",""
"casino-fixation","94","379545","0.0-25.0-0.12","842","false","img/card_backs/set1/red.gif","img/card_backs/set1/purple.gif","img/card_backs/set1/yellow.gif","img/card_backs/set1/green.gif","img/card_backs/set2/pink.gif","img/card_backs/set2/orange.gif","img/card_backs/set2/blue.gif","img/card_backs/set2/gray.gif","""event"",""trial"",""time""
""fullscreenenter"",""1"",""2242""
","
","
","""event"",""trial"",""time""
""fullscreenenter"",""1"",""2242""
","
","","null","","null","","fixation","2021-07-16 01:11:51.704","","","","","",""
"card-selection-trial","95","382295","0.0-25.0-1.12","842","false","img/card_backs/set1/red.gif","img/card_backs/set1/purple.gif","img/card_backs/set1/yellow.gif","img/card_backs/set1/green.gif","img/card_backs/set2/pink.gif","img/card_backs/set2/orange.gif","img/card_backs/set2/blue.gif","img/card_backs/set2/gray.gif","""event"",""trial"",""time""
""fullscreenenter"",""1"",""2242""
","
","
","""event"",""trial"",""time""
""fullscreenenter"",""1"",""2242""
","
","","739.3000000119209","","","","real_trial","2021-07-16 01:11:54.454","img/card_backs/set1/purple.gif","2","-240","1","",""
"casino-fixation","96","382797","0.0-25.0-0.13","842","false","img/card_backs/set1/red.gif","img/card_backs/set1/purple.gif","img/card_backs/set1/yellow.gif","img/card_backs/set1/green.gif","img/card_backs/set2/pink.gif","img/card_backs/set2/orange.gif","img/card_backs/set2/blue.gif","img/card_backs/set2/gray.gif","""event"",""trial"",""time""
""fullscreenenter"",""1"",""2242""
","
","
","""event"",""trial"",""time""
""fullscreenenter"",""1"",""2242""
","
","","null","","null","","fixation","2021-07-16 01:11:54.956","","","","","",""
"card-selection-trial","97","385917","0.0-25.0-1.13","842","false","img/card_backs/set1/red.gif","img/card_backs/set1/purple.gif","img/card_backs/set1/yellow.gif","img/card_backs/set1/green.gif","img/card_backs/set2/pink.gif","img/card_backs/set2/orange.gif","img/card_backs/set2/blue.gif","img/card_backs/set2/gray.gif","""event"",""trial"",""time""
""fullscreenenter"",""1"",""2242""
","
","
","""event"",""trial"",""time""
""fullscreenenter"",""1"",""2242""
","
","","1111.5","","","","real_trial","2021-07-16 01:11:58.076","img/card_backs/set1/purple.gif","3","190","1","",""
"casino-fixation","98","386420","0.0-25.0-0.14","842","false","img/card_backs/set1/red.gif","img/card_backs/set1/purple.gif","img/card_backs/set1/yellow.gif","img/card_backs/set1/green.gif","img/card_backs/set2/pink.gif","img/card_backs/set2/orange.gif","img/card_backs/set2/blue.gif","img/card_backs/set2/gray.gif","""event"",""trial"",""time""
""fullscreenenter"",""1"",""2242""
","
","
","""event"",""trial"",""time""
""fullscreenenter"",""1"",""2242""
","
","","null","","null","","fixation","2021-07-16 01:11:58.579","","","","","",""
"card-selection-trial","99","389630","0.0-25.0-1.14","842","false","img/card_backs/set1/red.gif","img/card_backs/set1/purple.gif","img/card_backs/set1/yellow.gif","img/card_backs/set1/green.gif","img/card_backs/set2/pink.gif","img/card_backs/set2/orange.gif","img/card_backs/set2/blue.gif","img/card_backs/set2/gray.gif","""event"",""trial"",""time""
""fullscreenenter"",""1"",""2242""
","
","
","""event"",""trial"",""time""
""fullscreenenter"",""1"",""2242""
","
","","1200.5","","","","real_trial","2021-07-16 01:12:01.789","img/card_backs/set1/red.gif","0","-250","1","",""
"casino-fixation","100","390133","0.0-25.0-0.15","842","false","img/card_backs/set1/red.gif","img/card_backs/set1/purple.gif","img/card_backs/set1/yellow.gif","img/card_backs/set1/green.gif","img/card_backs/set2/pink.gif","img/card_backs/set2/orange.gif","img/card_backs/set2/blue.gif","img/card_backs/set2/gray.gif","""event"",""trial"",""time""
""fullscreenenter"",""1"",""2242""
","
","
","""event"",""trial"",""time""
""fullscreenenter"",""1"",""2242""
","
","","null","","null","","fixation","2021-07-16 01:12:02.293","","","","","",""
"card-selection-trial","101","392693","0.0-25.0-1.15","842","false","img/card_backs/set1/red.gif","img/card_backs/set1/purple.gif","img/card_backs/set1/yellow.gif","img/card_backs/set1/green.gif","img/card_backs/set2/pink.gif","img/card_backs/set2/orange.gif","img/card_backs/set2/blue.gif","img/card_backs/set2/gray.gif","""event"",""trial"",""time""
""fullscreenenter"",""1"",""2242""
","
","
","""event"",""trial"",""time""
""fullscreenenter"",""1"",""2242""
","
","","550.2000000029802","","","","real_trial","2021-07-16 01:12:04.852","img/card_backs/set1/red.gif","0","190","1","",""
"casino-fixation","102","393194","0.0-25.0-0.16","842","false","img/card_backs/set1/red.gif","img/card_backs/set1/purple.gif","img/card_backs/set1/yellow.gif","img/card_backs/set1/green.gif","img/card_backs/set2/pink.gif","img/card_backs/set2/orange.gif","img/card_backs/set2/blue.gif","img/card_backs/set2/gray.gif","""event"",""trial"",""time""
""fullscreenenter"",""1"",""2242""
","
","
","""event"",""trial"",""time""
""fullscreenenter"",""1"",""2242""
","
","","null","","null","","fixation","2021-07-16 01:12:05.353","","","","","",""
"card-selection-trial","103","395932","0.0-25.0-1.16","842","false","img/card_backs/set1/red.gif","img/card_backs/set1/purple.gif","img/card_backs/set1/yellow.gif","img/card_backs/set1/green.gif","img/card_backs/set2/pink.gif","img/card_backs/set2/orange.gif","img/card_backs/set2/blue.gif","img/card_backs/set2/gray.gif","""event"",""trial"",""time""
""fullscreenenter"",""1"",""2242""
","
","
","""event"",""trial"",""time""
""fullscreenenter"",""1"",""2242""
","
","","733.5","","","","real_trial","2021-07-16 01:12:08.091","img/card_backs/set1/green.gif","1","-50","1","",""
"casino-fixation","104","396435","0.0-25.0-0.17","842","false","img/card_backs/set1/red.gif","img/card_backs/set1/purple.gif","img/card_backs/set1/yellow.gif","img/card_backs/set1/green.gif","img/card_backs/set2/pink.gif","img/card_backs/set2/orange.gif","img/card_backs/set2/blue.gif","img/card_backs/set2/gray.gif","""event"",""trial"",""time""
""fullscreenenter"",""1"",""2242""
","
","
","""event"",""trial"",""time""
""fullscreenenter"",""1"",""2242""
","
","","null","","null","","fixation","2021-07-16 01:12:08.595","","","","","",""
"card-selection-trial","105","399078","0.0-25.0-1.17","842","false","img/card_backs/set1/red.gif","img/card_backs/set1/purple.gif","img/card_backs/set1/yellow.gif","img/card_backs/set1/green.gif","img/card_backs/set2/pink.gif","img/card_backs/set2/orange.gif","img/card_backs/set2/blue.gif","img/card_backs/set2/gray.gif","""event"",""trial"",""time""
""fullscreenenter"",""1"",""2242""
","
","
","""event"",""trial"",""time""
""fullscreenenter"",""1"",""2242""
","
","","633","","","","real_trial","2021-07-16 01:12:11.237","img/card_backs/set1/yellow.gif","1","-50","1","",""
"casino-fixation","106","399580","0.0-25.0-0.18","842","false","img/card_backs/set1/red.gif","img/card_backs/set1/purple.gif","img/card_backs/set1/yellow.gif","img/card_backs/set1/green.gif","img/card_backs/set2/pink.gif","img/card_backs/set2/orange.gif","img/card_backs/set2/blue.gif","img/card_backs/set2/gray.gif","""event"",""trial"",""time""
""fullscreenenter"",""1"",""2242""
","
","
","""event"",""trial"",""time""
""fullscreenenter"",""1"",""2242""
","
","","null","","null","","fixation","2021-07-16 01:12:11.740","","","","","",""
"card-selection-trial","107","402710","0.0-25.0-1.18","842","false","img/card_backs/set1/red.gif","img/card_backs/set1/purple.gif","img/card_backs/set1/yellow.gif","img/card_backs/set1/green.gif","img/card_backs/set2/pink.gif","img/card_backs/set2/orange.gif","img/card_backs/set2/blue.gif","img/card_backs/set2/gray.gif","""event"",""trial"",""time""
""fullscreenenter"",""1"",""2242""
","
","
","""event"",""trial"",""time""
""fullscreenenter"",""1"",""2242""
","
","","1120.5","","","","real_trial","2021-07-16 01:12:14.869","img/card_backs/set1/yellow.gif","0","100","1","",""
"casino-fixation","108","403212","0.0-25.0-0.19","842","false","img/card_backs/set1/red.gif","img/card_backs/set1/purple.gif","img/card_backs/set1/yellow.gif","img/card_backs/set1/green.gif","img/card_backs/set2/pink.gif","img/card_backs/set2/orange.gif","img/card_backs/set2/blue.gif","img/card_backs/set2/gray.gif","""event"",""trial"",""time""
""fullscreenenter"",""1"",""2242""
","
","
","""event"",""trial"",""time""
""fullscreenenter"",""1"",""2242""
","
","","null","","null","","fixation","2021-07-16 01:12:15.371","","","","","",""
"card-selection-trial","109","405990","0.0-25.0-1.19","842","false","img/card_backs/set1/red.gif","img/card_backs/set1/purple.gif","img/card_backs/set1/yellow.gif","img/card_backs/set1/green.gif","img/card_backs/set2/pink.gif","img/card_backs/set2/orange.gif","img/card_backs/set2/blue.gif","img/card_backs/set2/gray.gif","""event"",""trial"",""time""
""fullscreenenter"",""1"",""2242""
","
","
","""event"",""trial"",""time""
""fullscreenenter"",""1"",""2242""
","
","","768.7999999970198","","","","real_trial","2021-07-16 01:12:18.149","img/card_backs/set1/yellow.gif","1","-70","1","",""
"casino-fixation","110","406492","0.0-25.0-0.20","842","false","img/card_backs/set1/red.gif","img/card_backs/set1/purple.gif","img/card_backs/set1/yellow.gif","img/card_backs/set1/green.gif","img/card_backs/set2/pink.gif","img/card_backs/set2/orange.gif","img/card_backs/set2/blue.gif","img/card_backs/set2/gray.gif","""event"",""trial"",""time""
""fullscreenenter"",""1"",""2242""
","
","
","""event"",""trial"",""time""
""fullscreenenter"",""1"",""2242""
","
","","null","","null","","fixation","2021-07-16 01:12:18.652","","","","","",""
"card-selection-trial","111","409158","0.0-25.0-1.20","842","false","img/card_backs/set1/red.gif","img/card_backs/set1/purple.gif","img/card_backs/set1/yellow.gif","img/card_backs/set1/green.gif","img/card_backs/set2/pink.gif","img/card_backs/set2/orange.gif","img/card_backs/set2/blue.gif","img/card_backs/set2/gray.gif","""event"",""trial"",""time""
""fullscreenenter"",""1"",""2242""
","
","
","""event"",""trial"",""time""
""fullscreenenter"",""1"",""2242""
","
","","655.5","","","","real_trial","2021-07-16 01:12:21.317","img/card_backs/set1/yellow.gif","0","-60","1","",""
"casino-fixation","112","409660","0.0-25.0-0.21","842","false","img/card_backs/set1/red.gif","img/card_backs/set1/purple.gif","img/card_backs/set1/yellow.gif","img/card_backs/set1/green.gif","img/card_backs/set2/pink.gif","img/card_backs/set2/orange.gif","img/card_backs/set2/blue.gif","img/card_backs/set2/gray.gif","""event"",""trial"",""time""
""fullscreenenter"",""1"",""2242""
","
","
","""event"",""trial"",""time""
""fullscreenenter"",""1"",""2242""
","
","","null","","null","","fixation","2021-07-16 01:12:21.819","","","","","",""
"card-selection-trial","113","412454","0.0-25.0-1.21","842","false","img/card_backs/set1/red.gif","img/card_backs/set1/purple.gif","img/card_backs/set1/yellow.gif","img/card_backs/set1/green.gif","img/card_backs/set2/pink.gif","img/card_backs/set2/orange.gif","img/card_backs/set2/blue.gif","img/card_backs/set2/gray.gif","""event"",""trial"",""time""
""fullscreenenter"",""1"",""2242""
","
","
","""event"",""trial"",""time""
""fullscreenenter"",""1"",""2242""
","
","","784.7999999970198","","","","real_trial","2021-07-16 01:12:24.613","img/card_backs/set1/purple.gif","1","200","1","",""
"casino-fixation","114","412955","0.0-25.0-0.22","842","false","img/card_backs/set1/red.gif","img/card_backs/set1/purple.gif","img/card_backs/set1/yellow.gif","img/card_backs/set1/green.gif","img/card_backs/set2/pink.gif","img/card_backs/set2/orange.gif","img/card_backs/set2/blue.gif","img/card_backs/set2/gray.gif","""event"",""trial"",""time""
""fullscreenenter"",""1"",""2242""
","
","
","""event"",""trial"",""time""
""fullscreenenter"",""1"",""2242""
","
","","null","","null","","fixation","2021-07-16 01:12:25.114","","","","","",""
"card-selection-trial","115","415638","0.0-25.0-1.22","842","false","img/card_backs/set1/red.gif","img/card_backs/set1/purple.gif","img/card_backs/set1/yellow.gif","img/card_backs/set1/green.gif","img/card_backs/set2/pink.gif","img/card_backs/set2/orange.gif","img/card_backs/set2/blue.gif","img/card_backs/set2/gray.gif","""event"",""trial"",""time""
""fullscreenenter"",""1"",""2242""
","
","
","""event"",""trial"",""time""
""fullscreenenter"",""1"",""2242""
","
","","678.8000000119209","","","","real_trial","2021-07-16 01:12:27.800","img/card_backs/set1/purple.gif","1","-230","1","",""
"casino-fixation","116","416144","0.0-25.0-0.23","842","false","img/card_backs/set1/red.gif","img/card_backs/set1/purple.gif","img/card_backs/set1/yellow.gif","img/card_backs/set1/green.gif","img/card_backs/set2/pink.gif","img/card_backs/set2/orange.gif","img/card_backs/set2/blue.gif","img/card_backs/set2/gray.gif","""event"",""trial"",""time""
""fullscreenenter"",""1"",""2242""
","
","
","""event"",""trial"",""time""
""fullscreenenter"",""1"",""2242""
","
","","null","","null","","fixation","2021-07-16 01:12:28.304","","","","","",""
"card-selection-trial","117","418925","0.0-25.0-1.23","842","false","img/card_backs/set1/red.gif","img/card_backs/set1/purple.gif","img/card_backs/set1/yellow.gif","img/card_backs/set1/green.gif","img/card_backs/set2/pink.gif","img/card_backs/set2/orange.gif","img/card_backs/set2/blue.gif","img/card_backs/set2/gray.gif","""event"",""trial"",""time""
""fullscreenenter"",""1"",""2242""
","
","
","""event"",""trial"",""time""
""fullscreenenter"",""1"",""2242""
","
","","772.2999999970198","","","","real_trial","2021-07-16 01:12:31.085","img/card_backs/set1/purple.gif","2","200","1","",""
"casino-fixation","118","419428","0.0-25.0-0.24","842","false","img/card_backs/set1/red.gif","img/card_backs/set1/purple.gif","img/card_backs/set1/yellow.gif","img/card_backs/set1/green.gif","img/card_backs/set2/pink.gif","img/card_backs/set2/orange.gif","img/card_backs/set2/blue.gif","img/card_backs/set2/gray.gif","""event"",""trial"",""time""
""fullscreenenter"",""1"",""2242""
","
","
","""event"",""trial"",""time""
""fullscreenenter"",""1"",""2242""
","
","","null","","null","","fixation","2021-07-16 01:12:31.587","","","","","",""
"card-selection-trial","119","422110","0.0-25.0-1.24","842","false","img/card_backs/set1/red.gif","img/card_backs/set1/purple.gif","img/card_backs/set1/yellow.gif","img/card_backs/set1/green.gif","img/card_backs/set2/pink.gif","img/card_backs/set2/orange.gif","img/card_backs/set2/blue.gif","img/card_backs/set2/gray.gif","""event"",""trial"",""time""
""fullscreenenter"",""1"",""2242""
","
","
","""event"",""trial"",""time""
""fullscreenenter"",""1"",""2242""
","
","","672.9000000059605","","","","real_trial","2021-07-16 01:12:34.269","img/card_backs/set1/green.gif","3","120","1","",""
"casino-fixation","120","422612","0.0-25.0-0.25","842","false","img/card_backs/set1/red.gif","img/card_backs/set1/purple.gif","img/card_backs/set1/yellow.gif","img/card_backs/set1/green.gif","img/card_backs/set2/pink.gif","img/card_backs/set2/orange.gif","img/card_backs/set2/blue.gif","img/card_backs/set2/gray.gif","""event"",""trial"",""time""
""fullscreenenter"",""1"",""2242""
","
","
","""event"",""trial"",""time""
""fullscreenenter"",""1"",""2242""
","
","","null","","null","","fixation","2021-07-16 01:12:34.771","","","","","",""
"card-selection-trial","121","425341","0.0-25.0-1.25","842","false","img/card_backs/set1/red.gif","img/card_backs/set1/purple.gif","img/card_backs/set1/yellow.gif","img/card_backs/set1/green.gif","img/card_backs/set2/pink.gif","img/card_backs/set2/orange.gif","img/card_backs/set2/blue.gif","img/card_backs/set2/gray.gif","""event"",""trial"",""time""
""fullscreenenter"",""1"",""2242""
","
","
","""event"",""trial"",""time""
""fullscreenenter"",""1"",""2242""
","
","","719.7999999970198","","","","real_trial","2021-07-16 01:12:37.500","img/card_backs/set1/green.gif","2","120","1","",""
"casino-fixation","122","425844","0.0-25.0-0.26","842","false","img/card_backs/set1/red.gif","img/card_backs/set1/purple.gif","img/card_backs/set1/yellow.gif","img/card_backs/set1/green.gif","img/card_backs/set2/pink.gif","img/card_backs/set2/orange.gif","img/card_backs/set2/blue.gif","img/card_backs/set2/gray.gif","""event"",""trial"",""time""
""fullscreenenter"",""1"",""2242""
","
","
","""event"",""trial"",""time""
""fullscreenenter"",""1"",""2242""
","
","","null","","null","","fixation","2021-07-16 01:12:38.003","","","","","",""
"card-selection-trial","123","428535","0.0-25.0-1.26","842","false","img/card_backs/set1/red.gif","img/card_backs/set1/purple.gif","img/card_backs/set1/yellow.gif","img/card_backs/set1/green.gif","img/card_backs/set2/pink.gif","img/card_backs/set2/orange.gif","img/card_backs/set2/blue.gif","img/card_backs/set2/gray.gif","""event"",""trial"",""time""
""fullscreenenter"",""1"",""2242""
","
","
","""event"",""trial"",""time""
""fullscreenenter"",""1"",""2242""
","
","","680.6000000089407","","","","real_trial","2021-07-16 01:12:40.694","img/card_backs/set1/green.gif","2","-50","1","",""
"casino-fixation","124","429037","0.0-25.0-0.27","842","false","img/card_backs/set1/red.gif","img/card_backs/set1/purple.gif","img/card_backs/set1/yellow.gif","img/card_backs/set1/green.gif","img/card_backs/set2/pink.gif","img/card_backs/set2/orange.gif","img/card_backs/set2/blue.gif","img/card_backs/set2/gray.gif","""event"",""trial"",""time""
""fullscreenenter"",""1"",""2242""
","
","
","""event"",""trial"",""time""
""fullscreenenter"",""1"",""2242""
","
","","null","","null","","fixation","2021-07-16 01:12:41.196","","","","","",""
"card-selection-trial","125","431638","0.0-25.0-1.27","842","false","img/card_backs/set1/red.gif","img/card_backs/set1/purple.gif","img/card_backs/set1/yellow.gif","img/card_backs/set1/green.gif","img/card_backs/set2/pink.gif","img/card_backs/set2/orange.gif","img/card_backs/set2/blue.gif","img/card_backs/set2/gray.gif","""event"",""trial"",""time""
""fullscreenenter"",""1"",""2242""
","
","
","""event"",""trial"",""time""
""fullscreenenter"",""1"",""2242""
","
","","590.6000000089407","","","","real_trial","2021-07-16 01:12:43.797","img/card_backs/set1/green.gif","1","-50","1","",""
"casino-fixation","126","432151","0.0-25.0-0.28","842","false","img/card_backs/set1/red.gif","img/card_backs/set1/purple.gif","img/card_backs/set1/yellow.gif","img/card_backs/set1/green.gif","img/card_backs/set2/pink.gif","img/card_backs/set2/orange.gif","img/card_backs/set2/blue.gif","img/card_backs/set2/gray.gif","""event"",""trial"",""time""
""fullscreenenter"",""1"",""2242""
","
","
","""event"",""trial"",""time""
""fullscreenenter"",""1"",""2242""
","
","","null","","null","","fixation","2021-07-16 01:12:44.310","","","","","",""
"card-selection-trial","127","434957","0.0-25.0-1.28","842","false","img/card_backs/set1/red.gif","img/card_backs/set1/purple.gif","img/card_backs/set1/yellow.gif","img/card_backs/set1/green.gif","img/card_backs/set2/pink.gif","img/card_backs/set2/orange.gif","img/card_backs/set2/blue.gif","img/card_backs/set2/gray.gif","""event"",""trial"",""time""
""fullscreenenter"",""1"",""2242""
","
","
","""event"",""trial"",""time""
""fullscreenenter"",""1"",""2242""
","
","","797","","","","real_trial","2021-07-16 01:12:47.116","img/card_backs/set1/green.gif","2","120","1","",""
"casino-fixation","128","435459","0.0-25.0-0.29","842","false","img/card_backs/set1/red.gif","img/card_backs/set1/purple.gif","img/card_backs/set1/yellow.gif","img/card_backs/set1/green.gif","img/card_backs/set2/pink.gif","img/card_backs/set2/orange.gif","img/card_backs/set2/blue.gif","img/card_backs/set2/gray.gif","""event"",""trial"",""time""
""fullscreenenter"",""1"",""2242""
","
","
","""event"",""trial"",""time""
""fullscreenenter"",""1"",""2242""
","
","","null","","null","","fixation","2021-07-16 01:12:47.618","","","","","",""
"card-selection-trial","129","438022","0.0-25.0-1.29","842","false","img/card_backs/set1/red.gif","img/card_backs/set1/purple.gif","img/card_backs/set1/yellow.gif","img/card_backs/set1/green.gif","img/card_backs/set2/pink.gif","img/card_backs/set2/orange.gif","img/card_backs/set2/blue.gif","img/card_backs/set2/gray.gif","""event"",""trial"",""time""
""fullscreenenter"",""1"",""2242""
","
","
","""event"",""trial"",""time""
""fullscreenenter"",""1"",""2242""
","
","","553","","","","real_trial","2021-07-16 01:12:50.181","img/card_backs/set1/green.gif","2","120","1","",""
"casino-fixation","130","438524","0.0-25.0-0.30","842","false","img/card_backs/set1/red.gif","img/card_backs/set1/purple.gif","img/card_backs/set1/yellow.gif","img/card_backs/set1/green.gif","img/card_backs/set2/pink.gif","img/card_backs/set2/orange.gif","img/card_backs/set2/blue.gif","img/card_backs/set2/gray.gif","""event"",""trial"",""time""
""fullscreenenter"",""1"",""2242""
","
","
","""event"",""trial"",""time""
""fullscreenenter"",""1"",""2242""
","
","","null","","null","","fixation","2021-07-16 01:12:50.683","","","","","",""
"card-selection-trial","131","441278","0.0-25.0-1.30","842","false","img/card_backs/set1/red.gif","img/card_backs/set1/purple.gif","img/card_backs/set1/yellow.gif","img/card_backs/set1/green.gif","img/card_backs/set2/pink.gif","img/card_backs/set2/orange.gif","img/card_backs/set2/blue.gif","img/card_backs/set2/gray.gif","""event"",""trial"",""time""
""fullscreenenter"",""1"",""2242""
","
","
","""event"",""trial"",""time""
""fullscreenenter"",""1"",""2242""
","
","","744.7999999970198","","","","real_trial","2021-07-16 01:12:53.437","img/card_backs/set1/green.gif","3","120","1","",""
"casino-fixation","132","441780","0.0-25.0-0.31","842","false","img/card_backs/set1/red.gif","img/card_backs/set1/purple.gif","img/card_backs/set1/yellow.gif","img/card_backs/set1/green.gif","img/card_backs/set2/pink.gif","img/card_backs/set2/orange.gif","img/card_backs/set2/blue.gif","img/card_backs/set2/gray.gif","""event"",""trial"",""time""
""fullscreenenter"",""1"",""2242""
","
","
","""event"",""trial"",""time""
""fullscreenenter"",""1"",""2242""
","
","","null","","null","","fixation","2021-07-16 01:12:53.939","","","","","",""
"card-selection-trial","133","444302","0.0-25.0-1.31","842","false","img/card_backs/set1/red.gif","img/card_backs/set1/purple.gif","img/card_backs/set1/yellow.gif","img/card_backs/set1/green.gif","img/card_backs/set2/pink.gif","img/card_backs/set2/orange.gif","img/card_backs/set2/blue.gif","img/card_backs/set2/gray.gif","""event"",""trial"",""time""
""fullscreenenter"",""1"",""2242""
","
","
","""event"",""trial"",""time""
""fullscreenenter"",""1"",""2242""
","
","","511.5","","","","real_trial","2021-07-16 01:12:56.462","img/card_backs/set1/green.gif","3","-60","1","",""
"casino-fixation","134","444805","0.0-25.0-0.32","842","false","img/card_backs/set1/red.gif","img/card_backs/set1/purple.gif","img/card_backs/set1/yellow.gif","img/card_backs/set1/green.gif","img/card_backs/set2/pink.gif","img/card_backs/set2/orange.gif","img/card_backs/set2/blue.gif","img/card_backs/set2/gray.gif","""event"",""trial"",""time""
""fullscreenenter"",""1"",""2242""
","
","
","""event"",""trial"",""time""
""fullscreenenter"",""1"",""2242""
","
","","null","","null","","fixation","2021-07-16 01:12:56.964","","","","","",""
"card-selection-trial","135","447381","0.0-25.0-1.32","842","false","img/card_backs/set1/red.gif","img/card_backs/set1/purple.gif","img/card_backs/set1/yellow.gif","img/card_backs/set1/green.gif","img/card_backs/set2/pink.gif","img/card_backs/set2/orange.gif","img/card_backs/set2/blue.gif","img/card_backs/set2/gray.gif","""event"",""trial"",""time""
""fullscreenenter"",""1"",""2242""
","
","
","""event"",""trial"",""time""
""fullscreenenter"",""1"",""2242""
","
","","566.5","","","","real_trial","2021-07-16 01:12:59.540","img/card_backs/set1/green.gif","2","-60","1","",""
"casino-fixation","136","447885","0.0-25.0-0.33","842","false","img/card_backs/set1/red.gif","img/card_backs/set1/purple.gif","img/card_backs/set1/yellow.gif","img/card_backs/set1/green.gif","img/card_backs/set2/pink.gif","img/card_backs/set2/orange.gif","img/card_backs/set2/blue.gif","img/card_backs/set2/gray.gif","""event"",""trial"",""time""
""fullscreenenter"",""1"",""2242""
","
","
","""event"",""trial"",""time""
""fullscreenenter"",""1"",""2242""
","
","","null","","null","","fixation","2021-07-16 01:13:00.044","","","","","",""
"card-selection-trial","137","450437","0.0-25.0-1.33","842","false","img/card_backs/set1/red.gif","img/card_backs/set1/purple.gif","img/card_backs/set1/yellow.gif","img/card_backs/set1/green.gif","img/card_backs/set2/pink.gif","img/card_backs/set2/orange.gif","img/card_backs/set2/blue.gif","img/card_backs/set2/gray.gif","""event"",""trial"",""time""
""fullscreenenter"",""1"",""2242""
","
","
","""event"",""trial"",""time""
""fullscreenenter"",""1"",""2242""
","
","","544.6000000089407","","","","real_trial","2021-07-16 01:13:02.596","img/card_backs/set1/green.gif","2","-60","1","",""
"casino-fixation","138","450939","0.0-25.0-0.34","842","false","img/card_backs/set1/red.gif","img/card_backs/set1/purple.gif","img/card_backs/set1/yellow.gif","img/card_backs/set1/green.gif","img/card_backs/set2/pink.gif","img/card_backs/set2/orange.gif","img/card_backs/set2/blue.gif","img/card_backs/set2/gray.gif","""event"",""trial"",""time""
""fullscreenenter"",""1"",""2242""
","
","
","""event"",""trial"",""time""
""fullscreenenter"",""1"",""2242""
","
","","null","","null","","fixation","2021-07-16 01:13:03.098","","","","","",""
"card-selection-trial","139","453557","0.0-25.0-1.34","842","false","img/card_backs/set1/red.gif","img/card_backs/set1/purple.gif","img/card_backs/set1/yellow.gif","img/card_backs/set1/green.gif","img/card_backs/set2/pink.gif","img/card_backs/set2/orange.gif","img/card_backs/set2/blue.gif","img/card_backs/set2/gray.gif","""event"",""trial"",""time""
""fullscreenenter"",""1"",""2242""
","
","
","""event"",""trial"",""time""
""fullscreenenter"",""1"",""2242""
","
","","608.8999999910593","","","","real_trial","2021-07-16 01:13:05.716","img/card_backs/set1/green.gif","0","110","1","",""
"casino-fixation","140","454058","0.0-25.0-0.35","842","false","img/card_backs/set1/red.gif","img/card_backs/set1/purple.gif","img/card_backs/set1/yellow.gif","img/card_backs/set1/green.gif","img/card_backs/set2/pink.gif","img/card_backs/set2/orange.gif","img/card_backs/set2/blue.gif","img/card_backs/set2/gray.gif","""event"",""trial"",""time""
""fullscreenenter"",""1"",""2242""
","
","
","""event"",""trial"",""time""
""fullscreenenter"",""1"",""2242""
","
","","null","","null","","fixation","2021-07-16 01:13:06.217","","","","","",""
"card-selection-trial","141","456733","0.0-25.0-1.35","842","false","img/card_backs/set1/red.gif","img/card_backs/set1/purple.gif","img/card_backs/set1/yellow.gif","img/card_backs/set1/green.gif","img/card_backs/set2/pink.gif","img/card_backs/set2/orange.gif","img/card_backs/set2/blue.gif","img/card_backs/set2/gray.gif","""event"",""trial"",""time""
""fullscreenenter"",""1"",""2242""
","
","
","""event"",""trial"",""time""
""fullscreenenter"",""1"",""2242""
","
","","666","","","","real_trial","2021-07-16 01:13:08.893","img/card_backs/set1/green.gif","3","-70","1","",""
"casino-fixation","142","457236","0.0-25.0-0.36","842","false","img/card_backs/set1/red.gif","img/card_backs/set1/purple.gif","img/card_backs/set1/yellow.gif","img/card_backs/set1/green.gif","img/card_backs/set2/pink.gif","img/card_backs/set2/orange.gif","img/card_backs/set2/blue.gif","img/card_backs/set2/gray.gif","""event"",""trial"",""time""
""fullscreenenter"",""1"",""2242""
","
","
","""event"",""trial"",""time""
""fullscreenenter"",""1"",""2242""
","
","","null","","null","","fixation","2021-07-16 01:13:09.395","","","","","",""
"card-selection-trial","143","459901","0.0-25.0-1.36","842","false","img/card_backs/set1/red.gif","img/card_backs/set1/purple.gif","img/card_backs/set1/yellow.gif","img/card_backs/set1/green.gif","img/card_backs/set2/pink.gif","img/card_backs/set2/orange.gif","img/card_backs/set2/blue.gif","img/card_backs/set2/gray.gif","""event"",""trial"",""time""
""fullscreenenter"",""1"",""2242""
","
","
","""event"",""trial"",""time""
""fullscreenenter"",""1"",""2242""
","
","","656.3999999910593","","","","real_trial","2021-07-16 01:13:12.060","img/card_backs/set1/green.gif","1","110","1","",""
"casino-fixation","144","460404","0.0-25.0-0.37","842","false","img/card_backs/set1/red.gif","img/card_backs/set1/purple.gif","img/card_backs/set1/yellow.gif","img/card_backs/set1/green.gif","img/card_backs/set2/pink.gif","img/card_backs/set2/orange.gif","img/card_backs/set2/blue.gif","img/card_backs/set2/gray.gif","""event"",""trial"",""time""
""fullscreenenter"",""1"",""2242""
","
","
","""event"",""trial"",""time""
""fullscreenenter"",""1"",""2242""
","
","","null","","null","","fixation","2021-07-16 01:13:12.563","","","","","",""
"card-selection-trial","145","463085","0.0-25.0-1.37","842","false","img/card_backs/set1/red.gif","img/card_backs/set1/purple.gif","img/card_backs/set1/yellow.gif","img/card_backs/set1/green.gif","img/card_backs/set2/pink.gif","img/card_backs/set2/orange.gif","img/card_backs/set2/blue.gif","img/card_backs/set2/gray.gif","""event"",""trial"",""time""
""fullscreenenter"",""1"",""2242""
","
","
","""event"",""trial"",""time""
""fullscreenenter"",""1"",""2242""
","
","","672","","","","real_trial","2021-07-16 01:13:15.244","img/card_backs/set1/green.gif","2","110","1","",""
"casino-fixation","146","463587","0.0-25.0-0.38","842","false","img/card_backs/set1/red.gif","img/card_backs/set1/purple.gif","img/card_backs/set1/yellow.gif","img/card_backs/set1/green.gif","img/card_backs/set2/pink.gif","img/card_backs/set2/orange.gif","img/card_backs/set2/blue.gif","img/card_backs/set2/gray.gif","""event"",""trial"",""time""
""fullscreenenter"",""1"",""2242""
","
","
","""event"",""trial"",""time""
""fullscreenenter"",""1"",""2242""
","
","","null","","null","","fixation","2021-07-16 01:13:15.746","","","","","",""
"card-selection-trial","147","466454","0.0-25.0-1.38","842","false","img/card_backs/set1/red.gif","img/card_backs/set1/purple.gif","img/card_backs/set1/yellow.gif","img/card_backs/set1/green.gif","img/card_backs/set2/pink.gif","img/card_backs/set2/orange.gif","img/card_backs/set2/blue.gif","img/card_backs/set2/gray.gif","""event"",""trial"",""time""
""fullscreenenter"",""1"",""2242""
","
","
","""event"",""trial"",""time""
""fullscreenenter"",""1"",""2242""
","
","","857.6000000089407","","","","real_trial","2021-07-16 01:13:18.613","img/card_backs/set1/green.gif","3","110","1","",""
"casino-fixation","148","466958","0.0-25.0-0.39","842","false","img/card_backs/set1/red.gif","img/card_backs/set1/purple.gif","img/card_backs/set1/yellow.gif","img/card_backs/set1/green.gif","img/card_backs/set2/pink.gif","img/card_backs/set2/orange.gif","img/card_backs/set2/blue.gif","img/card_backs/set2/gray.gif","""event"",""trial"",""time""
""fullscreenenter"",""1"",""2242""
","
","
","""event"",""trial"",""time""
""fullscreenenter"",""1"",""2242""
","
","","null","","null","","fixation","2021-07-16 01:13:19.117","","","","","",""
"card-selection-trial","149","469549","0.0-25.0-1.39","842","false","img/card_backs/set1/red.gif","img/card_backs/set1/purple.gif","img/card_backs/set1/yellow.gif","img/card_backs/set1/green.gif","img/card_backs/set2/pink.gif","img/card_backs/set2/orange.gif","img/card_backs/set2/blue.gif","img/card_backs/set2/gray.gif","""event"",""trial"",""time""
""fullscreenenter"",""1"",""2242""
","
","
","""event"",""trial"",""time""
""fullscreenenter"",""1"",""2242""
","
","","581.3999999910593","","","","real_trial","2021-07-16 01:13:21.708","img/card_backs/set1/green.gif","2","110","1","",""
"casino-fixation","150","470052","0.0-25.0-0.40","842","false","img/card_backs/set1/red.gif","img/card_backs/set1/purple.gif","img/card_backs/set1/yellow.gif","img/card_backs/set1/green.gif","img/card_backs/set2/pink.gif","img/card_backs/set2/orange.gif","img/card_backs/set2/blue.gif","img/card_backs/set2/gray.gif","""event"",""trial"",""time""
""fullscreenenter"",""1"",""2242""
","
","
","""event"",""trial"",""time""
""fullscreenenter"",""1"",""2242""
","
","","null","","null","","fixation","2021-07-16 01:13:22.211","","","","","",""
"card-selection-trial","151","472645","0.0-25.0-1.40","842","false","img/card_backs/set1/red.gif","img/card_backs/set1/purple.gif","img/card_backs/set1/yellow.gif","img/card_backs/set1/green.gif","img/card_backs/set2/pink.gif","img/card_backs/set2/orange.gif","img/card_backs/set2/blue.gif","img/card_backs/set2/gray.gif","""event"",""trial"",""time""
""fullscreenenter"",""1"",""2242""
","
","
","""event"",""trial"",""time""
""fullscreenenter"",""1"",""2242""
","
","","583.6000000089407","","","","real_trial","2021-07-16 01:13:24.804","img/card_backs/set1/green.gif","1","-70","1","",""
"casino-fixation","152","473147","0.0-25.0-0.41","842","false","img/card_backs/set1/red.gif","img/card_backs/set1/purple.gif","img/card_backs/set1/yellow.gif","img/card_backs/set1/green.gif","img/card_backs/set2/pink.gif","img/card_backs/set2/orange.gif","img/card_backs/set2/blue.gif","img/card_backs/set2/gray.gif","""event"",""trial"",""time""
""fullscreenenter"",""1"",""2242""
","
","
","""event"",""trial"",""time""
""fullscreenenter"",""1"",""2242""
","
","","null","","null","","fixation","2021-07-16 01:13:25.306","","","","","",""
"card-selection-trial","153","475703","0.0-25.0-1.41","842","false","img/card_backs/set1/red.gif","img/card_backs/set1/purple.gif","img/card_backs/set1/yellow.gif","img/card_backs/set1/green.gif","img/card_backs/set2/pink.gif","img/card_backs/set2/orange.gif","img/card_backs/set2/blue.gif","img/card_backs/set2/gray.gif","""event"",""trial"",""time""
""fullscreenenter"",""1"",""2242""
","
","
","""event"",""trial"",""time""
""fullscreenenter"",""1"",""2242""
","
","","544.5","","","","real_trial","2021-07-16 01:13:27.862","img/card_backs/set1/green.gif","1","100","1","",""
"casino-fixation","154","476207","0.0-25.0-0.42","842","false","img/card_backs/set1/red.gif","img/card_backs/set1/purple.gif","img/card_backs/set1/yellow.gif","img/card_backs/set1/green.gif","img/card_backs/set2/pink.gif","img/card_backs/set2/orange.gif","img/card_backs/set2/blue.gif","img/card_backs/set2/gray.gif","""event"",""trial"",""time""
""fullscreenenter"",""1"",""2242""
","
","
","""event"",""trial"",""time""
""fullscreenenter"",""1"",""2242""
","
","","null","","null","","fixation","2021-07-16 01:13:28.366","","","","","",""
"card-selection-trial","155","478774","0.0-25.0-1.42","842","false","img/card_backs/set1/red.gif","img/card_backs/set1/purple.gif","img/card_backs/set1/yellow.gif","img/card_backs/set1/green.gif","img/card_backs/set2/pink.gif","img/card_backs/set2/orange.gif","img/card_backs/set2/blue.gif","img/card_backs/set2/gray.gif","""event"",""trial"",""time""
""fullscreenenter"",""1"",""2242""
","
","
","""event"",""trial"",""time""
""fullscreenenter"",""1"",""2242""
","
","","557.7000000029802","","","","real_trial","2021-07-16 01:13:30.933","img/card_backs/set1/green.gif","0","-70","1","",""
"casino-fixation","156","479277","0.0-25.0-0.43","842","false","img/card_backs/set1/red.gif","img/card_backs/set1/purple.gif","img/card_backs/set1/yellow.gif","img/card_backs/set1/green.gif","img/card_backs/set2/pink.gif","img/card_backs/set2/orange.gif","img/card_backs/set2/blue.gif","img/card_backs/set2/gray.gif","""event"",""trial"",""time""
""fullscreenenter"",""1"",""2242""
","
","
","""event"",""trial"",""time""
""fullscreenenter"",""1"",""2242""
","
","","null","","null","","fixation","2021-07-16 01:13:31.436","","","","","",""
"card-selection-trial","157","481837","0.0-25.0-1.43","842","false","img/card_backs/set1/red.gif","img/card_backs/set1/purple.gif","img/card_backs/set1/yellow.gif","img/card_backs/set1/green.gif","img/card_backs/set2/pink.gif","img/card_backs/set2/orange.gif","img/card_backs/set2/blue.gif","img/card_backs/set2/gray.gif","""event"",""trial"",""time""
""fullscreenenter"",""1"",""2242""
","
","
","""event"",""trial"",""time""
""fullscreenenter"",""1"",""2242""
","
","","550.6000000089407","","","","real_trial","2021-07-16 01:13:33.996","img/card_backs/set1/green.gif","0","-70","1","",""
"casino-fixation","158","482340","0.0-25.0-0.44","842","false","img/card_backs/set1/red.gif","img/card_backs/set1/purple.gif","img/card_backs/set1/yellow.gif","img/card_backs/set1/green.gif","img/card_backs/set2/pink.gif","img/card_backs/set2/orange.gif","img/card_backs/set2/blue.gif","img/card_backs/set2/gray.gif","""event"",""trial"",""time""
""fullscreenenter"",""1"",""2242""
","
","
","""event"",""trial"",""time""
""fullscreenenter"",""1"",""2242""
","
","","null","","null","","fixation","2021-07-16 01:13:34.500","","","","","",""
"card-selection-trial","159","484956","0.0-25.0-1.44","842","false","img/card_backs/set1/red.gif","img/card_backs/set1/purple.gif","img/card_backs/set1/yellow.gif","img/card_backs/set1/green.gif","img/card_backs/set2/pink.gif","img/card_backs/set2/orange.gif","img/card_backs/set2/blue.gif","img/card_backs/set2/gray.gif","""event"",""trial"",""time""
""fullscreenenter"",""1"",""2242""
","
","
","""event"",""trial"",""time""
""fullscreenenter"",""1"",""2242""
","
","","598.5","","","","real_trial","2021-07-16 01:13:37.115","img/card_backs/set1/green.gif","0","-50","1","",""
"casino-fixation","160","485460","0.0-25.0-0.45","842","false","img/card_backs/set1/red.gif","img/card_backs/set1/purple.gif","img/card_backs/set1/yellow.gif","img/card_backs/set1/green.gif","img/card_backs/set2/pink.gif","img/card_backs/set2/orange.gif","img/card_backs/set2/blue.gif","img/card_backs/set2/gray.gif","""event"",""trial"",""time""
""fullscreenenter"",""1"",""2242""
","
","
","""event"",""trial"",""time""
""fullscreenenter"",""1"",""2242""
","
","","null","","null","","fixation","2021-07-16 01:13:37.619","","","","","",""
"card-selection-trial","161","488597","0.0-25.0-1.45","842","false","img/card_backs/set1/red.gif","img/card_backs/set1/purple.gif","img/card_backs/set1/yellow.gif","img/card_backs/set1/green.gif","img/card_backs/set2/pink.gif","img/card_backs/set2/orange.gif","img/card_backs/set2/blue.gif","img/card_backs/set2/gray.gif","""event"",""trial"",""time""
""fullscreenenter"",""1"",""2242""
","
","
","""event"",""trial"",""time""
""fullscreenenter"",""1"",""2242""
","
","","1127.7999999970198","","","","real_trial","2021-07-16 01:13:40.757","img/card_backs/set1/green.gif","3","-50","1","",""
"casino-fixation","162","489099","0.0-25.0-0.46","842","false","img/card_backs/set1/red.gif","img/card_backs/set1/purple.gif","img/card_backs/set1/yellow.gif","img/card_backs/set1/green.gif","img/card_backs/set2/pink.gif","img/card_backs/set2/orange.gif","img/card_backs/set2/blue.gif","img/card_backs/set2/gray.gif","""event"",""trial"",""time""
""fullscreenenter"",""1"",""2242""
","
","
","""event"",""trial"",""time""
""fullscreenenter"",""1"",""2242""
","
","","null","","null","","fixation","2021-07-16 01:13:41.259","","","","","",""
"card-selection-trial","163","491597","0.0-25.0-1.46","842","false","img/card_backs/set1/red.gif","img/card_backs/set1/purple.gif","img/card_backs/set1/yellow.gif","img/card_backs/set1/green.gif","img/card_backs/set2/pink.gif","img/card_backs/set2/orange.gif","img/card_backs/set2/blue.gif","img/card_backs/set2/gray.gif","""event"",""trial"",""time""
""fullscreenenter"",""1"",""2242""
","
","
","""event"",""trial"",""time""
""fullscreenenter"",""1"",""2242""
","
","","487.70000000298023","","","","real_trial","2021-07-16 01:13:43.756","img/card_backs/set1/green.gif","3","120","1","",""
"casino-fixation","164","492101","0.0-25.0-0.47","842","false","img/card_backs/set1/red.gif","img/card_backs/set1/purple.gif","img/card_backs/set1/yellow.gif","img/card_backs/set1/green.gif","img/card_backs/set2/pink.gif","img/card_backs/set2/orange.gif","img/card_backs/set2/blue.gif","img/card_backs/set2/gray.gif","""event"",""trial"",""time""
""fullscreenenter"",""1"",""2242""
","
","
","""event"",""trial"",""time""
""fullscreenenter"",""1"",""2242""
","
","","null","","null","","fixation","2021-07-16 01:13:44.260","","","","","",""
"card-selection-trial","165","496781","0.0-25.0-1.47","842","false","img/card_backs/set1/red.gif","img/card_backs/set1/purple.gif","img/card_backs/set1/yellow.gif","img/card_backs/set1/green.gif","img/card_backs/set2/pink.gif","img/card_backs/set2/orange.gif","img/card_backs/set2/blue.gif","img/card_backs/set2/gray.gif","""event"",""trial"",""time""
""fullscreenenter"",""1"",""2242""
","
","
","""event"",""trial"",""time""
""fullscreenenter"",""1"",""2242""
","
","","2671.3999999910593","","","","real_trial","2021-07-16 01:13:48.940","img/card_backs/set1/green.gif","2","110","1","",""
"casino-fixation","166","497284","0.0-25.0-0.48","842","false","img/card_backs/set1/red.gif","img/card_backs/set1/purple.gif","img/card_backs/set1/yellow.gif","img/card_backs/set1/green.gif","img/card_backs/set2/pink.gif","img/card_backs/set2/orange.gif","img/card_backs/set2/blue.gif","img/card_backs/set2/gray.gif","""event"",""trial"",""time""
""fullscreenenter"",""1"",""2242""
","
","
","""event"",""trial"",""time""
""fullscreenenter"",""1"",""2242""
","
","","null","","null","","fixation","2021-07-16 01:13:49.443","","","","","",""
"card-selection-trial","167","500045","0.0-25.0-1.48","842","false","img/card_backs/set1/red.gif","img/card_backs/set1/purple.gif","img/card_backs/set1/yellow.gif","img/card_backs/set1/green.gif","img/card_backs/set2/pink.gif","img/card_backs/set2/orange.gif","img/card_backs/set2/blue.gif","img/card_backs/set2/gray.gif","""event"",""trial"",""time""
""fullscreenenter"",""1"",""2242""
","
","
","""event"",""trial"",""time""
""fullscreenenter"",""1"",""2242""
","
","","751.2999999970198","","","","real_trial","2021-07-16 01:13:52.204","img/card_backs/set1/green.gif","0","110","1","",""
