"trial_type","trial_index","time_elapsed","internal_node_id","sub_id","risk_good_first","block1_A","block1_B","block1_C","block1_D","block2_A","block2_B","block2_C","block2_D","interactions","blur_events","focus_events","fullscreenenter_events","fullscreenexit_events","success","rt","stimulus","key_press","button_pressed","task_part","timestamp","card_choice","choice_position","points_earned","block","correct","response"
"pavlovia","0","4","0.0-0.0","A1032","true","img/card_backs/set1/green.gif","img/card_backs/set1/purple.gif","img/card_backs/set1/red.gif","img/card_backs/set1/yellow.gif","img/card_backs/set2/orange.gif","img/card_backs/set2/gray.gif","img/card_backs/set2/pink.gif","img/card_backs/set2/blue.gif","""event"",""trial"",""time""
""fullscreenenter"",""1"",""2568""
","
","
","""event"",""trial"",""time""
""fullscreenenter"",""1"",""2568""
","
","","","","","","","","","","","","",""
"fullscreen","1","3533","0.0-1.0","A1032","true","img/card_backs/set1/green.gif","img/card_backs/set1/purple.gif","img/card_backs/set1/red.gif","img/card_backs/set1/yellow.gif","img/card_backs/set2/orange.gif","img/card_backs/set2/gray.gif","img/card_backs/set2/pink.gif","img/card_backs/set2/blue.gif","""event"",""trial"",""time""
""fullscreenenter"",""1"",""2568""
","
","
","""event"",""trial"",""time""
""fullscreenenter"",""1"",""2568""
","
","true","","","","","","","","","","","",""
"audio-keyboard-response","2","5210","0.0-2.0","A1032","true","img/card_backs/set1/green.gif","img/card_backs/set1/purple.gif","img/card_backs/set1/red.gif","img/card_backs/set1/yellow.gif","img/card_backs/set2/orange.gif","img/card_backs/set2/gray.gif","img/card_backs/set2/pink.gif","img/card_backs/set2/blue.gif","""event"",""trial"",""time""
""fullscreenenter"",""1"",""2568""
","
","
","""event"",""trial"",""time""
""fullscreenenter"",""1"",""2568""
","
","","1556","audio/beep_loop.wav","32","","","","","","","","",""
"audio-button-response","3","7838","0.0-3.0","A1032","true","img/card_backs/set1/green.gif","img/card_backs/set1/purple.gif","img/card_backs/set1/red.gif","img/card_backs/set1/yellow.gif","img/card_backs/set2/orange.gif","img/card_backs/set2/gray.gif","img/card_backs/set2/pink.gif","img/card_backs/set2/blue.gif","""event"",""trial"",""time""
""fullscreenenter"",""1"",""2568""
","
","
","""event"",""trial"",""time""
""fullscreenenter"",""1"",""2568""
","
","","NaN","audio/turtle.mp3","","3","","","","","","","",""
"audio-button-response","4","10202","0.0-4.0","A1032","true","img/card_backs/set1/green.gif","img/card_backs/set1/purple.gif","img/card_backs/set1/red.gif","img/card_backs/set1/yellow.gif","img/card_backs/set2/orange.gif","img/card_backs/set2/gray.gif","img/card_backs/set2/pink.gif","img/card_backs/set2/blue.gif","""event"",""trial"",""time""
""fullscreenenter"",""1"",""2568""
","
","
","""event"",""trial"",""time""
""fullscreenenter"",""1"",""2568""
","
","","NaN","audio/shark.mp3","","2","","","","","","","",""
"fullscreen","5","13362","0.0-5.0","A1032","true","img/card_backs/set1/green.gif","img/card_backs/set1/purple.gif","img/card_backs/set1/red.gif","img/card_backs/set1/yellow.gif","img/card_backs/set2/orange.gif","img/card_backs/set2/gray.gif","img/card_backs/set2/pink.gif","img/card_backs/set2/blue.gif","""event"",""trial"",""time""
""fullscreenenter"",""1"",""2568""
","
","
","""event"",""trial"",""time""
""fullscreenenter"",""1"",""2568""
","
","true","","","","","","","","","","","",""
"casino-keyboard-response","6","16265","0.0-6.0-0.0","A1032","true","img/card_backs/set1/green.gif","img/card_backs/set1/purple.gif","img/card_backs/set1/red.gif","img/card_backs/set1/yellow.gif","img/card_backs/set2/orange.gif","img/card_backs/set2/gray.gif","img/card_backs/set2/pink.gif","img/card_backs/set2/blue.gif","""event"",""trial"",""time""
""fullscreenenter"",""1"",""2568""
","
","
","""event"",""trial"",""time""
""fullscreenenter"",""1"",""2568""
","
","","2899.9199999962","Welcome to the casino!","71","","instructions","2021-04-06 16:25:16.154","","","","","",""
"casino-keyboard-response","7","25682","0.0-6.0-0.1","A1032","true","img/card_backs/set1/green.gif","img/card_backs/set1/purple.gif","img/card_backs/set1/red.gif","img/card_backs/set1/yellow.gif","img/card_backs/set2/orange.gif","img/card_backs/set2/gray.gif","img/card_backs/set2/pink.gif","img/card_backs/set2/blue.gif","""event"",""trial"",""time""
""fullscreenenter"",""1"",""2568""
","
","
","""event"",""trial"",""time""
""fullscreenenter"",""1"",""2568""
","
","","9415.500000002794","Today you will be playing a game to earn tokens. </br> At the end of the experiment, you will be paid a bonus based on how many tokens you win. ","69","","instructions","2021-04-06 16:25:25.571","","","","","",""
"casino-keyboard-response","8","33020","0.0-6.0-0.2","A1032","true","img/card_backs/set1/green.gif","img/card_backs/set1/purple.gif","img/card_backs/set1/red.gif","img/card_backs/set1/yellow.gif","img/card_backs/set2/orange.gif","img/card_backs/set2/gray.gif","img/card_backs/set2/pink.gif","img/card_backs/set2/blue.gif","""event"",""trial"",""time""
""fullscreenenter"",""1"",""2568""
","
","
","""event"",""trial"",""time""
""fullscreenenter"",""1"",""2568""
","
","","7335.710000013933","On every turn, you will be shown four different decks of cards. </br> You need to select a card from one of the four decks.  ","75","","instructions","2021-04-06 16:25:32.909","","","","","",""
"casino-keyboard-response","9","37712","0.0-6.0-0.3","A1032","true","img/card_backs/set1/green.gif","img/card_backs/set1/purple.gif","img/card_backs/set1/red.gif","img/card_backs/set1/yellow.gif","img/card_backs/set2/orange.gif","img/card_backs/set2/gray.gif","img/card_backs/set2/pink.gif","img/card_backs/set2/blue.gif","""event"",""trial"",""time""
""fullscreenenter"",""1"",""2568""
","
","
","""event"",""trial"",""time""
""fullscreenenter"",""1"",""2568""
","
","","4690.260000061244","On the next screen, you will see what the decks will look like. ","66","","instructions","2021-04-06 16:25:37.601","","","","","",""
"card-selection-trial","10","41719","0.0-7.0-0.0","A1032","true","img/card_backs/set1/green.gif","img/card_backs/set1/purple.gif","img/card_backs/set1/red.gif","img/card_backs/set1/yellow.gif","img/card_backs/set2/orange.gif","img/card_backs/set2/gray.gif","img/card_backs/set2/pink.gif","img/card_backs/set2/blue.gif","""event"",""trial"",""time""
""fullscreenenter"",""1"",""2568""
","
","
","""event"",""trial"",""time""
""fullscreenenter"",""1"",""2568""
","
","","null","","","","practice","2021-04-06 16:25:41.608","null","null","null","0","",""
"casino-keyboard-response","11","49283","0.0-8.0-0.0","A1032","true","img/card_backs/set1/green.gif","img/card_backs/set1/purple.gif","img/card_backs/set1/red.gif","img/card_backs/set1/yellow.gif","img/card_backs/set2/orange.gif","img/card_backs/set2/gray.gif","img/card_backs/set2/pink.gif","img/card_backs/set2/blue.gif","""event"",""trial"",""time""
""fullscreenenter"",""1"",""2568""
","
","
","""event"",""trial"",""time""
""fullscreenenter"",""1"",""2568""
","
","","7562.520000035875","You should pick a card from a deck using the '2', '4', '6', and '8' keys at the top of the keyboard.","85","","instructions","2021-04-06 16:25:49.172","","","","","",""
"casino-keyboard-response","12","55090","0.0-8.0-0.1","A1032","true","img/card_backs/set1/green.gif","img/card_backs/set1/purple.gif","img/card_backs/set1/red.gif","img/card_backs/set1/yellow.gif","img/card_backs/set2/orange.gif","img/card_backs/set2/gray.gif","img/card_backs/set2/pink.gif","img/card_backs/set2/blue.gif","""event"",""trial"",""time""
""fullscreenenter"",""1"",""2568""
","
","
","""event"",""trial"",""time""
""fullscreenenter"",""1"",""2568""
","
","","5805.539999972098","Once you select a card, it will turn over and you will see how many tokens you earned.","83","","instructions","2021-04-06 16:25:54.979","","","","","",""
"casino-keyboard-response","13","69229","0.0-8.0-0.2","A1032","true","img/card_backs/set1/green.gif","img/card_backs/set1/purple.gif","img/card_backs/set1/red.gif","img/card_backs/set1/yellow.gif","img/card_backs/set2/orange.gif","img/card_backs/set2/gray.gif","img/card_backs/set2/pink.gif","img/card_backs/set2/blue.gif","""event"",""trial"",""time""
""fullscreenenter"",""1"",""2568""
","
","
","""event"",""trial"",""time""
""fullscreenenter"",""1"",""2568""
","
","","14137.540000025183","Let's try practicing that! </br> First, try to put your fingers over the '2', '4', '6', and '8' keys. </br>  You can use whatever fingers are most comfortable for you. Try to find a comfortable position now. ","50","","instructions","2021-04-06 16:26:09.118","","","","","",""
"casino-keyboard-response","14","74907","0.0-8.0-0.3","A1032","true","img/card_backs/set1/green.gif","img/card_backs/set1/purple.gif","img/card_backs/set1/red.gif","img/card_backs/set1/yellow.gif","img/card_backs/set2/orange.gif","img/card_backs/set2/gray.gif","img/card_backs/set2/pink.gif","img/card_backs/set2/blue.gif","""event"",""trial"",""time""
""fullscreenenter"",""1"",""2568""
","
","
","""event"",""trial"",""time""
""fullscreenenter"",""1"",""2568""
","
","","5676.594999968074","Okay ready? </br> On the next screen, press '2' to select the left deck. ","50","","instructions","2021-04-06 16:26:14.796","","","","","",""
"card-selection-trial","15","77890","0.0-9.0-0.0","A1032","true","img/card_backs/set1/green.gif","img/card_backs/set1/purple.gif","img/card_backs/set1/red.gif","img/card_backs/set1/yellow.gif","img/card_backs/set2/orange.gif","img/card_backs/set2/gray.gif","img/card_backs/set2/pink.gif","img/card_backs/set2/blue.gif","""event"",""trial"",""time""
""fullscreenenter"",""1"",""2568""
","
","
","""event"",""trial"",""time""
""fullscreenenter"",""1"",""2568""
","
","","964.9549999739975","","","","practice_card_selection","2021-04-06 16:26:17.779","img/practice_cards/backs/brown.gif","0","100","","",""
"casino-keyboard-response","16","83723","0.0-10.0-0.0","A1032","true","img/card_backs/set1/green.gif","img/card_backs/set1/purple.gif","img/card_backs/set1/red.gif","img/card_backs/set1/yellow.gif","img/card_backs/set2/orange.gif","img/card_backs/set2/gray.gif","img/card_backs/set2/pink.gif","img/card_backs/set2/blue.gif","""event"",""trial"",""time""
""fullscreenenter"",""1"",""2568""
","
","
","""event"",""trial"",""time""
""fullscreenenter"",""1"",""2568""
","
","","5832.0899999234825","Great! Now on the next screen, try pressing '6' to select the third deck.","54","","instructions","2021-04-06 16:26:23.612","","","","","",""
"card-selection-trial","17","86517","0.0-11.0-0.0","A1032","true","img/card_backs/set1/green.gif","img/card_backs/set1/purple.gif","img/card_backs/set1/red.gif","img/card_backs/set1/yellow.gif","img/card_backs/set2/orange.gif","img/card_backs/set2/gray.gif","img/card_backs/set2/pink.gif","img/card_backs/set2/blue.gif","""event"",""trial"",""time""
""fullscreenenter"",""1"",""2568""
","
","
","""event"",""trial"",""time""
""fullscreenenter"",""1"",""2568""
","
","","784.250000026077","","","","practice_card_selection","2021-04-06 16:26:26.406","img/practice_cards/backs/dark_green.gif","2","200","","",""
"casino-keyboard-response","18","91440","0.0-12.0-0.0","A1032","true","img/card_backs/set1/green.gif","img/card_backs/set1/purple.gif","img/card_backs/set1/red.gif","img/card_backs/set1/yellow.gif","img/card_backs/set2/orange.gif","img/card_backs/set2/gray.gif","img/card_backs/set2/pink.gif","img/card_backs/set2/blue.gif","""event"",""trial"",""time""
""fullscreenenter"",""1"",""2568""
","
","
","""event"",""trial"",""time""
""fullscreenenter"",""1"",""2568""
","
","","4921.994999982417","Now on the next screen, try pressing '4' to select the second deck.","52","","instructions","2021-04-06 16:26:31.329","","","","","",""
"card-selection-trial","19","94708","0.0-13.0-0.0","A1032","true","img/card_backs/set1/green.gif","img/card_backs/set1/purple.gif","img/card_backs/set1/red.gif","img/card_backs/set1/yellow.gif","img/card_backs/set2/orange.gif","img/card_backs/set2/gray.gif","img/card_backs/set2/pink.gif","img/card_backs/set2/blue.gif","""event"",""trial"",""time""
""fullscreenenter"",""1"",""2568""
","
","
","""event"",""trial"",""time""
""fullscreenenter"",""1"",""2568""
","
","","1259.9350000964478","","","","practice_card_selection","2021-04-06 16:26:34.597","img/practice_cards/backs/brown.gif","1","-100","","",""
"casino-keyboard-response","20","99489","0.0-14.0-0.0","A1032","true","img/card_backs/set1/green.gif","img/card_backs/set1/purple.gif","img/card_backs/set1/red.gif","img/card_backs/set1/yellow.gif","img/card_backs/set2/orange.gif","img/card_backs/set2/gray.gif","img/card_backs/set2/pink.gif","img/card_backs/set2/blue.gif","""event"",""trial"",""time""
""fullscreenenter"",""1"",""2568""
","
","
","""event"",""trial"",""time""
""fullscreenenter"",""1"",""2568""
","
","","4779.845000011846","Finally, try pressing '8' to select the deck all the way on the right.","56","","instructions","2021-04-06 16:26:39.378","","","","","",""
"card-selection-trial","21","102411","0.0-15.0-0.0","A1032","true","img/card_backs/set1/green.gif","img/card_backs/set1/purple.gif","img/card_backs/set1/red.gif","img/card_backs/set1/yellow.gif","img/card_backs/set2/orange.gif","img/card_backs/set2/gray.gif","img/card_backs/set2/pink.gif","img/card_backs/set2/blue.gif","""event"",""trial"",""time""
""fullscreenenter"",""1"",""2568""
","
","
","""event"",""trial"",""time""
""fullscreenenter"",""1"",""2568""
","
","","911.6749999811873","","","","practice_card_selection","2021-04-06 16:26:42.300","img/practice_cards/backs/brown.gif","3","100","","",""
"casino-keyboard-response","22","116205","0.0-16.0-0.0","A1032","true","img/card_backs/set1/green.gif","img/card_backs/set1/purple.gif","img/card_backs/set1/red.gif","img/card_backs/set1/yellow.gif","img/card_backs/set2/orange.gif","img/card_backs/set2/gray.gif","img/card_backs/set2/pink.gif","img/card_backs/set2/blue.gif","""event"",""trial"",""time""
""fullscreenenter"",""1"",""2568""
","
","
","""event"",""trial"",""time""
""fullscreenenter"",""1"",""2568""
","
","","13793.24499994982","Great! It seems like you are getting the hang of this.","80","","instructions","2021-04-06 16:26:56.094","","","","","",""
"casino-keyboard-response","23","123661","0.0-16.0-0.1","A1032","true","img/card_backs/set1/green.gif","img/card_backs/set1/purple.gif","img/card_backs/set1/red.gif","img/card_backs/set1/yellow.gif","img/card_backs/set2/orange.gif","img/card_backs/set2/gray.gif","img/card_backs/set2/pink.gif","img/card_backs/set2/blue.gif","""event"",""trial"",""time""
""fullscreenenter"",""1"",""2568""
","
","
","""event"",""trial"",""time""
""fullscreenenter"",""1"",""2568""
","
","","7455.405000015162","You may have noticed that some cards will cause you to <b> win </b> tokens while other cards will cause you to <b> lose </b>  tokens.","70","","instructions","2021-04-06 16:27:03.550","","","","","",""
"casino-keyboard-response","24","132147","0.0-16.0-0.2","A1032","true","img/card_backs/set1/green.gif","img/card_backs/set1/purple.gif","img/card_backs/set1/red.gif","img/card_backs/set1/yellow.gif","img/card_backs/set2/orange.gif","img/card_backs/set2/gray.gif","img/card_backs/set2/pink.gif","img/card_backs/set2/blue.gif","""event"",""trial"",""time""
""fullscreenenter"",""1"",""2568""
","
","
","""event"",""trial"",""time""
""fullscreenenter"",""1"",""2568""
","
","","8484.505000058562","Each deck has a mix of cards that will cause you to win and lose tokens. </br> However, the cards in each colored deck are different.","73","","instructions","2021-04-06 16:27:12.036","","","","","",""
"casino-keyboard-response","25","140880","0.0-16.0-0.3","A1032","true","img/card_backs/set1/green.gif","img/card_backs/set1/purple.gif","img/card_backs/set1/red.gif","img/card_backs/set1/yellow.gif","img/card_backs/set2/orange.gif","img/card_backs/set2/gray.gif","img/card_backs/set2/pink.gif","img/card_backs/set2/blue.gif","""event"",""trial"",""time""
""fullscreenenter"",""1"",""2568""
","
","
","""event"",""trial"",""time""
""fullscreenenter"",""1"",""2568""
","
","","8732.11999994237","Some colored decks are luckier than others. </br> If you choose the lucky decks, you will earn more tokens than if you choose the unlucky decks.","69","","instructions","2021-04-06 16:27:20.769","","","","","",""
"casino-keyboard-response","26","148260","0.0-16.0-0.4","A1032","true","img/card_backs/set1/green.gif","img/card_backs/set1/purple.gif","img/card_backs/set1/red.gif","img/card_backs/set1/yellow.gif","img/card_backs/set2/orange.gif","img/card_backs/set2/gray.gif","img/card_backs/set2/pink.gif","img/card_backs/set2/blue.gif","""event"",""trial"",""time""
""fullscreenenter"",""1"",""2568""
","
","
","""event"",""trial"",""time""
""fullscreenenter"",""1"",""2568""
","
","","7378.215000033379","You should try to figure out which decks are lucky. </br> Then, try to choose the lucky decks so you can win the most tokens.","87","","instructions","2021-04-06 16:27:28.149","","","","","",""
"casino-keyboard-response","27","159633","0.0-16.0-0.5","A1032","true","img/card_backs/set1/green.gif","img/card_backs/set1/purple.gif","img/card_backs/set1/red.gif","img/card_backs/set1/yellow.gif","img/card_backs/set2/orange.gif","img/card_backs/set2/gray.gif","img/card_backs/set2/pink.gif","img/card_backs/set2/blue.gif","""event"",""trial"",""time""
""fullscreenenter"",""1"",""2568""
","
","
","""event"",""trial"",""time""
""fullscreenenter"",""1"",""2568""
","
","","11372.199999983422","To make it trickier, the casino dealer will switch the locations of the decks on every turn. </br> The color of the deck determines how lucky it is. The location does not matter.","88","","instructions","2021-04-06 16:27:39.522","","","","","",""
"casino-keyboard-response","28","168978","0.0-16.0-0.6","A1032","true","img/card_backs/set1/green.gif","img/card_backs/set1/purple.gif","img/card_backs/set1/red.gif","img/card_backs/set1/yellow.gif","img/card_backs/set2/orange.gif","img/card_backs/set2/gray.gif","img/card_backs/set2/pink.gif","img/card_backs/set2/blue.gif","""event"",""trial"",""time""
""fullscreenenter"",""1"",""2568""
","
","
","""event"",""trial"",""time""
""fullscreenenter"",""1"",""2568""
","
","","9343.5499999905","The mix of cards in each colored deck will stay the same throughout the game. </br> That means that a deck that is lucky early on will stay lucky.","79","","instructions","2021-04-06 16:27:48.867","","","","","",""
"casino-keyboard-response","29","177277","0.0-16.0-0.7","A1032","true","img/card_backs/set1/green.gif","img/card_backs/set1/purple.gif","img/card_backs/set1/red.gif","img/card_backs/set1/yellow.gif","img/card_backs/set2/orange.gif","img/card_backs/set2/gray.gif","img/card_backs/set2/pink.gif","img/card_backs/set2/blue.gif","""event"",""trial"",""time""
""fullscreenenter"",""1"",""2568""
","
","
","""event"",""trial"",""time""
""fullscreenenter"",""1"",""2568""
","
","","8297.915000002831","Remember though, all the decks have a <b> mix </b> of both <b> good </b> and <b> bad </b> cards so it may take a couple of turns to figure out if a deck is lucky.","69","","instructions","2021-04-06 16:27:57.166","","","","","",""
"casino-keyboard-response","30","185631","0.0-16.0-0.8","A1032","true","img/card_backs/set1/green.gif","img/card_backs/set1/purple.gif","img/card_backs/set1/red.gif","img/card_backs/set1/yellow.gif","img/card_backs/set2/orange.gif","img/card_backs/set2/gray.gif","img/card_backs/set2/pink.gif","img/card_backs/set2/blue.gif","""event"",""trial"",""time""
""fullscreenenter"",""1"",""2568""
","
","
","""event"",""trial"",""time""
""fullscreenenter"",""1"",""2568""
","
","","8352.65499993693","At the end of the game, you will be paid bonus money based on how many tokens you win. </br> If you win more tokens, you will earn more money!","72","","instructions","2021-04-06 16:28:05.520","","","","","",""
"casino-keyboard-response","31","195978","0.0-16.0-0.9","A1032","true","img/card_backs/set1/green.gif","img/card_backs/set1/purple.gif","img/card_backs/set1/red.gif","img/card_backs/set1/yellow.gif","img/card_backs/set2/orange.gif","img/card_backs/set2/gray.gif","img/card_backs/set2/pink.gif","img/card_backs/set2/blue.gif","""event"",""trial"",""time""
""fullscreenenter"",""1"",""2568""
","
","
","""event"",""trial"",""time""
""fullscreenenter"",""1"",""2568""
","
","","10345.550000085495","You will never <b> lose </b> money. </br> If you end up with fewer than 0 tokens, you will earn $0 of bonus money, but you will still be paid for playing the game.","83","","instructions","2021-04-06 16:28:15.867","","","","","",""
"casino-keyboard-response","32","200201","0.0-16.0-0.10","A1032","true","img/card_backs/set1/green.gif","img/card_backs/set1/purple.gif","img/card_backs/set1/red.gif","img/card_backs/set1/yellow.gif","img/card_backs/set2/orange.gif","img/card_backs/set2/gray.gif","img/card_backs/set2/pink.gif","img/card_backs/set2/blue.gif","""event"",""trial"",""time""
""fullscreenenter"",""1"",""2568""
","
","
","""event"",""trial"",""time""
""fullscreenenter"",""1"",""2568""
","
","","4221.699999994598","You will have 10 seconds to make each choice.","82","","instructions","2021-04-06 16:28:20.090","","","","","",""
"casino-keyboard-response","33","208398","0.0-16.0-0.11","A1032","true","img/card_backs/set1/green.gif","img/card_backs/set1/purple.gif","img/card_backs/set1/red.gif","img/card_backs/set1/yellow.gif","img/card_backs/set2/orange.gif","img/card_backs/set2/gray.gif","img/card_backs/set2/pink.gif","img/card_backs/set2/blue.gif","""event"",""trial"",""time""
""fullscreenenter"",""1"",""2568""
","
","
","""event"",""trial"",""time""
""fullscreenenter"",""1"",""2568""
","
","","8195.599999977276","Before you play the game for real, you will play with practice decks. </br> The tokens you earn during practice won't count toward your total.","86","","instructions","2021-04-06 16:28:28.287","","","","","",""
"casino-keyboard-response","34","218409","0.0-16.0-0.12","A1032","true","img/card_backs/set1/green.gif","img/card_backs/set1/purple.gif","img/card_backs/set1/red.gif","img/card_backs/set1/yellow.gif","img/card_backs/set2/orange.gif","img/card_backs/set2/gray.gif","img/card_backs/set2/pink.gif","img/card_backs/set2/blue.gif","""event"",""trial"",""time""
""fullscreenenter"",""1"",""2568""
","
","
","""event"",""trial"",""time""
""fullscreenenter"",""1"",""2568""
","
","","10009.439999936149","Ready? Remember, use the '2', '4', '6', and '8' keys to select the decks. </br> Put your fingers on those keys now and then press '2' to begin.","50","","instructions","2021-04-06 16:28:38.298","","","","","",""
"casino-fixation","35","218911","0.0-17.0-0.0","A1032","true","img/card_backs/set1/green.gif","img/card_backs/set1/purple.gif","img/card_backs/set1/red.gif","img/card_backs/set1/yellow.gif","img/card_backs/set2/orange.gif","img/card_backs/set2/gray.gif","img/card_backs/set2/pink.gif","img/card_backs/set2/blue.gif","""event"",""trial"",""time""
""fullscreenenter"",""1"",""2568""
","
","
","""event"",""trial"",""time""
""fullscreenenter"",""1"",""2568""
","
","","null","","null","","fixation","2021-04-06 16:28:38.800","","","","","",""
"card-selection-trial","36","222212","0.0-17.0-1.0","A1032","true","img/card_backs/set1/green.gif","img/card_backs/set1/purple.gif","img/card_backs/set1/red.gif","img/card_backs/set1/yellow.gif","img/card_backs/set2/orange.gif","img/card_backs/set2/gray.gif","img/card_backs/set2/pink.gif","img/card_backs/set2/blue.gif","""event"",""trial"",""time""
""fullscreenenter"",""1"",""2568""
","
","
","""event"",""trial"",""time""
""fullscreenenter"",""1"",""2568""
","
","","1292.9350000340492","","","","practice","2021-04-06 16:28:42.101","img/practice_cards/backs/dark_blue.gif","0","200","0","",""
"casino-fixation","37","222717","0.0-17.0-0.1","A1032","true","img/card_backs/set1/green.gif","img/card_backs/set1/purple.gif","img/card_backs/set1/red.gif","img/card_backs/set1/yellow.gif","img/card_backs/set2/orange.gif","img/card_backs/set2/gray.gif","img/card_backs/set2/pink.gif","img/card_backs/set2/blue.gif","""event"",""trial"",""time""
""fullscreenenter"",""1"",""2568""
","
","
","""event"",""trial"",""time""
""fullscreenenter"",""1"",""2568""
","
","","null","","null","","fixation","2021-04-06 16:28:42.606","","","","","",""
"card-selection-trial","38","225690","0.0-17.0-1.1","A1032","true","img/card_backs/set1/green.gif","img/card_backs/set1/purple.gif","img/card_backs/set1/red.gif","img/card_backs/set1/yellow.gif","img/card_backs/set2/orange.gif","img/card_backs/set2/gray.gif","img/card_backs/set2/pink.gif","img/card_backs/set2/blue.gif","""event"",""trial"",""time""
""fullscreenenter"",""1"",""2568""
","
","
","""event"",""trial"",""time""
""fullscreenenter"",""1"",""2568""
","
","","969.1200000233948","","","","practice","2021-04-06 16:28:45.579","img/practice_cards/backs/brown.gif","1","-100","0","",""
"casino-fixation","39","226194","0.0-17.0-0.2","A1032","true","img/card_backs/set1/green.gif","img/card_backs/set1/purple.gif","img/card_backs/set1/red.gif","img/card_backs/set1/yellow.gif","img/card_backs/set2/orange.gif","img/card_backs/set2/gray.gif","img/card_backs/set2/pink.gif","img/card_backs/set2/blue.gif","""event"",""trial"",""time""
""fullscreenenter"",""1"",""2568""
","
","
","""event"",""trial"",""time""
""fullscreenenter"",""1"",""2568""
","
","","null","","null","","fixation","2021-04-06 16:28:46.083","","","","","",""
"card-selection-trial","40","231645","0.0-17.0-1.2","A1032","true","img/card_backs/set1/green.gif","img/card_backs/set1/purple.gif","img/card_backs/set1/red.gif","img/card_backs/set1/yellow.gif","img/card_backs/set2/orange.gif","img/card_backs/set2/gray.gif","img/card_backs/set2/pink.gif","img/card_backs/set2/blue.gif","""event"",""trial"",""time""
""fullscreenenter"",""1"",""2568""
","
","
","""event"",""trial"",""time""
""fullscreenenter"",""1"",""2568""
","
","","3445.300000021234","","","","practice","2021-04-06 16:28:51.535","img/practice_cards/backs/dark_green.gif","1","200","0","",""
"casino-fixation","41","232147","0.0-17.0-0.3","A1032","true","img/card_backs/set1/green.gif","img/card_backs/set1/purple.gif","img/card_backs/set1/red.gif","img/card_backs/set1/yellow.gif","img/card_backs/set2/orange.gif","img/card_backs/set2/gray.gif","img/card_backs/set2/pink.gif","img/card_backs/set2/blue.gif","""event"",""trial"",""time""
""fullscreenenter"",""1"",""2568""
","
","
","""event"",""trial"",""time""
""fullscreenenter"",""1"",""2568""
","
","","null","","null","","fixation","2021-04-06 16:28:52.036","","","","","",""
"card-selection-trial","42","236562","0.0-17.0-1.3","A1032","true","img/card_backs/set1/green.gif","img/card_backs/set1/purple.gif","img/card_backs/set1/red.gif","img/card_backs/set1/yellow.gif","img/card_backs/set2/orange.gif","img/card_backs/set2/gray.gif","img/card_backs/set2/pink.gif","img/card_backs/set2/blue.gif","""event"",""trial"",""time""
""fullscreenenter"",""1"",""2568""
","
","
","""event"",""trial"",""time""
""fullscreenenter"",""1"",""2568""
","
","","2411.6949999006465","","","","practice","2021-04-06 16:28:56.451","img/practice_cards/backs/black.gif","3","-100","0","",""
"casino-fixation","43","237064","0.0-17.0-0.4","A1032","true","img/card_backs/set1/green.gif","img/card_backs/set1/purple.gif","img/card_backs/set1/red.gif","img/card_backs/set1/yellow.gif","img/card_backs/set2/orange.gif","img/card_backs/set2/gray.gif","img/card_backs/set2/pink.gif","img/card_backs/set2/blue.gif","""event"",""trial"",""time""
""fullscreenenter"",""1"",""2568""
","
","
","""event"",""trial"",""time""
""fullscreenenter"",""1"",""2568""
","
","","null","","null","","fixation","2021-04-06 16:28:56.953","","","","","",""
"card-selection-trial","44","241279","0.0-17.0-1.4","A1032","true","img/card_backs/set1/green.gif","img/card_backs/set1/purple.gif","img/card_backs/set1/red.gif","img/card_backs/set1/yellow.gif","img/card_backs/set2/orange.gif","img/card_backs/set2/gray.gif","img/card_backs/set2/pink.gif","img/card_backs/set2/blue.gif","""event"",""trial"",""time""
""fullscreenenter"",""1"",""2568""
","
","
","""event"",""trial"",""time""
""fullscreenenter"",""1"",""2568""
","
","","2206.9700000574812","","","","practice","2021-04-06 16:29:01.168","img/practice_cards/backs/dark_blue.gif","3","200","0","",""
"casino-fixation","45","241781","0.0-17.0-0.5","A1032","true","img/card_backs/set1/green.gif","img/card_backs/set1/purple.gif","img/card_backs/set1/red.gif","img/card_backs/set1/yellow.gif","img/card_backs/set2/orange.gif","img/card_backs/set2/gray.gif","img/card_backs/set2/pink.gif","img/card_backs/set2/blue.gif","""event"",""trial"",""time""
""fullscreenenter"",""1"",""2568""
","
","
","""event"",""trial"",""time""
""fullscreenenter"",""1"",""2568""
","
","","null","","null","","fixation","2021-04-06 16:29:01.670","","","","","",""
"card-selection-trial","46","244945","0.0-17.0-1.5","A1032","true","img/card_backs/set1/green.gif","img/card_backs/set1/purple.gif","img/card_backs/set1/red.gif","img/card_backs/set1/yellow.gif","img/card_backs/set2/orange.gif","img/card_backs/set2/gray.gif","img/card_backs/set2/pink.gif","img/card_backs/set2/blue.gif","""event"",""trial"",""time""
""fullscreenenter"",""1"",""2568""
","
","
","""event"",""trial"",""time""
""fullscreenenter"",""1"",""2568""
","
","","1161.3950000610203","","","","practice","2021-04-06 16:29:04.834","img/practice_cards/backs/dark_green.gif","2","200","0","",""
"casino-fixation","47","245447","0.0-17.0-0.6","A1032","true","img/card_backs/set1/green.gif","img/card_backs/set1/purple.gif","img/card_backs/set1/red.gif","img/card_backs/set1/yellow.gif","img/card_backs/set2/orange.gif","img/card_backs/set2/gray.gif","img/card_backs/set2/pink.gif","img/card_backs/set2/blue.gif","""event"",""trial"",""time""
""fullscreenenter"",""1"",""2568""
","
","
","""event"",""trial"",""time""
""fullscreenenter"",""1"",""2568""
","
","","null","","null","","fixation","2021-04-06 16:29:05.336","","","","","",""
"card-selection-trial","48","249787","0.0-17.0-1.6","A1032","true","img/card_backs/set1/green.gif","img/card_backs/set1/purple.gif","img/card_backs/set1/red.gif","img/card_backs/set1/yellow.gif","img/card_backs/set2/orange.gif","img/card_backs/set2/gray.gif","img/card_backs/set2/pink.gif","img/card_backs/set2/blue.gif","""event"",""trial"",""time""
""fullscreenenter"",""1"",""2568""
","
","
","""event"",""trial"",""time""
""fullscreenenter"",""1"",""2568""
","
","","2333.560000057332","","","","practice","2021-04-06 16:29:09.676","img/practice_cards/backs/black.gif","1","100","0","",""
"casino-fixation","49","250290","0.0-17.0-0.7","A1032","true","img/card_backs/set1/green.gif","img/card_backs/set1/purple.gif","img/card_backs/set1/red.gif","img/card_backs/set1/yellow.gif","img/card_backs/set2/orange.gif","img/card_backs/set2/gray.gif","img/card_backs/set2/pink.gif","img/card_backs/set2/blue.gif","""event"",""trial"",""time""
""fullscreenenter"",""1"",""2568""
","
","
","""event"",""trial"",""time""
""fullscreenenter"",""1"",""2568""
","
","","null","","null","","fixation","2021-04-06 16:29:10.179","","","","","",""
"card-selection-trial","50","253543","0.0-17.0-1.7","A1032","true","img/card_backs/set1/green.gif","img/card_backs/set1/purple.gif","img/card_backs/set1/red.gif","img/card_backs/set1/yellow.gif","img/card_backs/set2/orange.gif","img/card_backs/set2/gray.gif","img/card_backs/set2/pink.gif","img/card_backs/set2/blue.gif","""event"",""trial"",""time""
""fullscreenenter"",""1"",""2568""
","
","
","""event"",""trial"",""time""
""fullscreenenter"",""1"",""2568""
","
","","1246.500000008382","","","","practice","2021-04-06 16:29:13.432","img/practice_cards/backs/brown.gif","1","100","0","",""
"casino-fixation","51","254044","0.0-17.0-0.8","A1032","true","img/card_backs/set1/green.gif","img/card_backs/set1/purple.gif","img/card_backs/set1/red.gif","img/card_backs/set1/yellow.gif","img/card_backs/set2/orange.gif","img/card_backs/set2/gray.gif","img/card_backs/set2/pink.gif","img/card_backs/set2/blue.gif","""event"",""trial"",""time""
""fullscreenenter"",""1"",""2568""
","
","
","""event"",""trial"",""time""
""fullscreenenter"",""1"",""2568""
","
","","null","","null","","fixation","2021-04-06 16:29:13.933","","","","","",""
"card-selection-trial","52","258320","0.0-17.0-1.8","A1032","true","img/card_backs/set1/green.gif","img/card_backs/set1/purple.gif","img/card_backs/set1/red.gif","img/card_backs/set1/yellow.gif","img/card_backs/set2/orange.gif","img/card_backs/set2/gray.gif","img/card_backs/set2/pink.gif","img/card_backs/set2/blue.gif","""event"",""trial"",""time""
""fullscreenenter"",""1"",""2568""
","
","
","""event"",""trial"",""time""
""fullscreenenter"",""1"",""2568""
","
","","2266.2550000241026","","","","practice","2021-04-06 16:29:18.209","img/practice_cards/backs/black.gif","0","-100","0","",""
"casino-fixation","53","258825","0.0-17.0-0.9","A1032","true","img/card_backs/set1/green.gif","img/card_backs/set1/purple.gif","img/card_backs/set1/red.gif","img/card_backs/set1/yellow.gif","img/card_backs/set2/orange.gif","img/card_backs/set2/gray.gif","img/card_backs/set2/pink.gif","img/card_backs/set2/blue.gif","""event"",""trial"",""time""
""fullscreenenter"",""1"",""2568""
","
","
","""event"",""trial"",""time""
""fullscreenenter"",""1"",""2568""
","
","","null","","null","","fixation","2021-04-06 16:29:18.714","","","","","",""
"card-selection-trial","54","261716","0.0-17.0-1.9","A1032","true","img/card_backs/set1/green.gif","img/card_backs/set1/purple.gif","img/card_backs/set1/red.gif","img/card_backs/set1/yellow.gif","img/card_backs/set2/orange.gif","img/card_backs/set2/gray.gif","img/card_backs/set2/pink.gif","img/card_backs/set2/blue.gif","""event"",""trial"",""time""
""fullscreenenter"",""1"",""2568""
","
","
","""event"",""trial"",""time""
""fullscreenenter"",""1"",""2568""
","
","","881.5000000176951","","","","practice","2021-04-06 16:29:21.605","img/practice_cards/backs/brown.gif","1","-100","0","",""
"casino-keyboard-response","55","264749","0.0-18.0","A1032","true","img/card_backs/set1/green.gif","img/card_backs/set1/purple.gif","img/card_backs/set1/red.gif","img/card_backs/set1/yellow.gif","img/card_backs/set2/orange.gif","img/card_backs/set2/gray.gif","img/card_backs/set2/pink.gif","img/card_backs/set2/blue.gif","""event"",""trial"",""time""
""fullscreenenter"",""1"",""2568""
","
","
","""event"",""trial"",""time""
""fullscreenenter"",""1"",""2568""
","
","","3032.0849999552593","You earned 600 tokens during the practice round!","82","","","2021-04-06 16:29:24.639","","","","","",""
"casino-keyboard-response","56","268930","0.0-19.0-0.0","A1032","true","img/card_backs/set1/green.gif","img/card_backs/set1/purple.gif","img/card_backs/set1/red.gif","img/card_backs/set1/yellow.gif","img/card_backs/set2/orange.gif","img/card_backs/set2/gray.gif","img/card_backs/set2/pink.gif","img/card_backs/set2/blue.gif","""event"",""trial"",""time""
""fullscreenenter"",""1"",""2568""
","
","
","""event"",""trial"",""time""
""fullscreenenter"",""1"",""2568""
","
","","4179.164999979548","Nice job! You are almost ready to play the real game.","86","","instructions","2021-04-06 16:29:28.819","","","","","",""
"casino-keyboard-response","57","276372","0.0-19.0-0.1","A1032","true","img/card_backs/set1/green.gif","img/card_backs/set1/purple.gif","img/card_backs/set1/red.gif","img/card_backs/set1/yellow.gif","img/card_backs/set2/orange.gif","img/card_backs/set2/gray.gif","img/card_backs/set2/pink.gif","img/card_backs/set2/blue.gif","""event"",""trial"",""time""
""fullscreenenter"",""1"",""2568""
","
","
","""event"",""trial"",""time""
""fullscreenenter"",""1"",""2568""
","
","","7440.925000002608","You will play two rounds of the real game. In each round, you will pick 100 cards in total.","73","","instructions","2021-04-06 16:29:36.261","","","","","",""
"casino-keyboard-response","58","280593","0.0-19.0-0.2","A1032","true","img/card_backs/set1/green.gif","img/card_backs/set1/purple.gif","img/card_backs/set1/red.gif","img/card_backs/set1/yellow.gif","img/card_backs/set2/orange.gif","img/card_backs/set2/gray.gif","img/card_backs/set2/pink.gif","img/card_backs/set2/blue.gif","""event"",""trial"",""time""
""fullscreenenter"",""1"",""2568""
","
","
","""event"",""trial"",""time""
""fullscreenenter"",""1"",""2568""
","
","","4220.3600000357255","We are now going to ask you some questions about how the game works.","66","","instructions","2021-04-06 16:29:40.482","","","","","",""
"casino-keyboard-response","59","286904","0.0-19.0-0.3","A1032","true","img/card_backs/set1/green.gif","img/card_backs/set1/purple.gif","img/card_backs/set1/red.gif","img/card_backs/set1/yellow.gif","img/card_backs/set2/orange.gif","img/card_backs/set2/gray.gif","img/card_backs/set2/pink.gif","img/card_backs/set2/blue.gif","""event"",""trial"",""time""
""fullscreenenter"",""1"",""2568""
","
","
","""event"",""trial"",""time""
""fullscreenenter"",""1"",""2568""
","
","","6310.07500004489","Answer carefully. You will not be able to begin the game until you answer them correctly.","67","","instructions","2021-04-06 16:29:46.793","","","","","",""
"casino-comp_q","60","293175","0.0-20.0-0.0","A1032","true","img/card_backs/set1/green.gif","img/card_backs/set1/purple.gif","img/card_backs/set1/red.gif","img/card_backs/set1/yellow.gif","img/card_backs/set2/orange.gif","img/card_backs/set2/gray.gif","img/card_backs/set2/pink.gif","img/card_backs/set2/blue.gif","""event"",""trial"",""time""
""fullscreenenter"",""1"",""2568""
","
","
","""event"",""trial"",""time""
""fullscreenenter"",""1"",""2568""
","
","","6269.214999978431","True or False: All the decks have some cards that cause you to win tokens and some cards that cause you to lose tokens.","84","","","2021-04-06 16:29:53.064","","","","","",""
"casino-keyboard-response","61","295877","0.0-20.0-1.0","A1032","true","img/card_backs/set1/green.gif","img/card_backs/set1/purple.gif","img/card_backs/set1/red.gif","img/card_backs/set1/yellow.gif","img/card_backs/set2/orange.gif","img/card_backs/set2/gray.gif","img/card_backs/set2/pink.gif","img/card_backs/set2/blue.gif","""event"",""trial"",""time""
""fullscreenenter"",""1"",""2568""
","
","
","""event"",""trial"",""time""
""fullscreenenter"",""1"",""2568""
","
","","2699.985000072047","True is correct! All the decks have a mix of winning and losing cards.","77","","","2021-04-06 16:29:55.766","","","","","true",""
"casino-comp_q","62","299474","0.0-21.0-0.0","A1032","true","img/card_backs/set1/green.gif","img/card_backs/set1/purple.gif","img/card_backs/set1/red.gif","img/card_backs/set1/yellow.gif","img/card_backs/set2/orange.gif","img/card_backs/set2/gray.gif","img/card_backs/set2/pink.gif","img/card_backs/set2/blue.gif","""event"",""trial"",""time""
""fullscreenenter"",""1"",""2568""
","
","
","""event"",""trial"",""time""
""fullscreenenter"",""1"",""2568""
","
","","3595.2399999368936","True or False: You will have as much time as you want to make your response.","70","","","2021-04-06 16:29:59.363","","","","","",""
"casino-keyboard-response","63","302399","0.0-21.0-1.0","A1032","true","img/card_backs/set1/green.gif","img/card_backs/set1/purple.gif","img/card_backs/set1/red.gif","img/card_backs/set1/yellow.gif","img/card_backs/set2/orange.gif","img/card_backs/set2/gray.gif","img/card_backs/set2/pink.gif","img/card_backs/set2/blue.gif","""event"",""trial"",""time""
""fullscreenenter"",""1"",""2568""
","
","
","""event"",""trial"",""time""
""fullscreenenter"",""1"",""2568""
","
","","2923.3900000108406","False is correct! You will only have 10 seconds to make each choice.","75","","","2021-04-06 16:30:02.288","","","","","true",""
"casino-comp_q","64","305761","0.0-22.0-0.0","A1032","true","img/card_backs/set1/green.gif","img/card_backs/set1/purple.gif","img/card_backs/set1/red.gif","img/card_backs/set1/yellow.gif","img/card_backs/set2/orange.gif","img/card_backs/set2/gray.gif","img/card_backs/set2/pink.gif","img/card_backs/set2/blue.gif","""event"",""trial"",""time""
""fullscreenenter"",""1"",""2568""
","
","
","""event"",""trial"",""time""
""fullscreenenter"",""1"",""2568""
","
","","3361.434999969788","True or False: The location of the deck determines how lucky it is.","70","","","2021-04-06 16:30:05.650","","","","","",""
"casino-keyboard-response","65","308351","0.0-22.0-1.0","A1032","true","img/card_backs/set1/green.gif","img/card_backs/set1/purple.gif","img/card_backs/set1/red.gif","img/card_backs/set1/yellow.gif","img/card_backs/set2/orange.gif","img/card_backs/set2/gray.gif","img/card_backs/set2/pink.gif","img/card_backs/set2/blue.gif","""event"",""trial"",""time""
""fullscreenenter"",""1"",""2568""
","
","
","""event"",""trial"",""time""
""fullscreenenter"",""1"",""2568""
","
","","2588.7799999909475","False is correct! The <i>color</i>  of the deck determines how lucky or unlucky it is.","68","","","2021-04-06 16:30:08.241","","","","","true",""
"casino-keyboard-response","66","312375","0.0-23.0-0.0","A1032","true","img/card_backs/set1/green.gif","img/card_backs/set1/purple.gif","img/card_backs/set1/red.gif","img/card_backs/set1/yellow.gif","img/card_backs/set2/orange.gif","img/card_backs/set2/gray.gif","img/card_backs/set2/pink.gif","img/card_backs/set2/blue.gif","""event"",""trial"",""time""
""fullscreenenter"",""1"",""2568""
","
","
","""event"",""trial"",""time""
""fullscreenenter"",""1"",""2568""
","
","","4021.794999949634","Great job! Now it's time to start the real game.","82","","instructions","2021-04-06 16:30:12.264","","","","","",""
"casino-keyboard-response","67","317640","0.0-23.0-0.1","A1032","true","img/card_backs/set1/green.gif","img/card_backs/set1/purple.gif","img/card_backs/set1/red.gif","img/card_backs/set1/yellow.gif","img/card_backs/set2/orange.gif","img/card_backs/set2/gray.gif","img/card_backs/set2/pink.gif","img/card_backs/set2/blue.gif","""event"",""trial"",""time""
""fullscreenenter"",""1"",""2568""
","
","
","""event"",""trial"",""time""
""fullscreenenter"",""1"",""2568""
","
","","5264.475000090897","Before we start, we're going to head into a new room of the casino.","86","","instructions","2021-04-06 16:30:17.529","","","","","",""
"casino-keyboard-response","68","323702","0.0-24.0-0.0","A1032","true","img/card_backs/set1/green.gif","img/card_backs/set1/purple.gif","img/card_backs/set1/red.gif","img/card_backs/set1/yellow.gif","img/card_backs/set2/orange.gif","img/card_backs/set2/gray.gif","img/card_backs/set2/pink.gif","img/card_backs/set2/blue.gif","""event"",""trial"",""time""
""fullscreenenter"",""1"",""2568""
","
","
","""event"",""trial"",""time""
""fullscreenenter"",""1"",""2568""
","
","","6060.629999963567","Here we are! The real game will use different cards, but the rules will be the same.","71","","instructions","2021-04-06 16:30:23.591","","","","","",""
"casino-keyboard-response","69","327706","0.0-24.0-0.1","A1032","true","img/card_backs/set1/green.gif","img/card_backs/set1/purple.gif","img/card_backs/set1/red.gif","img/card_backs/set1/yellow.gif","img/card_backs/set2/orange.gif","img/card_backs/set2/gray.gif","img/card_backs/set2/pink.gif","img/card_backs/set2/blue.gif","""event"",""trial"",""time""
""fullscreenenter"",""1"",""2568""
","
","
","""event"",""trial"",""time""
""fullscreenenter"",""1"",""2568""
","
","","4002.845000009984","Ready? Put your fingers over the '2', '4', 6', and '8' keys so you are ready to play the game. </br> Then press 2 to start.","50","","instructions","2021-04-06 16:30:27.595","","","","","",""
"casino-fixation","70","328210","0.0-25.0-0.0","A1032","true","img/card_backs/set1/green.gif","img/card_backs/set1/purple.gif","img/card_backs/set1/red.gif","img/card_backs/set1/yellow.gif","img/card_backs/set2/orange.gif","img/card_backs/set2/gray.gif","img/card_backs/set2/pink.gif","img/card_backs/set2/blue.gif","""event"",""trial"",""time""
""fullscreenenter"",""1"",""2568""
","
","
","""event"",""trial"",""time""
""fullscreenenter"",""1"",""2568""
","
","","null","","null","","fixation","2021-04-06 16:30:28.099","","","","","",""
"card-selection-trial","71","332756","0.0-25.0-1.0","A1032","true","img/card_backs/set1/green.gif","img/card_backs/set1/purple.gif","img/card_backs/set1/red.gif","img/card_backs/set1/yellow.gif","img/card_backs/set2/orange.gif","img/card_backs/set2/gray.gif","img/card_backs/set2/pink.gif","img/card_backs/set2/blue.gif","""event"",""trial"",""time""
""fullscreenenter"",""1"",""2568""
","
","
","""event"",""trial"",""time""
""fullscreenenter"",""1"",""2568""
","
","","2540.515000000596","","","","real_trial","2021-04-06 16:30:32.645","img/card_backs/set1/yellow.gif","0","60","1","",""
"casino-fixation","72","333259","0.0-25.0-0.1","A1032","true","img/card_backs/set1/green.gif","img/card_backs/set1/purple.gif","img/card_backs/set1/red.gif","img/card_backs/set1/yellow.gif","img/card_backs/set2/orange.gif","img/card_backs/set2/gray.gif","img/card_backs/set2/pink.gif","img/card_backs/set2/blue.gif","""event"",""trial"",""time""
""fullscreenenter"",""1"",""2568""
","
","
","""event"",""trial"",""time""
""fullscreenenter"",""1"",""2568""
","
","","null","","null","","fixation","2021-04-06 16:30:33.148","","","","","",""
"card-selection-trial","73","336504","0.0-25.0-1.1","A1032","true","img/card_backs/set1/green.gif","img/card_backs/set1/purple.gif","img/card_backs/set1/red.gif","img/card_backs/set1/yellow.gif","img/card_backs/set2/orange.gif","img/card_backs/set2/gray.gif","img/card_backs/set2/pink.gif","img/card_backs/set2/blue.gif","""event"",""trial"",""time""
""fullscreenenter"",""1"",""2568""
","
","
","""event"",""trial"",""time""
""fullscreenenter"",""1"",""2568""
","
","","1239.6099999314174","","","","real_trial","2021-04-06 16:30:36.393","img/card_backs/set1/green.gif","1","-190","1","",""
"casino-fixation","74","337004","0.0-25.0-0.2","A1032","true","img/card_backs/set1/green.gif","img/card_backs/set1/purple.gif","img/card_backs/set1/red.gif","img/card_backs/set1/yellow.gif","img/card_backs/set2/orange.gif","img/card_backs/set2/gray.gif","img/card_backs/set2/pink.gif","img/card_backs/set2/blue.gif","""event"",""trial"",""time""
""fullscreenenter"",""1"",""2568""
","
","
","""event"",""trial"",""time""
""fullscreenenter"",""1"",""2568""
","
","","null","","null","","fixation","2021-04-06 16:30:36.894","","","","","",""
"card-selection-trial","75","340825","0.0-25.0-1.2","A1032","true","img/card_backs/set1/green.gif","img/card_backs/set1/purple.gif","img/card_backs/set1/red.gif","img/card_backs/set1/yellow.gif","img/card_backs/set2/orange.gif","img/card_backs/set2/gray.gif","img/card_backs/set2/pink.gif","img/card_backs/set2/blue.gif","""event"",""trial"",""time""
""fullscreenenter"",""1"",""2568""
","
","
","""event"",""trial"",""time""
""fullscreenenter"",""1"",""2568""
","
","","1812.430000049062","","","","real_trial","2021-04-06 16:30:40.714","img/card_backs/set1/red.gif","0","60","1","",""
"casino-fixation","76","341327","0.0-25.0-0.3","A1032","true","img/card_backs/set1/green.gif","img/card_backs/set1/purple.gif","img/card_backs/set1/red.gif","img/card_backs/set1/yellow.gif","img/card_backs/set2/orange.gif","img/card_backs/set2/gray.gif","img/card_backs/set2/pink.gif","img/card_backs/set2/blue.gif","""event"",""trial"",""time""
""fullscreenenter"",""1"",""2568""
","
","
","""event"",""trial"",""time""
""fullscreenenter"",""1"",""2568""
","
","","null","","null","","fixation","2021-04-06 16:30:41.216","","","","","",""
"card-selection-trial","77","344433","0.0-25.0-1.3","A1032","true","img/card_backs/set1/green.gif","img/card_backs/set1/purple.gif","img/card_backs/set1/red.gif","img/card_backs/set1/yellow.gif","img/card_backs/set2/orange.gif","img/card_backs/set2/gray.gif","img/card_backs/set2/pink.gif","img/card_backs/set2/blue.gif","""event"",""trial"",""time""
""fullscreenenter"",""1"",""2568""
","
","
","""event"",""trial"",""time""
""fullscreenenter"",""1"",""2568""
","
","","1101.814999943599","","","","real_trial","2021-04-06 16:30:44.322","img/card_backs/set1/purple.gif","0","-210","1","",""
"casino-fixation","78","344938","0.0-25.0-0.4","A1032","true","img/card_backs/set1/green.gif","img/card_backs/set1/purple.gif","img/card_backs/set1/red.gif","img/card_backs/set1/yellow.gif","img/card_backs/set2/orange.gif","img/card_backs/set2/gray.gif","img/card_backs/set2/pink.gif","img/card_backs/set2/blue.gif","""event"",""trial"",""time""
""fullscreenenter"",""1"",""2568""
","
","
","""event"",""trial"",""time""
""fullscreenenter"",""1"",""2568""
","
","","null","","null","","fixation","2021-04-06 16:30:44.827","","","","","",""
"card-selection-trial","79","347738","0.0-25.0-1.4","A1032","true","img/card_backs/set1/green.gif","img/card_backs/set1/purple.gif","img/card_backs/set1/red.gif","img/card_backs/set1/yellow.gif","img/card_backs/set2/orange.gif","img/card_backs/set2/gray.gif","img/card_backs/set2/pink.gif","img/card_backs/set2/blue.gif","""event"",""trial"",""time""
""fullscreenenter"",""1"",""2568""
","
","
","""event"",""trial"",""time""
""fullscreenenter"",""1"",""2568""
","
","","791.9849999016151","","","","real_trial","2021-04-06 16:30:47.627","img/card_backs/set1/yellow.gif","0","60","1","",""
"casino-fixation","80","348241","0.0-25.0-0.5","A1032","true","img/card_backs/set1/green.gif","img/card_backs/set1/purple.gif","img/card_backs/set1/red.gif","img/card_backs/set1/yellow.gif","img/card_backs/set2/orange.gif","img/card_backs/set2/gray.gif","img/card_backs/set2/pink.gif","img/card_backs/set2/blue.gif","""event"",""trial"",""time""
""fullscreenenter"",""1"",""2568""
","
","
","""event"",""trial"",""time""
""fullscreenenter"",""1"",""2568""
","
","","null","","null","","fixation","2021-04-06 16:30:48.130","","","","","",""
"card-selection-trial","81","351196","0.0-25.0-1.5","A1032","true","img/card_backs/set1/green.gif","img/card_backs/set1/purple.gif","img/card_backs/set1/red.gif","img/card_backs/set1/yellow.gif","img/card_backs/set2/orange.gif","img/card_backs/set2/gray.gif","img/card_backs/set2/pink.gif","img/card_backs/set2/blue.gif","""event"",""trial"",""time""
""fullscreenenter"",""1"",""2568""
","
","
","""event"",""trial"",""time""
""fullscreenenter"",""1"",""2568""
","
","","946.5100000379607","","","","real_trial","2021-04-06 16:30:51.085","img/card_backs/set1/green.gif","2","-200","1","",""
"casino-fixation","82","351701","0.0-25.0-0.6","A1032","true","img/card_backs/set1/green.gif","img/card_backs/set1/purple.gif","img/card_backs/set1/red.gif","img/card_backs/set1/yellow.gif","img/card_backs/set2/orange.gif","img/card_backs/set2/gray.gif","img/card_backs/set2/pink.gif","img/card_backs/set2/blue.gif","""event"",""trial"",""time""
""fullscreenenter"",""1"",""2568""
","
","
","""event"",""trial"",""time""
""fullscreenenter"",""1"",""2568""
","
","","null","","null","","fixation","2021-04-06 16:30:51.590","","","","","",""
"card-selection-trial","83","354658","0.0-25.0-1.6","A1032","true","img/card_backs/set1/green.gif","img/card_backs/set1/purple.gif","img/card_backs/set1/red.gif","img/card_backs/set1/yellow.gif","img/card_backs/set2/orange.gif","img/card_backs/set2/gray.gif","img/card_backs/set2/pink.gif","img/card_backs/set2/blue.gif","""event"",""trial"",""time""
""fullscreenenter"",""1"",""2568""
","
","
","""event"",""trial"",""time""
""fullscreenenter"",""1"",""2568""
","
","","951.8849999876693","","","","real_trial","2021-04-06 16:30:54.547","img/card_backs/set1/red.gif","3","60","1","",""
"casino-fixation","84","355160","0.0-25.0-0.7","A1032","true","img/card_backs/set1/green.gif","img/card_backs/set1/purple.gif","img/card_backs/set1/red.gif","img/card_backs/set1/yellow.gif","img/card_backs/set2/orange.gif","img/card_backs/set2/gray.gif","img/card_backs/set2/pink.gif","img/card_backs/set2/blue.gif","""event"",""trial"",""time""
""fullscreenenter"",""1"",""2568""
","
","
","""event"",""trial"",""time""
""fullscreenenter"",""1"",""2568""
","
","","null","","null","","fixation","2021-04-06 16:30:55.049","","","","","",""
"card-selection-trial","85","357918","0.0-25.0-1.7","A1032","true","img/card_backs/set1/green.gif","img/card_backs/set1/purple.gif","img/card_backs/set1/red.gif","img/card_backs/set1/yellow.gif","img/card_backs/set2/orange.gif","img/card_backs/set2/gray.gif","img/card_backs/set2/pink.gif","img/card_backs/set2/blue.gif","""event"",""trial"",""time""
""fullscreenenter"",""1"",""2568""
","
","
","""event"",""trial"",""time""
""fullscreenenter"",""1"",""2568""
","
","","749.0850000176579","","","","real_trial","2021-04-06 16:30:57.807","img/card_backs/set1/purple.gif","2","-200","1","",""
"casino-fixation","86","358424","0.0-25.0-0.8","A1032","true","img/card_backs/set1/green.gif","img/card_backs/set1/purple.gif","img/card_backs/set1/red.gif","img/card_backs/set1/yellow.gif","img/card_backs/set2/orange.gif","img/card_backs/set2/gray.gif","img/card_backs/set2/pink.gif","img/card_backs/set2/blue.gif","""event"",""trial"",""time""
""fullscreenenter"",""1"",""2568""
","
","
","""event"",""trial"",""time""
""fullscreenenter"",""1"",""2568""
","
","","null","","null","","fixation","2021-04-06 16:30:58.313","","","","","",""
"card-selection-trial","87","361191","0.0-25.0-1.8","A1032","true","img/card_backs/set1/green.gif","img/card_backs/set1/purple.gif","img/card_backs/set1/red.gif","img/card_backs/set1/yellow.gif","img/card_backs/set2/orange.gif","img/card_backs/set2/gray.gif","img/card_backs/set2/pink.gif","img/card_backs/set2/blue.gif","""event"",""trial"",""time""
""fullscreenenter"",""1"",""2568""
","
","
","""event"",""trial"",""time""
""fullscreenenter"",""1"",""2568""
","
","","757.8450000146404","","","","real_trial","2021-04-06 16:31:01.080","img/card_backs/set1/yellow.gif","2","40","1","",""
"casino-fixation","88","361698","0.0-25.0-0.9","A1032","true","img/card_backs/set1/green.gif","img/card_backs/set1/purple.gif","img/card_backs/set1/red.gif","img/card_backs/set1/yellow.gif","img/card_backs/set2/orange.gif","img/card_backs/set2/gray.gif","img/card_backs/set2/pink.gif","img/card_backs/set2/blue.gif","""event"",""trial"",""time""
""fullscreenenter"",""1"",""2568""
","
","
","""event"",""trial"",""time""
""fullscreenenter"",""1"",""2568""
","
","","null","","null","","fixation","2021-04-06 16:31:01.587","","","","","",""
"card-selection-trial","89","364788","0.0-25.0-1.9","A1032","true","img/card_backs/set1/green.gif","img/card_backs/set1/purple.gif","img/card_backs/set1/red.gif","img/card_backs/set1/yellow.gif","img/card_backs/set2/orange.gif","img/card_backs/set2/gray.gif","img/card_backs/set2/pink.gif","img/card_backs/set2/blue.gif","""event"",""trial"",""time""
""fullscreenenter"",""1"",""2568""
","
","
","""event"",""trial"",""time""
""fullscreenenter"",""1"",""2568""
","
","","1082.025000010617","","","","real_trial","2021-04-06 16:31:04.677","img/card_backs/set1/yellow.gif","1","-100","1","",""
"casino-fixation","90","365291","0.0-25.0-0.10","A1032","true","img/card_backs/set1/green.gif","img/card_backs/set1/purple.gif","img/card_backs/set1/red.gif","img/card_backs/set1/yellow.gif","img/card_backs/set2/orange.gif","img/card_backs/set2/gray.gif","img/card_backs/set2/pink.gif","img/card_backs/set2/blue.gif","""event"",""trial"",""time""
""fullscreenenter"",""1"",""2568""
","
","
","""event"",""trial"",""time""
""fullscreenenter"",""1"",""2568""
","
","","null","","null","","fixation","2021-04-06 16:31:05.180","","","","","",""
"card-selection-trial","91","368427","0.0-25.0-1.10","A1032","true","img/card_backs/set1/green.gif","img/card_backs/set1/purple.gif","img/card_backs/set1/red.gif","img/card_backs/set1/yellow.gif","img/card_backs/set2/orange.gif","img/card_backs/set2/gray.gif","img/card_backs/set2/pink.gif","img/card_backs/set2/blue.gif","""event"",""trial"",""time""
""fullscreenenter"",""1"",""2568""
","
","
","""event"",""trial"",""time""
""fullscreenenter"",""1"",""2568""
","
","","1128.1650000019","","","","real_trial","2021-04-06 16:31:08.316","img/card_backs/set1/yellow.gif","2","-100","1","",""
"casino-fixation","92","368932","0.0-25.0-0.11","A1032","true","img/card_backs/set1/green.gif","img/card_backs/set1/purple.gif","img/card_backs/set1/red.gif","img/card_backs/set1/yellow.gif","img/card_backs/set2/orange.gif","img/card_backs/set2/gray.gif","img/card_backs/set2/pink.gif","img/card_backs/set2/blue.gif","""event"",""trial"",""time""
""fullscreenenter"",""1"",""2568""
","
","
","""event"",""trial"",""time""
""fullscreenenter"",""1"",""2568""
","
","","null","","null","","fixation","2021-04-06 16:31:08.821","","","","","",""
"card-selection-trial","93","372390","0.0-25.0-1.11","A1032","true","img/card_backs/set1/green.gif","img/card_backs/set1/purple.gif","img/card_backs/set1/red.gif","img/card_backs/set1/yellow.gif","img/card_backs/set2/orange.gif","img/card_backs/set2/gray.gif","img/card_backs/set2/pink.gif","img/card_backs/set2/blue.gif","""event"",""trial"",""time""
""fullscreenenter"",""1"",""2568""
","
","
","""event"",""trial"",""time""
""fullscreenenter"",""1"",""2568""
","
","","1453.2149999868125","","","","real_trial","2021-04-06 16:31:12.279","img/card_backs/set1/green.gif","1","240","1","",""
"casino-fixation","94","372891","0.0-25.0-0.12","A1032","true","img/card_backs/set1/green.gif","img/card_backs/set1/purple.gif","img/card_backs/set1/red.gif","img/card_backs/set1/yellow.gif","img/card_backs/set2/orange.gif","img/card_backs/set2/gray.gif","img/card_backs/set2/pink.gif","img/card_backs/set2/blue.gif","""event"",""trial"",""time""
""fullscreenenter"",""1"",""2568""
","
","
","""event"",""trial"",""time""
""fullscreenenter"",""1"",""2568""
","
","","null","","null","","fixation","2021-04-06 16:31:12.780","","","","","",""
"card-selection-trial","95","375688","0.0-25.0-1.12","A1032","true","img/card_backs/set1/green.gif","img/card_backs/set1/purple.gif","img/card_backs/set1/red.gif","img/card_backs/set1/yellow.gif","img/card_backs/set2/orange.gif","img/card_backs/set2/gray.gif","img/card_backs/set2/pink.gif","img/card_backs/set2/blue.gif","""event"",""trial"",""time""
""fullscreenenter"",""1"",""2568""
","
","
","""event"",""trial"",""time""
""fullscreenenter"",""1"",""2568""
","
","","785.5749999871477","","","","real_trial","2021-04-06 16:31:15.577","img/card_backs/set1/green.gif","2","260","1","",""
"casino-fixation","96","376192","0.0-25.0-0.13","A1032","true","img/card_backs/set1/green.gif","img/card_backs/set1/purple.gif","img/card_backs/set1/red.gif","img/card_backs/set1/yellow.gif","img/card_backs/set2/orange.gif","img/card_backs/set2/gray.gif","img/card_backs/set2/pink.gif","img/card_backs/set2/blue.gif","""event"",""trial"",""time""
""fullscreenenter"",""1"",""2568""
","
","
","""event"",""trial"",""time""
""fullscreenenter"",""1"",""2568""
","
","","null","","null","","fixation","2021-04-06 16:31:16.081","","","","","",""
"card-selection-trial","97","378799","0.0-25.0-1.13","A1032","true","img/card_backs/set1/green.gif","img/card_backs/set1/purple.gif","img/card_backs/set1/red.gif","img/card_backs/set1/yellow.gif","img/card_backs/set2/orange.gif","img/card_backs/set2/gray.gif","img/card_backs/set2/pink.gif","img/card_backs/set2/blue.gif","""event"",""trial"",""time""
""fullscreenenter"",""1"",""2568""
","
","
","""event"",""trial"",""time""
""fullscreenenter"",""1"",""2568""
","
","","598.2150000054389","","","","real_trial","2021-04-06 16:31:18.688","img/card_backs/set1/green.gif","3","250","1","",""
"casino-fixation","98","379302","0.0-25.0-0.14","A1032","true","img/card_backs/set1/green.gif","img/card_backs/set1/purple.gif","img/card_backs/set1/red.gif","img/card_backs/set1/yellow.gif","img/card_backs/set2/orange.gif","img/card_backs/set2/gray.gif","img/card_backs/set2/pink.gif","img/card_backs/set2/blue.gif","""event"",""trial"",""time""
""fullscreenenter"",""1"",""2568""
","
","
","""event"",""trial"",""time""
""fullscreenenter"",""1"",""2568""
","
","","null","","null","","fixation","2021-04-06 16:31:19.191","","","","","",""
"card-selection-trial","99","381956","0.0-25.0-1.14","A1032","true","img/card_backs/set1/green.gif","img/card_backs/set1/purple.gif","img/card_backs/set1/red.gif","img/card_backs/set1/yellow.gif","img/card_backs/set2/orange.gif","img/card_backs/set2/gray.gif","img/card_backs/set2/pink.gif","img/card_backs/set2/blue.gif","""event"",""trial"",""time""
""fullscreenenter"",""1"",""2568""
","
","
","""event"",""trial"",""time""
""fullscreenenter"",""1"",""2568""
","
","","646.1150000104681","","","","real_trial","2021-04-06 16:31:21.845","img/card_backs/set1/green.gif","3","-190","1","",""
"casino-fixation","100","382461","0.0-25.0-0.15","A1032","true","img/card_backs/set1/green.gif","img/card_backs/set1/purple.gif","img/card_backs/set1/red.gif","img/card_backs/set1/yellow.gif","img/card_backs/set2/orange.gif","img/card_backs/set2/gray.gif","img/card_backs/set2/pink.gif","img/card_backs/set2/blue.gif","""event"",""trial"",""time""
""fullscreenenter"",""1"",""2568""
","
","
","""event"",""trial"",""time""
""fullscreenenter"",""1"",""2568""
","
","","null","","null","","fixation","2021-04-06 16:31:22.350","","","","","",""
"card-selection-trial","101","385086","0.0-25.0-1.15","A1032","true","img/card_backs/set1/green.gif","img/card_backs/set1/purple.gif","img/card_backs/set1/red.gif","img/card_backs/set1/yellow.gif","img/card_backs/set2/orange.gif","img/card_backs/set2/gray.gif","img/card_backs/set2/pink.gif","img/card_backs/set2/blue.gif","""event"",""trial"",""time""
""fullscreenenter"",""1"",""2568""
","
","
","""event"",""trial"",""time""
""fullscreenenter"",""1"",""2568""
","
","","616.2799999583513","","","","real_trial","2021-04-06 16:31:24.975","img/card_backs/set1/green.gif","0","260","1","",""
"casino-fixation","102","385590","0.0-25.0-0.16","A1032","true","img/card_backs/set1/green.gif","img/card_backs/set1/purple.gif","img/card_backs/set1/red.gif","img/card_backs/set1/yellow.gif","img/card_backs/set2/orange.gif","img/card_backs/set2/gray.gif","img/card_backs/set2/pink.gif","img/card_backs/set2/blue.gif","""event"",""trial"",""time""
""fullscreenenter"",""1"",""2568""
","
","
","""event"",""trial"",""time""
""fullscreenenter"",""1"",""2568""
","
","","null","","null","","fixation","2021-04-06 16:31:25.479","","","","","",""
"card-selection-trial","103","388183","0.0-25.0-1.16","A1032","true","img/card_backs/set1/green.gif","img/card_backs/set1/purple.gif","img/card_backs/set1/red.gif","img/card_backs/set1/yellow.gif","img/card_backs/set2/orange.gif","img/card_backs/set2/gray.gif","img/card_backs/set2/pink.gif","img/card_backs/set2/blue.gif","""event"",""trial"",""time""
""fullscreenenter"",""1"",""2568""
","
","
","""event"",""trial"",""time""
""fullscreenenter"",""1"",""2568""
","
","","585.2949999971315","","","","real_trial","2021-04-06 16:31:28.072","img/card_backs/set1/green.gif","0","-210","1","",""
"casino-fixation","104","388687","0.0-25.0-0.17","A1032","true","img/card_backs/set1/green.gif","img/card_backs/set1/purple.gif","img/card_backs/set1/red.gif","img/card_backs/set1/yellow.gif","img/card_backs/set2/orange.gif","img/card_backs/set2/gray.gif","img/card_backs/set2/pink.gif","img/card_backs/set2/blue.gif","""event"",""trial"",""time""
""fullscreenenter"",""1"",""2568""
","
","
","""event"",""trial"",""time""
""fullscreenenter"",""1"",""2568""
","
","","null","","null","","fixation","2021-04-06 16:31:28.576","","","","","",""
"card-selection-trial","105","391621","0.0-25.0-1.17","A1032","true","img/card_backs/set1/green.gif","img/card_backs/set1/purple.gif","img/card_backs/set1/red.gif","img/card_backs/set1/yellow.gif","img/card_backs/set2/orange.gif","img/card_backs/set2/gray.gif","img/card_backs/set2/pink.gif","img/card_backs/set2/blue.gif","""event"",""trial"",""time""
""fullscreenenter"",""1"",""2568""
","
","
","""event"",""trial"",""time""
""fullscreenenter"",""1"",""2568""
","
","","927.4999999906868","","","","real_trial","2021-04-06 16:31:31.510","img/card_backs/set1/green.gif","2","-190","1","",""
"casino-fixation","106","392124","0.0-25.0-0.18","A1032","true","img/card_backs/set1/green.gif","img/card_backs/set1/purple.gif","img/card_backs/set1/red.gif","img/card_backs/set1/yellow.gif","img/card_backs/set2/orange.gif","img/card_backs/set2/gray.gif","img/card_backs/set2/pink.gif","img/card_backs/set2/blue.gif","""event"",""trial"",""time""
""fullscreenenter"",""1"",""2568""
","
","
","""event"",""trial"",""time""
""fullscreenenter"",""1"",""2568""
","
","","null","","null","","fixation","2021-04-06 16:31:32.013","","","","","",""
"card-selection-trial","107","394609","0.0-25.0-1.18","A1032","true","img/card_backs/set1/green.gif","img/card_backs/set1/purple.gif","img/card_backs/set1/red.gif","img/card_backs/set1/yellow.gif","img/card_backs/set2/orange.gif","img/card_backs/set2/gray.gif","img/card_backs/set2/pink.gif","img/card_backs/set2/blue.gif","""event"",""trial"",""time""
""fullscreenenter"",""1"",""2568""
","
","
","""event"",""trial"",""time""
""fullscreenenter"",""1"",""2568""
","
","","476.9399999640882","","","","real_trial","2021-04-06 16:31:34.499","img/card_backs/set1/green.gif","0","-210","1","",""
"casino-fixation","108","395114","0.0-25.0-0.19","A1032","true","img/card_backs/set1/green.gif","img/card_backs/set1/purple.gif","img/card_backs/set1/red.gif","img/card_backs/set1/yellow.gif","img/card_backs/set2/orange.gif","img/card_backs/set2/gray.gif","img/card_backs/set2/pink.gif","img/card_backs/set2/blue.gif","""event"",""trial"",""time""
""fullscreenenter"",""1"",""2568""
","
","
","""event"",""trial"",""time""
""fullscreenenter"",""1"",""2568""
","
","","null","","null","","fixation","2021-04-06 16:31:35.004","","","","","",""
"card-selection-trial","109","397682","0.0-25.0-1.19","A1032","true","img/card_backs/set1/green.gif","img/card_backs/set1/purple.gif","img/card_backs/set1/red.gif","img/card_backs/set1/yellow.gif","img/card_backs/set2/orange.gif","img/card_backs/set2/gray.gif","img/card_backs/set2/pink.gif","img/card_backs/set2/blue.gif","""event"",""trial"",""time""
""fullscreenenter"",""1"",""2568""
","
","
","""event"",""trial"",""time""
""fullscreenenter"",""1"",""2568""
","
","","560.3949999203905","","","","real_trial","2021-04-06 16:31:37.571","img/card_backs/set1/green.gif","2","260","1","",""
"casino-fixation","110","398183","0.0-25.0-0.20","A1032","true","img/card_backs/set1/green.gif","img/card_backs/set1/purple.gif","img/card_backs/set1/red.gif","img/card_backs/set1/yellow.gif","img/card_backs/set2/orange.gif","img/card_backs/set2/gray.gif","img/card_backs/set2/pink.gif","img/card_backs/set2/blue.gif","""event"",""trial"",""time""
""fullscreenenter"",""1"",""2568""
","
","
","""event"",""trial"",""time""
""fullscreenenter"",""1"",""2568""
","
","","null","","null","","fixation","2021-04-06 16:31:38.072","","","","","",""
"card-selection-trial","111","402092","0.0-25.0-1.20","A1032","true","img/card_backs/set1/green.gif","img/card_backs/set1/purple.gif","img/card_backs/set1/red.gif","img/card_backs/set1/yellow.gif","img/card_backs/set2/orange.gif","img/card_backs/set2/gray.gif","img/card_backs/set2/pink.gif","img/card_backs/set2/blue.gif","""event"",""trial"",""time""
""fullscreenenter"",""1"",""2568""
","
","
","""event"",""trial"",""time""
""fullscreenenter"",""1"",""2568""
","
","","1899.280000012368","","","","real_trial","2021-04-06 16:31:41.981","img/card_backs/set1/red.gif","2","60","1","",""
"casino-fixation","112","402595","0.0-25.0-0.21","A1032","true","img/card_backs/set1/green.gif","img/card_backs/set1/purple.gif","img/card_backs/set1/red.gif","img/card_backs/set1/yellow.gif","img/card_backs/set2/orange.gif","img/card_backs/set2/gray.gif","img/card_backs/set2/pink.gif","img/card_backs/set2/blue.gif","""event"",""trial"",""time""
""fullscreenenter"",""1"",""2568""
","
","
","""event"",""trial"",""time""
""fullscreenenter"",""1"",""2568""
","
","","null","","null","","fixation","2021-04-06 16:31:42.484","","","","","",""
"card-selection-trial","113","405194","0.0-25.0-1.21","A1032","true","img/card_backs/set1/green.gif","img/card_backs/set1/purple.gif","img/card_backs/set1/red.gif","img/card_backs/set1/yellow.gif","img/card_backs/set2/orange.gif","img/card_backs/set2/gray.gif","img/card_backs/set2/pink.gif","img/card_backs/set2/blue.gif","""event"",""trial"",""time""
""fullscreenenter"",""1"",""2568""
","
","
","""event"",""trial"",""time""
""fullscreenenter"",""1"",""2568""
","
","","593.4150000102818","","","","real_trial","2021-04-06 16:31:45.083","img/card_backs/set1/red.gif","3","-90","1","",""
"casino-fixation","114","405698","0.0-25.0-0.22","A1032","true","img/card_backs/set1/green.gif","img/card_backs/set1/purple.gif","img/card_backs/set1/red.gif","img/card_backs/set1/yellow.gif","img/card_backs/set2/orange.gif","img/card_backs/set2/gray.gif","img/card_backs/set2/pink.gif","img/card_backs/set2/blue.gif","""event"",""trial"",""time""
""fullscreenenter"",""1"",""2568""
","
","
","""event"",""trial"",""time""
""fullscreenenter"",""1"",""2568""
","
","","null","","null","","fixation","2021-04-06 16:31:45.587","","","","","",""
"card-selection-trial","115","408277","0.0-25.0-1.22","A1032","true","img/card_backs/set1/green.gif","img/card_backs/set1/purple.gif","img/card_backs/set1/red.gif","img/card_backs/set1/yellow.gif","img/card_backs/set2/orange.gif","img/card_backs/set2/gray.gif","img/card_backs/set2/pink.gif","img/card_backs/set2/blue.gif","""event"",""trial"",""time""
""fullscreenenter"",""1"",""2568""
","
","
","""event"",""trial"",""time""
""fullscreenenter"",""1"",""2568""
","
","","570.6299999728799","","","","real_trial","2021-04-06 16:31:48.166","img/card_backs/set1/red.gif","3","-90","1","",""
"casino-fixation","116","408780","0.0-25.0-0.23","A1032","true","img/card_backs/set1/green.gif","img/card_backs/set1/purple.gif","img/card_backs/set1/red.gif","img/card_backs/set1/yellow.gif","img/card_backs/set2/orange.gif","img/card_backs/set2/gray.gif","img/card_backs/set2/pink.gif","img/card_backs/set2/blue.gif","""event"",""trial"",""time""
""fullscreenenter"",""1"",""2568""
","
","
","""event"",""trial"",""time""
""fullscreenenter"",""1"",""2568""
","
","","null","","null","","fixation","2021-04-06 16:31:48.669","","","","","",""
"card-selection-trial","117","411617","0.0-25.0-1.23","A1032","true","img/card_backs/set1/green.gif","img/card_backs/set1/purple.gif","img/card_backs/set1/red.gif","img/card_backs/set1/yellow.gif","img/card_backs/set2/orange.gif","img/card_backs/set2/gray.gif","img/card_backs/set2/pink.gif","img/card_backs/set2/blue.gif","""event"",""trial"",""time""
""fullscreenenter"",""1"",""2568""
","
","
","""event"",""trial"",""time""
""fullscreenenter"",""1"",""2568""
","
","","826.2600000016391","","","","real_trial","2021-04-06 16:31:51.506","img/card_backs/set1/red.gif","1","-90","1","",""
"casino-fixation","118","412119","0.0-25.0-0.24","A1032","true","img/card_backs/set1/green.gif","img/card_backs/set1/purple.gif","img/card_backs/set1/red.gif","img/card_backs/set1/yellow.gif","img/card_backs/set2/orange.gif","img/card_backs/set2/gray.gif","img/card_backs/set2/pink.gif","img/card_backs/set2/blue.gif","""event"",""trial"",""time""
""fullscreenenter"",""1"",""2568""
","
","
","""event"",""trial"",""time""
""fullscreenenter"",""1"",""2568""
","
","","null","","null","","fixation","2021-04-06 16:31:52.008","","","","","",""
"card-selection-trial","119","417400","0.0-25.0-1.24","A1032","true","img/card_backs/set1/green.gif","img/card_backs/set1/purple.gif","img/card_backs/set1/red.gif","img/card_backs/set1/yellow.gif","img/card_backs/set2/orange.gif","img/card_backs/set2/gray.gif","img/card_backs/set2/pink.gif","img/card_backs/set2/blue.gif","""event"",""trial"",""time""
""fullscreenenter"",""1"",""2568""
","
","
","""event"",""trial"",""time""
""fullscreenenter"",""1"",""2568""
","
","","3272.774999961257","","","","real_trial","2021-04-06 16:31:57.289","img/card_backs/set1/purple.gif","0","-190","1","",""
"casino-fixation","120","417901","0.0-25.0-0.25","A1032","true","img/card_backs/set1/green.gif","img/card_backs/set1/purple.gif","img/card_backs/set1/red.gif","img/card_backs/set1/yellow.gif","img/card_backs/set2/orange.gif","img/card_backs/set2/gray.gif","img/card_backs/set2/pink.gif","img/card_backs/set2/blue.gif","""event"",""trial"",""time""
""fullscreenenter"",""1"",""2568""
","
","
","""event"",""trial"",""time""
""fullscreenenter"",""1"",""2568""
","
","","null","","null","","fixation","2021-04-06 16:31:57.790","","","","","",""
"card-selection-trial","121","420510","0.0-25.0-1.25","A1032","true","img/card_backs/set1/green.gif","img/card_backs/set1/purple.gif","img/card_backs/set1/red.gif","img/card_backs/set1/yellow.gif","img/card_backs/set2/orange.gif","img/card_backs/set2/gray.gif","img/card_backs/set2/pink.gif","img/card_backs/set2/blue.gif","""event"",""trial"",""time""
""fullscreenenter"",""1"",""2568""
","
","
","""event"",""trial"",""time""
""fullscreenenter"",""1"",""2568""
","
","","601.314999978058","","","","real_trial","2021-04-06 16:32:00.399","img/card_backs/set1/purple.gif","3","240","1","",""
"casino-fixation","122","421012","0.0-25.0-0.26","A1032","true","img/card_backs/set1/green.gif","img/card_backs/set1/purple.gif","img/card_backs/set1/red.gif","img/card_backs/set1/yellow.gif","img/card_backs/set2/orange.gif","img/card_backs/set2/gray.gif","img/card_backs/set2/pink.gif","img/card_backs/set2/blue.gif","""event"",""trial"",""time""
""fullscreenenter"",""1"",""2568""
","
","
","""event"",""trial"",""time""
""fullscreenenter"",""1"",""2568""
","
","","null","","null","","fixation","2021-04-06 16:32:00.901","","","","","",""
"card-selection-trial","123","423746","0.0-25.0-1.26","A1032","true","img/card_backs/set1/green.gif","img/card_backs/set1/purple.gif","img/card_backs/set1/red.gif","img/card_backs/set1/yellow.gif","img/card_backs/set2/orange.gif","img/card_backs/set2/gray.gif","img/card_backs/set2/pink.gif","img/card_backs/set2/blue.gif","""event"",""trial"",""time""
""fullscreenenter"",""1"",""2568""
","
","
","""event"",""trial"",""time""
""fullscreenenter"",""1"",""2568""
","
","","728.2399999676272","","","","real_trial","2021-04-06 16:32:03.635","img/card_backs/set1/purple.gif","1","-190","1","",""
"casino-fixation","124","424248","0.0-25.0-0.27","A1032","true","img/card_backs/set1/green.gif","img/card_backs/set1/purple.gif","img/card_backs/set1/red.gif","img/card_backs/set1/yellow.gif","img/card_backs/set2/orange.gif","img/card_backs/set2/gray.gif","img/card_backs/set2/pink.gif","img/card_backs/set2/blue.gif","""event"",""trial"",""time""
""fullscreenenter"",""1"",""2568""
","
","
","""event"",""trial"",""time""
""fullscreenenter"",""1"",""2568""
","
","","null","","null","","fixation","2021-04-06 16:32:04.137","","","","","",""
"card-selection-trial","125","426869","0.0-25.0-1.27","A1032","true","img/card_backs/set1/green.gif","img/card_backs/set1/purple.gif","img/card_backs/set1/red.gif","img/card_backs/set1/yellow.gif","img/card_backs/set2/orange.gif","img/card_backs/set2/gray.gif","img/card_backs/set2/pink.gif","img/card_backs/set2/blue.gif","""event"",""trial"",""time""
""fullscreenenter"",""1"",""2568""
","
","
","""event"",""trial"",""time""
""fullscreenenter"",""1"",""2568""
","
","","614.729999913834","","","","real_trial","2021-04-06 16:32:06.758","img/card_backs/set1/purple.gif","1","-200","1","",""
"casino-fixation","126","427374","0.0-25.0-0.28","A1032","true","img/card_backs/set1/green.gif","img/card_backs/set1/purple.gif","img/card_backs/set1/red.gif","img/card_backs/set1/yellow.gif","img/card_backs/set2/orange.gif","img/card_backs/set2/gray.gif","img/card_backs/set2/pink.gif","img/card_backs/set2/blue.gif","""event"",""trial"",""time""
""fullscreenenter"",""1"",""2568""
","
","
","""event"",""trial"",""time""
""fullscreenenter"",""1"",""2568""
","
","","null","","null","","fixation","2021-04-06 16:32:07.263","","","","","",""
"card-selection-trial","127","430061","0.0-25.0-1.28","A1032","true","img/card_backs/set1/green.gif","img/card_backs/set1/purple.gif","img/card_backs/set1/red.gif","img/card_backs/set1/yellow.gif","img/card_backs/set2/orange.gif","img/card_backs/set2/gray.gif","img/card_backs/set2/pink.gif","img/card_backs/set2/blue.gif","""event"",""trial"",""time""
""fullscreenenter"",""1"",""2568""
","
","
","""event"",""trial"",""time""
""fullscreenenter"",""1"",""2568""
","
","","679.7050000168383","","","","real_trial","2021-04-06 16:32:09.950","img/card_backs/set1/purple.gif","0","-190","1","",""
"casino-fixation","128","430563","0.0-25.0-0.29","A1032","true","img/card_backs/set1/green.gif","img/card_backs/set1/purple.gif","img/card_backs/set1/red.gif","img/card_backs/set1/yellow.gif","img/card_backs/set2/orange.gif","img/card_backs/set2/gray.gif","img/card_backs/set2/pink.gif","img/card_backs/set2/blue.gif","""event"",""trial"",""time""
""fullscreenenter"",""1"",""2568""
","
","
","""event"",""trial"",""time""
""fullscreenenter"",""1"",""2568""
","
","","null","","null","","fixation","2021-04-06 16:32:10.452","","","","","",""
"card-selection-trial","129","433197","0.0-25.0-1.29","A1032","true","img/card_backs/set1/green.gif","img/card_backs/set1/purple.gif","img/card_backs/set1/red.gif","img/card_backs/set1/yellow.gif","img/card_backs/set2/orange.gif","img/card_backs/set2/gray.gif","img/card_backs/set2/pink.gif","img/card_backs/set2/blue.gif","""event"",""trial"",""time""
""fullscreenenter"",""1"",""2568""
","
","
","""event"",""trial"",""time""
""fullscreenenter"",""1"",""2568""
","
","","625.8899999083951","","","","real_trial","2021-04-06 16:32:13.086","img/card_backs/set1/purple.gif","0","250","1","",""
"casino-fixation","130","433702","0.0-25.0-0.30","A1032","true","img/card_backs/set1/green.gif","img/card_backs/set1/purple.gif","img/card_backs/set1/red.gif","img/card_backs/set1/yellow.gif","img/card_backs/set2/orange.gif","img/card_backs/set2/gray.gif","img/card_backs/set2/pink.gif","img/card_backs/set2/blue.gif","""event"",""trial"",""time""
""fullscreenenter"",""1"",""2568""
","
","
","""event"",""trial"",""time""
""fullscreenenter"",""1"",""2568""
","
","","null","","null","","fixation","2021-04-06 16:32:13.591","","","","","",""
"card-selection-trial","131","436720","0.0-25.0-1.30","A1032","true","img/card_backs/set1/green.gif","img/card_backs/set1/purple.gif","img/card_backs/set1/red.gif","img/card_backs/set1/yellow.gif","img/card_backs/set2/orange.gif","img/card_backs/set2/gray.gif","img/card_backs/set2/pink.gif","img/card_backs/set2/blue.gif","""event"",""trial"",""time""
""fullscreenenter"",""1"",""2568""
","
","
","""event"",""trial"",""time""
""fullscreenenter"",""1"",""2568""
","
","","1007.5550000183284","","","","real_trial","2021-04-06 16:32:16.609","img/card_backs/set1/green.gif","2","-190","1","",""
"casino-fixation","132","437223","0.0-25.0-0.31","A1032","true","img/card_backs/set1/green.gif","img/card_backs/set1/purple.gif","img/card_backs/set1/red.gif","img/card_backs/set1/yellow.gif","img/card_backs/set2/orange.gif","img/card_backs/set2/gray.gif","img/card_backs/set2/pink.gif","img/card_backs/set2/blue.gif","""event"",""trial"",""time""
""fullscreenenter"",""1"",""2568""
","
","
","""event"",""trial"",""time""
""fullscreenenter"",""1"",""2568""
","
","","null","","null","","fixation","2021-04-06 16:32:17.112","","","","","",""
"card-selection-trial","133","439779","0.0-25.0-1.31","A1032","true","img/card_backs/set1/green.gif","img/card_backs/set1/purple.gif","img/card_backs/set1/red.gif","img/card_backs/set1/yellow.gif","img/card_backs/set2/orange.gif","img/card_backs/set2/gray.gif","img/card_backs/set2/pink.gif","img/card_backs/set2/blue.gif","""event"",""trial"",""time""
""fullscreenenter"",""1"",""2568""
","
","
","""event"",""trial"",""time""
""fullscreenenter"",""1"",""2568""
","
","","546.8350000446662","","","","real_trial","2021-04-06 16:32:19.668","img/card_backs/set1/green.gif","3","-210","1","",""
"casino-fixation","134","440284","0.0-25.0-0.32","A1032","true","img/card_backs/set1/green.gif","img/card_backs/set1/purple.gif","img/card_backs/set1/red.gif","img/card_backs/set1/yellow.gif","img/card_backs/set2/orange.gif","img/card_backs/set2/gray.gif","img/card_backs/set2/pink.gif","img/card_backs/set2/blue.gif","""event"",""trial"",""time""
""fullscreenenter"",""1"",""2568""
","
","
","""event"",""trial"",""time""
""fullscreenenter"",""1"",""2568""
","
","","null","","null","","fixation","2021-04-06 16:32:20.173","","","","","",""
"card-selection-trial","135","442891","0.0-25.0-1.32","A1032","true","img/card_backs/set1/green.gif","img/card_backs/set1/purple.gif","img/card_backs/set1/red.gif","img/card_backs/set1/yellow.gif","img/card_backs/set2/orange.gif","img/card_backs/set2/gray.gif","img/card_backs/set2/pink.gif","img/card_backs/set2/blue.gif","""event"",""trial"",""time""
""fullscreenenter"",""1"",""2568""
","
","
","""event"",""trial"",""time""
""fullscreenenter"",""1"",""2568""
","
","","596.4900000253692","","","","real_trial","2021-04-06 16:32:22.780","img/card_backs/set1/green.gif","0","-190","1","",""
"casino-fixation","136","443394","0.0-25.0-0.33","A1032","true","img/card_backs/set1/green.gif","img/card_backs/set1/purple.gif","img/card_backs/set1/red.gif","img/card_backs/set1/yellow.gif","img/card_backs/set2/orange.gif","img/card_backs/set2/gray.gif","img/card_backs/set2/pink.gif","img/card_backs/set2/blue.gif","""event"",""trial"",""time""
""fullscreenenter"",""1"",""2568""
","
","
","""event"",""trial"",""time""
""fullscreenenter"",""1"",""2568""
","
","","null","","null","","fixation","2021-04-06 16:32:23.283","","","","","",""
"card-selection-trial","137","446054","0.0-25.0-1.33","A1032","true","img/card_backs/set1/green.gif","img/card_backs/set1/purple.gif","img/card_backs/set1/red.gif","img/card_backs/set1/yellow.gif","img/card_backs/set2/orange.gif","img/card_backs/set2/gray.gif","img/card_backs/set2/pink.gif","img/card_backs/set2/blue.gif","""event"",""trial"",""time""
""fullscreenenter"",""1"",""2568""
","
","
","""event"",""trial"",""time""
""fullscreenenter"",""1"",""2568""
","
","","654.7100000316277","","","","real_trial","2021-04-06 16:32:25.943","img/card_backs/set1/green.gif","3","-200","1","",""
"casino-fixation","138","446559","0.0-25.0-0.34","A1032","true","img/card_backs/set1/green.gif","img/card_backs/set1/purple.gif","img/card_backs/set1/red.gif","img/card_backs/set1/yellow.gif","img/card_backs/set2/orange.gif","img/card_backs/set2/gray.gif","img/card_backs/set2/pink.gif","img/card_backs/set2/blue.gif","""event"",""trial"",""time""
""fullscreenenter"",""1"",""2568""
","
","
","""event"",""trial"",""time""
""fullscreenenter"",""1"",""2568""
","
","","null","","null","","fixation","2021-04-06 16:32:26.448","","","","","",""
"card-selection-trial","139","449171","0.0-25.0-1.34","A1032","true","img/card_backs/set1/green.gif","img/card_backs/set1/purple.gif","img/card_backs/set1/red.gif","img/card_backs/set1/yellow.gif","img/card_backs/set2/orange.gif","img/card_backs/set2/gray.gif","img/card_backs/set2/pink.gif","img/card_backs/set2/blue.gif","""event"",""trial"",""time""
""fullscreenenter"",""1"",""2568""
","
","
","""event"",""trial"",""time""
""fullscreenenter"",""1"",""2568""
","
","","604.0149999316782","","","","real_trial","2021-04-06 16:32:29.060","img/card_backs/set1/green.gif","2","250","1","",""
"casino-fixation","140","449673","0.0-25.0-0.35","A1032","true","img/card_backs/set1/green.gif","img/card_backs/set1/purple.gif","img/card_backs/set1/red.gif","img/card_backs/set1/yellow.gif","img/card_backs/set2/orange.gif","img/card_backs/set2/gray.gif","img/card_backs/set2/pink.gif","img/card_backs/set2/blue.gif","""event"",""trial"",""time""
""fullscreenenter"",""1"",""2568""
","
","
","""event"",""trial"",""time""
""fullscreenenter"",""1"",""2568""
","
","","null","","null","","fixation","2021-04-06 16:32:29.562","","","","","",""
"card-selection-trial","141","452658","0.0-25.0-1.35","A1032","true","img/card_backs/set1/green.gif","img/card_backs/set1/purple.gif","img/card_backs/set1/red.gif","img/card_backs/set1/yellow.gif","img/card_backs/set2/orange.gif","img/card_backs/set2/gray.gif","img/card_backs/set2/pink.gif","img/card_backs/set2/blue.gif","""event"",""trial"",""time""
""fullscreenenter"",""1"",""2568""
","
","
","""event"",""trial"",""time""
""fullscreenenter"",""1"",""2568""
","
","","974.1950000170618","","","","real_trial","2021-04-06 16:32:32.547","img/card_backs/set1/purple.gif","3","-190","1","",""
"casino-fixation","142","453162","0.0-25.0-0.36","A1032","true","img/card_backs/set1/green.gif","img/card_backs/set1/purple.gif","img/card_backs/set1/red.gif","img/card_backs/set1/yellow.gif","img/card_backs/set2/orange.gif","img/card_backs/set2/gray.gif","img/card_backs/set2/pink.gif","img/card_backs/set2/blue.gif","""event"",""trial"",""time""
""fullscreenenter"",""1"",""2568""
","
","
","""event"",""trial"",""time""
""fullscreenenter"",""1"",""2568""
","
","","null","","null","","fixation","2021-04-06 16:32:33.051","","","","","",""
"card-selection-trial","143","455850","0.0-25.0-1.36","A1032","true","img/card_backs/set1/green.gif","img/card_backs/set1/purple.gif","img/card_backs/set1/red.gif","img/card_backs/set1/yellow.gif","img/card_backs/set2/orange.gif","img/card_backs/set2/gray.gif","img/card_backs/set2/pink.gif","img/card_backs/set2/blue.gif","""event"",""trial"",""time""
""fullscreenenter"",""1"",""2568""
","
","
","""event"",""trial"",""time""
""fullscreenenter"",""1"",""2568""
","
","","683.2749999593943","","","","real_trial","2021-04-06 16:32:35.739","img/card_backs/set1/purple.gif","1","-200","1","",""
"casino-fixation","144","456352","0.0-25.0-0.37","A1032","true","img/card_backs/set1/green.gif","img/card_backs/set1/purple.gif","img/card_backs/set1/red.gif","img/card_backs/set1/yellow.gif","img/card_backs/set2/orange.gif","img/card_backs/set2/gray.gif","img/card_backs/set2/pink.gif","img/card_backs/set2/blue.gif","""event"",""trial"",""time""
""fullscreenenter"",""1"",""2568""
","
","
","""event"",""trial"",""time""
""fullscreenenter"",""1"",""2568""
","
","","null","","null","","fixation","2021-04-06 16:32:36.241","","","","","",""
"card-selection-trial","145","458902","0.0-25.0-1.37","A1032","true","img/card_backs/set1/green.gif","img/card_backs/set1/purple.gif","img/card_backs/set1/red.gif","img/card_backs/set1/yellow.gif","img/card_backs/set2/orange.gif","img/card_backs/set2/gray.gif","img/card_backs/set2/pink.gif","img/card_backs/set2/blue.gif","""event"",""trial"",""time""
""fullscreenenter"",""1"",""2568""
","
","
","""event"",""trial"",""time""
""fullscreenenter"",""1"",""2568""
","
","","543.7699999893084","","","","real_trial","2021-04-06 16:32:38.791","img/card_backs/set1/purple.gif","1","-210","1","",""
"casino-fixation","146","459406","0.0-25.0-0.38","A1032","true","img/card_backs/set1/green.gif","img/card_backs/set1/purple.gif","img/card_backs/set1/red.gif","img/card_backs/set1/yellow.gif","img/card_backs/set2/orange.gif","img/card_backs/set2/gray.gif","img/card_backs/set2/pink.gif","img/card_backs/set2/blue.gif","""event"",""trial"",""time""
""fullscreenenter"",""1"",""2568""
","
","
","""event"",""trial"",""time""
""fullscreenenter"",""1"",""2568""
","
","","null","","null","","fixation","2021-04-06 16:32:39.295","","","","","",""
"card-selection-trial","147","461997","0.0-25.0-1.38","A1032","true","img/card_backs/set1/green.gif","img/card_backs/set1/purple.gif","img/card_backs/set1/red.gif","img/card_backs/set1/yellow.gif","img/card_backs/set2/orange.gif","img/card_backs/set2/gray.gif","img/card_backs/set2/pink.gif","img/card_backs/set2/blue.gif","""event"",""trial"",""time""
""fullscreenenter"",""1"",""2568""
","
","
","""event"",""trial"",""time""
""fullscreenenter"",""1"",""2568""
","
","","584.0900000184774","","","","real_trial","2021-04-06 16:32:41.887","img/card_backs/set1/purple.gif","3","260","1","",""
"casino-fixation","148","462500","0.0-25.0-0.39","A1032","true","img/card_backs/set1/green.gif","img/card_backs/set1/purple.gif","img/card_backs/set1/red.gif","img/card_backs/set1/yellow.gif","img/card_backs/set2/orange.gif","img/card_backs/set2/gray.gif","img/card_backs/set2/pink.gif","img/card_backs/set2/blue.gif","""event"",""trial"",""time""
""fullscreenenter"",""1"",""2568""
","
","
","""event"",""trial"",""time""
""fullscreenenter"",""1"",""2568""
","
","","null","","null","","fixation","2021-04-06 16:32:42.389","","","","","",""
"card-selection-trial","149","465861","0.0-25.0-1.39","A1032","true","img/card_backs/set1/green.gif","img/card_backs/set1/purple.gif","img/card_backs/set1/red.gif","img/card_backs/set1/yellow.gif","img/card_backs/set2/orange.gif","img/card_backs/set2/gray.gif","img/card_backs/set2/pink.gif","img/card_backs/set2/blue.gif","""event"",""trial"",""time""
""fullscreenenter"",""1"",""2568""
","
","
","""event"",""trial"",""time""
""fullscreenenter"",""1"",""2568""
","
","","1354.1950000217184","","","","real_trial","2021-04-06 16:32:45.750","img/card_backs/set1/red.gif","2","60","1","",""
"casino-fixation","150","466366","0.0-25.0-0.40","A1032","true","img/card_backs/set1/green.gif","img/card_backs/set1/purple.gif","img/card_backs/set1/red.gif","img/card_backs/set1/yellow.gif","img/card_backs/set2/orange.gif","img/card_backs/set2/gray.gif","img/card_backs/set2/pink.gif","img/card_backs/set2/blue.gif","""event"",""trial"",""time""
""fullscreenenter"",""1"",""2568""
","
","
","""event"",""trial"",""time""
""fullscreenenter"",""1"",""2568""
","
","","null","","null","","fixation","2021-04-06 16:32:46.255","","","","","",""
"card-selection-trial","151","469666","0.0-25.0-1.40","A1032","true","img/card_backs/set1/green.gif","img/card_backs/set1/purple.gif","img/card_backs/set1/red.gif","img/card_backs/set1/yellow.gif","img/card_backs/set2/orange.gif","img/card_backs/set2/gray.gif","img/card_backs/set2/pink.gif","img/card_backs/set2/blue.gif","""event"",""trial"",""time""
""fullscreenenter"",""1"",""2568""
","
","
","""event"",""trial"",""time""
""fullscreenenter"",""1"",""2568""
","
","","1293.874999973923","","","","real_trial","2021-04-06 16:32:49.555","img/card_backs/set1/yellow.gif","3","60","1","",""
"casino-fixation","152","470169","0.0-25.0-0.41","A1032","true","img/card_backs/set1/green.gif","img/card_backs/set1/purple.gif","img/card_backs/set1/red.gif","img/card_backs/set1/yellow.gif","img/card_backs/set2/orange.gif","img/card_backs/set2/gray.gif","img/card_backs/set2/pink.gif","img/card_backs/set2/blue.gif","""event"",""trial"",""time""
""fullscreenenter"",""1"",""2568""
","
","
","""event"",""trial"",""time""
""fullscreenenter"",""1"",""2568""
","
","","null","","null","","fixation","2021-04-06 16:32:50.058","","","","","",""
"card-selection-trial","153","473671","0.0-25.0-1.41","A1032","true","img/card_backs/set1/green.gif","img/card_backs/set1/purple.gif","img/card_backs/set1/red.gif","img/card_backs/set1/yellow.gif","img/card_backs/set2/orange.gif","img/card_backs/set2/gray.gif","img/card_backs/set2/pink.gif","img/card_backs/set2/blue.gif","""event"",""trial"",""time""
""fullscreenenter"",""1"",""2568""
","
","
","""event"",""trial"",""time""
""fullscreenenter"",""1"",""2568""
","
","","1490.819999948144","","","","real_trial","2021-04-06 16:32:53.560","img/card_backs/set1/red.gif","2","-100","1","",""
"casino-fixation","154","474173","0.0-25.0-0.42","A1032","true","img/card_backs/set1/green.gif","img/card_backs/set1/purple.gif","img/card_backs/set1/red.gif","img/card_backs/set1/yellow.gif","img/card_backs/set2/orange.gif","img/card_backs/set2/gray.gif","img/card_backs/set2/pink.gif","img/card_backs/set2/blue.gif","""event"",""trial"",""time""
""fullscreenenter"",""1"",""2568""
","
","
","""event"",""trial"",""time""
""fullscreenenter"",""1"",""2568""
","
","","null","","null","","fixation","2021-04-06 16:32:54.062","","","","","",""
"card-selection-trial","155","476946","0.0-25.0-1.42","A1032","true","img/card_backs/set1/green.gif","img/card_backs/set1/purple.gif","img/card_backs/set1/red.gif","img/card_backs/set1/yellow.gif","img/card_backs/set2/orange.gif","img/card_backs/set2/gray.gif","img/card_backs/set2/pink.gif","img/card_backs/set2/blue.gif","""event"",""trial"",""time""
""fullscreenenter"",""1"",""2568""
","
","
","""event"",""trial"",""time""
""fullscreenenter"",""1"",""2568""
","
","","767.714999965392","","","","real_trial","2021-04-06 16:32:56.835","img/card_backs/set1/yellow.gif","0","-90","1","",""
"casino-fixation","156","477449","0.0-25.0-0.43","A1032","true","img/card_backs/set1/green.gif","img/card_backs/set1/purple.gif","img/card_backs/set1/red.gif","img/card_backs/set1/yellow.gif","img/card_backs/set2/orange.gif","img/card_backs/set2/gray.gif","img/card_backs/set2/pink.gif","img/card_backs/set2/blue.gif","""event"",""trial"",""time""
""fullscreenenter"",""1"",""2568""
","
","
","""event"",""trial"",""time""
""fullscreenenter"",""1"",""2568""
","
","","null","","null","","fixation","2021-04-06 16:32:57.338","","","","","",""
"card-selection-trial","157","480265","0.0-25.0-1.43","A1032","true","img/card_backs/set1/green.gif","img/card_backs/set1/purple.gif","img/card_backs/set1/red.gif","img/card_backs/set1/yellow.gif","img/card_backs/set2/orange.gif","img/card_backs/set2/gray.gif","img/card_backs/set2/pink.gif","img/card_backs/set2/blue.gif","""event"",""trial"",""time""
""fullscreenenter"",""1"",""2568""
","
","
","""event"",""trial"",""time""
""fullscreenenter"",""1"",""2568""
","
","","810.410000034608","","","","real_trial","2021-04-06 16:33:00.154","img/card_backs/set1/green.gif","0","260","1","",""
"casino-fixation","158","480768","0.0-25.0-0.44","A1032","true","img/card_backs/set1/green.gif","img/card_backs/set1/purple.gif","img/card_backs/set1/red.gif","img/card_backs/set1/yellow.gif","img/card_backs/set2/orange.gif","img/card_backs/set2/gray.gif","img/card_backs/set2/pink.gif","img/card_backs/set2/blue.gif","""event"",""trial"",""time""
""fullscreenenter"",""1"",""2568""
","
","
","""event"",""trial"",""time""
""fullscreenenter"",""1"",""2568""
","
","","null","","null","","fixation","2021-04-06 16:33:00.657","","","","","",""
"card-selection-trial","159","483404","0.0-25.0-1.44","A1032","true","img/card_backs/set1/green.gif","img/card_backs/set1/purple.gif","img/card_backs/set1/red.gif","img/card_backs/set1/yellow.gif","img/card_backs/set2/orange.gif","img/card_backs/set2/gray.gif","img/card_backs/set2/pink.gif","img/card_backs/set2/blue.gif","""event"",""trial"",""time""
""fullscreenenter"",""1"",""2568""
","
","
","""event"",""trial"",""time""
""fullscreenenter"",""1"",""2568""
","
","","630.8000000426546","","","","real_trial","2021-04-06 16:33:03.293","img/card_backs/set1/purple.gif","0","-200","1","",""
"casino-fixation","160","483908","0.0-25.0-0.45","A1032","true","img/card_backs/set1/green.gif","img/card_backs/set1/purple.gif","img/card_backs/set1/red.gif","img/card_backs/set1/yellow.gif","img/card_backs/set2/orange.gif","img/card_backs/set2/gray.gif","img/card_backs/set2/pink.gif","img/card_backs/set2/blue.gif","""event"",""trial"",""time""
""fullscreenenter"",""1"",""2568""
","
","
","""event"",""trial"",""time""
""fullscreenenter"",""1"",""2568""
","
","","null","","null","","fixation","2021-04-06 16:33:03.797","","","","","",""
"card-selection-trial","161","486892","0.0-25.0-1.45","A1032","true","img/card_backs/set1/green.gif","img/card_backs/set1/purple.gif","img/card_backs/set1/red.gif","img/card_backs/set1/yellow.gif","img/card_backs/set2/orange.gif","img/card_backs/set2/gray.gif","img/card_backs/set2/pink.gif","img/card_backs/set2/blue.gif","""event"",""trial"",""time""
""fullscreenenter"",""1"",""2568""
","
","
","""event"",""trial"",""time""
""fullscreenenter"",""1"",""2568""
","
","","976.325000054203","","","","real_trial","2021-04-06 16:33:06.781","img/card_backs/set1/green.gif","2","-200","1","",""
"casino-fixation","162","487394","0.0-25.0-0.46","A1032","true","img/card_backs/set1/green.gif","img/card_backs/set1/purple.gif","img/card_backs/set1/red.gif","img/card_backs/set1/yellow.gif","img/card_backs/set2/orange.gif","img/card_backs/set2/gray.gif","img/card_backs/set2/pink.gif","img/card_backs/set2/blue.gif","""event"",""trial"",""time""
""fullscreenenter"",""1"",""2568""
","
","
","""event"",""trial"",""time""
""fullscreenenter"",""1"",""2568""
","
","","null","","null","","fixation","2021-04-06 16:33:07.283","","","","","",""
"card-selection-trial","163","490017","0.0-25.0-1.46","A1032","true","img/card_backs/set1/green.gif","img/card_backs/set1/purple.gif","img/card_backs/set1/red.gif","img/card_backs/set1/yellow.gif","img/card_backs/set2/orange.gif","img/card_backs/set2/gray.gif","img/card_backs/set2/pink.gif","img/card_backs/set2/blue.gif","""event"",""trial"",""time""
""fullscreenenter"",""1"",""2568""
","
","
","""event"",""trial"",""time""
""fullscreenenter"",""1"",""2568""
","
","","612.6050000311807","","","","real_trial","2021-04-06 16:33:09.906","img/card_backs/set1/purple.gif","2","-200","1","",""
"casino-fixation","164","490519","0.0-25.0-0.47","A1032","true","img/card_backs/set1/green.gif","img/card_backs/set1/purple.gif","img/card_backs/set1/red.gif","img/card_backs/set1/yellow.gif","img/card_backs/set2/orange.gif","img/card_backs/set2/gray.gif","img/card_backs/set2/pink.gif","img/card_backs/set2/blue.gif","""event"",""trial"",""time""
""fullscreenenter"",""1"",""2568""
","
","
","""event"",""trial"",""time""
""fullscreenenter"",""1"",""2568""
","
","","null","","null","","fixation","2021-04-06 16:33:10.408","","","","","",""
"card-selection-trial","165","493688","0.0-25.0-1.47","A1032","true","img/card_backs/set1/green.gif","img/card_backs/set1/purple.gif","img/card_backs/set1/red.gif","img/card_backs/set1/yellow.gif","img/card_backs/set2/orange.gif","img/card_backs/set2/gray.gif","img/card_backs/set2/pink.gif","img/card_backs/set2/blue.gif","""event"",""trial"",""time""
""fullscreenenter"",""1"",""2568""
","
","
","""event"",""trial"",""time""
""fullscreenenter"",""1"",""2568""
","
","","1159.1750000370666","","","","real_trial","2021-04-06 16:33:13.577","img/card_backs/set1/purple.gif","1","250","1","",""
"casino-fixation","166","494189","0.0-25.0-0.48","A1032","true","img/card_backs/set1/green.gif","img/card_backs/set1/purple.gif","img/card_backs/set1/red.gif","img/card_backs/set1/yellow.gif","img/card_backs/set2/orange.gif","img/card_backs/set2/gray.gif","img/card_backs/set2/pink.gif","img/card_backs/set2/blue.gif","""event"",""trial"",""time""
""fullscreenenter"",""1"",""2568""
","
","
","""event"",""trial"",""time""
""fullscreenenter"",""1"",""2568""
","
","","null","","null","","fixation","2021-04-06 16:33:14.078","","","","","",""
