"trial_type","trial_index","time_elapsed","internal_node_id","sub_id","risk_good_first","block1_A","block1_B","block1_C","block1_D","block2_A","block2_B","block2_C","block2_D","interactions","blur_events","focus_events","fullscreenenter_events","fullscreenexit_events","success","rt","stimulus","key_press","button_pressed","task_part","timestamp","card_choice","choice_position","points_earned","block","correct","response"
"pavlovia","0","3","0.0-0.0","147","true","img/card_backs/set1/red.gif","img/card_backs/set1/purple.gif","img/card_backs/set1/green.gif","img/card_backs/set1/yellow.gif","img/card_backs/set2/orange.gif","img/card_backs/set2/blue.gif","img/card_backs/set2/gray.gif","img/card_backs/set2/pink.gif","""event"",""trial"",""time""
""fullscreenenter"",""1"",""3919""
","
","
","""event"",""trial"",""time""
""fullscreenenter"",""1"",""3919""
","
","","","","","","","","","","","","",""
"fullscreen","1","4913","0.0-1.0","147","true","img/card_backs/set1/red.gif","img/card_backs/set1/purple.gif","img/card_backs/set1/green.gif","img/card_backs/set1/yellow.gif","img/card_backs/set2/orange.gif","img/card_backs/set2/blue.gif","img/card_backs/set2/gray.gif","img/card_backs/set2/pink.gif","""event"",""trial"",""time""
""fullscreenenter"",""1"",""3919""
","
","
","""event"",""trial"",""time""
""fullscreenenter"",""1"",""3919""
","
","true","","","","","","","","","","","",""
"audio-keyboard-response","2","8592","0.0-2.0","147","true","img/card_backs/set1/red.gif","img/card_backs/set1/purple.gif","img/card_backs/set1/green.gif","img/card_backs/set1/yellow.gif","img/card_backs/set2/orange.gif","img/card_backs/set2/blue.gif","img/card_backs/set2/gray.gif","img/card_backs/set2/pink.gif","""event"",""trial"",""time""
""fullscreenenter"",""1"",""3919""
","
","
","""event"",""trial"",""time""
""fullscreenenter"",""1"",""3919""
","
","","3669","audio/beep_loop.wav","32","","","","","","","","",""
"audio-button-response","3","10273","0.0-3.0","147","true","img/card_backs/set1/red.gif","img/card_backs/set1/purple.gif","img/card_backs/set1/green.gif","img/card_backs/set1/yellow.gif","img/card_backs/set2/orange.gif","img/card_backs/set2/blue.gif","img/card_backs/set2/gray.gif","img/card_backs/set2/pink.gif","""event"",""trial"",""time""
""fullscreenenter"",""1"",""3919""
","
","
","""event"",""trial"",""time""
""fullscreenenter"",""1"",""3919""
","
","","NaN","audio/turtle.mp3","","3","","","","","","","",""
"audio-button-response","4","12111","0.0-4.0","147","true","img/card_backs/set1/red.gif","img/card_backs/set1/purple.gif","img/card_backs/set1/green.gif","img/card_backs/set1/yellow.gif","img/card_backs/set2/orange.gif","img/card_backs/set2/blue.gif","img/card_backs/set2/gray.gif","img/card_backs/set2/pink.gif","""event"",""trial"",""time""
""fullscreenenter"",""1"",""3919""
","
","
","""event"",""trial"",""time""
""fullscreenenter"",""1"",""3919""
","
","","NaN","audio/shark.mp3","","2","","","","","","","",""
"fullscreen","5","15595","0.0-5.0","147","true","img/card_backs/set1/red.gif","img/card_backs/set1/purple.gif","img/card_backs/set1/green.gif","img/card_backs/set1/yellow.gif","img/card_backs/set2/orange.gif","img/card_backs/set2/blue.gif","img/card_backs/set2/gray.gif","img/card_backs/set2/pink.gif","""event"",""trial"",""time""
""fullscreenenter"",""1"",""3919""
","
","
","""event"",""trial"",""time""
""fullscreenenter"",""1"",""3919""
","
","true","","","","","","","","","","","",""
"casino-keyboard-response","6","19120","0.0-6.0-0.0","147","true","img/card_backs/set1/red.gif","img/card_backs/set1/purple.gif","img/card_backs/set1/green.gif","img/card_backs/set1/yellow.gif","img/card_backs/set2/orange.gif","img/card_backs/set2/blue.gif","img/card_backs/set2/gray.gif","img/card_backs/set2/pink.gif","""event"",""trial"",""time""
""fullscreenenter"",""1"",""3919""
","
","
","""event"",""trial"",""time""
""fullscreenenter"",""1"",""3919""
","
","","3523.804999946151","Welcome to the casino!","71","","instructions","2021-04-20 22:11:25.881","","","","","",""
"casino-keyboard-response","7","28971","0.0-6.0-0.1","147","true","img/card_backs/set1/red.gif","img/card_backs/set1/purple.gif","img/card_backs/set1/green.gif","img/card_backs/set1/yellow.gif","img/card_backs/set2/orange.gif","img/card_backs/set2/blue.gif","img/card_backs/set2/gray.gif","img/card_backs/set2/pink.gif","""event"",""trial"",""time""
""fullscreenenter"",""1"",""3919""
","
","
","""event"",""trial"",""time""
""fullscreenenter"",""1"",""3919""
","
","","9849.745000014082","Today you will be playing a game to earn tokens. </br> At the end of the experiment, you will be paid a bonus based on how many tokens you win. ","69","","instructions","2021-04-20 22:11:35.732","","","","","",""
"casino-keyboard-response","8","36561","0.0-6.0-0.2","147","true","img/card_backs/set1/red.gif","img/card_backs/set1/purple.gif","img/card_backs/set1/green.gif","img/card_backs/set1/yellow.gif","img/card_backs/set2/orange.gif","img/card_backs/set2/blue.gif","img/card_backs/set2/gray.gif","img/card_backs/set2/pink.gif","""event"",""trial"",""time""
""fullscreenenter"",""1"",""3919""
","
","
","""event"",""trial"",""time""
""fullscreenenter"",""1"",""3919""
","
","","7588.96999998251","On every turn, you will be shown four different decks of cards. </br> You need to select a card from one of the four decks.  ","75","","instructions","2021-04-20 22:11:43.322","","","","","",""
"casino-keyboard-response","9","41237","0.0-6.0-0.3","147","true","img/card_backs/set1/red.gif","img/card_backs/set1/purple.gif","img/card_backs/set1/green.gif","img/card_backs/set1/yellow.gif","img/card_backs/set2/orange.gif","img/card_backs/set2/blue.gif","img/card_backs/set2/gray.gif","img/card_backs/set2/pink.gif","""event"",""trial"",""time""
""fullscreenenter"",""1"",""3919""
","
","
","""event"",""trial"",""time""
""fullscreenenter"",""1"",""3919""
","
","","4675.240000011399","On the next screen, you will see what the decks will look like. ","66","","instructions","2021-04-20 22:11:47.998","","","","","",""
"card-selection-trial","10","45242","0.0-7.0-0.0","147","true","img/card_backs/set1/red.gif","img/card_backs/set1/purple.gif","img/card_backs/set1/green.gif","img/card_backs/set1/yellow.gif","img/card_backs/set2/orange.gif","img/card_backs/set2/blue.gif","img/card_backs/set2/gray.gif","img/card_backs/set2/pink.gif","""event"",""trial"",""time""
""fullscreenenter"",""1"",""3919""
","
","
","""event"",""trial"",""time""
""fullscreenenter"",""1"",""3919""
","
","","null","","","","practice","2021-04-20 22:11:52.004","null","null","null","0","",""
"casino-keyboard-response","11","53795","0.0-8.0-0.0","147","true","img/card_backs/set1/red.gif","img/card_backs/set1/purple.gif","img/card_backs/set1/green.gif","img/card_backs/set1/yellow.gif","img/card_backs/set2/orange.gif","img/card_backs/set2/blue.gif","img/card_backs/set2/gray.gif","img/card_backs/set2/pink.gif","""event"",""trial"",""time""
""fullscreenenter"",""1"",""3919""
","
","
","""event"",""trial"",""time""
""fullscreenenter"",""1"",""3919""
","
","","8551.495000021532","You should pick a card from a deck using the '2', '4', '6', and '8' keys at the top of the keyboard.","85","","instructions","2021-04-20 22:12:00.556","","","","","",""
"casino-keyboard-response","12","59067","0.0-8.0-0.1","147","true","img/card_backs/set1/red.gif","img/card_backs/set1/purple.gif","img/card_backs/set1/green.gif","img/card_backs/set1/yellow.gif","img/card_backs/set2/orange.gif","img/card_backs/set2/blue.gif","img/card_backs/set2/gray.gif","img/card_backs/set2/pink.gif","""event"",""trial"",""time""
""fullscreenenter"",""1"",""3919""
","
","
","""event"",""trial"",""time""
""fullscreenenter"",""1"",""3919""
","
","","5270.840000011958","Once you select a card, it will turn over and you will see how many tokens you earned.","83","","instructions","2021-04-20 22:12:05.828","","","","","",""
"casino-keyboard-response","13","90150","0.0-8.0-0.2","147","true","img/card_backs/set1/red.gif","img/card_backs/set1/purple.gif","img/card_backs/set1/green.gif","img/card_backs/set1/yellow.gif","img/card_backs/set2/orange.gif","img/card_backs/set2/blue.gif","img/card_backs/set2/gray.gif","img/card_backs/set2/pink.gif","""event"",""trial"",""time""
""fullscreenenter"",""1"",""3919""
","
","
","""event"",""trial"",""time""
""fullscreenenter"",""1"",""3919""
","
","","31081.975000037346","Let's try practicing that! </br> First, try to put your fingers over the '2', '4', '6', and '8' keys. </br>  You can use whatever fingers are most comfortable for you. Try to find a comfortable position now. ","50","","instructions","2021-04-20 22:12:36.911","","","","","",""
"casino-keyboard-response","14","95965","0.0-8.0-0.3","147","true","img/card_backs/set1/red.gif","img/card_backs/set1/purple.gif","img/card_backs/set1/green.gif","img/card_backs/set1/yellow.gif","img/card_backs/set2/orange.gif","img/card_backs/set2/blue.gif","img/card_backs/set2/gray.gif","img/card_backs/set2/pink.gif","""event"",""trial"",""time""
""fullscreenenter"",""1"",""3919""
","
","
","""event"",""trial"",""time""
""fullscreenenter"",""1"",""3919""
","
","","5813.945000001695","Okay ready? </br> On the next screen, press '2' to select the left deck. ","50","","instructions","2021-04-20 22:12:42.726","","","","","",""
"card-selection-trial","15","99497","0.0-9.0-0.0","147","true","img/card_backs/set1/red.gif","img/card_backs/set1/purple.gif","img/card_backs/set1/green.gif","img/card_backs/set1/yellow.gif","img/card_backs/set2/orange.gif","img/card_backs/set2/blue.gif","img/card_backs/set2/gray.gif","img/card_backs/set2/pink.gif","""event"",""trial"",""time""
""fullscreenenter"",""1"",""3919""
","
","
","""event"",""trial"",""time""
""fullscreenenter"",""1"",""3919""
","
","","1516.4050000021234","","","","practice_card_selection","2021-04-20 22:12:46.258","img/practice_cards/backs/brown.gif","0","-100","","",""
"casino-keyboard-response","16","105390","0.0-10.0-0.0","147","true","img/card_backs/set1/red.gif","img/card_backs/set1/purple.gif","img/card_backs/set1/green.gif","img/card_backs/set1/yellow.gif","img/card_backs/set2/orange.gif","img/card_backs/set2/blue.gif","img/card_backs/set2/gray.gif","img/card_backs/set2/pink.gif","""event"",""trial"",""time""
""fullscreenenter"",""1"",""3919""
","
","
","""event"",""trial"",""time""
""fullscreenenter"",""1"",""3919""
","
","","5892.255000013392","Great! Now on the next screen, try pressing '6' to select the third deck.","54","","instructions","2021-04-20 22:12:52.151","","","","","",""
"card-selection-trial","17","108046","0.0-11.0-0.0","147","true","img/card_backs/set1/red.gif","img/card_backs/set1/purple.gif","img/card_backs/set1/green.gif","img/card_backs/set1/yellow.gif","img/card_backs/set2/orange.gif","img/card_backs/set2/blue.gif","img/card_backs/set2/gray.gif","img/card_backs/set2/pink.gif","""event"",""trial"",""time""
""fullscreenenter"",""1"",""3919""
","
","
","""event"",""trial"",""time""
""fullscreenenter"",""1"",""3919""
","
","","647.9749999707565","","","","practice_card_selection","2021-04-20 22:12:54.807","img/practice_cards/backs/brown.gif","2","-100","","",""
"casino-keyboard-response","18","112603","0.0-12.0-0.0","147","true","img/card_backs/set1/red.gif","img/card_backs/set1/purple.gif","img/card_backs/set1/green.gif","img/card_backs/set1/yellow.gif","img/card_backs/set2/orange.gif","img/card_backs/set2/blue.gif","img/card_backs/set2/gray.gif","img/card_backs/set2/pink.gif","""event"",""trial"",""time""
""fullscreenenter"",""1"",""3919""
","
","
","""event"",""trial"",""time""
""fullscreenenter"",""1"",""3919""
","
","","4556.07999995118","Now on the next screen, try pressing '4' to select the second deck.","52","","instructions","2021-04-20 22:12:59.364","","","","","",""
"card-selection-trial","19","117738","0.0-13.0-0.0","147","true","img/card_backs/set1/red.gif","img/card_backs/set1/purple.gif","img/card_backs/set1/green.gif","img/card_backs/set1/yellow.gif","img/card_backs/set2/orange.gif","img/card_backs/set2/blue.gif","img/card_backs/set2/gray.gif","img/card_backs/set2/pink.gif","""event"",""trial"",""time""
""fullscreenenter"",""1"",""3919""
","
","
","""event"",""trial"",""time""
""fullscreenenter"",""1"",""3919""
","
","","3115.7599999569356","","","","practice_card_selection","2021-04-20 22:13:04.499","img/practice_cards/backs/brown.gif","1","-100","","",""
"casino-keyboard-response","20","122299","0.0-14.0-0.0","147","true","img/card_backs/set1/red.gif","img/card_backs/set1/purple.gif","img/card_backs/set1/green.gif","img/card_backs/set1/yellow.gif","img/card_backs/set2/orange.gif","img/card_backs/set2/blue.gif","img/card_backs/set2/gray.gif","img/card_backs/set2/pink.gif","""event"",""trial"",""time""
""fullscreenenter"",""1"",""3919""
","
","
","""event"",""trial"",""time""
""fullscreenenter"",""1"",""3919""
","
","","4558.405000017956","Finally, try pressing '8' to select the deck all the way on the right.","56","","instructions","2021-04-20 22:13:09.060","","","","","",""
"card-selection-trial","21","125313","0.0-15.0-0.0","147","true","img/card_backs/set1/red.gif","img/card_backs/set1/purple.gif","img/card_backs/set1/green.gif","img/card_backs/set1/yellow.gif","img/card_backs/set2/orange.gif","img/card_backs/set2/blue.gif","img/card_backs/set2/gray.gif","img/card_backs/set2/pink.gif","""event"",""trial"",""time""
""fullscreenenter"",""1"",""3919""
","
","
","""event"",""trial"",""time""
""fullscreenenter"",""1"",""3919""
","
","","996.1999999941327","","","","practice_card_selection","2021-04-20 22:13:12.074","img/practice_cards/backs/brown.gif","3","-100","","",""
"casino-keyboard-response","22","129754","0.0-16.0-0.0","147","true","img/card_backs/set1/red.gif","img/card_backs/set1/purple.gif","img/card_backs/set1/green.gif","img/card_backs/set1/yellow.gif","img/card_backs/set2/orange.gif","img/card_backs/set2/blue.gif","img/card_backs/set2/gray.gif","img/card_backs/set2/pink.gif","""event"",""trial"",""time""
""fullscreenenter"",""1"",""3919""
","
","
","""event"",""trial"",""time""
""fullscreenenter"",""1"",""3919""
","
","","4439.385000034235","Great! It seems like you are getting the hang of this.","80","","instructions","2021-04-20 22:13:16.515","","","","","",""
"casino-keyboard-response","23","137269","0.0-16.0-0.1","147","true","img/card_backs/set1/red.gif","img/card_backs/set1/purple.gif","img/card_backs/set1/green.gif","img/card_backs/set1/yellow.gif","img/card_backs/set2/orange.gif","img/card_backs/set2/blue.gif","img/card_backs/set2/gray.gif","img/card_backs/set2/pink.gif","""event"",""trial"",""time""
""fullscreenenter"",""1"",""3919""
","
","
","""event"",""trial"",""time""
""fullscreenenter"",""1"",""3919""
","
","","7511.669999978039","You may have noticed that some cards will cause you to <b> win </b> tokens while other cards will cause you to <b> lose </b>  tokens.","70","","instructions","2021-04-20 22:13:24.030","","","","","",""
"casino-keyboard-response","24","145769","0.0-16.0-0.2","147","true","img/card_backs/set1/red.gif","img/card_backs/set1/purple.gif","img/card_backs/set1/green.gif","img/card_backs/set1/yellow.gif","img/card_backs/set2/orange.gif","img/card_backs/set2/blue.gif","img/card_backs/set2/gray.gif","img/card_backs/set2/pink.gif","""event"",""trial"",""time""
""fullscreenenter"",""1"",""3919""
","
","
","""event"",""trial"",""time""
""fullscreenenter"",""1"",""3919""
","
","","8498.13500000164","Each deck has a mix of cards that will cause you to win and lose tokens. </br> However, the cards in each colored deck are different.","73","","instructions","2021-04-20 22:13:32.530","","","","","",""
"casino-keyboard-response","25","154649","0.0-16.0-0.3","147","true","img/card_backs/set1/red.gif","img/card_backs/set1/purple.gif","img/card_backs/set1/green.gif","img/card_backs/set1/yellow.gif","img/card_backs/set2/orange.gif","img/card_backs/set2/blue.gif","img/card_backs/set2/gray.gif","img/card_backs/set2/pink.gif","""event"",""trial"",""time""
""fullscreenenter"",""1"",""3919""
","
","
","""event"",""trial"",""time""
""fullscreenenter"",""1"",""3919""
","
","","8876.394999970216","Some colored decks are luckier than others. </br> If you choose the lucky decks, you will earn more tokens than if you choose the unlucky decks.","69","","instructions","2021-04-20 22:13:41.410","","","","","",""
"casino-keyboard-response","26","161994","0.0-16.0-0.4","147","true","img/card_backs/set1/red.gif","img/card_backs/set1/purple.gif","img/card_backs/set1/green.gif","img/card_backs/set1/yellow.gif","img/card_backs/set2/orange.gif","img/card_backs/set2/blue.gif","img/card_backs/set2/gray.gif","img/card_backs/set2/pink.gif","""event"",""trial"",""time""
""fullscreenenter"",""1"",""3919""
","
","
","""event"",""trial"",""time""
""fullscreenenter"",""1"",""3919""
","
","","7341.835000028368","You should try to figure out which decks are lucky. </br> Then, try to choose the lucky decks so you can win the most tokens.","87","","instructions","2021-04-20 22:13:48.755","","","","","",""
"casino-keyboard-response","27","173275","0.0-16.0-0.5","147","true","img/card_backs/set1/red.gif","img/card_backs/set1/purple.gif","img/card_backs/set1/green.gif","img/card_backs/set1/yellow.gif","img/card_backs/set2/orange.gif","img/card_backs/set2/blue.gif","img/card_backs/set2/gray.gif","img/card_backs/set2/pink.gif","""event"",""trial"",""time""
""fullscreenenter"",""1"",""3919""
","
","
","""event"",""trial"",""time""
""fullscreenenter"",""1"",""3919""
","
","","11276.505000016186","To make it trickier, the casino dealer will switch the locations of the decks on every turn. </br> The color of the deck determines how lucky it is. The location does not matter.","88","","instructions","2021-04-20 22:14:00.036","","","","","",""
"casino-keyboard-response","28","183350","0.0-16.0-0.6","147","true","img/card_backs/set1/red.gif","img/card_backs/set1/purple.gif","img/card_backs/set1/green.gif","img/card_backs/set1/yellow.gif","img/card_backs/set2/orange.gif","img/card_backs/set2/blue.gif","img/card_backs/set2/gray.gif","img/card_backs/set2/pink.gif","""event"",""trial"",""time""
""fullscreenenter"",""1"",""3919""
","
","
","""event"",""trial"",""time""
""fullscreenenter"",""1"",""3919""
","
","","10074.084999971092","The mix of cards in each colored deck will stay the same throughout the game. </br> That means that a deck that is lucky early on will stay lucky.","79","","instructions","2021-04-20 22:14:10.111","","","","","",""
"casino-keyboard-response","29","191539","0.0-16.0-0.7","147","true","img/card_backs/set1/red.gif","img/card_backs/set1/purple.gif","img/card_backs/set1/green.gif","img/card_backs/set1/yellow.gif","img/card_backs/set2/orange.gif","img/card_backs/set2/blue.gif","img/card_backs/set2/gray.gif","img/card_backs/set2/pink.gif","""event"",""trial"",""time""
""fullscreenenter"",""1"",""3919""
","
","
","""event"",""trial"",""time""
""fullscreenenter"",""1"",""3919""
","
","","8187.1050000190735","Remember though, all the decks have a <b> mix </b> of both <b> good </b> and <b> bad </b> cards so it may take a couple of turns to figure out if a deck is lucky.","69","","instructions","2021-04-20 22:14:18.300","","","","","",""
"casino-keyboard-response","30","200065","0.0-16.0-0.8","147","true","img/card_backs/set1/red.gif","img/card_backs/set1/purple.gif","img/card_backs/set1/green.gif","img/card_backs/set1/yellow.gif","img/card_backs/set2/orange.gif","img/card_backs/set2/blue.gif","img/card_backs/set2/gray.gif","img/card_backs/set2/pink.gif","""event"",""trial"",""time""
""fullscreenenter"",""1"",""3919""
","
","
","""event"",""trial"",""time""
""fullscreenenter"",""1"",""3919""
","
","","8522.850000008475","At the end of the game, you will be paid bonus money based on how many tokens you win. </br> If you win more tokens, you will earn more money!","72","","instructions","2021-04-20 22:14:26.826","","","","","",""
"casino-keyboard-response","31","210301","0.0-16.0-0.9","147","true","img/card_backs/set1/red.gif","img/card_backs/set1/purple.gif","img/card_backs/set1/green.gif","img/card_backs/set1/yellow.gif","img/card_backs/set2/orange.gif","img/card_backs/set2/blue.gif","img/card_backs/set2/gray.gif","img/card_backs/set2/pink.gif","""event"",""trial"",""time""
""fullscreenenter"",""1"",""3919""
","
","
","""event"",""trial"",""time""
""fullscreenenter"",""1"",""3919""
","
","","10232.535000017378","You will never <b> lose </b> money. </br> If you end up with fewer than 0 tokens, you will earn $0 of bonus money, but you will still be paid for playing the game.","83","","instructions","2021-04-20 22:14:37.063","","","","","",""
"casino-keyboard-response","32","214618","0.0-16.0-0.10","147","true","img/card_backs/set1/red.gif","img/card_backs/set1/purple.gif","img/card_backs/set1/green.gif","img/card_backs/set1/yellow.gif","img/card_backs/set2/orange.gif","img/card_backs/set2/blue.gif","img/card_backs/set2/gray.gif","img/card_backs/set2/pink.gif","""event"",""trial"",""time""
""fullscreenenter"",""1"",""3919""
","
","
","""event"",""trial"",""time""
""fullscreenenter"",""1"",""3919""
","
","","4313.135000003967","You will have 10 seconds to make each choice.","82","","instructions","2021-04-20 22:14:41.379","","","","","",""
"casino-keyboard-response","33","223261","0.0-16.0-0.11","147","true","img/card_backs/set1/red.gif","img/card_backs/set1/purple.gif","img/card_backs/set1/green.gif","img/card_backs/set1/yellow.gif","img/card_backs/set2/orange.gif","img/card_backs/set2/blue.gif","img/card_backs/set2/gray.gif","img/card_backs/set2/pink.gif","""event"",""trial"",""time""
""fullscreenenter"",""1"",""3919""
","
","
","""event"",""trial"",""time""
""fullscreenenter"",""1"",""3919""
","
","","8637.784999969881","Before you play the game for real, you will play with practice decks. </br> The tokens you earn during practice won't count toward your total.","86","","instructions","2021-04-20 22:14:50.022","","","","","",""
"casino-keyboard-response","34","234680","0.0-16.0-0.12","147","true","img/card_backs/set1/red.gif","img/card_backs/set1/purple.gif","img/card_backs/set1/green.gif","img/card_backs/set1/yellow.gif","img/card_backs/set2/orange.gif","img/card_backs/set2/blue.gif","img/card_backs/set2/gray.gif","img/card_backs/set2/pink.gif","""event"",""trial"",""time""
""fullscreenenter"",""1"",""3919""
","
","
","""event"",""trial"",""time""
""fullscreenenter"",""1"",""3919""
","
","","11417.720000026748","Ready? Remember, use the '2', '4', '6', and '8' keys to select the decks. </br> Put your fingers on those keys now and then press '2' to begin.","50","","instructions","2021-04-20 22:15:01.441","","","","","",""
"casino-fixation","35","235194","0.0-17.0-0.0","147","true","img/card_backs/set1/red.gif","img/card_backs/set1/purple.gif","img/card_backs/set1/green.gif","img/card_backs/set1/yellow.gif","img/card_backs/set2/orange.gif","img/card_backs/set2/blue.gif","img/card_backs/set2/gray.gif","img/card_backs/set2/pink.gif","""event"",""trial"",""time""
""fullscreenenter"",""1"",""3919""
","
","
","""event"",""trial"",""time""
""fullscreenenter"",""1"",""3919""
","
","","null","","null","","fixation","2021-04-20 22:15:01.955","","","","","",""
"card-selection-trial","36","238589","0.0-17.0-1.0","147","true","img/card_backs/set1/red.gif","img/card_backs/set1/purple.gif","img/card_backs/set1/green.gif","img/card_backs/set1/yellow.gif","img/card_backs/set2/orange.gif","img/card_backs/set2/blue.gif","img/card_backs/set2/gray.gif","img/card_backs/set2/pink.gif","""event"",""trial"",""time""
""fullscreenenter"",""1"",""3919""
","
","
","""event"",""trial"",""time""
""fullscreenenter"",""1"",""3919""
","
","","1380.089999991469","","","","practice","2021-04-20 22:15:05.351","img/practice_cards/backs/black.gif","0","-100","0","",""
"casino-fixation","37","239099","0.0-17.0-0.1","147","true","img/card_backs/set1/red.gif","img/card_backs/set1/purple.gif","img/card_backs/set1/green.gif","img/card_backs/set1/yellow.gif","img/card_backs/set2/orange.gif","img/card_backs/set2/blue.gif","img/card_backs/set2/gray.gif","img/card_backs/set2/pink.gif","""event"",""trial"",""time""
""fullscreenenter"",""1"",""3919""
","
","
","""event"",""trial"",""time""
""fullscreenenter"",""1"",""3919""
","
","","null","","null","","fixation","2021-04-20 22:15:05.860","","","","","",""
"card-selection-trial","38","242360","0.0-17.0-1.1","147","true","img/card_backs/set1/red.gif","img/card_backs/set1/purple.gif","img/card_backs/set1/green.gif","img/card_backs/set1/yellow.gif","img/card_backs/set2/orange.gif","img/card_backs/set2/blue.gif","img/card_backs/set2/gray.gif","img/card_backs/set2/pink.gif","""event"",""trial"",""time""
""fullscreenenter"",""1"",""3919""
","
","
","""event"",""trial"",""time""
""fullscreenenter"",""1"",""3919""
","
","","1241.1749999737367","","","","practice","2021-04-20 22:15:09.121","img/practice_cards/backs/dark_green.gif","1","-200","0","",""
"casino-fixation","39","242870","0.0-17.0-0.2","147","true","img/card_backs/set1/red.gif","img/card_backs/set1/purple.gif","img/card_backs/set1/green.gif","img/card_backs/set1/yellow.gif","img/card_backs/set2/orange.gif","img/card_backs/set2/blue.gif","img/card_backs/set2/gray.gif","img/card_backs/set2/pink.gif","""event"",""trial"",""time""
""fullscreenenter"",""1"",""3919""
","
","
","""event"",""trial"",""time""
""fullscreenenter"",""1"",""3919""
","
","","null","","null","","fixation","2021-04-20 22:15:09.632","","","","","",""
"card-selection-trial","40","245377","0.0-17.0-1.2","147","true","img/card_backs/set1/red.gif","img/card_backs/set1/purple.gif","img/card_backs/set1/green.gif","img/card_backs/set1/yellow.gif","img/card_backs/set2/orange.gif","img/card_backs/set2/blue.gif","img/card_backs/set2/gray.gif","img/card_backs/set2/pink.gif","""event"",""trial"",""time""
""fullscreenenter"",""1"",""3919""
","
","
","""event"",""trial"",""time""
""fullscreenenter"",""1"",""3919""
","
","","479.8999999766238","","","","practice","2021-04-20 22:15:12.139","img/practice_cards/backs/black.gif","2","-100","0","",""
"casino-fixation","41","245886","0.0-17.0-0.3","147","true","img/card_backs/set1/red.gif","img/card_backs/set1/purple.gif","img/card_backs/set1/green.gif","img/card_backs/set1/yellow.gif","img/card_backs/set2/orange.gif","img/card_backs/set2/blue.gif","img/card_backs/set2/gray.gif","img/card_backs/set2/pink.gif","""event"",""trial"",""time""
""fullscreenenter"",""1"",""3919""
","
","
","""event"",""trial"",""time""
""fullscreenenter"",""1"",""3919""
","
","","null","","null","","fixation","2021-04-20 22:15:12.647","","","","","",""
"card-selection-trial","42","248314","0.0-17.0-1.3","147","true","img/card_backs/set1/red.gif","img/card_backs/set1/purple.gif","img/card_backs/set1/green.gif","img/card_backs/set1/yellow.gif","img/card_backs/set2/orange.gif","img/card_backs/set2/blue.gif","img/card_backs/set2/gray.gif","img/card_backs/set2/pink.gif","""event"",""trial"",""time""
""fullscreenenter"",""1"",""3919""
","
","
","""event"",""trial"",""time""
""fullscreenenter"",""1"",""3919""
","
","","404.38999998150393","","","","practice","2021-04-20 22:15:15.075","img/practice_cards/backs/dark_green.gif","3","-200","0","",""
"casino-fixation","43","248826","0.0-17.0-0.4","147","true","img/card_backs/set1/red.gif","img/card_backs/set1/purple.gif","img/card_backs/set1/green.gif","img/card_backs/set1/yellow.gif","img/card_backs/set2/orange.gif","img/card_backs/set2/blue.gif","img/card_backs/set2/gray.gif","img/card_backs/set2/pink.gif","""event"",""trial"",""time""
""fullscreenenter"",""1"",""3919""
","
","
","""event"",""trial"",""time""
""fullscreenenter"",""1"",""3919""
","
","","null","","null","","fixation","2021-04-20 22:15:15.587","","","","","",""
"card-selection-trial","44","251440","0.0-17.0-1.4","147","true","img/card_backs/set1/red.gif","img/card_backs/set1/purple.gif","img/card_backs/set1/green.gif","img/card_backs/set1/yellow.gif","img/card_backs/set2/orange.gif","img/card_backs/set2/blue.gif","img/card_backs/set2/gray.gif","img/card_backs/set2/pink.gif","""event"",""trial"",""time""
""fullscreenenter"",""1"",""3919""
","
","
","""event"",""trial"",""time""
""fullscreenenter"",""1"",""3919""
","
","","593.8149999710731","","","","practice","2021-04-20 22:15:18.201","img/practice_cards/backs/black.gif","0","-100","0","",""
"casino-fixation","45","251950","0.0-17.0-0.5","147","true","img/card_backs/set1/red.gif","img/card_backs/set1/purple.gif","img/card_backs/set1/green.gif","img/card_backs/set1/yellow.gif","img/card_backs/set2/orange.gif","img/card_backs/set2/blue.gif","img/card_backs/set2/gray.gif","img/card_backs/set2/pink.gif","""event"",""trial"",""time""
""fullscreenenter"",""1"",""3919""
","
","
","""event"",""trial"",""time""
""fullscreenenter"",""1"",""3919""
","
","","null","","null","","fixation","2021-04-20 22:15:18.711","","","","","",""
"card-selection-trial","46","254842","0.0-17.0-1.5","147","true","img/card_backs/set1/red.gif","img/card_backs/set1/purple.gif","img/card_backs/set1/green.gif","img/card_backs/set1/yellow.gif","img/card_backs/set2/orange.gif","img/card_backs/set2/blue.gif","img/card_backs/set2/gray.gif","img/card_backs/set2/pink.gif","""event"",""trial"",""time""
""fullscreenenter"",""1"",""3919""
","
","
","""event"",""trial"",""time""
""fullscreenenter"",""1"",""3919""
","
","","868.2450000196695","","","","practice","2021-04-20 22:15:21.603","img/practice_cards/backs/brown.gif","3","-100","0","",""
"casino-fixation","47","255351","0.0-17.0-0.6","147","true","img/card_backs/set1/red.gif","img/card_backs/set1/purple.gif","img/card_backs/set1/green.gif","img/card_backs/set1/yellow.gif","img/card_backs/set2/orange.gif","img/card_backs/set2/blue.gif","img/card_backs/set2/gray.gif","img/card_backs/set2/pink.gif","""event"",""trial"",""time""
""fullscreenenter"",""1"",""3919""
","
","
","""event"",""trial"",""time""
""fullscreenenter"",""1"",""3919""
","
","","null","","null","","fixation","2021-04-20 22:15:22.112","","","","","",""
"card-selection-trial","48","259449","0.0-17.0-1.6","147","true","img/card_backs/set1/red.gif","img/card_backs/set1/purple.gif","img/card_backs/set1/green.gif","img/card_backs/set1/yellow.gif","img/card_backs/set2/orange.gif","img/card_backs/set2/blue.gif","img/card_backs/set2/gray.gif","img/card_backs/set2/pink.gif","""event"",""trial"",""time""
""fullscreenenter"",""1"",""3919""
","
","
","""event"",""trial"",""time""
""fullscreenenter"",""1"",""3919""
","
","","2065.795000002254","","","","practice","2021-04-20 22:15:26.210","img/practice_cards/backs/dark_green.gif","0","-200","0","",""
"casino-fixation","49","259959","0.0-17.0-0.7","147","true","img/card_backs/set1/red.gif","img/card_backs/set1/purple.gif","img/card_backs/set1/green.gif","img/card_backs/set1/yellow.gif","img/card_backs/set2/orange.gif","img/card_backs/set2/blue.gif","img/card_backs/set2/gray.gif","img/card_backs/set2/pink.gif","""event"",""trial"",""time""
""fullscreenenter"",""1"",""3919""
","
","
","""event"",""trial"",""time""
""fullscreenenter"",""1"",""3919""
","
","","null","","null","","fixation","2021-04-20 22:15:26.720","","","","","",""
"card-selection-trial","50","262946","0.0-17.0-1.7","147","true","img/card_backs/set1/red.gif","img/card_backs/set1/purple.gif","img/card_backs/set1/green.gif","img/card_backs/set1/yellow.gif","img/card_backs/set2/orange.gif","img/card_backs/set2/blue.gif","img/card_backs/set2/gray.gif","img/card_backs/set2/pink.gif","""event"",""trial"",""time""
""fullscreenenter"",""1"",""3919""
","
","
","""event"",""trial"",""time""
""fullscreenenter"",""1"",""3919""
","
","","959.3950000125915","","","","practice","2021-04-20 22:15:29.707","img/practice_cards/backs/black.gif","1","100","0","",""
"casino-fixation","51","263455","0.0-17.0-0.8","147","true","img/card_backs/set1/red.gif","img/card_backs/set1/purple.gif","img/card_backs/set1/green.gif","img/card_backs/set1/yellow.gif","img/card_backs/set2/orange.gif","img/card_backs/set2/blue.gif","img/card_backs/set2/gray.gif","img/card_backs/set2/pink.gif","""event"",""trial"",""time""
""fullscreenenter"",""1"",""3919""
","
","
","""event"",""trial"",""time""
""fullscreenenter"",""1"",""3919""
","
","","null","","null","","fixation","2021-04-20 22:15:30.216","","","","","",""
"card-selection-trial","52","266592","0.0-17.0-1.8","147","true","img/card_backs/set1/red.gif","img/card_backs/set1/purple.gif","img/card_backs/set1/green.gif","img/card_backs/set1/yellow.gif","img/card_backs/set2/orange.gif","img/card_backs/set2/blue.gif","img/card_backs/set2/gray.gif","img/card_backs/set2/pink.gif","""event"",""trial"",""time""
""fullscreenenter"",""1"",""3919""
","
","
","""event"",""trial"",""time""
""fullscreenenter"",""1"",""3919""
","
","","1127.7250000275671","","","","practice","2021-04-20 22:15:33.354","img/practice_cards/backs/brown.gif","2","100","0","",""
"casino-fixation","53","267103","0.0-17.0-0.9","147","true","img/card_backs/set1/red.gif","img/card_backs/set1/purple.gif","img/card_backs/set1/green.gif","img/card_backs/set1/yellow.gif","img/card_backs/set2/orange.gif","img/card_backs/set2/blue.gif","img/card_backs/set2/gray.gif","img/card_backs/set2/pink.gif","""event"",""trial"",""time""
""fullscreenenter"",""1"",""3919""
","
","
","""event"",""trial"",""time""
""fullscreenenter"",""1"",""3919""
","
","","null","","null","","fixation","2021-04-20 22:15:33.864","","","","","",""
"card-selection-trial","54","270315","0.0-17.0-1.9","147","true","img/card_backs/set1/red.gif","img/card_backs/set1/purple.gif","img/card_backs/set1/green.gif","img/card_backs/set1/yellow.gif","img/card_backs/set2/orange.gif","img/card_backs/set2/blue.gif","img/card_backs/set2/gray.gif","img/card_backs/set2/pink.gif","""event"",""trial"",""time""
""fullscreenenter"",""1"",""3919""
","
","
","""event"",""trial"",""time""
""fullscreenenter"",""1"",""3919""
","
","","1195.8050000248477","","","","practice","2021-04-20 22:15:37.076","img/practice_cards/backs/black.gif","0","-100","0","",""
"casino-keyboard-response","55","273213","0.0-18.0","147","true","img/card_backs/set1/red.gif","img/card_backs/set1/purple.gif","img/card_backs/set1/green.gif","img/card_backs/set1/yellow.gif","img/card_backs/set2/orange.gif","img/card_backs/set2/blue.gif","img/card_backs/set2/gray.gif","img/card_backs/set2/pink.gif","""event"",""trial"",""time""
""fullscreenenter"",""1"",""3919""
","
","
","""event"",""trial"",""time""
""fullscreenenter"",""1"",""3919""
","
","","2894.7449999977835","You earned -900 tokens during the practice round!","82","","","2021-04-20 22:15:39.974","","","","","",""
"casino-keyboard-response","56","277972","0.0-19.0-0.0","147","true","img/card_backs/set1/red.gif","img/card_backs/set1/purple.gif","img/card_backs/set1/green.gif","img/card_backs/set1/yellow.gif","img/card_backs/set2/orange.gif","img/card_backs/set2/blue.gif","img/card_backs/set2/gray.gif","img/card_backs/set2/pink.gif","""event"",""trial"",""time""
""fullscreenenter"",""1"",""3919""
","
","
","""event"",""trial"",""time""
""fullscreenenter"",""1"",""3919""
","
","","4755.944999982603","Nice job! You are almost ready to play the real game.","86","","instructions","2021-04-20 22:15:44.733","","","","","",""
"casino-keyboard-response","57","285408","0.0-19.0-0.1","147","true","img/card_backs/set1/red.gif","img/card_backs/set1/purple.gif","img/card_backs/set1/green.gif","img/card_backs/set1/yellow.gif","img/card_backs/set2/orange.gif","img/card_backs/set2/blue.gif","img/card_backs/set2/gray.gif","img/card_backs/set2/pink.gif","""event"",""trial"",""time""
""fullscreenenter"",""1"",""3919""
","
","
","""event"",""trial"",""time""
""fullscreenenter"",""1"",""3919""
","
","","7434.585000039078","You will play two rounds of the real game. In each round, you will pick 100 cards in total.","73","","instructions","2021-04-20 22:15:52.169","","","","","",""
"casino-keyboard-response","58","290679","0.0-19.0-0.2","147","true","img/card_backs/set1/red.gif","img/card_backs/set1/purple.gif","img/card_backs/set1/green.gif","img/card_backs/set1/yellow.gif","img/card_backs/set2/orange.gif","img/card_backs/set2/blue.gif","img/card_backs/set2/gray.gif","img/card_backs/set2/pink.gif","""event"",""trial"",""time""
""fullscreenenter"",""1"",""3919""
","
","
","""event"",""trial"",""time""
""fullscreenenter"",""1"",""3919""
","
","","5267.504999996163","We are now going to ask you some questions about how the game works.","66","","instructions","2021-04-20 22:15:57.440","","","","","",""
"casino-keyboard-response","59","296898","0.0-19.0-0.3","147","true","img/card_backs/set1/red.gif","img/card_backs/set1/purple.gif","img/card_backs/set1/green.gif","img/card_backs/set1/yellow.gif","img/card_backs/set2/orange.gif","img/card_backs/set2/blue.gif","img/card_backs/set2/gray.gif","img/card_backs/set2/pink.gif","""event"",""trial"",""time""
""fullscreenenter"",""1"",""3919""
","
","
","""event"",""trial"",""time""
""fullscreenenter"",""1"",""3919""
","
","","6216.755000001285","Answer carefully. You will not be able to begin the game until you answer them correctly.","67","","instructions","2021-04-20 22:16:03.659","","","","","",""
"casino-comp_q","60","304081","0.0-20.0-0.0","147","true","img/card_backs/set1/red.gif","img/card_backs/set1/purple.gif","img/card_backs/set1/green.gif","img/card_backs/set1/yellow.gif","img/card_backs/set2/orange.gif","img/card_backs/set2/blue.gif","img/card_backs/set2/gray.gif","img/card_backs/set2/pink.gif","""event"",""trial"",""time""
""fullscreenenter"",""1"",""3919""
","
","
","""event"",""trial"",""time""
""fullscreenenter"",""1"",""3919""
","
","","7180.540000030305","True or False: All the decks have some cards that cause you to win tokens and some cards that cause you to lose tokens.","84","","","2021-04-20 22:16:10.843","","","","","",""
"casino-keyboard-response","61","308732","0.0-20.0-1.0","147","true","img/card_backs/set1/red.gif","img/card_backs/set1/purple.gif","img/card_backs/set1/green.gif","img/card_backs/set1/yellow.gif","img/card_backs/set2/orange.gif","img/card_backs/set2/blue.gif","img/card_backs/set2/gray.gif","img/card_backs/set2/pink.gif","""event"",""trial"",""time""
""fullscreenenter"",""1"",""3919""
","
","
","""event"",""trial"",""time""
""fullscreenenter"",""1"",""3919""
","
","","4646.535000007134","True is correct! All the decks have a mix of winning and losing cards.","77","","","2021-04-20 22:16:15.494","","","","","true",""
"casino-comp_q","62","313282","0.0-21.0-0.0","147","true","img/card_backs/set1/red.gif","img/card_backs/set1/purple.gif","img/card_backs/set1/green.gif","img/card_backs/set1/yellow.gif","img/card_backs/set2/orange.gif","img/card_backs/set2/blue.gif","img/card_backs/set2/gray.gif","img/card_backs/set2/pink.gif","""event"",""trial"",""time""
""fullscreenenter"",""1"",""3919""
","
","
","""event"",""trial"",""time""
""fullscreenenter"",""1"",""3919""
","
","","4545.3749999869615","True or False: You will have as much time as you want to make your response.","70","","","2021-04-20 22:16:20.043","","","","","",""
"casino-keyboard-response","63","317097","0.0-21.0-1.0","147","true","img/card_backs/set1/red.gif","img/card_backs/set1/purple.gif","img/card_backs/set1/green.gif","img/card_backs/set1/yellow.gif","img/card_backs/set2/orange.gif","img/card_backs/set2/blue.gif","img/card_backs/set2/gray.gif","img/card_backs/set2/pink.gif","""event"",""trial"",""time""
""fullscreenenter"",""1"",""3919""
","
","
","""event"",""trial"",""time""
""fullscreenenter"",""1"",""3919""
","
","","3807.7899999916553","False is correct! You will only have 10 seconds to make each choice.","75","","","2021-04-20 22:16:23.858","","","","","true",""
"casino-comp_q","64","322643","0.0-22.0-0.0","147","true","img/card_backs/set1/red.gif","img/card_backs/set1/purple.gif","img/card_backs/set1/green.gif","img/card_backs/set1/yellow.gif","img/card_backs/set2/orange.gif","img/card_backs/set2/blue.gif","img/card_backs/set2/gray.gif","img/card_backs/set2/pink.gif","""event"",""trial"",""time""
""fullscreenenter"",""1"",""3919""
","
","
","""event"",""trial"",""time""
""fullscreenenter"",""1"",""3919""
","
","","5542.979999969248","True or False: The location of the deck determines how lucky it is.","84","","","2021-04-20 22:16:29.404","","","","","",""
"casino-keyboard-response","65","327105","0.0-22.0-1.0","147","true","img/card_backs/set1/red.gif","img/card_backs/set1/purple.gif","img/card_backs/set1/green.gif","img/card_backs/set1/yellow.gif","img/card_backs/set2/orange.gif","img/card_backs/set2/blue.gif","img/card_backs/set2/gray.gif","img/card_backs/set2/pink.gif","""event"",""trial"",""time""
""fullscreenenter"",""1"",""3919""
","
","
","""event"",""trial"",""time""
""fullscreenenter"",""1"",""3919""
","
","","4458.259999984875","True is incorrect. The <i>color</i> of the deck determines how lucky or unlucky it is.","68","","","2021-04-20 22:16:33.866","","","","","false",""
"casino-comp_q","66","332671","0.0-22.1-0.1","147","true","img/card_backs/set1/red.gif","img/card_backs/set1/purple.gif","img/card_backs/set1/green.gif","img/card_backs/set1/yellow.gif","img/card_backs/set2/orange.gif","img/card_backs/set2/blue.gif","img/card_backs/set2/gray.gif","img/card_backs/set2/pink.gif","""event"",""trial"",""time""
""fullscreenenter"",""1"",""3919""
","
","
","""event"",""trial"",""time""
""fullscreenenter"",""1"",""3919""
","
","","5562.755000020843","True or False: The location of the deck determines how lucky it is.","70","","","2021-04-20 22:16:39.432","","","","","",""
"casino-keyboard-response","67","335241","0.0-22.1-1.1","147","true","img/card_backs/set1/red.gif","img/card_backs/set1/purple.gif","img/card_backs/set1/green.gif","img/card_backs/set1/yellow.gif","img/card_backs/set2/orange.gif","img/card_backs/set2/blue.gif","img/card_backs/set2/gray.gif","img/card_backs/set2/pink.gif","""event"",""trial"",""time""
""fullscreenenter"",""1"",""3919""
","
","
","""event"",""trial"",""time""
""fullscreenenter"",""1"",""3919""
","
","","2566.705000004731","False is correct! The <i>color</i>  of the deck determines how lucky or unlucky it is.","68","","","2021-04-20 22:16:42.002","","","","","true",""
"casino-keyboard-response","68","339215","0.0-23.0-0.0","147","true","img/card_backs/set1/red.gif","img/card_backs/set1/purple.gif","img/card_backs/set1/green.gif","img/card_backs/set1/yellow.gif","img/card_backs/set2/orange.gif","img/card_backs/set2/blue.gif","img/card_backs/set2/gray.gif","img/card_backs/set2/pink.gif","""event"",""trial"",""time""
""fullscreenenter"",""1"",""3919""
","
","
","""event"",""trial"",""time""
""fullscreenenter"",""1"",""3919""
","
","","3970.694999967236","Great job! Now it's time to start the real game.","82","","instructions","2021-04-20 22:16:45.976","","","","","",""
"casino-keyboard-response","69","344544","0.0-23.0-0.1","147","true","img/card_backs/set1/red.gif","img/card_backs/set1/purple.gif","img/card_backs/set1/green.gif","img/card_backs/set1/yellow.gif","img/card_backs/set2/orange.gif","img/card_backs/set2/blue.gif","img/card_backs/set2/gray.gif","img/card_backs/set2/pink.gif","""event"",""trial"",""time""
""fullscreenenter"",""1"",""3919""
","
","
","""event"",""trial"",""time""
""fullscreenenter"",""1"",""3919""
","
","","5326.505000004545","Before we start, we're going to head into a new room of the casino.","86","","instructions","2021-04-20 22:16:51.305","","","","","",""
"casino-keyboard-response","70","351324","0.0-24.0-0.0","147","true","img/card_backs/set1/red.gif","img/card_backs/set1/purple.gif","img/card_backs/set1/green.gif","img/card_backs/set1/yellow.gif","img/card_backs/set2/orange.gif","img/card_backs/set2/blue.gif","img/card_backs/set2/gray.gif","img/card_backs/set2/pink.gif","""event"",""trial"",""time""
""fullscreenenter"",""1"",""3919""
","
","
","""event"",""trial"",""time""
""fullscreenenter"",""1"",""3919""
","
","","6776.654999994207","Here we are! The real game will use different cards, but the rules will be the same.","71","","instructions","2021-04-20 22:16:58.085","","","","","",""
"casino-keyboard-response","71","360097","0.0-24.0-0.1","147","true","img/card_backs/set1/red.gif","img/card_backs/set1/purple.gif","img/card_backs/set1/green.gif","img/card_backs/set1/yellow.gif","img/card_backs/set2/orange.gif","img/card_backs/set2/blue.gif","img/card_backs/set2/gray.gif","img/card_backs/set2/pink.gif","""event"",""trial"",""time""
""fullscreenenter"",""1"",""3919""
","
","
","""event"",""trial"",""time""
""fullscreenenter"",""1"",""3919""
","
","","8770.099999965169","Ready? Put your fingers over the '2', '4', 6', and '8' keys so you are ready to play the game. </br> Then press 2 to start.","50","","instructions","2021-04-20 22:17:06.858","","","","","",""
"casino-fixation","72","360609","0.0-25.0-0.0","147","true","img/card_backs/set1/red.gif","img/card_backs/set1/purple.gif","img/card_backs/set1/green.gif","img/card_backs/set1/yellow.gif","img/card_backs/set2/orange.gif","img/card_backs/set2/blue.gif","img/card_backs/set2/gray.gif","img/card_backs/set2/pink.gif","""event"",""trial"",""time""
""fullscreenenter"",""1"",""3919""
","
","
","""event"",""trial"",""time""
""fullscreenenter"",""1"",""3919""
","
","","null","","null","","fixation","2021-04-20 22:17:07.370","","","","","",""
"card-selection-trial","73","363612","0.0-25.0-1.0","147","true","img/card_backs/set1/red.gif","img/card_backs/set1/purple.gif","img/card_backs/set1/green.gif","img/card_backs/set1/yellow.gif","img/card_backs/set2/orange.gif","img/card_backs/set2/blue.gif","img/card_backs/set2/gray.gif","img/card_backs/set2/pink.gif","""event"",""trial"",""time""
""fullscreenenter"",""1"",""3919""
","
","
","""event"",""trial"",""time""
""fullscreenenter"",""1"",""3919""
","
","","980.6450000032783","","","","real_trial","2021-04-20 22:17:10.373","img/card_backs/set1/yellow.gif","0","50","1","",""
"casino-fixation","74","364124","0.0-25.0-0.1","147","true","img/card_backs/set1/red.gif","img/card_backs/set1/purple.gif","img/card_backs/set1/green.gif","img/card_backs/set1/yellow.gif","img/card_backs/set2/orange.gif","img/card_backs/set2/blue.gif","img/card_backs/set2/gray.gif","img/card_backs/set2/pink.gif","""event"",""trial"",""time""
""fullscreenenter"",""1"",""3919""
","
","
","""event"",""trial"",""time""
""fullscreenenter"",""1"",""3919""
","
","","null","","null","","fixation","2021-04-20 22:17:10.885","","","","","",""
"card-selection-trial","75","367138","0.0-25.0-1.1","147","true","img/card_backs/set1/red.gif","img/card_backs/set1/purple.gif","img/card_backs/set1/green.gif","img/card_backs/set1/yellow.gif","img/card_backs/set2/orange.gif","img/card_backs/set2/blue.gif","img/card_backs/set2/gray.gif","img/card_backs/set2/pink.gif","""event"",""trial"",""time""
""fullscreenenter"",""1"",""3919""
","
","
","""event"",""trial"",""time""
""fullscreenenter"",""1"",""3919""
","
","","987.8550000139512","","","","real_trial","2021-04-20 22:17:13.899","img/card_backs/set1/red.gif","1","-210","1","",""
"casino-fixation","76","367648","0.0-25.0-0.2","147","true","img/card_backs/set1/red.gif","img/card_backs/set1/purple.gif","img/card_backs/set1/green.gif","img/card_backs/set1/yellow.gif","img/card_backs/set2/orange.gif","img/card_backs/set2/blue.gif","img/card_backs/set2/gray.gif","img/card_backs/set2/pink.gif","""event"",""trial"",""time""
""fullscreenenter"",""1"",""3919""
","
","
","""event"",""trial"",""time""
""fullscreenenter"",""1"",""3919""
","
","","null","","null","","fixation","2021-04-20 22:17:14.410","","","","","",""
"card-selection-trial","77","372504","0.0-25.0-1.2","147","true","img/card_backs/set1/red.gif","img/card_backs/set1/purple.gif","img/card_backs/set1/green.gif","img/card_backs/set1/yellow.gif","img/card_backs/set2/orange.gif","img/card_backs/set2/blue.gif","img/card_backs/set2/gray.gif","img/card_backs/set2/pink.gif","""event"",""trial"",""time""
""fullscreenenter"",""1"",""3919""
","
","
","""event"",""trial"",""time""
""fullscreenenter"",""1"",""3919""
","
","","2842.4850000301376","","","","real_trial","2021-04-20 22:17:19.265","img/card_backs/set1/purple.gif","1","-200","1","",""
"casino-fixation","78","373011","0.0-25.0-0.3","147","true","img/card_backs/set1/red.gif","img/card_backs/set1/purple.gif","img/card_backs/set1/green.gif","img/card_backs/set1/yellow.gif","img/card_backs/set2/orange.gif","img/card_backs/set2/blue.gif","img/card_backs/set2/gray.gif","img/card_backs/set2/pink.gif","""event"",""trial"",""time""
""fullscreenenter"",""1"",""3919""
","
","
","""event"",""trial"",""time""
""fullscreenenter"",""1"",""3919""
","
","","null","","null","","fixation","2021-04-20 22:17:19.772","","","","","",""
"card-selection-trial","79","377077","0.0-25.0-1.3","147","true","img/card_backs/set1/red.gif","img/card_backs/set1/purple.gif","img/card_backs/set1/green.gif","img/card_backs/set1/yellow.gif","img/card_backs/set2/orange.gif","img/card_backs/set2/blue.gif","img/card_backs/set2/gray.gif","img/card_backs/set2/pink.gif","""event"",""trial"",""time""
""fullscreenenter"",""1"",""3919""
","
","
","""event"",""trial"",""time""
""fullscreenenter"",""1"",""3919""
","
","","2039.4000000087544","","","","real_trial","2021-04-20 22:17:23.838","img/card_backs/set1/green.gif","1","-90","1","",""
"casino-fixation","80","377587","0.0-25.0-0.4","147","true","img/card_backs/set1/red.gif","img/card_backs/set1/purple.gif","img/card_backs/set1/green.gif","img/card_backs/set1/yellow.gif","img/card_backs/set2/orange.gif","img/card_backs/set2/blue.gif","img/card_backs/set2/gray.gif","img/card_backs/set2/pink.gif","""event"",""trial"",""time""
""fullscreenenter"",""1"",""3919""
","
","
","""event"",""trial"",""time""
""fullscreenenter"",""1"",""3919""
","
","","null","","null","","fixation","2021-04-20 22:17:24.348","","","","","",""
"card-selection-trial","81","380801","0.0-25.0-1.4","147","true","img/card_backs/set1/red.gif","img/card_backs/set1/purple.gif","img/card_backs/set1/green.gif","img/card_backs/set1/yellow.gif","img/card_backs/set2/orange.gif","img/card_backs/set2/blue.gif","img/card_backs/set2/gray.gif","img/card_backs/set2/pink.gif","""event"",""trial"",""time""
""fullscreenenter"",""1"",""3919""
","
","
","""event"",""trial"",""time""
""fullscreenenter"",""1"",""3919""
","
","","1194.7200000286102","","","","real_trial","2021-04-20 22:17:27.562","img/card_backs/set1/yellow.gif","1","60","1","",""
"casino-fixation","82","381308","0.0-25.0-0.5","147","true","img/card_backs/set1/red.gif","img/card_backs/set1/purple.gif","img/card_backs/set1/green.gif","img/card_backs/set1/yellow.gif","img/card_backs/set2/orange.gif","img/card_backs/set2/blue.gif","img/card_backs/set2/gray.gif","img/card_backs/set2/pink.gif","""event"",""trial"",""time""
""fullscreenenter"",""1"",""3919""
","
","
","""event"",""trial"",""time""
""fullscreenenter"",""1"",""3919""
","
","","null","","null","","fixation","2021-04-20 22:17:28.070","","","","","",""
"card-selection-trial","83","384447","0.0-25.0-1.5","147","true","img/card_backs/set1/red.gif","img/card_backs/set1/purple.gif","img/card_backs/set1/green.gif","img/card_backs/set1/yellow.gif","img/card_backs/set2/orange.gif","img/card_backs/set2/blue.gif","img/card_backs/set2/gray.gif","img/card_backs/set2/pink.gif","""event"",""trial"",""time""
""fullscreenenter"",""1"",""3919""
","
","
","""event"",""trial"",""time""
""fullscreenenter"",""1"",""3919""
","
","","1121.9050000072457","","","","real_trial","2021-04-20 22:17:31.208","img/card_backs/set1/red.gif","0","240","1","",""
"casino-fixation","84","384957","0.0-25.0-0.6","147","true","img/card_backs/set1/red.gif","img/card_backs/set1/purple.gif","img/card_backs/set1/green.gif","img/card_backs/set1/yellow.gif","img/card_backs/set2/orange.gif","img/card_backs/set2/blue.gif","img/card_backs/set2/gray.gif","img/card_backs/set2/pink.gif","""event"",""trial"",""time""
""fullscreenenter"",""1"",""3919""
","
","
","""event"",""trial"",""time""
""fullscreenenter"",""1"",""3919""
","
","","null","","null","","fixation","2021-04-20 22:17:31.719","","","","","",""
"card-selection-trial","85","389076","0.0-25.0-1.6","147","true","img/card_backs/set1/red.gif","img/card_backs/set1/purple.gif","img/card_backs/set1/green.gif","img/card_backs/set1/yellow.gif","img/card_backs/set2/orange.gif","img/card_backs/set2/blue.gif","img/card_backs/set2/gray.gif","img/card_backs/set2/pink.gif","""event"",""trial"",""time""
""fullscreenenter"",""1"",""3919""
","
","
","""event"",""trial"",""time""
""fullscreenenter"",""1"",""3919""
","
","","2101.5950000146404","","","","real_trial","2021-04-20 22:17:35.837","img/card_backs/set1/green.gif","1","-90","1","",""
"casino-fixation","86","389587","0.0-25.0-0.7","147","true","img/card_backs/set1/red.gif","img/card_backs/set1/purple.gif","img/card_backs/set1/green.gif","img/card_backs/set1/yellow.gif","img/card_backs/set2/orange.gif","img/card_backs/set2/blue.gif","img/card_backs/set2/gray.gif","img/card_backs/set2/pink.gif","""event"",""trial"",""time""
""fullscreenenter"",""1"",""3919""
","
","
","""event"",""trial"",""time""
""fullscreenenter"",""1"",""3919""
","
","","null","","null","","fixation","2021-04-20 22:17:36.348","","","","","",""
"card-selection-trial","87","393257","0.0-25.0-1.7","147","true","img/card_backs/set1/red.gif","img/card_backs/set1/purple.gif","img/card_backs/set1/green.gif","img/card_backs/set1/yellow.gif","img/card_backs/set2/orange.gif","img/card_backs/set2/blue.gif","img/card_backs/set2/gray.gif","img/card_backs/set2/pink.gif","""event"",""trial"",""time""
""fullscreenenter"",""1"",""3919""
","
","
","""event"",""trial"",""time""
""fullscreenenter"",""1"",""3919""
","
","","1652.1799999754876","","","","real_trial","2021-04-20 22:17:40.018","img/card_backs/set1/purple.gif","2","-200","1","",""
"casino-fixation","88","393760","0.0-25.0-0.8","147","true","img/card_backs/set1/red.gif","img/card_backs/set1/purple.gif","img/card_backs/set1/green.gif","img/card_backs/set1/yellow.gif","img/card_backs/set2/orange.gif","img/card_backs/set2/blue.gif","img/card_backs/set2/gray.gif","img/card_backs/set2/pink.gif","""event"",""trial"",""time""
""fullscreenenter"",""1"",""3919""
","
","
","""event"",""trial"",""time""
""fullscreenenter"",""1"",""3919""
","
","","null","","null","","fixation","2021-04-20 22:17:40.521","","","","","",""
"card-selection-trial","89","398204","0.0-25.0-1.8","147","true","img/card_backs/set1/red.gif","img/card_backs/set1/purple.gif","img/card_backs/set1/green.gif","img/card_backs/set1/yellow.gif","img/card_backs/set2/orange.gif","img/card_backs/set2/blue.gif","img/card_backs/set2/gray.gif","img/card_backs/set2/pink.gif","""event"",""trial"",""time""
""fullscreenenter"",""1"",""3919""
","
","
","""event"",""trial"",""time""
""fullscreenenter"",""1"",""3919""
","
","","2428.7449999828823","","","","real_trial","2021-04-20 22:17:44.965","img/card_backs/set1/green.gif","0","-100","1","",""
"casino-fixation","90","398708","0.0-25.0-0.9","147","true","img/card_backs/set1/red.gif","img/card_backs/set1/purple.gif","img/card_backs/set1/green.gif","img/card_backs/set1/yellow.gif","img/card_backs/set2/orange.gif","img/card_backs/set2/blue.gif","img/card_backs/set2/gray.gif","img/card_backs/set2/pink.gif","""event"",""trial"",""time""
""fullscreenenter"",""1"",""3919""
","
","
","""event"",""trial"",""time""
""fullscreenenter"",""1"",""3919""
","
","","null","","null","","fixation","2021-04-20 22:17:45.469","","","","","",""
"card-selection-trial","91","402835","0.0-25.0-1.9","147","true","img/card_backs/set1/red.gif","img/card_backs/set1/purple.gif","img/card_backs/set1/green.gif","img/card_backs/set1/yellow.gif","img/card_backs/set2/orange.gif","img/card_backs/set2/blue.gif","img/card_backs/set2/gray.gif","img/card_backs/set2/pink.gif","""event"",""trial"",""time""
""fullscreenenter"",""1"",""3919""
","
","
","""event"",""trial"",""time""
""fullscreenenter"",""1"",""3919""
","
","","2112.5049999682233","","","","real_trial","2021-04-20 22:17:49.596","img/card_backs/set1/purple.gif","3","-200","1","",""
"casino-fixation","92","403340","0.0-25.0-0.10","147","true","img/card_backs/set1/red.gif","img/card_backs/set1/purple.gif","img/card_backs/set1/green.gif","img/card_backs/set1/yellow.gif","img/card_backs/set2/orange.gif","img/card_backs/set2/blue.gif","img/card_backs/set2/gray.gif","img/card_backs/set2/pink.gif","""event"",""trial"",""time""
""fullscreenenter"",""1"",""3919""
","
","
","""event"",""trial"",""time""
""fullscreenenter"",""1"",""3919""
","
","","null","","null","","fixation","2021-04-20 22:17:50.101","","","","","",""
"card-selection-trial","93","407453","0.0-25.0-1.10","147","true","img/card_backs/set1/red.gif","img/card_backs/set1/purple.gif","img/card_backs/set1/green.gif","img/card_backs/set1/yellow.gif","img/card_backs/set2/orange.gif","img/card_backs/set2/blue.gif","img/card_backs/set2/gray.gif","img/card_backs/set2/pink.gif","""event"",""trial"",""time""
""fullscreenenter"",""1"",""3919""
","
","
","""event"",""trial"",""time""
""fullscreenenter"",""1"",""3919""
","
","","2097.18000004068","","","","real_trial","2021-04-20 22:17:54.214","img/card_backs/set1/yellow.gif","1","50","1","",""
"casino-fixation","94","407971","0.0-25.0-0.11","147","true","img/card_backs/set1/red.gif","img/card_backs/set1/purple.gif","img/card_backs/set1/green.gif","img/card_backs/set1/yellow.gif","img/card_backs/set2/orange.gif","img/card_backs/set2/blue.gif","img/card_backs/set2/gray.gif","img/card_backs/set2/pink.gif","""event"",""trial"",""time""
""fullscreenenter"",""1"",""3919""
","
","
","""event"",""trial"",""time""
""fullscreenenter"",""1"",""3919""
","
","","null","","null","","fixation","2021-04-20 22:17:54.732","","","","","",""
"card-selection-trial","95","411398","0.0-25.0-1.11","147","true","img/card_backs/set1/red.gif","img/card_backs/set1/purple.gif","img/card_backs/set1/green.gif","img/card_backs/set1/yellow.gif","img/card_backs/set2/orange.gif","img/card_backs/set2/blue.gif","img/card_backs/set2/gray.gif","img/card_backs/set2/pink.gif","""event"",""trial"",""time""
""fullscreenenter"",""1"",""3919""
","
","
","""event"",""trial"",""time""
""fullscreenenter"",""1"",""3919""
","
","","1409.8750000121072","","","","real_trial","2021-04-20 22:17:58.159","img/card_backs/set1/red.gif","1","240","1","",""
"casino-fixation","96","411902","0.0-25.0-0.12","147","true","img/card_backs/set1/red.gif","img/card_backs/set1/purple.gif","img/card_backs/set1/green.gif","img/card_backs/set1/yellow.gif","img/card_backs/set2/orange.gif","img/card_backs/set2/blue.gif","img/card_backs/set2/gray.gif","img/card_backs/set2/pink.gif","""event"",""trial"",""time""
""fullscreenenter"",""1"",""3919""
","
","
","""event"",""trial"",""time""
""fullscreenenter"",""1"",""3919""
","
","","null","","null","","fixation","2021-04-20 22:17:58.664","","","","","",""
"card-selection-trial","97","414307","0.0-25.0-1.12","147","true","img/card_backs/set1/red.gif","img/card_backs/set1/purple.gif","img/card_backs/set1/green.gif","img/card_backs/set1/yellow.gif","img/card_backs/set2/orange.gif","img/card_backs/set2/blue.gif","img/card_backs/set2/gray.gif","img/card_backs/set2/pink.gif","""event"",""trial"",""time""
""fullscreenenter"",""1"",""3919""
","
","
","""event"",""trial"",""time""
""fullscreenenter"",""1"",""3919""
","
","","390.8000000519678","","","","real_trial","2021-04-20 22:18:01.068","img/card_backs/set1/red.gif","1","250","1","",""
"casino-fixation","98","414810","0.0-25.0-0.13","147","true","img/card_backs/set1/red.gif","img/card_backs/set1/purple.gif","img/card_backs/set1/green.gif","img/card_backs/set1/yellow.gif","img/card_backs/set2/orange.gif","img/card_backs/set2/blue.gif","img/card_backs/set2/gray.gif","img/card_backs/set2/pink.gif","""event"",""trial"",""time""
""fullscreenenter"",""1"",""3919""
","
","
","""event"",""trial"",""time""
""fullscreenenter"",""1"",""3919""
","
","","null","","null","","fixation","2021-04-20 22:18:01.572","","","","","",""
"card-selection-trial","99","417151","0.0-25.0-1.13","147","true","img/card_backs/set1/red.gif","img/card_backs/set1/purple.gif","img/card_backs/set1/green.gif","img/card_backs/set1/yellow.gif","img/card_backs/set2/orange.gif","img/card_backs/set2/blue.gif","img/card_backs/set2/gray.gif","img/card_backs/set2/pink.gif","""event"",""trial"",""time""
""fullscreenenter"",""1"",""3919""
","
","
","""event"",""trial"",""time""
""fullscreenenter"",""1"",""3919""
","
","","322.61999999172986","","","","real_trial","2021-04-20 22:18:03.912","img/card_backs/set1/green.gif","1","-100","1","",""
"casino-fixation","100","417654","0.0-25.0-0.14","147","true","img/card_backs/set1/red.gif","img/card_backs/set1/purple.gif","img/card_backs/set1/green.gif","img/card_backs/set1/yellow.gif","img/card_backs/set2/orange.gif","img/card_backs/set2/blue.gif","img/card_backs/set2/gray.gif","img/card_backs/set2/pink.gif","""event"",""trial"",""time""
""fullscreenenter"",""1"",""3919""
","
","
","""event"",""trial"",""time""
""fullscreenenter"",""1"",""3919""
","
","","null","","null","","fixation","2021-04-20 22:18:04.415","","","","","",""
"card-selection-trial","101","421107","0.0-25.0-1.14","147","true","img/card_backs/set1/red.gif","img/card_backs/set1/purple.gif","img/card_backs/set1/green.gif","img/card_backs/set1/yellow.gif","img/card_backs/set2/orange.gif","img/card_backs/set2/blue.gif","img/card_backs/set2/gray.gif","img/card_backs/set2/pink.gif","""event"",""trial"",""time""
""fullscreenenter"",""1"",""3919""
","
","
","""event"",""trial"",""time""
""fullscreenenter"",""1"",""3919""
","
","","1437.1999999857508","","","","real_trial","2021-04-20 22:18:07.868","img/card_backs/set1/red.gif","3","260","1","",""
"casino-fixation","102","421610","0.0-25.0-0.15","147","true","img/card_backs/set1/red.gif","img/card_backs/set1/purple.gif","img/card_backs/set1/green.gif","img/card_backs/set1/yellow.gif","img/card_backs/set2/orange.gif","img/card_backs/set2/blue.gif","img/card_backs/set2/gray.gif","img/card_backs/set2/pink.gif","""event"",""trial"",""time""
""fullscreenenter"",""1"",""3919""
","
","
","""event"",""trial"",""time""
""fullscreenenter"",""1"",""3919""
","
","","null","","null","","fixation","2021-04-20 22:18:08.371","","","","","",""
"card-selection-trial","103","424320","0.0-25.0-1.15","147","true","img/card_backs/set1/red.gif","img/card_backs/set1/purple.gif","img/card_backs/set1/green.gif","img/card_backs/set1/yellow.gif","img/card_backs/set2/orange.gif","img/card_backs/set2/blue.gif","img/card_backs/set2/gray.gif","img/card_backs/set2/pink.gif","""event"",""trial"",""time""
""fullscreenenter"",""1"",""3919""
","
","
","""event"",""trial"",""time""
""fullscreenenter"",""1"",""3919""
","
","","696.3649999815971","","","","real_trial","2021-04-20 22:18:11.081","img/card_backs/set1/red.gif","3","260","1","",""
"casino-fixation","104","424824","0.0-25.0-0.16","147","true","img/card_backs/set1/red.gif","img/card_backs/set1/purple.gif","img/card_backs/set1/green.gif","img/card_backs/set1/yellow.gif","img/card_backs/set2/orange.gif","img/card_backs/set2/blue.gif","img/card_backs/set2/gray.gif","img/card_backs/set2/pink.gif","""event"",""trial"",""time""
""fullscreenenter"",""1"",""3919""
","
","
","""event"",""trial"",""time""
""fullscreenenter"",""1"",""3919""
","
","","null","","null","","fixation","2021-04-20 22:18:11.585","","","","","",""
"card-selection-trial","105","428378","0.0-25.0-1.16","147","true","img/card_backs/set1/red.gif","img/card_backs/set1/purple.gif","img/card_backs/set1/green.gif","img/card_backs/set1/yellow.gif","img/card_backs/set2/orange.gif","img/card_backs/set2/blue.gif","img/card_backs/set2/gray.gif","img/card_backs/set2/pink.gif","""event"",""trial"",""time""
""fullscreenenter"",""1"",""3919""
","
","
","""event"",""trial"",""time""
""fullscreenenter"",""1"",""3919""
","
","","1538.8450000318699","","","","real_trial","2021-04-20 22:18:15.139","img/card_backs/set1/red.gif","2","260","1","",""
"casino-fixation","106","428883","0.0-25.0-0.17","147","true","img/card_backs/set1/red.gif","img/card_backs/set1/purple.gif","img/card_backs/set1/green.gif","img/card_backs/set1/yellow.gif","img/card_backs/set2/orange.gif","img/card_backs/set2/blue.gif","img/card_backs/set2/gray.gif","img/card_backs/set2/pink.gif","""event"",""trial"",""time""
""fullscreenenter"",""1"",""3919""
","
","
","""event"",""trial"",""time""
""fullscreenenter"",""1"",""3919""
","
","","null","","null","","fixation","2021-04-20 22:18:15.644","","","","","",""
"card-selection-trial","107","432182","0.0-25.0-1.17","147","true","img/card_backs/set1/red.gif","img/card_backs/set1/purple.gif","img/card_backs/set1/green.gif","img/card_backs/set1/yellow.gif","img/card_backs/set2/orange.gif","img/card_backs/set2/blue.gif","img/card_backs/set2/gray.gif","img/card_backs/set2/pink.gif","""event"",""trial"",""time""
""fullscreenenter"",""1"",""3919""
","
","
","""event"",""trial"",""time""
""fullscreenenter"",""1"",""3919""
","
","","1287.7599999774247","","","","real_trial","2021-04-20 22:18:18.943","img/card_backs/set1/red.gif","1","260","1","",""
"casino-fixation","108","432686","0.0-25.0-0.18","147","true","img/card_backs/set1/red.gif","img/card_backs/set1/purple.gif","img/card_backs/set1/green.gif","img/card_backs/set1/yellow.gif","img/card_backs/set2/orange.gif","img/card_backs/set2/blue.gif","img/card_backs/set2/gray.gif","img/card_backs/set2/pink.gif","""event"",""trial"",""time""
""fullscreenenter"",""1"",""3919""
","
","
","""event"",""trial"",""time""
""fullscreenenter"",""1"",""3919""
","
","","null","","null","","fixation","2021-04-20 22:18:19.447","","","","","",""
"card-selection-trial","109","435795","0.0-25.0-1.18","147","true","img/card_backs/set1/red.gif","img/card_backs/set1/purple.gif","img/card_backs/set1/green.gif","img/card_backs/set1/yellow.gif","img/card_backs/set2/orange.gif","img/card_backs/set2/blue.gif","img/card_backs/set2/gray.gif","img/card_backs/set2/pink.gif","""event"",""trial"",""time""
""fullscreenenter"",""1"",""3919""
","
","
","""event"",""trial"",""time""
""fullscreenenter"",""1"",""3919""
","
","","1090.280000003986","","","","real_trial","2021-04-20 22:18:22.556","img/card_backs/set1/red.gif","0","-200","1","",""
"casino-fixation","110","436299","0.0-25.0-0.19","147","true","img/card_backs/set1/red.gif","img/card_backs/set1/purple.gif","img/card_backs/set1/green.gif","img/card_backs/set1/yellow.gif","img/card_backs/set2/orange.gif","img/card_backs/set2/blue.gif","img/card_backs/set2/gray.gif","img/card_backs/set2/pink.gif","""event"",""trial"",""time""
""fullscreenenter"",""1"",""3919""
","
","
","""event"",""trial"",""time""
""fullscreenenter"",""1"",""3919""
","
","","null","","null","","fixation","2021-04-20 22:18:23.060","","","","","",""
"card-selection-trial","111","439296","0.0-25.0-1.19","147","true","img/card_backs/set1/red.gif","img/card_backs/set1/purple.gif","img/card_backs/set1/green.gif","img/card_backs/set1/yellow.gif","img/card_backs/set2/orange.gif","img/card_backs/set2/blue.gif","img/card_backs/set2/gray.gif","img/card_backs/set2/pink.gif","""event"",""trial"",""time""
""fullscreenenter"",""1"",""3919""
","
","
","""event"",""trial"",""time""
""fullscreenenter"",""1"",""3919""
","
","","984.0550000080839","","","","real_trial","2021-04-20 22:18:26.057","img/card_backs/set1/purple.gif","0","-200","1","",""
"casino-fixation","112","439799","0.0-25.0-0.20","147","true","img/card_backs/set1/red.gif","img/card_backs/set1/purple.gif","img/card_backs/set1/green.gif","img/card_backs/set1/yellow.gif","img/card_backs/set2/orange.gif","img/card_backs/set2/blue.gif","img/card_backs/set2/gray.gif","img/card_backs/set2/pink.gif","""event"",""trial"",""time""
""fullscreenenter"",""1"",""3919""
","
","
","""event"",""trial"",""time""
""fullscreenenter"",""1"",""3919""
","
","","null","","null","","fixation","2021-04-20 22:18:26.560","","","","","",""
"card-selection-trial","113","443671","0.0-25.0-1.20","147","true","img/card_backs/set1/red.gif","img/card_backs/set1/purple.gif","img/card_backs/set1/green.gif","img/card_backs/set1/yellow.gif","img/card_backs/set2/orange.gif","img/card_backs/set2/blue.gif","img/card_backs/set2/gray.gif","img/card_backs/set2/pink.gif","""event"",""trial"",""time""
""fullscreenenter"",""1"",""3919""
","
","
","""event"",""trial"",""time""
""fullscreenenter"",""1"",""3919""
","
","","1857.239999982994","","","","real_trial","2021-04-20 22:18:30.432","img/card_backs/set1/red.gif","3","260","1","",""
"casino-fixation","114","444175","0.0-25.0-0.21","147","true","img/card_backs/set1/red.gif","img/card_backs/set1/purple.gif","img/card_backs/set1/green.gif","img/card_backs/set1/yellow.gif","img/card_backs/set2/orange.gif","img/card_backs/set2/blue.gif","img/card_backs/set2/gray.gif","img/card_backs/set2/pink.gif","""event"",""trial"",""time""
""fullscreenenter"",""1"",""3919""
","
","
","""event"",""trial"",""time""
""fullscreenenter"",""1"",""3919""
","
","","null","","null","","fixation","2021-04-20 22:18:30.936","","","","","",""
"card-selection-trial","115","447309","0.0-25.0-1.21","147","true","img/card_backs/set1/red.gif","img/card_backs/set1/purple.gif","img/card_backs/set1/green.gif","img/card_backs/set1/yellow.gif","img/card_backs/set2/orange.gif","img/card_backs/set2/blue.gif","img/card_backs/set2/gray.gif","img/card_backs/set2/pink.gif","""event"",""trial"",""time""
""fullscreenenter"",""1"",""3919""
","
","
","""event"",""trial"",""time""
""fullscreenenter"",""1"",""3919""
","
","","1126.0500000207685","","","","real_trial","2021-04-20 22:18:34.070","img/card_backs/set1/red.gif","1","-190","1","",""
"casino-fixation","116","447812","0.0-25.0-0.22","147","true","img/card_backs/set1/red.gif","img/card_backs/set1/purple.gif","img/card_backs/set1/green.gif","img/card_backs/set1/yellow.gif","img/card_backs/set2/orange.gif","img/card_backs/set2/blue.gif","img/card_backs/set2/gray.gif","img/card_backs/set2/pink.gif","""event"",""trial"",""time""
""fullscreenenter"",""1"",""3919""
","
","
","""event"",""trial"",""time""
""fullscreenenter"",""1"",""3919""
","
","","null","","null","","fixation","2021-04-20 22:18:34.573","","","","","",""
"card-selection-trial","117","451477","0.0-25.0-1.22","147","true","img/card_backs/set1/red.gif","img/card_backs/set1/purple.gif","img/card_backs/set1/green.gif","img/card_backs/set1/yellow.gif","img/card_backs/set2/orange.gif","img/card_backs/set2/blue.gif","img/card_backs/set2/gray.gif","img/card_backs/set2/pink.gif","""event"",""trial"",""time""
""fullscreenenter"",""1"",""3919""
","
","
","""event"",""trial"",""time""
""fullscreenenter"",""1"",""3919""
","
","","1650.4249999998137","","","","real_trial","2021-04-20 22:18:38.239","img/card_backs/set1/yellow.gif","1","-90","1","",""
"casino-fixation","118","451982","0.0-25.0-0.23","147","true","img/card_backs/set1/red.gif","img/card_backs/set1/purple.gif","img/card_backs/set1/green.gif","img/card_backs/set1/yellow.gif","img/card_backs/set2/orange.gif","img/card_backs/set2/blue.gif","img/card_backs/set2/gray.gif","img/card_backs/set2/pink.gif","""event"",""trial"",""time""
""fullscreenenter"",""1"",""3919""
","
","
","""event"",""trial"",""time""
""fullscreenenter"",""1"",""3919""
","
","","null","","null","","fixation","2021-04-20 22:18:38.743","","","","","",""
"card-selection-trial","119","454286","0.0-25.0-1.23","147","true","img/card_backs/set1/red.gif","img/card_backs/set1/purple.gif","img/card_backs/set1/green.gif","img/card_backs/set1/yellow.gif","img/card_backs/set2/orange.gif","img/card_backs/set2/blue.gif","img/card_backs/set2/gray.gif","img/card_backs/set2/pink.gif","""event"",""trial"",""time""
""fullscreenenter"",""1"",""3919""
","
","
","""event"",""trial"",""time""
""fullscreenenter"",""1"",""3919""
","
","","288.93999999854714","","","","real_trial","2021-04-20 22:18:41.047","img/card_backs/set1/yellow.gif","1","-110","1","",""
"casino-fixation","120","454789","0.0-25.0-0.24","147","true","img/card_backs/set1/red.gif","img/card_backs/set1/purple.gif","img/card_backs/set1/green.gif","img/card_backs/set1/yellow.gif","img/card_backs/set2/orange.gif","img/card_backs/set2/blue.gif","img/card_backs/set2/gray.gif","img/card_backs/set2/pink.gif","""event"",""trial"",""time""
""fullscreenenter"",""1"",""3919""
","
","
","""event"",""trial"",""time""
""fullscreenenter"",""1"",""3919""
","
","","null","","null","","fixation","2021-04-20 22:18:41.550","","","","","",""
"card-selection-trial","121","458263","0.0-25.0-1.24","147","true","img/card_backs/set1/red.gif","img/card_backs/set1/purple.gif","img/card_backs/set1/green.gif","img/card_backs/set1/yellow.gif","img/card_backs/set2/orange.gif","img/card_backs/set2/blue.gif","img/card_backs/set2/gray.gif","img/card_backs/set2/pink.gif","""event"",""trial"",""time""
""fullscreenenter"",""1"",""3919""
","
","
","""event"",""trial"",""time""
""fullscreenenter"",""1"",""3919""
","
","","1447.8750000125729","","","","real_trial","2021-04-20 22:18:45.025","img/card_backs/set1/purple.gif","2","250","1","",""
"casino-fixation","122","458767","0.0-25.0-0.25","147","true","img/card_backs/set1/red.gif","img/card_backs/set1/purple.gif","img/card_backs/set1/green.gif","img/card_backs/set1/yellow.gif","img/card_backs/set2/orange.gif","img/card_backs/set2/blue.gif","img/card_backs/set2/gray.gif","img/card_backs/set2/pink.gif","""event"",""trial"",""time""
""fullscreenenter"",""1"",""3919""
","
","
","""event"",""trial"",""time""
""fullscreenenter"",""1"",""3919""
","
","","null","","null","","fixation","2021-04-20 22:18:45.528","","","","","",""
"card-selection-trial","123","462131","0.0-25.0-1.25","147","true","img/card_backs/set1/red.gif","img/card_backs/set1/purple.gif","img/card_backs/set1/green.gif","img/card_backs/set1/yellow.gif","img/card_backs/set2/orange.gif","img/card_backs/set2/blue.gif","img/card_backs/set2/gray.gif","img/card_backs/set2/pink.gif","""event"",""trial"",""time""
""fullscreenenter"",""1"",""3919""
","
","
","""event"",""trial"",""time""
""fullscreenenter"",""1"",""3919""
","
","","1356.499999994412","","","","real_trial","2021-04-20 22:18:48.892","img/card_backs/set1/purple.gif","0","250","1","",""
"casino-fixation","124","462641","0.0-25.0-0.26","147","true","img/card_backs/set1/red.gif","img/card_backs/set1/purple.gif","img/card_backs/set1/green.gif","img/card_backs/set1/yellow.gif","img/card_backs/set2/orange.gif","img/card_backs/set2/blue.gif","img/card_backs/set2/gray.gif","img/card_backs/set2/pink.gif","""event"",""trial"",""time""
""fullscreenenter"",""1"",""3919""
","
","
","""event"",""trial"",""time""
""fullscreenenter"",""1"",""3919""
","
","","null","","null","","fixation","2021-04-20 22:18:49.402","","","","","",""
"card-selection-trial","125","465666","0.0-25.0-1.26","147","true","img/card_backs/set1/red.gif","img/card_backs/set1/purple.gif","img/card_backs/set1/green.gif","img/card_backs/set1/yellow.gif","img/card_backs/set2/orange.gif","img/card_backs/set2/blue.gif","img/card_backs/set2/gray.gif","img/card_backs/set2/pink.gif","""event"",""trial"",""time""
""fullscreenenter"",""1"",""3919""
","
","
","""event"",""trial"",""time""
""fullscreenenter"",""1"",""3919""
","
","","1006.9049999583513","","","","real_trial","2021-04-20 22:18:52.427","img/card_backs/set1/purple.gif","1","240","1","",""
"casino-fixation","126","466170","0.0-25.0-0.27","147","true","img/card_backs/set1/red.gif","img/card_backs/set1/purple.gif","img/card_backs/set1/green.gif","img/card_backs/set1/yellow.gif","img/card_backs/set2/orange.gif","img/card_backs/set2/blue.gif","img/card_backs/set2/gray.gif","img/card_backs/set2/pink.gif","""event"",""trial"",""time""
""fullscreenenter"",""1"",""3919""
","
","
","""event"",""trial"",""time""
""fullscreenenter"",""1"",""3919""
","
","","null","","null","","fixation","2021-04-20 22:18:52.931","","","","","",""
"card-selection-trial","127","469313","0.0-25.0-1.27","147","true","img/card_backs/set1/red.gif","img/card_backs/set1/purple.gif","img/card_backs/set1/green.gif","img/card_backs/set1/yellow.gif","img/card_backs/set2/orange.gif","img/card_backs/set2/blue.gif","img/card_backs/set2/gray.gif","img/card_backs/set2/pink.gif","""event"",""trial"",""time""
""fullscreenenter"",""1"",""3919""
","
","
","""event"",""trial"",""time""
""fullscreenenter"",""1"",""3919""
","
","","1126.4249999658205","","","","real_trial","2021-04-20 22:18:56.075","img/card_backs/set1/red.gif","1","260","1","",""
"casino-fixation","128","469817","0.0-25.0-0.28","147","true","img/card_backs/set1/red.gif","img/card_backs/set1/purple.gif","img/card_backs/set1/green.gif","img/card_backs/set1/yellow.gif","img/card_backs/set2/orange.gif","img/card_backs/set2/blue.gif","img/card_backs/set2/gray.gif","img/card_backs/set2/pink.gif","""event"",""trial"",""time""
""fullscreenenter"",""1"",""3919""
","
","
","""event"",""trial"",""time""
""fullscreenenter"",""1"",""3919""
","
","","null","","null","","fixation","2021-04-20 22:18:56.578","","","","","",""
"card-selection-trial","129","472354","0.0-25.0-1.28","147","true","img/card_backs/set1/red.gif","img/card_backs/set1/purple.gif","img/card_backs/set1/green.gif","img/card_backs/set1/yellow.gif","img/card_backs/set2/orange.gif","img/card_backs/set2/blue.gif","img/card_backs/set2/gray.gif","img/card_backs/set2/pink.gif","""event"",""trial"",""time""
""fullscreenenter"",""1"",""3919""
","
","
","""event"",""trial"",""time""
""fullscreenenter"",""1"",""3919""
","
","","520.8299999940209","","","","real_trial","2021-04-20 22:18:59.115","img/card_backs/set1/red.gif","1","-200","1","",""
"casino-fixation","130","472857","0.0-25.0-0.29","147","true","img/card_backs/set1/red.gif","img/card_backs/set1/purple.gif","img/card_backs/set1/green.gif","img/card_backs/set1/yellow.gif","img/card_backs/set2/orange.gif","img/card_backs/set2/blue.gif","img/card_backs/set2/gray.gif","img/card_backs/set2/pink.gif","""event"",""trial"",""time""
""fullscreenenter"",""1"",""3919""
","
","
","""event"",""trial"",""time""
""fullscreenenter"",""1"",""3919""
","
","","null","","null","","fixation","2021-04-20 22:18:59.618","","","","","",""
"card-selection-trial","131","477671","0.0-25.0-1.29","147","true","img/card_backs/set1/red.gif","img/card_backs/set1/purple.gif","img/card_backs/set1/green.gif","img/card_backs/set1/yellow.gif","img/card_backs/set2/orange.gif","img/card_backs/set2/blue.gif","img/card_backs/set2/gray.gif","img/card_backs/set2/pink.gif","""event"",""trial"",""time""
""fullscreenenter"",""1"",""3919""
","
","
","""event"",""trial"",""time""
""fullscreenenter"",""1"",""3919""
","
","","2791.4599999785423","","","","real_trial","2021-04-20 22:19:04.433","img/card_backs/set1/green.gif","1","40","1","",""
"casino-fixation","132","478176","0.0-25.0-0.30","147","true","img/card_backs/set1/red.gif","img/card_backs/set1/purple.gif","img/card_backs/set1/green.gif","img/card_backs/set1/yellow.gif","img/card_backs/set2/orange.gif","img/card_backs/set2/blue.gif","img/card_backs/set2/gray.gif","img/card_backs/set2/pink.gif","""event"",""trial"",""time""
""fullscreenenter"",""1"",""3919""
","
","
","""event"",""trial"",""time""
""fullscreenenter"",""1"",""3919""
","
","","null","","null","","fixation","2021-04-20 22:19:04.937","","","","","",""
"card-selection-trial","133","480592","0.0-25.0-1.30","147","true","img/card_backs/set1/red.gif","img/card_backs/set1/purple.gif","img/card_backs/set1/green.gif","img/card_backs/set1/yellow.gif","img/card_backs/set2/orange.gif","img/card_backs/set2/blue.gif","img/card_backs/set2/gray.gif","img/card_backs/set2/pink.gif","""event"",""trial"",""time""
""fullscreenenter"",""1"",""3919""
","
","
","""event"",""trial"",""time""
""fullscreenenter"",""1"",""3919""
","
","","403.46000000135973","","","","real_trial","2021-04-20 22:19:07.354","img/card_backs/set1/yellow.gif","1","-100","1","",""
"casino-fixation","134","481095","0.0-25.0-0.31","147","true","img/card_backs/set1/red.gif","img/card_backs/set1/purple.gif","img/card_backs/set1/green.gif","img/card_backs/set1/yellow.gif","img/card_backs/set2/orange.gif","img/card_backs/set2/blue.gif","img/card_backs/set2/gray.gif","img/card_backs/set2/pink.gif","""event"",""trial"",""time""
""fullscreenenter"",""1"",""3919""
","
","
","""event"",""trial"",""time""
""fullscreenenter"",""1"",""3919""
","
","","null","","null","","fixation","2021-04-20 22:19:07.856","","","","","",""
"card-selection-trial","135","484043","0.0-25.0-1.31","147","true","img/card_backs/set1/red.gif","img/card_backs/set1/purple.gif","img/card_backs/set1/green.gif","img/card_backs/set1/yellow.gif","img/card_backs/set2/orange.gif","img/card_backs/set2/blue.gif","img/card_backs/set2/gray.gif","img/card_backs/set2/pink.gif","""event"",""trial"",""time""
""fullscreenenter"",""1"",""3919""
","
","
","""event"",""trial"",""time""
""fullscreenenter"",""1"",""3919""
","
","","933.9100000215694","","","","real_trial","2021-04-20 22:19:10.804","img/card_backs/set1/green.gif","0","-110","1","",""
"casino-fixation","136","484548","0.0-25.0-0.32","147","true","img/card_backs/set1/red.gif","img/card_backs/set1/purple.gif","img/card_backs/set1/green.gif","img/card_backs/set1/yellow.gif","img/card_backs/set2/orange.gif","img/card_backs/set2/blue.gif","img/card_backs/set2/gray.gif","img/card_backs/set2/pink.gif","""event"",""trial"",""time""
""fullscreenenter"",""1"",""3919""
","
","
","""event"",""trial"",""time""
""fullscreenenter"",""1"",""3919""
","
","","null","","null","","fixation","2021-04-20 22:19:11.309","","","","","",""
"card-selection-trial","137","487874","0.0-25.0-1.32","147","true","img/card_backs/set1/red.gif","img/card_backs/set1/purple.gif","img/card_backs/set1/green.gif","img/card_backs/set1/yellow.gif","img/card_backs/set2/orange.gif","img/card_backs/set2/blue.gif","img/card_backs/set2/gray.gif","img/card_backs/set2/pink.gif","""event"",""trial"",""time""
""fullscreenenter"",""1"",""3919""
","
","
","""event"",""trial"",""time""
""fullscreenenter"",""1"",""3919""
","
","","1310.9950000070967","","","","real_trial","2021-04-20 22:19:14.635","img/card_backs/set1/green.gif","2","50","1","",""
"casino-fixation","138","488378","0.0-25.0-0.33","147","true","img/card_backs/set1/red.gif","img/card_backs/set1/purple.gif","img/card_backs/set1/green.gif","img/card_backs/set1/yellow.gif","img/card_backs/set2/orange.gif","img/card_backs/set2/blue.gif","img/card_backs/set2/gray.gif","img/card_backs/set2/pink.gif","""event"",""trial"",""time""
""fullscreenenter"",""1"",""3919""
","
","
","""event"",""trial"",""time""
""fullscreenenter"",""1"",""3919""
","
","","null","","null","","fixation","2021-04-20 22:19:15.139","","","","","",""
"card-selection-trial","139","491760","0.0-25.0-1.33","147","true","img/card_backs/set1/red.gif","img/card_backs/set1/purple.gif","img/card_backs/set1/green.gif","img/card_backs/set1/yellow.gif","img/card_backs/set2/orange.gif","img/card_backs/set2/blue.gif","img/card_backs/set2/gray.gif","img/card_backs/set2/pink.gif","""event"",""trial"",""time""
""fullscreenenter"",""1"",""3919""
","
","
","""event"",""trial"",""time""
""fullscreenenter"",""1"",""3919""
","
","","1364.5700000342913","","","","real_trial","2021-04-20 22:19:18.521","img/card_backs/set1/purple.gif","3","250","1","",""
"casino-fixation","140","492264","0.0-25.0-0.34","147","true","img/card_backs/set1/red.gif","img/card_backs/set1/purple.gif","img/card_backs/set1/green.gif","img/card_backs/set1/yellow.gif","img/card_backs/set2/orange.gif","img/card_backs/set2/blue.gif","img/card_backs/set2/gray.gif","img/card_backs/set2/pink.gif","""event"",""trial"",""time""
""fullscreenenter"",""1"",""3919""
","
","
","""event"",""trial"",""time""
""fullscreenenter"",""1"",""3919""
","
","","null","","null","","fixation","2021-04-20 22:19:19.025","","","","","",""
"card-selection-trial","141","495253","0.0-25.0-1.34","147","true","img/card_backs/set1/red.gif","img/card_backs/set1/purple.gif","img/card_backs/set1/green.gif","img/card_backs/set1/yellow.gif","img/card_backs/set2/orange.gif","img/card_backs/set2/blue.gif","img/card_backs/set2/gray.gif","img/card_backs/set2/pink.gif","""event"",""trial"",""time""
""fullscreenenter"",""1"",""3919""
","
","
","""event"",""trial"",""time""
""fullscreenenter"",""1"",""3919""
","
","","973.9500000141561","","","","real_trial","2021-04-20 22:19:22.014","img/card_backs/set1/red.gif","3","-200","1","",""
"casino-fixation","142","495756","0.0-25.0-0.35","147","true","img/card_backs/set1/red.gif","img/card_backs/set1/purple.gif","img/card_backs/set1/green.gif","img/card_backs/set1/yellow.gif","img/card_backs/set2/orange.gif","img/card_backs/set2/blue.gif","img/card_backs/set2/gray.gif","img/card_backs/set2/pink.gif","""event"",""trial"",""time""
""fullscreenenter"",""1"",""3919""
","
","
","""event"",""trial"",""time""
""fullscreenenter"",""1"",""3919""
","
","","null","","null","","fixation","2021-04-20 22:19:22.517","","","","","",""
"card-selection-trial","143","499141","0.0-25.0-1.35","147","true","img/card_backs/set1/red.gif","img/card_backs/set1/purple.gif","img/card_backs/set1/green.gif","img/card_backs/set1/yellow.gif","img/card_backs/set2/orange.gif","img/card_backs/set2/blue.gif","img/card_backs/set2/gray.gif","img/card_backs/set2/pink.gif","""event"",""trial"",""time""
""fullscreenenter"",""1"",""3919""
","
","
","""event"",""trial"",""time""
""fullscreenenter"",""1"",""3919""
","
","","1370.9099999978207","","","","real_trial","2021-04-20 22:19:25.902","img/card_backs/set1/purple.gif","1","-210","1","",""
"casino-fixation","144","499644","0.0-25.0-0.36","147","true","img/card_backs/set1/red.gif","img/card_backs/set1/purple.gif","img/card_backs/set1/green.gif","img/card_backs/set1/yellow.gif","img/card_backs/set2/orange.gif","img/card_backs/set2/blue.gif","img/card_backs/set2/gray.gif","img/card_backs/set2/pink.gif","""event"",""trial"",""time""
""fullscreenenter"",""1"",""3919""
","
","
","""event"",""trial"",""time""
""fullscreenenter"",""1"",""3919""
","
","","null","","null","","fixation","2021-04-20 22:19:26.405","","","","","",""
"card-selection-trial","145","503225","0.0-25.0-1.36","147","true","img/card_backs/set1/red.gif","img/card_backs/set1/purple.gif","img/card_backs/set1/green.gif","img/card_backs/set1/yellow.gif","img/card_backs/set2/orange.gif","img/card_backs/set2/blue.gif","img/card_backs/set2/gray.gif","img/card_backs/set2/pink.gif","""event"",""trial"",""time""
""fullscreenenter"",""1"",""3919""
","
","
","""event"",""trial"",""time""
""fullscreenenter"",""1"",""3919""
","
","","1563.6449999874458","","","","real_trial","2021-04-20 22:19:29.986","img/card_backs/set1/yellow.gif","3","-90","1","",""
"casino-fixation","146","503728","0.0-25.0-0.37","147","true","img/card_backs/set1/red.gif","img/card_backs/set1/purple.gif","img/card_backs/set1/green.gif","img/card_backs/set1/yellow.gif","img/card_backs/set2/orange.gif","img/card_backs/set2/blue.gif","img/card_backs/set2/gray.gif","img/card_backs/set2/pink.gif","""event"",""trial"",""time""
""fullscreenenter"",""1"",""3919""
","
","
","""event"",""trial"",""time""
""fullscreenenter"",""1"",""3919""
","
","","null","","null","","fixation","2021-04-20 22:19:30.489","","","","","",""
"card-selection-trial","147","507322","0.0-25.0-1.37","147","true","img/card_backs/set1/red.gif","img/card_backs/set1/purple.gif","img/card_backs/set1/green.gif","img/card_backs/set1/yellow.gif","img/card_backs/set2/orange.gif","img/card_backs/set2/blue.gif","img/card_backs/set2/gray.gif","img/card_backs/set2/pink.gif","""event"",""trial"",""time""
""fullscreenenter"",""1"",""3919""
","
","
","""event"",""trial"",""time""
""fullscreenenter"",""1"",""3919""
","
","","1579.7400000155903","","","","real_trial","2021-04-20 22:19:34.084","img/card_backs/set1/green.gif","2","-100","1","",""
"casino-fixation","148","507825","0.0-25.0-0.38","147","true","img/card_backs/set1/red.gif","img/card_backs/set1/purple.gif","img/card_backs/set1/green.gif","img/card_backs/set1/yellow.gif","img/card_backs/set2/orange.gif","img/card_backs/set2/blue.gif","img/card_backs/set2/gray.gif","img/card_backs/set2/pink.gif","""event"",""trial"",""time""
""fullscreenenter"",""1"",""3919""
","
","
","""event"",""trial"",""time""
""fullscreenenter"",""1"",""3919""
","
","","null","","null","","fixation","2021-04-20 22:19:34.586","","","","","",""
"card-selection-trial","149","511772","0.0-25.0-1.38","147","true","img/card_backs/set1/red.gif","img/card_backs/set1/purple.gif","img/card_backs/set1/green.gif","img/card_backs/set1/yellow.gif","img/card_backs/set2/orange.gif","img/card_backs/set2/blue.gif","img/card_backs/set2/gray.gif","img/card_backs/set2/pink.gif","""event"",""trial"",""time""
""fullscreenenter"",""1"",""3919""
","
","
","""event"",""trial"",""time""
""fullscreenenter"",""1"",""3919""
","
","","1931.2299999874085","","","","real_trial","2021-04-20 22:19:38.533","img/card_backs/set1/yellow.gif","3","-90","1","",""
"casino-fixation","150","512277","0.0-25.0-0.39","147","true","img/card_backs/set1/red.gif","img/card_backs/set1/purple.gif","img/card_backs/set1/green.gif","img/card_backs/set1/yellow.gif","img/card_backs/set2/orange.gif","img/card_backs/set2/blue.gif","img/card_backs/set2/gray.gif","img/card_backs/set2/pink.gif","""event"",""trial"",""time""
""fullscreenenter"",""1"",""3919""
","
","
","""event"",""trial"",""time""
""fullscreenenter"",""1"",""3919""
","
","","null","","null","","fixation","2021-04-20 22:19:39.038","","","","","",""
"card-selection-trial","151","515089","0.0-25.0-1.39","147","true","img/card_backs/set1/red.gif","img/card_backs/set1/purple.gif","img/card_backs/set1/green.gif","img/card_backs/set1/yellow.gif","img/card_backs/set2/orange.gif","img/card_backs/set2/blue.gif","img/card_backs/set2/gray.gif","img/card_backs/set2/pink.gif","""event"",""trial"",""time""
""fullscreenenter"",""1"",""3919""
","
","
","""event"",""trial"",""time""
""fullscreenenter"",""1"",""3919""
","
","","795.3899999847636","","","","real_trial","2021-04-20 22:19:41.850","img/card_backs/set1/red.gif","2","250","1","",""
"casino-fixation","152","515592","0.0-25.0-0.40","147","true","img/card_backs/set1/red.gif","img/card_backs/set1/purple.gif","img/card_backs/set1/green.gif","img/card_backs/set1/yellow.gif","img/card_backs/set2/orange.gif","img/card_backs/set2/blue.gif","img/card_backs/set2/gray.gif","img/card_backs/set2/pink.gif","""event"",""trial"",""time""
""fullscreenenter"",""1"",""3919""
","
","
","""event"",""trial"",""time""
""fullscreenenter"",""1"",""3919""
","
","","null","","null","","fixation","2021-04-20 22:19:42.353","","","","","",""
"card-selection-trial","153","519186","0.0-25.0-1.40","147","true","img/card_backs/set1/red.gif","img/card_backs/set1/purple.gif","img/card_backs/set1/green.gif","img/card_backs/set1/yellow.gif","img/card_backs/set2/orange.gif","img/card_backs/set2/blue.gif","img/card_backs/set2/gray.gif","img/card_backs/set2/pink.gif","""event"",""trial"",""time""
""fullscreenenter"",""1"",""3919""
","
","
","""event"",""trial"",""time""
""fullscreenenter"",""1"",""3919""
","
","","1576.790000020992","","","","real_trial","2021-04-20 22:19:45.947","img/card_backs/set1/red.gif","0","240","1","",""
"casino-fixation","154","519689","0.0-25.0-0.41","147","true","img/card_backs/set1/red.gif","img/card_backs/set1/purple.gif","img/card_backs/set1/green.gif","img/card_backs/set1/yellow.gif","img/card_backs/set2/orange.gif","img/card_backs/set2/blue.gif","img/card_backs/set2/gray.gif","img/card_backs/set2/pink.gif","""event"",""trial"",""time""
""fullscreenenter"",""1"",""3919""
","
","
","""event"",""trial"",""time""
""fullscreenenter"",""1"",""3919""
","
","","null","","null","","fixation","2021-04-20 22:19:46.451","","","","","",""
"card-selection-trial","155","522434","0.0-25.0-1.41","147","true","img/card_backs/set1/red.gif","img/card_backs/set1/purple.gif","img/card_backs/set1/green.gif","img/card_backs/set1/yellow.gif","img/card_backs/set2/orange.gif","img/card_backs/set2/blue.gif","img/card_backs/set2/gray.gif","img/card_backs/set2/pink.gif","""event"",""trial"",""time""
""fullscreenenter"",""1"",""3919""
","
","
","""event"",""trial"",""time""
""fullscreenenter"",""1"",""3919""
","
","","726.4449999784119","","","","real_trial","2021-04-20 22:19:49.195","img/card_backs/set1/purple.gif","3","260","1","",""
"casino-fixation","156","522937","0.0-25.0-0.42","147","true","img/card_backs/set1/red.gif","img/card_backs/set1/purple.gif","img/card_backs/set1/green.gif","img/card_backs/set1/yellow.gif","img/card_backs/set2/orange.gif","img/card_backs/set2/blue.gif","img/card_backs/set2/gray.gif","img/card_backs/set2/pink.gif","""event"",""trial"",""time""
""fullscreenenter"",""1"",""3919""
","
","
","""event"",""trial"",""time""
""fullscreenenter"",""1"",""3919""
","
","","null","","null","","fixation","2021-04-20 22:19:49.698","","","","","",""
"card-selection-trial","157","525771","0.0-25.0-1.42","147","true","img/card_backs/set1/red.gif","img/card_backs/set1/purple.gif","img/card_backs/set1/green.gif","img/card_backs/set1/yellow.gif","img/card_backs/set2/orange.gif","img/card_backs/set2/blue.gif","img/card_backs/set2/gray.gif","img/card_backs/set2/pink.gif","""event"",""trial"",""time""
""fullscreenenter"",""1"",""3919""
","
","
","""event"",""trial"",""time""
""fullscreenenter"",""1"",""3919""
","
","","816.8500000028871","","","","real_trial","2021-04-20 22:19:52.532","img/card_backs/set1/purple.gif","0","260","1","",""
"casino-fixation","158","526275","0.0-25.0-0.43","147","true","img/card_backs/set1/red.gif","img/card_backs/set1/purple.gif","img/card_backs/set1/green.gif","img/card_backs/set1/yellow.gif","img/card_backs/set2/orange.gif","img/card_backs/set2/blue.gif","img/card_backs/set2/gray.gif","img/card_backs/set2/pink.gif","""event"",""trial"",""time""
""fullscreenenter"",""1"",""3919""
","
","
","""event"",""trial"",""time""
""fullscreenenter"",""1"",""3919""
","
","","null","","null","","fixation","2021-04-20 22:19:53.036","","","","","",""
"card-selection-trial","159","529342","0.0-25.0-1.43","147","true","img/card_backs/set1/red.gif","img/card_backs/set1/purple.gif","img/card_backs/set1/green.gif","img/card_backs/set1/yellow.gif","img/card_backs/set2/orange.gif","img/card_backs/set2/blue.gif","img/card_backs/set2/gray.gif","img/card_backs/set2/pink.gif","""event"",""trial"",""time""
""fullscreenenter"",""1"",""3919""
","
","
","""event"",""trial"",""time""
""fullscreenenter"",""1"",""3919""
","
","","1052.1249999874271","","","","real_trial","2021-04-20 22:19:56.103","img/card_backs/set1/red.gif","1","-190","1","",""
"casino-fixation","160","529845","0.0-25.0-0.44","147","true","img/card_backs/set1/red.gif","img/card_backs/set1/purple.gif","img/card_backs/set1/green.gif","img/card_backs/set1/yellow.gif","img/card_backs/set2/orange.gif","img/card_backs/set2/blue.gif","img/card_backs/set2/gray.gif","img/card_backs/set2/pink.gif","""event"",""trial"",""time""
""fullscreenenter"",""1"",""3919""
","
","
","""event"",""trial"",""time""
""fullscreenenter"",""1"",""3919""
","
","","null","","null","","fixation","2021-04-20 22:19:56.606","","","","","",""
"card-selection-trial","161","532734","0.0-25.0-1.44","147","true","img/card_backs/set1/red.gif","img/card_backs/set1/purple.gif","img/card_backs/set1/green.gif","img/card_backs/set1/yellow.gif","img/card_backs/set2/orange.gif","img/card_backs/set2/blue.gif","img/card_backs/set2/gray.gif","img/card_backs/set2/pink.gif","""event"",""trial"",""time""
""fullscreenenter"",""1"",""3919""
","
","
","""event"",""trial"",""time""
""fullscreenenter"",""1"",""3919""
","
","","876.6100000357255","","","","real_trial","2021-04-20 22:19:59.495","img/card_backs/set1/purple.gif","3","260","1","",""
"casino-fixation","162","533237","0.0-25.0-0.45","147","true","img/card_backs/set1/red.gif","img/card_backs/set1/purple.gif","img/card_backs/set1/green.gif","img/card_backs/set1/yellow.gif","img/card_backs/set2/orange.gif","img/card_backs/set2/blue.gif","img/card_backs/set2/gray.gif","img/card_backs/set2/pink.gif","""event"",""trial"",""time""
""fullscreenenter"",""1"",""3919""
","
","
","""event"",""trial"",""time""
""fullscreenenter"",""1"",""3919""
","
","","null","","null","","fixation","2021-04-20 22:19:59.998","","","","","",""
"card-selection-trial","163","536505","0.0-25.0-1.45","147","true","img/card_backs/set1/red.gif","img/card_backs/set1/purple.gif","img/card_backs/set1/green.gif","img/card_backs/set1/yellow.gif","img/card_backs/set2/orange.gif","img/card_backs/set2/blue.gif","img/card_backs/set2/gray.gif","img/card_backs/set2/pink.gif","""event"",""trial"",""time""
""fullscreenenter"",""1"",""3919""
","
","
","""event"",""trial"",""time""
""fullscreenenter"",""1"",""3919""
","
","","1260.855000000447","","","","real_trial","2021-04-20 22:20:03.266","img/card_backs/set1/purple.gif","2","240","1","",""
"casino-fixation","164","537012","0.0-25.0-0.46","147","true","img/card_backs/set1/red.gif","img/card_backs/set1/purple.gif","img/card_backs/set1/green.gif","img/card_backs/set1/yellow.gif","img/card_backs/set2/orange.gif","img/card_backs/set2/blue.gif","img/card_backs/set2/gray.gif","img/card_backs/set2/pink.gif","""event"",""trial"",""time""
""fullscreenenter"",""1"",""3919""
","
","
","""event"",""trial"",""time""
""fullscreenenter"",""1"",""3919""
","
","","null","","null","","fixation","2021-04-20 22:20:03.774","","","","","",""
"card-selection-trial","165","539847","0.0-25.0-1.46","147","true","img/card_backs/set1/red.gif","img/card_backs/set1/purple.gif","img/card_backs/set1/green.gif","img/card_backs/set1/yellow.gif","img/card_backs/set2/orange.gif","img/card_backs/set2/blue.gif","img/card_backs/set2/gray.gif","img/card_backs/set2/pink.gif","""event"",""trial"",""time""
""fullscreenenter"",""1"",""3919""
","
","
","""event"",""trial"",""time""
""fullscreenenter"",""1"",""3919""
","
","","822.6250000298023","","","","real_trial","2021-04-20 22:20:06.608","img/card_backs/set1/purple.gif","0","-190","1","",""
"casino-fixation","166","540355","0.0-25.0-0.47","147","true","img/card_backs/set1/red.gif","img/card_backs/set1/purple.gif","img/card_backs/set1/green.gif","img/card_backs/set1/yellow.gif","img/card_backs/set2/orange.gif","img/card_backs/set2/blue.gif","img/card_backs/set2/gray.gif","img/card_backs/set2/pink.gif","""event"",""trial"",""time""
""fullscreenenter"",""1"",""3919""
","
","
","""event"",""trial"",""time""
""fullscreenenter"",""1"",""3919""
","
","","null","","null","","fixation","2021-04-20 22:20:07.116","","","","","",""
"card-selection-trial","167","544146","0.0-25.0-1.47","147","true","img/card_backs/set1/red.gif","img/card_backs/set1/purple.gif","img/card_backs/set1/green.gif","img/card_backs/set1/yellow.gif","img/card_backs/set2/orange.gif","img/card_backs/set2/blue.gif","img/card_backs/set2/gray.gif","img/card_backs/set2/pink.gif","""event"",""trial"",""time""