"trial_type","trial_index","time_elapsed","internal_node_id","sub_id","risk_good_first","block1_A","block1_B","block1_C","block1_D","block2_A","block2_B","block2_C","block2_D","interactions","blur_events","focus_events","fullscreenenter_events","fullscreenexit_events","success","rt","stimulus","key_press","button_pressed","task_part","timestamp","card_choice","choice_position","points_earned","block","correct","response"
"pavlovia","0","3","0.0-0.0","929","false","img/card_backs/set1/yellow.gif","img/card_backs/set1/purple.gif","img/card_backs/set1/green.gif","img/card_backs/set1/red.gif","img/card_backs/set2/gray.gif","img/card_backs/set2/pink.gif","img/card_backs/set2/blue.gif","img/card_backs/set2/orange.gif","""event"",""trial"",""time""
""fullscreenenter"",""1"",""3007""
","
","
","""event"",""trial"",""time""
""fullscreenenter"",""1"",""3007""
","
","","","","","","","","","","","","",""
"fullscreen","1","3981","0.0-1.0","929","false","img/card_backs/set1/yellow.gif","img/card_backs/set1/purple.gif","img/card_backs/set1/green.gif","img/card_backs/set1/red.gif","img/card_backs/set2/gray.gif","img/card_backs/set2/pink.gif","img/card_backs/set2/blue.gif","img/card_backs/set2/orange.gif","""event"",""trial"",""time""
""fullscreenenter"",""1"",""3007""
","
","
","""event"",""trial"",""time""
""fullscreenenter"",""1"",""3007""
","
","true","","","","","","","","","","","",""
"audio-keyboard-response","2","9337","0.0-2.0","929","false","img/card_backs/set1/yellow.gif","img/card_backs/set1/purple.gif","img/card_backs/set1/green.gif","img/card_backs/set1/red.gif","img/card_backs/set2/gray.gif","img/card_backs/set2/pink.gif","img/card_backs/set2/blue.gif","img/card_backs/set2/orange.gif","""event"",""trial"",""time""
""fullscreenenter"",""1"",""3007""
","
","
","""event"",""trial"",""time""
""fullscreenenter"",""1"",""3007""
","
","","5132","audio/beep_loop.wav","32","","","","","","","","",""
"audio-button-response","3","11269","0.0-3.0","929","false","img/card_backs/set1/yellow.gif","img/card_backs/set1/purple.gif","img/card_backs/set1/green.gif","img/card_backs/set1/red.gif","img/card_backs/set2/gray.gif","img/card_backs/set2/pink.gif","img/card_backs/set2/blue.gif","img/card_backs/set2/orange.gif","""event"",""trial"",""time""
""fullscreenenter"",""1"",""3007""
","
","
","""event"",""trial"",""time""
""fullscreenenter"",""1"",""3007""
","
","","NaN","audio/turtle.mp3","","3","","","","","","","",""
"audio-button-response","4","13418","0.0-4.0","929","false","img/card_backs/set1/yellow.gif","img/card_backs/set1/purple.gif","img/card_backs/set1/green.gif","img/card_backs/set1/red.gif","img/card_backs/set2/gray.gif","img/card_backs/set2/pink.gif","img/card_backs/set2/blue.gif","img/card_backs/set2/orange.gif","""event"",""trial"",""time""
""fullscreenenter"",""1"",""3007""
","
","
","""event"",""trial"",""time""
""fullscreenenter"",""1"",""3007""
","
","","NaN","audio/shark.mp3","","2","","","","","","","",""
"fullscreen","5","16515","0.0-5.0","929","false","img/card_backs/set1/yellow.gif","img/card_backs/set1/purple.gif","img/card_backs/set1/green.gif","img/card_backs/set1/red.gif","img/card_backs/set2/gray.gif","img/card_backs/set2/pink.gif","img/card_backs/set2/blue.gif","img/card_backs/set2/orange.gif","""event"",""trial"",""time""
""fullscreenenter"",""1"",""3007""
","
","
","""event"",""trial"",""time""
""fullscreenenter"",""1"",""3007""
","
","true","","","","","","","","","","","",""
"casino-keyboard-response","6","20098","0.0-6.0-0.0","929","false","img/card_backs/set1/yellow.gif","img/card_backs/set1/purple.gif","img/card_backs/set1/green.gif","img/card_backs/set1/red.gif","img/card_backs/set2/gray.gif","img/card_backs/set2/pink.gif","img/card_backs/set2/blue.gif","img/card_backs/set2/orange.gif","""event"",""trial"",""time""
""fullscreenenter"",""1"",""3007""
","
","
","""event"",""trial"",""time""
""fullscreenenter"",""1"",""3007""
","
","","3580.5","Welcome to the casino!","71","","instructions","2021-06-28 17:14:41.929","","","","","",""
"casino-keyboard-response","7","29810","0.0-6.0-0.1","929","false","img/card_backs/set1/yellow.gif","img/card_backs/set1/purple.gif","img/card_backs/set1/green.gif","img/card_backs/set1/red.gif","img/card_backs/set2/gray.gif","img/card_backs/set2/pink.gif","img/card_backs/set2/blue.gif","img/card_backs/set2/orange.gif","""event"",""trial"",""time""
""fullscreenenter"",""1"",""3007""
","
","
","""event"",""trial"",""time""
""fullscreenenter"",""1"",""3007""
","
","","9710.399999976158","Today you will be playing a game to earn tokens. </br> At the end of the experiment, you will be paid a bonus based on how many tokens you win. ","69","","instructions","2021-06-28 17:14:51.641","","","","","",""
"casino-keyboard-response","8","37410","0.0-6.0-0.2","929","false","img/card_backs/set1/yellow.gif","img/card_backs/set1/purple.gif","img/card_backs/set1/green.gif","img/card_backs/set1/red.gif","img/card_backs/set2/gray.gif","img/card_backs/set2/pink.gif","img/card_backs/set2/blue.gif","img/card_backs/set2/orange.gif","""event"",""trial"",""time""
""fullscreenenter"",""1"",""3007""
","
","
","""event"",""trial"",""time""
""fullscreenenter"",""1"",""3007""
","
","","7599.4000000059605","On every turn, you will be shown four different decks of cards. </br> You need to select a card from one of the four decks.  ","75","","instructions","2021-06-28 17:14:59.241","","","","","",""
"casino-keyboard-response","9","42138","0.0-6.0-0.3","929","false","img/card_backs/set1/yellow.gif","img/card_backs/set1/purple.gif","img/card_backs/set1/green.gif","img/card_backs/set1/red.gif","img/card_backs/set2/gray.gif","img/card_backs/set2/pink.gif","img/card_backs/set2/blue.gif","img/card_backs/set2/orange.gif","""event"",""trial"",""time""
""fullscreenenter"",""1"",""3007""
","
","
","""event"",""trial"",""time""
""fullscreenenter"",""1"",""3007""
","
","","4726.5999999940395","On the next screen, you will see what the decks will look like. ","66","","instructions","2021-06-28 17:15:03.969","","","","","",""
"card-selection-trial","10","46142","0.0-7.0-0.0","929","false","img/card_backs/set1/yellow.gif","img/card_backs/set1/purple.gif","img/card_backs/set1/green.gif","img/card_backs/set1/red.gif","img/card_backs/set2/gray.gif","img/card_backs/set2/pink.gif","img/card_backs/set2/blue.gif","img/card_backs/set2/orange.gif","""event"",""trial"",""time""
""fullscreenenter"",""1"",""3007""
","
","
","""event"",""trial"",""time""
""fullscreenenter"",""1"",""3007""
","
","","null","","","","practice","2021-06-28 17:15:07.973","null","null","null","0","",""
"casino-keyboard-response","11","54203","0.0-8.0-0.0","929","false","img/card_backs/set1/yellow.gif","img/card_backs/set1/purple.gif","img/card_backs/set1/green.gif","img/card_backs/set1/red.gif","img/card_backs/set2/gray.gif","img/card_backs/set2/pink.gif","img/card_backs/set2/blue.gif","img/card_backs/set2/orange.gif","""event"",""trial"",""time""
""fullscreenenter"",""1"",""3007""
","
","
","""event"",""trial"",""time""
""fullscreenenter"",""1"",""3007""
","
","","8058.899999976158","You should pick a card from a deck using the '2', '4', '6', and '8' keys at the top of the keyboard.","85","","instructions","2021-06-28 17:15:16.034","","","","","",""
"casino-keyboard-response","12","60147","0.0-8.0-0.1","929","false","img/card_backs/set1/yellow.gif","img/card_backs/set1/purple.gif","img/card_backs/set1/green.gif","img/card_backs/set1/red.gif","img/card_backs/set2/gray.gif","img/card_backs/set2/pink.gif","img/card_backs/set2/blue.gif","img/card_backs/set2/orange.gif","""event"",""trial"",""time""
""fullscreenenter"",""1"",""3007""
","
","
","""event"",""trial"",""time""
""fullscreenenter"",""1"",""3007""
","
","","5942.600000023842","Once you select a card, it will turn over and you will see how many tokens you earned.","83","","instructions","2021-06-28 17:15:21.978","","","","","",""
"casino-keyboard-response","13","74659","0.0-8.0-0.2","929","false","img/card_backs/set1/yellow.gif","img/card_backs/set1/purple.gif","img/card_backs/set1/green.gif","img/card_backs/set1/red.gif","img/card_backs/set2/gray.gif","img/card_backs/set2/pink.gif","img/card_backs/set2/blue.gif","img/card_backs/set2/orange.gif","""event"",""trial"",""time""
""fullscreenenter"",""1"",""3007""
","
","
","""event"",""trial"",""time""
""fullscreenenter"",""1"",""3007""
","
","","14511.199999988079","Let's try practicing that! </br> First, try to put your fingers over the '2', '4', '6', and '8' keys. </br>  You can use whatever fingers are most comfortable for you. Try to find a comfortable position now. ","50","","instructions","2021-06-28 17:15:36.490","","","","","",""
"casino-keyboard-response","14","80517","0.0-8.0-0.3","929","false","img/card_backs/set1/yellow.gif","img/card_backs/set1/purple.gif","img/card_backs/set1/green.gif","img/card_backs/set1/red.gif","img/card_backs/set2/gray.gif","img/card_backs/set2/pink.gif","img/card_backs/set2/blue.gif","img/card_backs/set2/orange.gif","""event"",""trial"",""time""
""fullscreenenter"",""1"",""3007""
","
","
","""event"",""trial"",""time""
""fullscreenenter"",""1"",""3007""
","
","","5856.300000011921","Okay ready? </br> On the next screen, press '2' to select the left deck. ","50","","instructions","2021-06-28 17:15:42.348","","","","","",""
"card-selection-trial","15","83245","0.0-9.0-0.0","929","false","img/card_backs/set1/yellow.gif","img/card_backs/set1/purple.gif","img/card_backs/set1/green.gif","img/card_backs/set1/red.gif","img/card_backs/set2/gray.gif","img/card_backs/set2/pink.gif","img/card_backs/set2/blue.gif","img/card_backs/set2/orange.gif","""event"",""trial"",""time""
""fullscreenenter"",""1"",""3007""
","
","
","""event"",""trial"",""time""
""fullscreenenter"",""1"",""3007""
","
","","719.5","","","","practice_card_selection","2021-06-28 17:15:45.077","img/practice_cards/backs/dark_green.gif","0","200","","",""
"casino-keyboard-response","16","88828","0.0-10.0-0.0","929","false","img/card_backs/set1/yellow.gif","img/card_backs/set1/purple.gif","img/card_backs/set1/green.gif","img/card_backs/set1/red.gif","img/card_backs/set2/gray.gif","img/card_backs/set2/pink.gif","img/card_backs/set2/blue.gif","img/card_backs/set2/orange.gif","""event"",""trial"",""time""
""fullscreenenter"",""1"",""3007""
","
","
","""event"",""trial"",""time""
""fullscreenenter"",""1"",""3007""
","
","","5580.699999988079","Great! Now on the next screen, try pressing '6' to select the third deck.","54","","instructions","2021-06-28 17:15:50.659","","","","","",""
"card-selection-trial","17","91127","0.0-11.0-0.0","929","false","img/card_backs/set1/yellow.gif","img/card_backs/set1/purple.gif","img/card_backs/set1/green.gif","img/card_backs/set1/red.gif","img/card_backs/set2/gray.gif","img/card_backs/set2/pink.gif","img/card_backs/set2/blue.gif","img/card_backs/set2/orange.gif","""event"",""trial"",""time""
""fullscreenenter"",""1"",""3007""
","
","
","""event"",""trial"",""time""
""fullscreenenter"",""1"",""3007""
","
","","294.09999999403954","","","","practice_card_selection","2021-06-28 17:15:52.959","img/practice_cards/backs/brown.gif","2","100","","",""
"casino-keyboard-response","18","92723","0.0-12.0-0.0","929","false","img/card_backs/set1/yellow.gif","img/card_backs/set1/purple.gif","img/card_backs/set1/green.gif","img/card_backs/set1/red.gif","img/card_backs/set2/gray.gif","img/card_backs/set2/pink.gif","img/card_backs/set2/blue.gif","img/card_backs/set2/orange.gif","""event"",""trial"",""time""
""fullscreenenter"",""1"",""3007""
","
","
","""event"",""trial"",""time""
""fullscreenenter"",""1"",""3007""
","
","","1595.0999999940395","Now on the next screen, try pressing '4' to select the second deck.","52","","instructions","2021-06-28 17:15:54.554","","","","","",""
"card-selection-trial","19","95078","0.0-13.0-0.0","929","false","img/card_backs/set1/yellow.gif","img/card_backs/set1/purple.gif","img/card_backs/set1/green.gif","img/card_backs/set1/red.gif","img/card_backs/set2/gray.gif","img/card_backs/set2/pink.gif","img/card_backs/set2/blue.gif","img/card_backs/set2/orange.gif","""event"",""trial"",""time""
""fullscreenenter"",""1"",""3007""
","
","
","""event"",""trial"",""time""
""fullscreenenter"",""1"",""3007""
","
","","351.2999999821186","","","","practice_card_selection","2021-06-28 17:15:56.909","img/practice_cards/backs/dark_blue.gif","1","200","","",""
"casino-keyboard-response","20","96260","0.0-14.0-0.0","929","false","img/card_backs/set1/yellow.gif","img/card_backs/set1/purple.gif","img/card_backs/set1/green.gif","img/card_backs/set1/red.gif","img/card_backs/set2/gray.gif","img/card_backs/set2/pink.gif","img/card_backs/set2/blue.gif","img/card_backs/set2/orange.gif","""event"",""trial"",""time""
""fullscreenenter"",""1"",""3007""
","
","
","""event"",""trial"",""time""
""fullscreenenter"",""1"",""3007""
","
","","1180.7999999821186","Finally, try pressing '8' to select the deck all the way on the right.","56","","instructions","2021-06-28 17:15:58.091","","","","","",""
"card-selection-trial","21","98577","0.0-15.0-0.0","929","false","img/card_backs/set1/yellow.gif","img/card_backs/set1/purple.gif","img/card_backs/set1/green.gif","img/card_backs/set1/red.gif","img/card_backs/set2/gray.gif","img/card_backs/set2/pink.gif","img/card_backs/set2/blue.gif","img/card_backs/set2/orange.gif","""event"",""trial"",""time""
""fullscreenenter"",""1"",""3007""
","
","
","""event"",""trial"",""time""
""fullscreenenter"",""1"",""3007""
","
","","310.09999999403954","","","","practice_card_selection","2021-06-28 17:16:00.408","img/practice_cards/backs/black.gif","3","-100","","",""
"casino-keyboard-response","22","102964","0.0-16.0-0.0","929","false","img/card_backs/set1/yellow.gif","img/card_backs/set1/purple.gif","img/card_backs/set1/green.gif","img/card_backs/set1/red.gif","img/card_backs/set2/gray.gif","img/card_backs/set2/pink.gif","img/card_backs/set2/blue.gif","img/card_backs/set2/orange.gif","""event"",""trial"",""time""
""fullscreenenter"",""1"",""3007""
","
","
","""event"",""trial"",""time""
""fullscreenenter"",""1"",""3007""
","
","","4386.300000011921","Great! It seems like you are getting the hang of this.","80","","instructions","2021-06-28 17:16:04.795","","","","","",""
"casino-keyboard-response","23","111876","0.0-16.0-0.1","929","false","img/card_backs/set1/yellow.gif","img/card_backs/set1/purple.gif","img/card_backs/set1/green.gif","img/card_backs/set1/red.gif","img/card_backs/set2/gray.gif","img/card_backs/set2/pink.gif","img/card_backs/set2/blue.gif","img/card_backs/set2/orange.gif","""event"",""trial"",""time""
""fullscreenenter"",""1"",""3007""
","
","
","""event"",""trial"",""time""
""fullscreenenter"",""1"",""3007""
","
","","8910.799999982119","You may have noticed that some cards will cause you to <b> win </b> tokens while other cards will cause you to <b> lose </b>  tokens.","70","","instructions","2021-06-28 17:16:13.707","","","","","",""
"casino-keyboard-response","24","121077","0.0-16.0-0.2","929","false","img/card_backs/set1/yellow.gif","img/card_backs/set1/purple.gif","img/card_backs/set1/green.gif","img/card_backs/set1/red.gif","img/card_backs/set2/gray.gif","img/card_backs/set2/pink.gif","img/card_backs/set2/blue.gif","img/card_backs/set2/orange.gif","""event"",""trial"",""time""
""fullscreenenter"",""1"",""3007""
","
","
","""event"",""trial"",""time""
""fullscreenenter"",""1"",""3007""
","
","","9199.299999982119","Each deck has a mix of cards that will cause you to win and lose tokens. </br> However, the cards in each colored deck are different.","73","","instructions","2021-06-28 17:16:22.908","","","","","",""
"casino-keyboard-response","25","131805","0.0-16.0-0.3","929","false","img/card_backs/set1/yellow.gif","img/card_backs/set1/purple.gif","img/card_backs/set1/green.gif","img/card_backs/set1/red.gif","img/card_backs/set2/gray.gif","img/card_backs/set2/pink.gif","img/card_backs/set2/blue.gif","img/card_backs/set2/orange.gif","""event"",""trial"",""time""
""fullscreenenter"",""1"",""3007""
","
","
","""event"",""trial"",""time""
""fullscreenenter"",""1"",""3007""
","
","","10726.699999988079","Some colored decks are luckier than others. </br> If you choose the lucky decks, you will earn more tokens than if you choose the unlucky decks.","69","","instructions","2021-06-28 17:16:33.636","","","","","",""
"casino-keyboard-response","26","140165","0.0-16.0-0.4","929","false","img/card_backs/set1/yellow.gif","img/card_backs/set1/purple.gif","img/card_backs/set1/green.gif","img/card_backs/set1/red.gif","img/card_backs/set2/gray.gif","img/card_backs/set2/pink.gif","img/card_backs/set2/blue.gif","img/card_backs/set2/orange.gif","""event"",""trial"",""time""
""fullscreenenter"",""1"",""3007""
","
","
","""event"",""trial"",""time""
""fullscreenenter"",""1"",""3007""
","
","","8358.799999982119","You should try to figure out which decks are lucky. </br> Then, try to choose the lucky decks so you can win the most tokens.","87","","instructions","2021-06-28 17:16:41.996","","","","","",""
"casino-keyboard-response","27","152237","0.0-16.0-0.5","929","false","img/card_backs/set1/yellow.gif","img/card_backs/set1/purple.gif","img/card_backs/set1/green.gif","img/card_backs/set1/red.gif","img/card_backs/set2/gray.gif","img/card_backs/set2/pink.gif","img/card_backs/set2/blue.gif","img/card_backs/set2/orange.gif","""event"",""trial"",""time""
""fullscreenenter"",""1"",""3007""
","
","
","""event"",""trial"",""time""
""fullscreenenter"",""1"",""3007""
","
","","12071.200000017881","To make it trickier, the casino dealer will switch the locations of the decks on every turn. </br> The color of the deck determines how lucky it is. The location does not matter.","88","","instructions","2021-06-28 17:16:54.068","","","","","",""
"casino-keyboard-response","28","161341","0.0-16.0-0.6","929","false","img/card_backs/set1/yellow.gif","img/card_backs/set1/purple.gif","img/card_backs/set1/green.gif","img/card_backs/set1/red.gif","img/card_backs/set2/gray.gif","img/card_backs/set2/pink.gif","img/card_backs/set2/blue.gif","img/card_backs/set2/orange.gif","""event"",""trial"",""time""
""fullscreenenter"",""1"",""3007""
","
","
","""event"",""trial"",""time""
""fullscreenenter"",""1"",""3007""
","
","","9102.699999988079","The mix of cards in each colored deck will stay the same throughout the game. </br> That means that a deck that is lucky early on will stay lucky.","79","","instructions","2021-06-28 17:17:03.172","","","","","",""
"casino-keyboard-response","29","169830","0.0-16.0-0.7","929","false","img/card_backs/set1/yellow.gif","img/card_backs/set1/purple.gif","img/card_backs/set1/green.gif","img/card_backs/set1/red.gif","img/card_backs/set2/gray.gif","img/card_backs/set2/pink.gif","img/card_backs/set2/blue.gif","img/card_backs/set2/orange.gif","""event"",""trial"",""time""
""fullscreenenter"",""1"",""3007""
","
","
","""event"",""trial"",""time""
""fullscreenenter"",""1"",""3007""
","
","","8487.59999999404","Remember though, all the decks have a <b> mix </b> of both <b> good </b> and <b> bad </b> cards so it may take a couple of turns to figure out if a deck is lucky.","69","","instructions","2021-06-28 17:17:11.661","","","","","",""
"casino-keyboard-response","30","178126","0.0-16.0-0.8","929","false","img/card_backs/set1/yellow.gif","img/card_backs/set1/purple.gif","img/card_backs/set1/green.gif","img/card_backs/set1/red.gif","img/card_backs/set2/gray.gif","img/card_backs/set2/pink.gif","img/card_backs/set2/blue.gif","img/card_backs/set2/orange.gif","""event"",""trial"",""time""
""fullscreenenter"",""1"",""3007""
","
","
","""event"",""trial"",""time""
""fullscreenenter"",""1"",""3007""
","
","","8294.5","At the end of the game, you will be paid bonus money based on how many tokens you win. </br> If you win more tokens, you will earn more money!","72","","instructions","2021-06-28 17:17:19.957","","","","","",""
"casino-keyboard-response","31","188647","0.0-16.0-0.9","929","false","img/card_backs/set1/yellow.gif","img/card_backs/set1/purple.gif","img/card_backs/set1/green.gif","img/card_backs/set1/red.gif","img/card_backs/set2/gray.gif","img/card_backs/set2/pink.gif","img/card_backs/set2/blue.gif","img/card_backs/set2/orange.gif","""event"",""trial"",""time""
""fullscreenenter"",""1"",""3007""
","
","
","""event"",""trial"",""time""
""fullscreenenter"",""1"",""3007""
","
","","10519.40000000596","You will never <b> lose </b> money. </br> If you end up with fewer than 0 tokens, you will earn $0 of bonus money, but you will still be paid for playing the game.","83","","instructions","2021-06-28 17:17:30.478","","","","","",""
"casino-keyboard-response","32","192982","0.0-16.0-0.10","929","false","img/card_backs/set1/yellow.gif","img/card_backs/set1/purple.gif","img/card_backs/set1/green.gif","img/card_backs/set1/red.gif","img/card_backs/set2/gray.gif","img/card_backs/set2/pink.gif","img/card_backs/set2/blue.gif","img/card_backs/set2/orange.gif","""event"",""trial"",""time""
""fullscreenenter"",""1"",""3007""
","
","
","""event"",""trial"",""time""
""fullscreenenter"",""1"",""3007""
","
","","4334.5","You will have 10 seconds to make each choice.","82","","instructions","2021-06-28 17:17:34.813","","","","","",""
"casino-keyboard-response","33","201391","0.0-16.0-0.11","929","false","img/card_backs/set1/yellow.gif","img/card_backs/set1/purple.gif","img/card_backs/set1/green.gif","img/card_backs/set1/red.gif","img/card_backs/set2/gray.gif","img/card_backs/set2/pink.gif","img/card_backs/set2/blue.gif","img/card_backs/set2/orange.gif","""event"",""trial"",""time""
""fullscreenenter"",""1"",""3007""
","
","
","""event"",""trial"",""time""
""fullscreenenter"",""1"",""3007""
","
","","8406.800000011921","Before you play the game for real, you will play with practice decks. </br> The tokens you earn during practice won't count toward your total.","86","","instructions","2021-06-28 17:17:43.222","","","","","",""
"casino-keyboard-response","34","207159","0.0-16.0-0.12","929","false","img/card_backs/set1/yellow.gif","img/card_backs/set1/purple.gif","img/card_backs/set1/green.gif","img/card_backs/set1/red.gif","img/card_backs/set2/gray.gif","img/card_backs/set2/pink.gif","img/card_backs/set2/blue.gif","img/card_backs/set2/orange.gif","""event"",""trial"",""time""
""fullscreenenter"",""1"",""3007""
","
","
","""event"",""trial"",""time""
""fullscreenenter"",""1"",""3007""
","
","","5766.399999976158","Ready? Remember, use the '2', '4', '6', and '8' keys to select the decks. </br> Put your fingers on those keys now and then press '2' to begin.","50","","instructions","2021-06-28 17:17:48.990","","","","","",""
"casino-fixation","35","207662","0.0-17.0-0.0","929","false","img/card_backs/set1/yellow.gif","img/card_backs/set1/purple.gif","img/card_backs/set1/green.gif","img/card_backs/set1/red.gif","img/card_backs/set2/gray.gif","img/card_backs/set2/pink.gif","img/card_backs/set2/blue.gif","img/card_backs/set2/orange.gif","""event"",""trial"",""time""
""fullscreenenter"",""1"",""3007""
","
","
","""event"",""trial"",""time""
""fullscreenenter"",""1"",""3007""
","
","","null","","null","","fixation","2021-06-28 17:17:49.493","","","","","",""
"card-selection-trial","36","210814","0.0-17.0-1.0","929","false","img/card_backs/set1/yellow.gif","img/card_backs/set1/purple.gif","img/card_backs/set1/green.gif","img/card_backs/set1/red.gif","img/card_backs/set2/gray.gif","img/card_backs/set2/pink.gif","img/card_backs/set2/blue.gif","img/card_backs/set2/orange.gif","""event"",""trial"",""time""
""fullscreenenter"",""1"",""3007""
","
","
","""event"",""trial"",""time""
""fullscreenenter"",""1"",""3007""
","
","","1143.800000011921","","","","practice","2021-06-28 17:17:52.645","img/practice_cards/backs/dark_green.gif","0","200","0","",""
"casino-fixation","37","211319","0.0-17.0-0.1","929","false","img/card_backs/set1/yellow.gif","img/card_backs/set1/purple.gif","img/card_backs/set1/green.gif","img/card_backs/set1/red.gif","img/card_backs/set2/gray.gif","img/card_backs/set2/pink.gif","img/card_backs/set2/blue.gif","img/card_backs/set2/orange.gif","""event"",""trial"",""time""
""fullscreenenter"",""1"",""3007""
","
","
","""event"",""trial"",""time""
""fullscreenenter"",""1"",""3007""
","
","","null","","null","","fixation","2021-06-28 17:17:53.150","","","","","",""
"card-selection-trial","38","214332","0.0-17.0-1.1","929","false","img/card_backs/set1/yellow.gif","img/card_backs/set1/purple.gif","img/card_backs/set1/green.gif","img/card_backs/set1/red.gif","img/card_backs/set2/gray.gif","img/card_backs/set2/pink.gif","img/card_backs/set2/blue.gif","img/card_backs/set2/orange.gif","""event"",""trial"",""time""
""fullscreenenter"",""1"",""3007""
","
","
","""event"",""trial"",""time""
""fullscreenenter"",""1"",""3007""
","
","","1005.5999999940395","","","","practice","2021-06-28 17:17:56.163","img/practice_cards/backs/dark_green.gif","0","-200","0","",""
"casino-fixation","39","214837","0.0-17.0-0.2","929","false","img/card_backs/set1/yellow.gif","img/card_backs/set1/purple.gif","img/card_backs/set1/green.gif","img/card_backs/set1/red.gif","img/card_backs/set2/gray.gif","img/card_backs/set2/pink.gif","img/card_backs/set2/blue.gif","img/card_backs/set2/orange.gif","""event"",""trial"",""time""
""fullscreenenter"",""1"",""3007""
","
","
","""event"",""trial"",""time""
""fullscreenenter"",""1"",""3007""
","
","","null","","null","","fixation","2021-06-28 17:17:56.668","","","","","",""
"card-selection-trial","40","217856","0.0-17.0-1.2","929","false","img/card_backs/set1/yellow.gif","img/card_backs/set1/purple.gif","img/card_backs/set1/green.gif","img/card_backs/set1/red.gif","img/card_backs/set2/gray.gif","img/card_backs/set2/pink.gif","img/card_backs/set2/blue.gif","img/card_backs/set2/orange.gif","""event"",""trial"",""time""
""fullscreenenter"",""1"",""3007""
","
","
","""event"",""trial"",""time""
""fullscreenenter"",""1"",""3007""
","
","","1015.5","","","","practice","2021-06-28 17:17:59.687","img/practice_cards/backs/dark_green.gif","1","200","0","",""
"casino-fixation","41","218360","0.0-17.0-0.3","929","false","img/card_backs/set1/yellow.gif","img/card_backs/set1/purple.gif","img/card_backs/set1/green.gif","img/card_backs/set1/red.gif","img/card_backs/set2/gray.gif","img/card_backs/set2/pink.gif","img/card_backs/set2/blue.gif","img/card_backs/set2/orange.gif","""event"",""trial"",""time""
""fullscreenenter"",""1"",""3007""
","
","
","""event"",""trial"",""time""
""fullscreenenter"",""1"",""3007""
","
","","null","","null","","fixation","2021-06-28 17:18:00.191","","","","","",""
"card-selection-trial","42","221155","0.0-17.0-1.3","929","false","img/card_backs/set1/yellow.gif","img/card_backs/set1/purple.gif","img/card_backs/set1/green.gif","img/card_backs/set1/red.gif","img/card_backs/set2/gray.gif","img/card_backs/set2/pink.gif","img/card_backs/set2/blue.gif","img/card_backs/set2/orange.gif","""event"",""trial"",""time""
""fullscreenenter"",""1"",""3007""
","
","
","""event"",""trial"",""time""
""fullscreenenter"",""1"",""3007""
","
","","787.7999999821186","","","","practice","2021-06-28 17:18:02.986","img/practice_cards/backs/dark_green.gif","3","-200","0","",""
"casino-fixation","43","221657","0.0-17.0-0.4","929","false","img/card_backs/set1/yellow.gif","img/card_backs/set1/purple.gif","img/card_backs/set1/green.gif","img/card_backs/set1/red.gif","img/card_backs/set2/gray.gif","img/card_backs/set2/pink.gif","img/card_backs/set2/blue.gif","img/card_backs/set2/orange.gif","""event"",""trial"",""time""
""fullscreenenter"",""1"",""3007""
","
","
","""event"",""trial"",""time""
""fullscreenenter"",""1"",""3007""
","
","","null","","null","","fixation","2021-06-28 17:18:03.488","","","","","",""
"card-selection-trial","44","224909","0.0-17.0-1.4","929","false","img/card_backs/set1/yellow.gif","img/card_backs/set1/purple.gif","img/card_backs/set1/green.gif","img/card_backs/set1/red.gif","img/card_backs/set2/gray.gif","img/card_backs/set2/pink.gif","img/card_backs/set2/blue.gif","img/card_backs/set2/orange.gif","""event"",""trial"",""time""
""fullscreenenter"",""1"",""3007""
","
","
","""event"",""trial"",""time""
""fullscreenenter"",""1"",""3007""
","
","","1243.199999988079","","","","practice","2021-06-28 17:18:06.740","img/practice_cards/backs/dark_green.gif","2","200","0","",""
"casino-fixation","45","225414","0.0-17.0-0.5","929","false","img/card_backs/set1/yellow.gif","img/card_backs/set1/purple.gif","img/card_backs/set1/green.gif","img/card_backs/set1/red.gif","img/card_backs/set2/gray.gif","img/card_backs/set2/pink.gif","img/card_backs/set2/blue.gif","img/card_backs/set2/orange.gif","""event"",""trial"",""time""
""fullscreenenter"",""1"",""3007""
","
","
","""event"",""trial"",""time""
""fullscreenenter"",""1"",""3007""
","
","","null","","null","","fixation","2021-06-28 17:18:07.245","","","","","",""
"card-selection-trial","46","228236","0.0-17.0-1.5","929","false","img/card_backs/set1/yellow.gif","img/card_backs/set1/purple.gif","img/card_backs/set1/green.gif","img/card_backs/set1/red.gif","img/card_backs/set2/gray.gif","img/card_backs/set2/pink.gif","img/card_backs/set2/blue.gif","img/card_backs/set2/orange.gif","""event"",""trial"",""time""
""fullscreenenter"",""1"",""3007""
","
","
","""event"",""trial"",""time""
""fullscreenenter"",""1"",""3007""
","
","","814.8000000119209","","","","practice","2021-06-28 17:18:10.067","img/practice_cards/backs/dark_green.gif","1","200","0","",""
"casino-fixation","47","228740","0.0-17.0-0.6","929","false","img/card_backs/set1/yellow.gif","img/card_backs/set1/purple.gif","img/card_backs/set1/green.gif","img/card_backs/set1/red.gif","img/card_backs/set2/gray.gif","img/card_backs/set2/pink.gif","img/card_backs/set2/blue.gif","img/card_backs/set2/orange.gif","""event"",""trial"",""time""
""fullscreenenter"",""1"",""3007""
","
","
","""event"",""trial"",""time""
""fullscreenenter"",""1"",""3007""
","
","","null","","null","","fixation","2021-06-28 17:18:10.571","","","","","",""
"card-selection-trial","48","232682","0.0-17.0-1.6","929","false","img/card_backs/set1/yellow.gif","img/card_backs/set1/purple.gif","img/card_backs/set1/green.gif","img/card_backs/set1/red.gif","img/card_backs/set2/gray.gif","img/card_backs/set2/pink.gif","img/card_backs/set2/blue.gif","img/card_backs/set2/orange.gif","""event"",""trial"",""time""
""fullscreenenter"",""1"",""3007""
","
","
","""event"",""trial"",""time""
""fullscreenenter"",""1"",""3007""
","
","","1938","","","","practice","2021-06-28 17:18:14.513","img/practice_cards/backs/dark_blue.gif","1","-200","0","",""
"casino-fixation","49","233187","0.0-17.0-0.7","929","false","img/card_backs/set1/yellow.gif","img/card_backs/set1/purple.gif","img/card_backs/set1/green.gif","img/card_backs/set1/red.gif","img/card_backs/set2/gray.gif","img/card_backs/set2/pink.gif","img/card_backs/set2/blue.gif","img/card_backs/set2/orange.gif","""event"",""trial"",""time""
""fullscreenenter"",""1"",""3007""
","
","
","""event"",""trial"",""time""
""fullscreenenter"",""1"",""3007""
","
","","null","","null","","fixation","2021-06-28 17:18:15.018","","","","","",""
"card-selection-trial","50","236066","0.0-17.0-1.7","929","false","img/card_backs/set1/yellow.gif","img/card_backs/set1/purple.gif","img/card_backs/set1/green.gif","img/card_backs/set1/red.gif","img/card_backs/set2/gray.gif","img/card_backs/set2/pink.gif","img/card_backs/set2/blue.gif","img/card_backs/set2/orange.gif","""event"",""trial"",""time""
""fullscreenenter"",""1"",""3007""
","
","
","""event"",""trial"",""time""
""fullscreenenter"",""1"",""3007""
","
","","874.1999999880791","","","","practice","2021-06-28 17:18:17.897","img/practice_cards/backs/brown.gif","2","100","0","",""
"casino-fixation","51","236571","0.0-17.0-0.8","929","false","img/card_backs/set1/yellow.gif","img/card_backs/set1/purple.gif","img/card_backs/set1/green.gif","img/card_backs/set1/red.gif","img/card_backs/set2/gray.gif","img/card_backs/set2/pink.gif","img/card_backs/set2/blue.gif","img/card_backs/set2/orange.gif","""event"",""trial"",""time""
""fullscreenenter"",""1"",""3007""
","
","
","""event"",""trial"",""time""
""fullscreenenter"",""1"",""3007""
","
","","null","","null","","fixation","2021-06-28 17:18:18.402","","","","","",""
"card-selection-trial","52","239794","0.0-17.0-1.8","929","false","img/card_backs/set1/yellow.gif","img/card_backs/set1/purple.gif","img/card_backs/set1/green.gif","img/card_backs/set1/red.gif","img/card_backs/set2/gray.gif","img/card_backs/set2/pink.gif","img/card_backs/set2/blue.gif","img/card_backs/set2/orange.gif","""event"",""trial"",""time""
""fullscreenenter"",""1"",""3007""
","
","
","""event"",""trial"",""time""
""fullscreenenter"",""1"",""3007""
","
","","1217.4000000059605","","","","practice","2021-06-28 17:18:21.625","img/practice_cards/backs/brown.gif","0","100","0","",""
"casino-fixation","53","240299","0.0-17.0-0.9","929","false","img/card_backs/set1/yellow.gif","img/card_backs/set1/purple.gif","img/card_backs/set1/green.gif","img/card_backs/set1/red.gif","img/card_backs/set2/gray.gif","img/card_backs/set2/pink.gif","img/card_backs/set2/blue.gif","img/card_backs/set2/orange.gif","""event"",""trial"",""time""
""fullscreenenter"",""1"",""3007""
","
","
","""event"",""trial"",""time""
""fullscreenenter"",""1"",""3007""
","
","","null","","null","","fixation","2021-06-28 17:18:22.130","","","","","",""
"card-selection-trial","54","243522","0.0-17.0-1.9","929","false","img/card_backs/set1/yellow.gif","img/card_backs/set1/purple.gif","img/card_backs/set1/green.gif","img/card_backs/set1/red.gif","img/card_backs/set2/gray.gif","img/card_backs/set2/pink.gif","img/card_backs/set2/blue.gif","img/card_backs/set2/orange.gif","""event"",""trial"",""time""
""fullscreenenter"",""1"",""3007""
","
","
","""event"",""trial"",""time""
""fullscreenenter"",""1"",""3007""
","
","","1217.8999999761581","","","","practice","2021-06-28 17:18:25.353","img/practice_cards/backs/brown.gif","1","100","0","",""
"casino-keyboard-response","55","246715","0.0-18.0","929","false","img/card_backs/set1/yellow.gif","img/card_backs/set1/purple.gif","img/card_backs/set1/green.gif","img/card_backs/set1/red.gif","img/card_backs/set2/gray.gif","img/card_backs/set2/pink.gif","img/card_backs/set2/blue.gif","img/card_backs/set2/orange.gif","""event"",""trial"",""time""
""fullscreenenter"",""1"",""3007""
","
","
","""event"",""trial"",""time""
""fullscreenenter"",""1"",""3007""
","
","","3191.5999999940395","You earned 500 tokens during the practice round!","82","","","2021-06-28 17:18:28.546","","","","","",""
"casino-keyboard-response","56","252104","0.0-19.0-0.0","929","false","img/card_backs/set1/yellow.gif","img/card_backs/set1/purple.gif","img/card_backs/set1/green.gif","img/card_backs/set1/red.gif","img/card_backs/set2/gray.gif","img/card_backs/set2/pink.gif","img/card_backs/set2/blue.gif","img/card_backs/set2/orange.gif","""event"",""trial"",""time""
""fullscreenenter"",""1"",""3007""
","
","
","""event"",""trial"",""time""
""fullscreenenter"",""1"",""3007""
","
","","5388.4000000059605","Nice job! You are almost ready to play the real game.","86","","instructions","2021-06-28 17:18:33.935","","","","","",""
"casino-keyboard-response","57","258737","0.0-19.0-0.1","929","false","img/card_backs/set1/yellow.gif","img/card_backs/set1/purple.gif","img/card_backs/set1/green.gif","img/card_backs/set1/red.gif","img/card_backs/set2/gray.gif","img/card_backs/set2/pink.gif","img/card_backs/set2/blue.gif","img/card_backs/set2/orange.gif","""event"",""trial"",""time""
""fullscreenenter"",""1"",""3007""
","
","
","""event"",""trial"",""time""
""fullscreenenter"",""1"",""3007""
","
","","6631.200000017881","You will play two rounds of the real game. In each round, you will pick 100 cards in total.","73","","instructions","2021-06-28 17:18:40.568","","","","","",""
"casino-keyboard-response","58","263097","0.0-19.0-0.2","929","false","img/card_backs/set1/yellow.gif","img/card_backs/set1/purple.gif","img/card_backs/set1/green.gif","img/card_backs/set1/red.gif","img/card_backs/set2/gray.gif","img/card_backs/set2/pink.gif","img/card_backs/set2/blue.gif","img/card_backs/set2/orange.gif","""event"",""trial"",""time""
""fullscreenenter"",""1"",""3007""
","
","
","""event"",""trial"",""time""
""fullscreenenter"",""1"",""3007""
","
","","4358.799999982119","We are now going to ask you some questions about how the game works.","66","","instructions","2021-06-28 17:18:44.928","","","","","",""
"casino-keyboard-response","59","269801","0.0-19.0-0.3","929","false","img/card_backs/set1/yellow.gif","img/card_backs/set1/purple.gif","img/card_backs/set1/green.gif","img/card_backs/set1/red.gif","img/card_backs/set2/gray.gif","img/card_backs/set2/pink.gif","img/card_backs/set2/blue.gif","img/card_backs/set2/orange.gif","""event"",""trial"",""time""
""fullscreenenter"",""1"",""3007""
","
","
","""event"",""trial"",""time""
""fullscreenenter"",""1"",""3007""
","
","","6703.4000000059605","Answer carefully. You will not be able to begin the game until you answer them correctly.","67","","instructions","2021-06-28 17:18:51.632","","","","","",""
"casino-comp_q","60","276425","0.0-20.0-0.0","929","false","img/card_backs/set1/yellow.gif","img/card_backs/set1/purple.gif","img/card_backs/set1/green.gif","img/card_backs/set1/red.gif","img/card_backs/set2/gray.gif","img/card_backs/set2/pink.gif","img/card_backs/set2/blue.gif","img/card_backs/set2/orange.gif","""event"",""trial"",""time""
""fullscreenenter"",""1"",""3007""
","
","
","""event"",""trial"",""time""
""fullscreenenter"",""1"",""3007""
","
","","6622.799999982119","True or False: All the decks have some cards that cause you to win tokens and some cards that cause you to lose tokens.","84","","","2021-06-28 17:18:58.256","","","","","",""
"casino-keyboard-response","61","280345","0.0-20.0-1.0","929","false","img/card_backs/set1/yellow.gif","img/card_backs/set1/purple.gif","img/card_backs/set1/green.gif","img/card_backs/set1/red.gif","img/card_backs/set2/gray.gif","img/card_backs/set2/pink.gif","img/card_backs/set2/blue.gif","img/card_backs/set2/orange.gif","""event"",""trial"",""time""
""fullscreenenter"",""1"",""3007""
","
","
","""event"",""trial"",""time""
""fullscreenenter"",""1"",""3007""
","
","","3919","True is correct! All the decks have a mix of winning and losing cards.","77","","","2021-06-28 17:19:02.176","","","","","true",""
"casino-comp_q","62","284713","0.0-21.0-0.0","929","false","img/card_backs/set1/yellow.gif","img/card_backs/set1/purple.gif","img/card_backs/set1/green.gif","img/card_backs/set1/red.gif","img/card_backs/set2/gray.gif","img/card_backs/set2/pink.gif","img/card_backs/set2/blue.gif","img/card_backs/set2/orange.gif","""event"",""trial"",""time""
""fullscreenenter"",""1"",""3007""
","
","
","""event"",""trial"",""time""
""fullscreenenter"",""1"",""3007""
","
","","4366.5","True or False: You will have as much time as you want to make your response.","70","","","2021-06-28 17:19:06.544","","","","","",""
"casino-keyboard-response","63","288561","0.0-21.0-1.0","929","false","img/card_backs/set1/yellow.gif","img/card_backs/set1/purple.gif","img/card_backs/set1/green.gif","img/card_backs/set1/red.gif","img/card_backs/set2/gray.gif","img/card_backs/set2/pink.gif","img/card_backs/set2/blue.gif","img/card_backs/set2/orange.gif","""event"",""trial"",""time""
""fullscreenenter"",""1"",""3007""
","
","
","""event"",""trial"",""time""
""fullscreenenter"",""1"",""3007""
","
","","3846.0999999940395","False is correct! You will only have 10 seconds to make each choice.","75","","","2021-06-28 17:19:10.392","","","","","true",""
"casino-comp_q","64","293370","0.0-22.0-0.0","929","false","img/card_backs/set1/yellow.gif","img/card_backs/set1/purple.gif","img/card_backs/set1/green.gif","img/card_backs/set1/red.gif","img/card_backs/set2/gray.gif","img/card_backs/set2/pink.gif","img/card_backs/set2/blue.gif","img/card_backs/set2/orange.gif","""event"",""trial"",""time""
""fullscreenenter"",""1"",""3007""
","
","
","""event"",""trial"",""time""
""fullscreenenter"",""1"",""3007""
","
","","4807.300000011921","True or False: The location of the deck determines how lucky it is.","70","","","2021-06-28 17:19:15.201","","","","","",""
"casino-keyboard-response","65","297265","0.0-22.0-1.0","929","false","img/card_backs/set1/yellow.gif","img/card_backs/set1/purple.gif","img/card_backs/set1/green.gif","img/card_backs/set1/red.gif","img/card_backs/set2/gray.gif","img/card_backs/set2/pink.gif","img/card_backs/set2/blue.gif","img/card_backs/set2/orange.gif","""event"",""trial"",""time""
""fullscreenenter"",""1"",""3007""
","
","
","""event"",""trial"",""time""
""fullscreenenter"",""1"",""3007""
","
","","3894.7999999821186","False is correct! The <i>color</i>  of the deck determines how lucky or unlucky it is.","68","","","2021-06-28 17:19:19.097","","","","","true",""
"casino-keyboard-response","66","302418","0.0-23.0-0.0","929","false","img/card_backs/set1/yellow.gif","img/card_backs/set1/purple.gif","img/card_backs/set1/green.gif","img/card_backs/set1/red.gif","img/card_backs/set2/gray.gif","img/card_backs/set2/pink.gif","img/card_backs/set2/blue.gif","img/card_backs/set2/orange.gif","""event"",""trial"",""time""
""fullscreenenter"",""1"",""3007""
","
","
","""event"",""trial"",""time""
""fullscreenenter"",""1"",""3007""
","
","","5151.0999999940395","Great job! Now it's time to start the real game.","82","","instructions","2021-06-28 17:19:24.249","","","","","",""
"casino-keyboard-response","67","307954","0.0-23.0-0.1","929","false","img/card_backs/set1/yellow.gif","img/card_backs/set1/purple.gif","img/card_backs/set1/green.gif","img/card_backs/set1/red.gif","img/card_backs/set2/gray.gif","img/card_backs/set2/pink.gif","img/card_backs/set2/blue.gif","img/card_backs/set2/orange.gif","""event"",""trial"",""time""
""fullscreenenter"",""1"",""3007""
","
","
","""event"",""trial"",""time""
""fullscreenenter"",""1"",""3007""
","
","","5535.300000011921","Before we start, we're going to head into a new room of the casino.","86","","instructions","2021-06-28 17:19:29.785","","","","","",""
"casino-keyboard-response","68","314578","0.0-24.0-0.0","929","false","img/card_backs/set1/yellow.gif","img/card_backs/set1/purple.gif","img/card_backs/set1/green.gif","img/card_backs/set1/red.gif","img/card_backs/set2/gray.gif","img/card_backs/set2/pink.gif","img/card_backs/set2/blue.gif","img/card_backs/set2/orange.gif","""event"",""trial"",""time""
""fullscreenenter"",""1"",""3007""
","
","
","""event"",""trial"",""time""
""fullscreenenter"",""1"",""3007""
","
","","6622.899999976158","Here we are! The real game will use different cards, but the rules will be the same.","71","","instructions","2021-06-28 17:19:36.409","","","","","",""
"casino-keyboard-response","69","318354","0.0-24.0-0.1","929","false","img/card_backs/set1/yellow.gif","img/card_backs/set1/purple.gif","img/card_backs/set1/green.gif","img/card_backs/set1/red.gif","img/card_backs/set2/gray.gif","img/card_backs/set2/pink.gif","img/card_backs/set2/blue.gif","img/card_backs/set2/orange.gif","""event"",""trial"",""time""
""fullscreenenter"",""1"",""3007""
","
","
","""event"",""trial"",""time""
""fullscreenenter"",""1"",""3007""
","
","","3775.4000000059605","Ready? Put your fingers over the '2', '4', 6', and '8' keys so you are ready to play the game. </br> Then press 2 to start.","50","","instructions","2021-06-28 17:19:40.185","","","","","",""
"casino-fixation","70","318860","0.0-25.0-0.0","929","false","img/card_backs/set1/yellow.gif","img/card_backs/set1/purple.gif","img/card_backs/set1/green.gif","img/card_backs/set1/red.gif","img/card_backs/set2/gray.gif","img/card_backs/set2/pink.gif","img/card_backs/set2/blue.gif","img/card_backs/set2/orange.gif","""event"",""trial"",""time""
""fullscreenenter"",""1"",""3007""
","
","
","""event"",""trial"",""time""
""fullscreenenter"",""1"",""3007""
","
","","null","","null","","fixation","2021-06-28 17:19:40.691","","","","","",""
"card-selection-trial","71","322201","0.0-25.0-1.0","929","false","img/card_backs/set1/yellow.gif","img/card_backs/set1/purple.gif","img/card_backs/set1/green.gif","img/card_backs/set1/red.gif","img/card_backs/set2/gray.gif","img/card_backs/set2/pink.gif","img/card_backs/set2/blue.gif","img/card_backs/set2/orange.gif","""event"",""trial"",""time""
""fullscreenenter"",""1"",""3007""
","
","
","""event"",""trial"",""time""
""fullscreenenter"",""1"",""3007""
","
","","1333.1000000238419","","","","real_trial","2021-06-28 17:19:44.032","img/card_backs/set1/yellow.gif","0","190","1","",""
"casino-fixation","72","322704","0.0-25.0-0.1","929","false","img/card_backs/set1/yellow.gif","img/card_backs/set1/purple.gif","img/card_backs/set1/green.gif","img/card_backs/set1/red.gif","img/card_backs/set2/gray.gif","img/card_backs/set2/pink.gif","img/card_backs/set2/blue.gif","img/card_backs/set2/orange.gif","""event"",""trial"",""time""
""fullscreenenter"",""1"",""3007""
","
","
","""event"",""trial"",""time""
""fullscreenenter"",""1"",""3007""
","
","","null","","null","","fixation","2021-06-28 17:19:44.535","","","","","",""
"card-selection-trial","73","326068","0.0-25.0-1.1","929","false","img/card_backs/set1/yellow.gif","img/card_backs/set1/purple.gif","img/card_backs/set1/green.gif","img/card_backs/set1/red.gif","img/card_backs/set2/gray.gif","img/card_backs/set2/pink.gif","img/card_backs/set2/blue.gif","img/card_backs/set2/orange.gif","""event"",""trial"",""time""
""fullscreenenter"",""1"",""3007""
","
","
","""event"",""trial"",""time""
""fullscreenenter"",""1"",""3007""
","
","","1358.2999999821186","","","","real_trial","2021-06-28 17:19:47.899","img/card_backs/set1/yellow.gif","2","180","1","",""
"casino-fixation","74","326572","0.0-25.0-0.2","929","false","img/card_backs/set1/yellow.gif","img/card_backs/set1/purple.gif","img/card_backs/set1/green.gif","img/card_backs/set1/red.gif","img/card_backs/set2/gray.gif","img/card_backs/set2/pink.gif","img/card_backs/set2/blue.gif","img/card_backs/set2/orange.gif","""event"",""trial"",""time""
""fullscreenenter"",""1"",""3007""
","
","
","""event"",""trial"",""time""
""fullscreenenter"",""1"",""3007""
","
","","null","","null","","fixation","2021-06-28 17:19:48.403","","","","","",""
"card-selection-trial","75","329237","0.0-25.0-1.2","929","false","img/card_backs/set1/yellow.gif","img/card_backs/set1/purple.gif","img/card_backs/set1/green.gif","img/card_backs/set1/red.gif","img/card_backs/set2/gray.gif","img/card_backs/set2/pink.gif","img/card_backs/set2/blue.gif","img/card_backs/set2/orange.gif","""event"",""trial"",""time""
""fullscreenenter"",""1"",""3007""
","
","
","""event"",""trial"",""time""
""fullscreenenter"",""1"",""3007""
","
","","660.3999999761581","","","","real_trial","2021-06-28 17:19:51.068","img/card_backs/set1/yellow.gif","2","-230","1","",""
"casino-fixation","76","329738","0.0-25.0-0.3","929","false","img/card_backs/set1/yellow.gif","img/card_backs/set1/purple.gif","img/card_backs/set1/green.gif","img/card_backs/set1/red.gif","img/card_backs/set2/gray.gif","img/card_backs/set2/pink.gif","img/card_backs/set2/blue.gif","img/card_backs/set2/orange.gif","""event"",""trial"",""time""
""fullscreenenter"",""1"",""3007""
","
","
","""event"",""trial"",""time""
""fullscreenenter"",""1"",""3007""
","
","","null","","null","","fixation","2021-06-28 17:19:51.569","","","","","",""
"card-selection-trial","77","333423","0.0-25.0-1.3","929","false","img/card_backs/set1/yellow.gif","img/card_backs/set1/purple.gif","img/card_backs/set1/green.gif","img/card_backs/set1/red.gif","img/card_backs/set2/gray.gif","img/card_backs/set2/pink.gif","img/card_backs/set2/blue.gif","img/card_backs/set2/orange.gif","""event"",""trial"",""time""
""fullscreenenter"",""1"",""3007""
","
","
","""event"",""trial"",""time""
""fullscreenenter"",""1"",""3007""
","
","","1677.5999999940395","","","","real_trial","2021-06-28 17:19:55.254","img/card_backs/set1/purple.gif","2","190","1","",""
"casino-fixation","78","333928","0.0-25.0-0.4","929","false","img/card_backs/set1/yellow.gif","img/card_backs/set1/purple.gif","img/card_backs/set1/green.gif","img/card_backs/set1/red.gif","img/card_backs/set2/gray.gif","img/card_backs/set2/pink.gif","img/card_backs/set2/blue.gif","img/card_backs/set2/orange.gif","""event"",""trial"",""time""
""fullscreenenter"",""1"",""3007""
","
","
","""event"",""trial"",""time""
""fullscreenenter"",""1"",""3007""
","
","","null","","null","","fixation","2021-06-28 17:19:55.759","","","","","",""
"card-selection-trial","79","336621","0.0-25.0-1.4","929","false","img/card_backs/set1/yellow.gif","img/card_backs/set1/purple.gif","img/card_backs/set1/green.gif","img/card_backs/set1/red.gif","img/card_backs/set2/gray.gif","img/card_backs/set2/pink.gif","img/card_backs/set2/blue.gif","img/card_backs/set2/orange.gif","""event"",""trial"",""time""
""fullscreenenter"",""1"",""3007""
","
","
","""event"",""trial"",""time""
""fullscreenenter"",""1"",""3007""
","
","","688","","","","real_trial","2021-06-28 17:19:58.452","img/card_backs/set1/purple.gif","0","-230","1","",""
"casino-fixation","80","337126","0.0-25.0-0.5","929","false","img/card_backs/set1/yellow.gif","img/card_backs/set1/purple.gif","img/card_backs/set1/green.gif","img/card_backs/set1/red.gif","img/card_backs/set2/gray.gif","img/card_backs/set2/pink.gif","img/card_backs/set2/blue.gif","img/card_backs/set2/orange.gif","""event"",""trial"",""time""
""fullscreenenter"",""1"",""3007""
","
","
","""event"",""trial"",""time""
""fullscreenenter"",""1"",""3007""
","
","","null","","null","","fixation","2021-06-28 17:19:58.957","","","","","",""
"card-selection-trial","81","340632","0.0-25.0-1.5","929","false","img/card_backs/set1/yellow.gif","img/card_backs/set1/purple.gif","img/card_backs/set1/green.gif","img/card_backs/set1/red.gif","img/card_backs/set2/gray.gif","img/card_backs/set2/pink.gif","img/card_backs/set2/blue.gif","img/card_backs/set2/orange.gif","""event"",""trial"",""time""
""fullscreenenter"",""1"",""3007""
","
","
","""event"",""trial"",""time""
""fullscreenenter"",""1"",""3007""
","
","","1497.300000011921","","","","real_trial","2021-06-28 17:20:02.463","img/card_backs/set1/red.gif","1","120","1","",""
"casino-fixation","82","341134","0.0-25.0-0.6","929","false","img/card_backs/set1/yellow.gif","img/card_backs/set1/purple.gif","img/card_backs/set1/green.gif","img/card_backs/set1/red.gif","img/card_backs/set2/gray.gif","img/card_backs/set2/pink.gif","img/card_backs/set2/blue.gif","img/card_backs/set2/orange.gif","""event"",""trial"",""time""
""fullscreenenter"",""1"",""3007""
","
","
","""event"",""trial"",""time""
""fullscreenenter"",""1"",""3007""
","
","","null","","null","","fixation","2021-06-28 17:20:02.965","","","","","",""
"card-selection-trial","83","343663","0.0-25.0-1.6","929","false","img/card_backs/set1/yellow.gif","img/card_backs/set1/purple.gif","img/card_backs/set1/green.gif","img/card_backs/set1/red.gif","img/card_backs/set2/gray.gif","img/card_backs/set2/pink.gif","img/card_backs/set2/blue.gif","img/card_backs/set2/orange.gif","""event"",""trial"",""time""
""fullscreenenter"",""1"",""3007""
","
","
","""event"",""trial"",""time""
""fullscreenenter"",""1"",""3007""
","
","","523.5","","","","real_trial","2021-06-28 17:20:05.494","img/card_backs/set1/red.gif","1","110","1","",""
"casino-fixation","84","344168","0.0-25.0-0.7","929","false","img/card_backs/set1/yellow.gif","img/card_backs/set1/purple.gif","img/card_backs/set1/green.gif","img/card_backs/set1/red.gif","img/card_backs/set2/gray.gif","img/card_backs/set2/pink.gif","img/card_backs/set2/blue.gif","img/card_backs/set2/orange.gif","""event"",""trial"",""time""
""fullscreenenter"",""1"",""3007""
","
","
","""event"",""trial"",""time""
""fullscreenenter"",""1"",""3007""
","
","","null","","null","","fixation","2021-06-28 17:20:05.999","","","","","",""
"card-selection-trial","85","346877","0.0-25.0-1.7","929","false","img/card_backs/set1/yellow.gif","img/card_backs/set1/purple.gif","img/card_backs/set1/green.gif","img/card_backs/set1/red.gif","img/card_backs/set2/gray.gif","img/card_backs/set2/pink.gif","img/card_backs/set2/blue.gif","img/card_backs/set2/orange.gif","""event"",""trial"",""time""
""fullscreenenter"",""1"",""3007""
","
","
","""event"",""trial"",""time""
""fullscreenenter"",""1"",""3007""
","
","","704","","","","real_trial","2021-06-28 17:20:08.708","img/card_backs/set1/red.gif","1","-70","1","",""
"casino-fixation","86","347383","0.0-25.0-0.8","929","false","img/card_backs/set1/yellow.gif","img/card_backs/set1/purple.gif","img/card_backs/set1/green.gif","img/card_backs/set1/red.gif","img/card_backs/set2/gray.gif","img/card_backs/set2/pink.gif","img/card_backs/set2/blue.gif","img/card_backs/set2/orange.gif","""event"",""trial"",""time""
""fullscreenenter"",""1"",""3007""
","
","
","""event"",""trial"",""time""
""fullscreenenter"",""1"",""3007""
","
","","null","","null","","fixation","2021-06-28 17:20:09.214","","","","","",""
"card-selection-trial","87","349968","0.0-25.0-1.8","929","false","img/card_backs/set1/yellow.gif","img/card_backs/set1/purple.gif","img/card_backs/set1/green.gif","img/card_backs/set1/red.gif","img/card_backs/set2/gray.gif","img/card_backs/set2/pink.gif","img/card_backs/set2/blue.gif","img/card_backs/set2/orange.gif","""event"",""trial"",""time""
""fullscreenenter"",""1"",""3007""
","
","
","""event"",""trial"",""time""
""fullscreenenter"",""1"",""3007""
","
","","576.4000000059605","","","","real_trial","2021-06-28 17:20:11.799","img/card_backs/set1/red.gif","3","-70","1","",""
"casino-fixation","88","350473","0.0-25.0-0.9","929","false","img/card_backs/set1/yellow.gif","img/card_backs/set1/purple.gif","img/card_backs/set1/green.gif","img/card_backs/set1/red.gif","img/card_backs/set2/gray.gif","img/card_backs/set2/pink.gif","img/card_backs/set2/blue.gif","img/card_backs/set2/orange.gif","""event"",""trial"",""time""
""fullscreenenter"",""1"",""3007""
","
","
","""event"",""trial"",""time""
""fullscreenenter"",""1"",""3007""
","
","","null","","null","","fixation","2021-06-28 17:20:12.304","","","","","",""
"card-selection-trial","89","353010","0.0-25.0-1.9","929","false","img/card_backs/set1/yellow.gif","img/card_backs/set1/purple.gif","img/card_backs/set1/green.gif","img/card_backs/set1/red.gif","img/card_backs/set2/gray.gif","img/card_backs/set2/pink.gif","img/card_backs/set2/blue.gif","img/card_backs/set2/orange.gif","""event"",""trial"",""time""
""fullscreenenter"",""1"",""3007""
","
","
","""event"",""trial"",""time""
""fullscreenenter"",""1"",""3007""
","
","","528.5999999940395","","","","real_trial","2021-06-28 17:20:14.841","img/card_backs/set1/red.gif","3","120","1","",""
"casino-fixation","90","353515","0.0-25.0-0.10","929","false","img/card_backs/set1/yellow.gif","img/card_backs/set1/purple.gif","img/card_backs/set1/green.gif","img/card_backs/set1/red.gif","img/card_backs/set2/gray.gif","img/card_backs/set2/pink.gif","img/card_backs/set2/blue.gif","img/card_backs/set2/orange.gif","""event"",""trial"",""time""
""fullscreenenter"",""1"",""3007""
","
","
","""event"",""trial"",""time""
""fullscreenenter"",""1"",""3007""
","
","","null","","null","","fixation","2021-06-28 17:20:15.346","","","","","",""
"card-selection-trial","91","356133","0.0-25.0-1.10","929","false","img/card_backs/set1/yellow.gif","img/card_backs/set1/purple.gif","img/card_backs/set1/green.gif","img/card_backs/set1/red.gif","img/card_backs/set2/gray.gif","img/card_backs/set2/pink.gif","img/card_backs/set2/blue.gif","img/card_backs/set2/orange.gif","""event"",""trial"",""time""
""fullscreenenter"",""1"",""3007""
","
","
","""event"",""trial"",""time""
""fullscreenenter"",""1"",""3007""
","
","","613.5","","","","real_trial","2021-06-28 17:20:17.964","img/card_backs/set1/red.gif","1","-60","1","",""
"casino-fixation","92","356638","0.0-25.0-0.11","929","false","img/card_backs/set1/yellow.gif","img/card_backs/set1/purple.gif","img/card_backs/set1/green.gif","img/card_backs/set1/red.gif","img/card_backs/set2/gray.gif","img/card_backs/set2/pink.gif","img/card_backs/set2/blue.gif","img/card_backs/set2/orange.gif","""event"",""trial"",""time""
""fullscreenenter"",""1"",""3007""
","
","
","""event"",""trial"",""time""
""fullscreenenter"",""1"",""3007""
","
","","null","","null","","fixation","2021-06-28 17:20:18.469","","","","","",""
"card-selection-trial","93","359141","0.0-25.0-1.11","929","false","img/card_backs/set1/yellow.gif","img/card_backs/set1/purple.gif","img/card_backs/set1/green.gif","img/card_backs/set1/red.gif","img/card_backs/set2/gray.gif","img/card_backs/set2/pink.gif","img/card_backs/set2/blue.gif","img/card_backs/set2/orange.gif","""event"",""trial"",""time""
""fullscreenenter"",""1"",""3007""
","
","
","""event"",""trial"",""time""
""fullscreenenter"",""1"",""3007""
","
","","498","","","","real_trial","2021-06-28 17:20:20.972","img/card_backs/set1/red.gif","3","100","1","",""
"casino-fixation","94","359645","0.0-25.0-0.12","929","false","img/card_backs/set1/yellow.gif","img/card_backs/set1/purple.gif","img/card_backs/set1/green.gif","img/card_backs/set1/red.gif","img/card_backs/set2/gray.gif","img/card_backs/set2/pink.gif","img/card_backs/set2/blue.gif","img/card_backs/set2/orange.gif","""event"",""trial"",""time""
""fullscreenenter"",""1"",""3007""
","
","
","""event"",""trial"",""time""
""fullscreenenter"",""1"",""3007""
","
","","null","","null","","fixation","2021-06-28 17:20:21.476","","","","","",""
"card-selection-trial","95","362200","0.0-25.0-1.12","929","false","img/card_backs/set1/yellow.gif","img/card_backs/set1/purple.gif","img/card_backs/set1/green.gif","img/card_backs/set1/red.gif","img/card_backs/set2/gray.gif","img/card_backs/set2/pink.gif","img/card_backs/set2/blue.gif","img/card_backs/set2/orange.gif","""event"",""trial"",""time""
""fullscreenenter"",""1"",""3007""
","
","
","""event"",""trial"",""time""
""fullscreenenter"",""1"",""3007""
","
","","548.5999999940395","","","","real_trial","2021-06-28 17:20:24.031","img/card_backs/set1/red.gif","3","110","1","",""
"casino-fixation","96","362705","0.0-25.0-0.13","929","false","img/card_backs/set1/yellow.gif","img/card_backs/set1/purple.gif","img/card_backs/set1/green.gif","img/card_backs/set1/red.gif","img/card_backs/set2/gray.gif","img/card_backs/set2/pink.gif","img/card_backs/set2/blue.gif","img/card_backs/set2/orange.gif","""event"",""trial"",""time""
""fullscreenenter"",""1"",""3007""
","
","
","""event"",""trial"",""time""
""fullscreenenter"",""1"",""3007""
","
","","null","","null","","fixation","2021-06-28 17:20:24.536","","","","","",""
"card-selection-trial","97","365247","0.0-25.0-1.13","929","false","img/card_backs/set1/yellow.gif","img/card_backs/set1/purple.gif","img/card_backs/set1/green.gif","img/card_backs/set1/red.gif","img/card_backs/set2/gray.gif","img/card_backs/set2/pink.gif","img/card_backs/set2/blue.gif","img/card_backs/set2/orange.gif","""event"",""trial"",""time""
""fullscreenenter"",""1"",""3007""
","
","
","""event"",""trial"",""time""
""fullscreenenter"",""1"",""3007""
","
","","535.9000000059605","","","","real_trial","2021-06-28 17:20:27.078","img/card_backs/set1/red.gif","0","100","1","",""
"casino-fixation","98","365752","0.0-25.0-0.14","929","false","img/card_backs/set1/yellow.gif","img/card_backs/set1/purple.gif","img/card_backs/set1/green.gif","img/card_backs/set1/red.gif","img/card_backs/set2/gray.gif","img/card_backs/set2/pink.gif","img/card_backs/set2/blue.gif","img/card_backs/set2/orange.gif","""event"",""trial"",""time""
""fullscreenenter"",""1"",""3007""
","
","
","""event"",""trial"",""time""
""fullscreenenter"",""1"",""3007""
","
","","null","","null","","fixation","2021-06-28 17:20:27.583","","","","","",""
"card-selection-trial","99","368214","0.0-25.0-1.14","929","false","img/card_backs/set1/yellow.gif","img/card_backs/set1/purple.gif","img/card_backs/set1/green.gif","img/card_backs/set1/red.gif","img/card_backs/set2/gray.gif","img/card_backs/set2/pink.gif","img/card_backs/set2/blue.gif","img/card_backs/set2/orange.gif","""event"",""trial"",""time""
""fullscreenenter"",""1"",""3007""
","
","
","""event"",""trial"",""time""
""fullscreenenter"",""1"",""3007""
","
","","456.5","","","","real_trial","2021-06-28 17:20:30.045","img/card_backs/set1/red.gif","3","-60","1","",""
"casino-fixation","100","368719","0.0-25.0-0.15","929","false","img/card_backs/set1/yellow.gif","img/card_backs/set1/purple.gif","img/card_backs/set1/green.gif","img/card_backs/set1/red.gif","img/card_backs/set2/gray.gif","img/card_backs/set2/pink.gif","img/card_backs/set2/blue.gif","img/card_backs/set2/orange.gif","""event"",""trial"",""time""
""fullscreenenter"",""1"",""3007""
","
","
","""event"",""trial"",""time""
""fullscreenenter"",""1"",""3007""
","
","","null","","null","","fixation","2021-06-28 17:20:30.550","","","","","",""
"card-selection-trial","101","371296","0.0-25.0-1.15","929","false","img/card_backs/set1/yellow.gif","img/card_backs/set1/purple.gif","img/card_backs/set1/green.gif","img/card_backs/set1/red.gif","img/card_backs/set2/gray.gif","img/card_backs/set2/pink.gif","img/card_backs/set2/blue.gif","img/card_backs/set2/orange.gif","""event"",""trial"",""time""
""fullscreenenter"",""1"",""3007""
","
","
","""event"",""trial"",""time""
""fullscreenenter"",""1"",""3007""
","
","","570","","","","real_trial","2021-06-28 17:20:33.127","img/card_backs/set1/red.gif","0","110","1","",""
"casino-fixation","102","371801","0.0-25.0-0.16","929","false","img/card_backs/set1/yellow.gif","img/card_backs/set1/purple.gif","img/card_backs/set1/green.gif","img/card_backs/set1/red.gif","img/card_backs/set2/gray.gif","img/card_backs/set2/pink.gif","img/card_backs/set2/blue.gif","img/card_backs/set2/orange.gif","""event"",""trial"",""time""
""fullscreenenter"",""1"",""3007""
","
","
","""event"",""trial"",""time""
""fullscreenenter"",""1"",""3007""
","
","","null","","null","","fixation","2021-06-28 17:20:33.632","","","","","",""
"card-selection-trial","103","374377","0.0-25.0-1.16","929","false","img/card_backs/set1/yellow.gif","img/card_backs/set1/purple.gif","img/card_backs/set1/green.gif","img/card_backs/set1/red.gif","img/card_backs/set2/gray.gif","img/card_backs/set2/pink.gif","img/card_backs/set2/blue.gif","img/card_backs/set2/orange.gif","""event"",""trial"",""time""
""fullscreenenter"",""1"",""3007""
","
","
","""event"",""trial"",""time""
""fullscreenenter"",""1"",""3007""
","
","","568.9000000059605","","","","real_trial","2021-06-28 17:20:36.208","img/card_backs/set1/red.gif","0","110","1","",""
"casino-fixation","104","374880","0.0-25.0-0.17","929","false","img/card_backs/set1/yellow.gif","img/card_backs/set1/purple.gif","img/card_backs/set1/green.gif","img/card_backs/set1/red.gif","img/card_backs/set2/gray.gif","img/card_backs/set2/pink.gif","img/card_backs/set2/blue.gif","img/card_backs/set2/orange.gif","""event"",""trial"",""time""
""fullscreenenter"",""1"",""3007""
","
","
","""event"",""trial"",""time""
""fullscreenenter"",""1"",""3007""
","
","","null","","null","","fixation","2021-06-28 17:20:36.711","","","","","",""
"card-selection-trial","105","377316","0.0-25.0-1.17","929","false","img/card_backs/set1/yellow.gif","img/card_backs/set1/purple.gif","img/card_backs/set1/green.gif","img/card_backs/set1/red.gif","img/card_backs/set2/gray.gif","img/card_backs/set2/pink.gif","img/card_backs/set2/blue.gif","img/card_backs/set2/orange.gif","""event"",""trial"",""time""
""fullscreenenter"",""1"",""3007""
","
","
","""event"",""trial"",""time""
""fullscreenenter"",""1"",""3007""
","
","","432.7999999821186","","","","real_trial","2021-06-28 17:20:39.147","img/card_backs/set1/red.gif","3","100","1","",""
"casino-fixation","106","377821","0.0-25.0-0.18","929","false","img/card_backs/set1/yellow.gif","img/card_backs/set1/purple.gif","img/card_backs/set1/green.gif","img/card_backs/set1/red.gif","img/card_backs/set2/gray.gif","img/card_backs/set2/pink.gif","img/card_backs/set2/blue.gif","img/card_backs/set2/orange.gif","""event"",""trial"",""time""
""fullscreenenter"",""1"",""3007""
","
","
","""event"",""trial"",""time""
""fullscreenenter"",""1"",""3007""
","
","","null","","null","","fixation","2021-06-28 17:20:39.652","","","","","",""
"card-selection-trial","107","380299","0.0-25.0-1.18","929","false","img/card_backs/set1/yellow.gif","img/card_backs/set1/purple.gif","img/card_backs/set1/green.gif","img/card_backs/set1/red.gif","img/card_backs/set2/gray.gif","img/card_backs/set2/pink.gif","img/card_backs/set2/blue.gif","img/card_backs/set2/orange.gif","""event"",""trial"",""time""
""fullscreenenter"",""1"",""3007""
","
","
","""event"",""trial"",""time""
""fullscreenenter"",""1"",""3007""
","
","","469.59999999403954","","","","real_trial","2021-06-28 17:20:42.130","img/card_backs/set1/red.gif","3","100","1","",""
"casino-fixation","108","380800","0.0-25.0-0.19","929","false","img/card_backs/set1/yellow.gif","img/card_backs/set1/purple.gif","img/card_backs/set1/green.gif","img/card_backs/set1/red.gif","img/card_backs/set2/gray.gif","img/card_backs/set2/pink.gif","img/card_backs/set2/blue.gif","img/card_backs/set2/orange.gif","""event"",""trial"",""time""
""fullscreenenter"",""1"",""3007""
","
","
","""event"",""trial"",""time""
""fullscreenenter"",""1"",""3007""
","
","","null","","null","","fixation","2021-06-28 17:20:42.632","","","","","",""
"card-selection-trial","109","383319","0.0-25.0-1.19","929","false","img/card_backs/set1/yellow.gif","img/card_backs/set1/purple.gif","img/card_backs/set1/green.gif","img/card_backs/set1/red.gif","img/card_backs/set2/gray.gif","img/card_backs/set2/pink.gif","img/card_backs/set2/blue.gif","img/card_backs/set2/orange.gif","""event"",""trial"",""time""
""fullscreenenter"",""1"",""3007""
","
","
","""event"",""trial"",""time""
""fullscreenenter"",""1"",""3007""
","
","","512.5999999940395","","","","real_trial","2021-06-28 17:20:45.150","img/card_backs/set1/red.gif","0","100","1","",""
"casino-fixation","110","383824","0.0-25.0-0.20","929","false","img/card_backs/set1/yellow.gif","img/card_backs/set1/purple.gif","img/card_backs/set1/green.gif","img/card_backs/set1/red.gif","img/card_backs/set2/gray.gif","img/card_backs/set2/pink.gif","img/card_backs/set2/blue.gif","img/card_backs/set2/orange.gif","""event"",""trial"",""time""
""fullscreenenter"",""1"",""3007""
","
","
","""event"",""trial"",""time""
""fullscreenenter"",""1"",""3007""
","
","","null","","null","","fixation","2021-06-28 17:20:45.655","","","","","",""
"card-selection-trial","111","386407","0.0-25.0-1.20","929","false","img/card_backs/set1/yellow.gif","img/card_backs/set1/purple.gif","img/card_backs/set1/green.gif","img/card_backs/set1/red.gif","img/card_backs/set2/gray.gif","img/card_backs/set2/pink.gif","img/card_backs/set2/blue.gif","img/card_backs/set2/orange.gif","""event"",""trial"",""time""
""fullscreenenter"",""1"",""3007""
","
","
","""event"",""trial"",""time""
""fullscreenenter"",""1"",""3007""
","
","","577.5","","","","real_trial","2021-06-28 17:20:48.238","img/card_backs/set1/red.gif","2","120","1","",""
"casino-fixation","112","386912","0.0-25.0-0.21","929","false","img/card_backs/set1/yellow.gif","img/card_backs/set1/purple.gif","img/card_backs/set1/green.gif","img/card_backs/set1/red.gif","img/card_backs/set2/gray.gif","img/card_backs/set2/pink.gif","img/card_backs/set2/blue.gif","img/card_backs/set2/orange.gif","""event"",""trial"",""time""
""fullscreenenter"",""1"",""3007""
","
","
","""event"",""trial"",""time""
""fullscreenenter"",""1"",""3007""
","
","","null","","null","","fixation","2021-06-28 17:20:48.743","","","","","",""
"card-selection-trial","113","389345","0.0-25.0-1.21","929","false","img/card_backs/set1/yellow.gif","img/card_backs/set1/purple.gif","img/card_backs/set1/green.gif","img/card_backs/set1/red.gif","img/card_backs/set2/gray.gif","img/card_backs/set2/pink.gif","img/card_backs/set2/blue.gif","img/card_backs/set2/orange.gif","""event"",""trial"",""time""
""fullscreenenter"",""1"",""3007""
","
","
","""event"",""trial"",""time""
""fullscreenenter"",""1"",""3007""
","
","","425.19999998807907","","","","real_trial","2021-06-28 17:20:51.176","img/card_backs/set1/red.gif","3","120","1","",""
"casino-fixation","114","389850","0.0-25.0-0.22","929","false","img/card_backs/set1/yellow.gif","img/card_backs/set1/purple.gif","img/card_backs/set1/green.gif","img/card_backs/set1/red.gif","img/card_backs/set2/gray.gif","img/card_backs/set2/pink.gif","img/card_backs/set2/blue.gif","img/card_backs/set2/orange.gif","""event"",""trial"",""time""
""fullscreenenter"",""1"",""3007""
","
","
","""event"",""trial"",""time""
""fullscreenenter"",""1"",""3007""
","
","","null","","null","","fixation","2021-06-28 17:20:51.681","","","","","",""
"card-selection-trial","115","392496","0.0-25.0-1.22","929","false","img/card_backs/set1/yellow.gif","img/card_backs/set1/purple.gif","img/card_backs/set1/green.gif","img/card_backs/set1/red.gif","img/card_backs/set2/gray.gif","img/card_backs/set2/pink.gif","img/card_backs/set2/blue.gif","img/card_backs/set2/orange.gif","""event"",""trial"",""time""
""fullscreenenter"",""1"",""3007""
","
","
","""event"",""trial"",""time""
""fullscreenenter"",""1"",""3007""
","
","","640.0999999940395","","","","real_trial","2021-06-28 17:20:54.328","img/card_backs/set1/red.gif","2","100","1","",""
"casino-fixation","116","393002","0.0-25.0-0.23","929","false","img/card_backs/set1/yellow.gif","img/card_backs/set1/purple.gif","img/card_backs/set1/green.gif","img/card_backs/set1/red.gif","img/card_backs/set2/gray.gif","img/card_backs/set2/pink.gif","img/card_backs/set2/blue.gif","img/card_backs/set2/orange.gif","""event"",""trial"",""time""
""fullscreenenter"",""1"",""3007""
","
","
","""event"",""trial"",""time""
""fullscreenenter"",""1"",""3007""
","
","","null","","null","","fixation","2021-06-28 17:20:54.833","","","","","",""
"card-selection-trial","117","395585","0.0-25.0-1.23","929","false","img/card_backs/set1/yellow.gif","img/card_backs/set1/purple.gif","img/card_backs/set1/green.gif","img/card_backs/set1/red.gif","img/card_backs/set2/gray.gif","img/card_backs/set2/pink.gif","img/card_backs/set2/blue.gif","img/card_backs/set2/orange.gif","""event"",""trial"",""time""
""fullscreenenter"",""1"",""3007""
","
","
","""event"",""trial"",""time""
""fullscreenenter"",""1"",""3007""
","
","","575.6999999880791","","","","real_trial","2021-06-28 17:20:57.416","img/card_backs/set1/red.gif","1","-60","1","",""
"casino-fixation","118","396090","0.0-25.0-0.24","929","false","img/card_backs/set1/yellow.gif","img/card_backs/set1/purple.gif","img/card_backs/set1/green.gif","img/card_backs/set1/red.gif","img/card_backs/set2/gray.gif","img/card_backs/set2/pink.gif","img/card_backs/set2/blue.gif","img/card_backs/set2/orange.gif","""event"",""trial"",""time""
""fullscreenenter"",""1"",""3007""
","
","
","""event"",""trial"",""time""
""fullscreenenter"",""1"",""3007""
","
","","null","","null","","fixation","2021-06-28 17:20:57.921","","","","","",""
"card-selection-trial","119","398586","0.0-25.0-1.24","929","false","img/card_backs/set1/yellow.gif","img/card_backs/set1/purple.gif","img/card_backs/set1/green.gif","img/card_backs/set1/red.gif","img/card_backs/set2/gray.gif","img/card_backs/set2/pink.gif","img/card_backs/set2/blue.gif","img/card_backs/set2/orange.gif","""event"",""trial"",""time""
""fullscreenenter"",""1"",""3007""
","
","
","""event"",""trial"",""time""
""fullscreenenter"",""1"",""3007""
","
","","488.89999997615814","","","","real_trial","2021-06-28 17:21:00.417","img/card_backs/set1/red.gif","1","110","1","",""
"casino-fixation","120","399091","0.0-25.0-0.25","929","false","img/card_backs/set1/yellow.gif","img/card_backs/set1/purple.gif","img/card_backs/set1/green.gif","img/card_backs/set1/red.gif","img/card_backs/set2/gray.gif","img/card_backs/set2/pink.gif","img/card_backs/set2/blue.gif","img/card_backs/set2/orange.gif","""event"",""trial"",""time""
""fullscreenenter"",""1"",""3007""
","
","
","""event"",""trial"",""time""
""fullscreenenter"",""1"",""3007""
","
","","null","","null","","fixation","2021-06-28 17:21:00.922","","","","","",""
"card-selection-trial","121","401593","0.0-25.0-1.25","929","false","img/card_backs/set1/yellow.gif","img/card_backs/set1/purple.gif","img/card_backs/set1/green.gif","img/card_backs/set1/red.gif","img/card_backs/set2/gray.gif","img/card_backs/set2/pink.gif","img/card_backs/set2/blue.gif","img/card_backs/set2/orange.gif","""event"",""trial"",""time""
""fullscreenenter"",""1"",""3007""
","
","
","""event"",""trial"",""time""
""fullscreenenter"",""1"",""3007""
","
","","494.09999999403954","","","","real_trial","2021-06-28 17:21:03.425","img/card_backs/set1/red.gif","1","-60","1","",""
"casino-fixation","122","402098","0.0-25.0-0.26","929","false","img/card_backs/set1/yellow.gif","img/card_backs/set1/purple.gif","img/card_backs/set1/green.gif","img/card_backs/set1/red.gif","img/card_backs/set2/gray.gif","img/card_backs/set2/pink.gif","img/card_backs/set2/blue.gif","img/card_backs/set2/orange.gif","""event"",""trial"",""time""
""fullscreenenter"",""1"",""3007""
","
","
","""event"",""trial"",""time""
""fullscreenenter"",""1"",""3007""
","
","","null","","null","","fixation","2021-06-28 17:21:03.929","","","","","",""
"card-selection-trial","123","404601","0.0-25.0-1.26","929","false","img/card_backs/set1/yellow.gif","img/card_backs/set1/purple.gif","img/card_backs/set1/green.gif","img/card_backs/set1/red.gif","img/card_backs/set2/gray.gif","img/card_backs/set2/pink.gif","img/card_backs/set2/blue.gif","img/card_backs/set2/orange.gif","""event"",""trial"",""time""
""fullscreenenter"",""1"",""3007""
","
","
","""event"",""trial"",""time""
""fullscreenenter"",""1"",""3007""
","
","","497","","","","real_trial","2021-06-28 17:21:06.432","img/card_backs/set1/red.gif","1","-60","1","",""
"casino-fixation","124","405105","0.0-25.0-0.27","929","false","img/card_backs/set1/yellow.gif","img/card_backs/set1/purple.gif","img/card_backs/set1/green.gif","img/card_backs/set1/red.gif","img/card_backs/set2/gray.gif","img/card_backs/set2/pink.gif","img/card_backs/set2/blue.gif","img/card_backs/set2/orange.gif","""event"",""trial"",""time""
""fullscreenenter"",""1"",""3007""
","
","
","""event"",""trial"",""time""
""fullscreenenter"",""1"",""3007""
","
","","null","","null","","fixation","2021-06-28 17:21:06.936","","","","","",""
"card-selection-trial","125","407625","0.0-25.0-1.27","929","false","img/card_backs/set1/yellow.gif","img/card_backs/set1/purple.gif","img/card_backs/set1/green.gif","img/card_backs/set1/red.gif","img/card_backs/set2/gray.gif","img/card_backs/set2/pink.gif","img/card_backs/set2/blue.gif","img/card_backs/set2/orange.gif","""event"",""trial"",""time""
""fullscreenenter"",""1"",""3007""
","
","
","""event"",""trial"",""time""
""fullscreenenter"",""1"",""3007""
","
","","512.5999999940395","","","","real_trial","2021-06-28 17:21:09.457","img/card_backs/set1/red.gif","3","100","1","",""
"casino-fixation","126","408130","0.0-25.0-0.28","929","false","img/card_backs/set1/yellow.gif","img/card_backs/set1/purple.gif","img/card_backs/set1/green.gif","img/card_backs/set1/red.gif","img/card_backs/set2/gray.gif","img/card_backs/set2/pink.gif","img/card_backs/set2/blue.gif","img/card_backs/set2/orange.gif","""event"",""trial"",""time""
""fullscreenenter"",""1"",""3007""
","
","
","""event"",""trial"",""time""
""fullscreenenter"",""1"",""3007""
","
","","null","","null","","fixation","2021-06-28 17:21:09.961","","","","","",""
"card-selection-trial","127","410713","0.0-25.0-1.28","929","false","img/card_backs/set1/yellow.gif","img/card_backs/set1/purple.gif","img/card_backs/set1/green.gif","img/card_backs/set1/red.gif","img/card_backs/set2/gray.gif","img/card_backs/set2/pink.gif","img/card_backs/set2/blue.gif","img/card_backs/set2/orange.gif","""event"",""trial"",""time""
""fullscreenenter"",""1"",""3007""
","
","
","""event"",""trial"",""time""
""fullscreenenter"",""1"",""3007""
","
","","575.9000000059605","","","","real_trial","2021-06-28 17:21:12.545","img/card_backs/set1/red.gif","2","-50","1","",""
"casino-fixation","128","411218","0.0-25.0-0.29","929","false","img/card_backs/set1/yellow.gif","img/card_backs/set1/purple.gif","img/card_backs/set1/green.gif","img/card_backs/set1/red.gif","img/card_backs/set2/gray.gif","img/card_backs/set2/pink.gif","img/card_backs/set2/blue.gif","img/card_backs/set2/orange.gif","""event"",""trial"",""time""
""fullscreenenter"",""1"",""3007""
","
","
","""event"",""trial"",""time""
""fullscreenenter"",""1"",""3007""
","
","","null","","null","","fixation","2021-06-28 17:21:13.049","","","","","",""
"card-selection-trial","129","414104","0.0-25.0-1.29","929","false","img/card_backs/set1/yellow.gif","img/card_backs/set1/purple.gif","img/card_backs/set1/green.gif","img/card_backs/set1/red.gif","img/card_backs/set2/gray.gif","img/card_backs/set2/pink.gif","img/card_backs/set2/blue.gif","img/card_backs/set2/orange.gif","""event"",""trial"",""time""
""fullscreenenter"",""1"",""3007""
","
","
","""event"",""trial"",""time""
""fullscreenenter"",""1"",""3007""
","
","","879.5999999940395","","","","real_trial","2021-06-28 17:21:15.935","img/card_backs/set1/red.gif","0","120","1","",""
"casino-fixation","130","414609","0.0-25.0-0.30","929","false","img/card_backs/set1/yellow.gif","img/card_backs/set1/purple.gif","img/card_backs/set1/green.gif","img/card_backs/set1/red.gif","img/card_backs/set2/gray.gif","img/card_backs/set2/pink.gif","img/card_backs/set2/blue.gif","img/card_backs/set2/orange.gif","""event"",""trial"",""time""
""fullscreenenter"",""1"",""3007""
","
","
","""event"",""trial"",""time""
""fullscreenenter"",""1"",""3007""
","
","","null","","null","","fixation","2021-06-28 17:21:16.440","","","","","",""
"card-selection-trial","131","417096","0.0-25.0-1.30","929","false","img/card_backs/set1/yellow.gif","img/card_backs/set1/purple.gif","img/card_backs/set1/green.gif","img/card_backs/set1/red.gif","img/card_backs/set2/gray.gif","img/card_backs/set2/pink.gif","img/card_backs/set2/blue.gif","img/card_backs/set2/orange.gif","""event"",""trial"",""time""
""fullscreenenter"",""1"",""3007""
","
","
","""event"",""trial"",""time""
""fullscreenenter"",""1"",""3007""
","
","","481.80000001192093","","","","real_trial","2021-06-28 17:21:18.927","img/card_backs/set1/red.gif","3","110","1","",""
"casino-fixation","132","417598","0.0-25.0-0.31","929","false","img/card_backs/set1/yellow.gif","img/card_backs/set1/purple.gif","img/card_backs/set1/green.gif","img/card_backs/set1/red.gif","img/card_backs/set2/gray.gif","img/card_backs/set2/pink.gif","img/card_backs/set2/blue.gif","img/card_backs/set2/orange.gif","""event"",""trial"",""time""
""fullscreenenter"",""1"",""3007""
","
","
","""event"",""trial"",""time""
""fullscreenenter"",""1"",""3007""
","
","","null","","null","","fixation","2021-06-28 17:21:19.429","","","","","",""
"card-selection-trial","133","420216","0.0-25.0-1.31","929","false","img/card_backs/set1/yellow.gif","img/card_backs/set1/purple.gif","img/card_backs/set1/green.gif","img/card_backs/set1/red.gif","img/card_backs/set2/gray.gif","img/card_backs/set2/pink.gif","img/card_backs/set2/blue.gif","img/card_backs/set2/orange.gif","""event"",""trial"",""time""
""fullscreenenter"",""1"",""3007""
","
","
","""event"",""trial"",""time""
""fullscreenenter"",""1"",""3007""
","
","","611.7000000178814","","","","real_trial","2021-06-28 17:21:22.047","img/card_backs/set1/red.gif","0","110","1","",""
"casino-fixation","134","420721","0.0-25.0-0.32","929","false","img/card_backs/set1/yellow.gif","img/card_backs/set1/purple.gif","img/card_backs/set1/green.gif","img/card_backs/set1/red.gif","img/card_backs/set2/gray.gif","img/card_backs/set2/pink.gif","img/card_backs/set2/blue.gif","img/card_backs/set2/orange.gif","""event"",""trial"",""time""
""fullscreenenter"",""1"",""3007""
","
","
","""event"",""trial"",""time""
""fullscreenenter"",""1"",""3007""
","
","","null","","null","","fixation","2021-06-28 17:21:22.552","","","","","",""
"card-selection-trial","135","423328","0.0-25.0-1.32","929","false","img/card_backs/set1/yellow.gif","img/card_backs/set1/purple.gif","img/card_backs/set1/green.gif","img/card_backs/set1/red.gif","img/card_backs/set2/gray.gif","img/card_backs/set2/pink.gif","img/card_backs/set2/blue.gif","img/card_backs/set2/orange.gif","""event"",""trial"",""time""
""fullscreenenter"",""1"",""3007""
","
","
","""event"",""trial"",""time""
""fullscreenenter"",""1"",""3007""
","
","","600.9000000059605","","","","real_trial","2021-06-28 17:21:25.159","img/card_backs/set1/red.gif","2","110","1","",""
"casino-fixation","136","423833","0.0-25.0-0.33","929","false","img/card_backs/set1/yellow.gif","img/card_backs/set1/purple.gif","img/card_backs/set1/green.gif","img/card_backs/set1/red.gif","img/card_backs/set2/gray.gif","img/card_backs/set2/pink.gif","img/card_backs/set2/blue.gif","img/card_backs/set2/orange.gif","""event"",""trial"",""time""
""fullscreenenter"",""1"",""3007""
","
","
","""event"",""trial"",""time""
""fullscreenenter"",""1"",""3007""
","
","","null","","null","","fixation","2021-06-28 17:21:25.664","","","","","",""
"card-selection-trial","137","426411","0.0-25.0-1.33","929","false","img/card_backs/set1/yellow.gif","img/card_backs/set1/purple.gif","img/card_backs/set1/green.gif","img/card_backs/set1/red.gif","img/card_backs/set2/gray.gif","img/card_backs/set2/pink.gif","img/card_backs/set2/blue.gif","img/card_backs/set2/orange.gif","""event"",""trial"",""time""
""fullscreenenter"",""1"",""3007""
","
","
","""event"",""trial"",""time""
""fullscreenenter"",""1"",""3007""
","
","","569.0999999940395","","","","real_trial","2021-06-28 17:21:28.242","img/card_backs/set1/red.gif","0","120","1","",""
"casino-fixation","138","426914","0.0-25.0-0.34","929","false","img/card_backs/set1/yellow.gif","img/card_backs/set1/purple.gif","img/card_backs/set1/green.gif","img/card_backs/set1/red.gif","img/card_backs/set2/gray.gif","img/card_backs/set2/pink.gif","img/card_backs/set2/blue.gif","img/card_backs/set2/orange.gif","""event"",""trial"",""time""
""fullscreenenter"",""1"",""3007""
","
","
","""event"",""trial"",""time""
""fullscreenenter"",""1"",""3007""
","
","","null","","null","","fixation","2021-06-28 17:21:28.745","","","","","",""
"card-selection-trial","139","429406","0.0-25.0-1.34","929","false","img/card_backs/set1/yellow.gif","img/card_backs/set1/purple.gif","img/card_backs/set1/green.gif","img/card_backs/set1/red.gif","img/card_backs/set2/gray.gif","img/card_backs/set2/pink.gif","img/card_backs/set2/blue.gif","img/card_backs/set2/orange.gif","""event"",""trial"",""time""
""fullscreenenter"",""1"",""3007""
","
","
","""event"",""trial"",""time""
""fullscreenenter"",""1"",""3007""
","
","","488.2000000178814","","","","real_trial","2021-06-28 17:21:31.237","img/card_backs/set1/red.gif","3","120","1","",""
"casino-fixation","140","429911","0.0-25.0-0.35","929","false","img/card_backs/set1/yellow.gif","img/card_backs/set1/purple.gif","img/card_backs/set1/green.gif","img/card_backs/set1/red.gif","img/card_backs/set2/gray.gif","img/card_backs/set2/pink.gif","img/card_backs/set2/blue.gif","img/card_backs/set2/orange.gif","""event"",""trial"",""time""
""fullscreenenter"",""1"",""3007""
","
","
","""event"",""trial"",""time""
""fullscreenenter"",""1"",""3007""
","
","","null","","null","","fixation","2021-06-28 17:21:31.742","","","","","",""
"card-selection-trial","141","432401","0.0-25.0-1.35","929","false","img/card_backs/set1/yellow.gif","img/card_backs/set1/purple.gif","img/card_backs/set1/green.gif","img/card_backs/set1/red.gif","img/card_backs/set2/gray.gif","img/card_backs/set2/pink.gif","img/card_backs/set2/blue.gif","img/card_backs/set2/orange.gif","""event"",""trial"",""time""
""fullscreenenter"",""1"",""3007""
","
","
","""event"",""trial"",""time""
""fullscreenenter"",""1"",""3007""
","
","","483.30000001192093","","","","real_trial","2021-06-28 17:21:34.232","img/card_backs/set1/red.gif","0","100","1","",""
"casino-fixation","142","432906","0.0-25.0-0.36","929","false","img/card_backs/set1/yellow.gif","img/card_backs/set1/purple.gif","img/card_backs/set1/green.gif","img/card_backs/set1/red.gif","img/card_backs/set2/gray.gif","img/card_backs/set2/pink.gif","img/card_backs/set2/blue.gif","img/card_backs/set2/orange.gif","""event"",""trial"",""time""
""fullscreenenter"",""1"",""3007""
","
","
","""event"",""trial"",""time""
""fullscreenenter"",""1"",""3007""
","
","","null","","null","","fixation","2021-06-28 17:21:34.737","","","","","",""
"card-selection-trial","143","435452","0.0-25.0-1.36","929","false","img/card_backs/set1/yellow.gif","img/card_backs/set1/purple.gif","img/card_backs/set1/green.gif","img/card_backs/set1/red.gif","img/card_backs/set2/gray.gif","img/card_backs/set2/pink.gif","img/card_backs/set2/blue.gif","img/card_backs/set2/orange.gif","""event"",""trial"",""time""
""fullscreenenter"",""1"",""3007""
","
","
","""event"",""trial"",""time""
""fullscreenenter"",""1"",""3007""
","
","","537.5999999940395","","","","real_trial","2021-06-28 17:21:37.283","img/card_backs/set1/red.gif","0","110","1","",""
"casino-fixation","144","435954","0.0-25.0-0.37","929","false","img/card_backs/set1/yellow.gif","img/card_backs/set1/purple.gif","img/card_backs/set1/green.gif","img/card_backs/set1/red.gif","img/card_backs/set2/gray.gif","img/card_backs/set2/pink.gif","img/card_backs/set2/blue.gif","img/card_backs/set2/orange.gif","""event"",""trial"",""time""
""fullscreenenter"",""1"",""3007""
","
","
","""event"",""trial"",""time""
""fullscreenenter"",""1"",""3007""
","
","","null","","null","","fixation","2021-06-28 17:21:37.785","","","","","",""
"card-selection-trial","145","438607","0.0-25.0-1.37","929","false","img/card_backs/set1/yellow.gif","img/card_backs/set1/purple.gif","img/card_backs/set1/green.gif","img/card_backs/set1/red.gif","img/card_backs/set2/gray.gif","img/card_backs/set2/pink.gif","img/card_backs/set2/blue.gif","img/card_backs/set2/orange.gif","""event"",""trial"",""time""
""fullscreenenter"",""1"",""3007""
","
","
","""event"",""trial"",""time""
""fullscreenenter"",""1"",""3007""
","
","","648.3000000119209","","","","real_trial","2021-06-28 17:21:40.438","img/card_backs/set1/red.gif","2","100","1","",""
"casino-fixation","146","439112","0.0-25.0-0.38","929","false","img/card_backs/set1/yellow.gif","img/card_backs/set1/purple.gif","img/card_backs/set1/green.gif","img/card_backs/set1/red.gif","img/card_backs/set2/gray.gif","img/card_backs/set2/pink.gif","img/card_backs/set2/blue.gif","img/card_backs/set2/orange.gif","""event"",""trial"",""time""
""fullscreenenter"",""1"",""3007""
","
","
","""event"",""trial"",""time""
""fullscreenenter"",""1"",""3007""
","
","","null","","null","","fixation","2021-06-28 17:21:40.943","","","","","",""
"card-selection-trial","147","441545","0.0-25.0-1.38","929","false","img/card_backs/set1/yellow.gif","img/card_backs/set1/purple.gif","img/card_backs/set1/green.gif","img/card_backs/set1/red.gif","img/card_backs/set2/gray.gif","img/card_backs/set2/pink.gif","img/card_backs/set2/blue.gif","img/card_backs/set2/orange.gif","""event"",""trial"",""time""
""fullscreenenter"",""1"",""3007""
","
","
","""event"",""trial"",""time""
""fullscreenenter"",""1"",""3007""
","
","","429","","","","real_trial","2021-06-28 17:21:43.376","img/card_backs/set1/red.gif","2","120","1","",""
"casino-fixation","148","442050","0.0-25.0-0.39","929","false","img/card_backs/set1/yellow.gif","img/card_backs/set1/purple.gif","img/card_backs/set1/green.gif","img/card_backs/set1/red.gif","img/card_backs/set2/gray.gif","img/card_backs/set2/pink.gif","img/card_backs/set2/blue.gif","img/card_backs/set2/orange.gif","""event"",""trial"",""time""
""fullscreenenter"",""1"",""3007""
","
","
","""event"",""trial"",""time""
""fullscreenenter"",""1"",""3007""
","
","","null","","null","","fixation","2021-06-28 17:21:43.881","","","","","",""
"card-selection-trial","149","444575","0.0-25.0-1.39","929","false","img/card_backs/set1/yellow.gif","img/card_backs/set1/purple.gif","img/card_backs/set1/green.gif","img/card_backs/set1/red.gif","img/card_backs/set2/gray.gif","img/card_backs/set2/pink.gif","img/card_backs/set2/blue.gif","img/card_backs/set2/orange.gif","""event"",""trial"",""time""
""fullscreenenter"",""1"",""3007""
","
","
","""event"",""trial"",""time""
""fullscreenenter"",""1"",""3007""
","
","","521.1999999880791","","","","real_trial","2021-06-28 17:21:46.406","img/card_backs/set1/red.gif","3","-70","1","",""
"casino-fixation","150","445080","0.0-25.0-0.40","929","false","img/card_backs/set1/yellow.gif","img/card_backs/set1/purple.gif","img/card_backs/set1/green.gif","img/card_backs/set1/red.gif","img/card_backs/set2/gray.gif","img/card_backs/set2/pink.gif","img/card_backs/set2/blue.gif","img/card_backs/set2/orange.gif","""event"",""trial"",""time""
""fullscreenenter"",""1"",""3007""
","
","
","""event"",""trial"",""time""
""fullscreenenter"",""1"",""3007""
","
","","null","","null","","fixation","2021-06-28 17:21:46.911","","","","","",""
"card-selection-trial","151","447640","0.0-25.0-1.40","929","false","img/card_backs/set1/yellow.gif","img/card_backs/set1/purple.gif","img/card_backs/set1/green.gif","img/card_backs/set1/red.gif","img/card_backs/set2/gray.gif","img/card_backs/set2/pink.gif","img/card_backs/set2/blue.gif","img/card_backs/set2/orange.gif","""event"",""trial"",""time""
""fullscreenenter"",""1"",""3007""
","
","
","""event"",""trial"",""time""
""fullscreenenter"",""1"",""3007""
","
","","556.5999999940395","","","","real_trial","2021-06-28 17:21:49.471","img/card_backs/set1/red.gif","3","120","1","",""
"casino-fixation","152","448145","0.0-25.0-0.41","929","false","img/card_backs/set1/yellow.gif","img/card_backs/set1/purple.gif","img/card_backs/set1/green.gif","img/card_backs/set1/red.gif","img/card_backs/set2/gray.gif","img/card_backs/set2/pink.gif","img/card_backs/set2/blue.gif","img/card_backs/set2/orange.gif","""event"",""trial"",""time""
""fullscreenenter"",""1"",""3007""
","
","
","""event"",""trial"",""time""
""fullscreenenter"",""1"",""3007""
","
","","null","","null","","fixation","2021-06-28 17:21:49.976","","","","","",""
"card-selection-trial","153","450648","0.0-25.0-1.41","929","false","img/card_backs/set1/yellow.gif","img/card_backs/set1/purple.gif","img/card_backs/set1/green.gif","img/card_backs/set1/red.gif","img/card_backs/set2/gray.gif","img/card_backs/set2/pink.gif","img/card_backs/set2/blue.gif","img/card_backs/set2/orange.gif","""event"",""trial"",""time""
""fullscreenenter"",""1"",""3007""
","
","
","""event"",""trial"",""time""
""fullscreenenter"",""1"",""3007""
","
","","497.90000000596046","","","","real_trial","2021-06-28 17:21:52.479","img/card_backs/set1/red.gif","1","-60","1","",""
"casino-fixation","154","451152","0.0-25.0-0.42","929","false","img/card_backs/set1/yellow.gif","img/card_backs/set1/purple.gif","img/card_backs/set1/green.gif","img/card_backs/set1/red.gif","img/card_backs/set2/gray.gif","img/card_backs/set2/pink.gif","img/card_backs/set2/blue.gif","img/card_backs/set2/orange.gif","""event"",""trial"",""time""
""fullscreenenter"",""1"",""3007""
","
","
","""event"",""trial"",""time""
""fullscreenenter"",""1"",""3007""
","
","","null","","null","","fixation","2021-06-28 17:21:52.983","","","","","",""
"card-selection-trial","155","453730","0.0-25.0-1.42","929","false","img/card_backs/set1/yellow.gif","img/card_backs/set1/purple.gif","img/card_backs/set1/green.gif","img/card_backs/set1/red.gif","img/card_backs/set2/gray.gif","img/card_backs/set2/pink.gif","img/card_backs/set2/blue.gif","img/card_backs/set2/orange.gif","""event"",""trial"",""time""
""fullscreenenter"",""1"",""3007""
","
","
","""event"",""trial"",""time""
""fullscreenenter"",""1"",""3007""
","
","","572.9000000059605","","","","real_trial","2021-06-28 17:21:55.561","img/card_backs/set1/red.gif","1","120","1","",""
"casino-fixation","156","454235","0.0-25.0-0.43","929","false","img/card_backs/set1/yellow.gif","img/card_backs/set1/purple.gif","img/card_backs/set1/green.gif","img/card_backs/set1/red.gif","img/card_backs/set2/gray.gif","img/card_backs/set2/pink.gif","img/card_backs/set2/blue.gif","img/card_backs/set2/orange.gif","""event"",""trial"",""time""
""fullscreenenter"",""1"",""3007""
","
","
","""event"",""trial"",""time""
""fullscreenenter"",""1"",""3007""
","
","","null","","null","","fixation","2021-06-28 17:21:56.066","","","","","",""
"card-selection-trial","157","456730","0.0-25.0-1.43","929","false","img/card_backs/set1/yellow.gif","img/card_backs/set1/purple.gif","img/card_backs/set1/green.gif","img/card_backs/set1/red.gif","img/card_backs/set2/gray.gif","img/card_backs/set2/pink.gif","img/card_backs/set2/blue.gif","img/card_backs/set2/orange.gif","""event"",""trial"",""time""
""fullscreenenter"",""1"",""3007""
","
","
","""event"",""trial"",""time""
""fullscreenenter"",""1"",""3007""
","
","","488.59999999403954","","","","real_trial","2021-06-28 17:21:58.561","img/card_backs/set1/red.gif","3","-70","1","",""
"casino-fixation","158","457236","0.0-25.0-0.44","929","false","img/card_backs/set1/yellow.gif","img/card_backs/set1/purple.gif","img/card_backs/set1/green.gif","img/card_backs/set1/red.gif","img/card_backs/set2/gray.gif","img/card_backs/set2/pink.gif","img/card_backs/set2/blue.gif","img/card_backs/set2/orange.gif","""event"",""trial"",""time""
""fullscreenenter"",""1"",""3007""
","
","
","""event"",""trial"",""time""
""fullscreenenter"",""1"",""3007""
","
","","null","","null","","fixation","2021-06-28 17:21:59.068","","","","","",""
"card-selection-trial","159","460057","0.0-25.0-1.44","929","false","img/card_backs/set1/yellow.gif","img/card_backs/set1/purple.gif","img/card_backs/set1/green.gif","img/card_backs/set1/red.gif","img/card_backs/set2/gray.gif","img/card_backs/set2/pink.gif","img/card_backs/set2/blue.gif","img/card_backs/set2/orange.gif","""event"",""trial"",""time""
""fullscreenenter"",""1"",""3007""
","
","
","""event"",""trial"",""time""
""fullscreenenter"",""1"",""3007""
","
","","814.6999999880791","","","","real_trial","2021-06-28 17:22:01.888","img/card_backs/set1/red.gif","0","-50","1","",""
"casino-fixation","160","460562","0.0-25.0-0.45","929","false","img/card_backs/set1/yellow.gif","img/card_backs/set1/purple.gif","img/card_backs/set1/green.gif","img/card_backs/set1/red.gif","img/card_backs/set2/gray.gif","img/card_backs/set2/pink.gif","img/card_backs/set2/blue.gif","img/card_backs/set2/orange.gif","""event"",""trial"",""time""
""fullscreenenter"",""1"",""3007""
","
","
","""event"",""trial"",""time""
""fullscreenenter"",""1"",""3007""
","
","","null","","null","","fixation","2021-06-28 17:22:02.393","","","","","",""
"card-selection-trial","161","463012","0.0-25.0-1.45","929","false","img/card_backs/set1/yellow.gif","img/card_backs/set1/purple.gif","img/card_backs/set1/green.gif","img/card_backs/set1/red.gif","img/card_backs/set2/gray.gif","img/card_backs/set2/pink.gif","img/card_backs/set2/blue.gif","img/card_backs/set2/orange.gif","""event"",""trial"",""time""
""fullscreenenter"",""1"",""3007""
","
","
","""event"",""trial"",""time""
""fullscreenenter"",""1"",""3007""
","
","","441.09999999403954","","","","real_trial","2021-06-28 17:22:04.843","img/card_backs/set1/red.gif","1","-50","1","",""
"casino-fixation","162","463517","0.0-25.0-0.46","929","false","img/card_backs/set1/yellow.gif","img/card_backs/set1/purple.gif","img/card_backs/set1/green.gif","img/card_backs/set1/red.gif","img/card_backs/set2/gray.gif","img/card_backs/set2/pink.gif","img/card_backs/set2/blue.gif","img/card_backs/set2/orange.gif","""event"",""trial"",""time""
""fullscreenenter"",""1"",""3007""
","
","
","""event"",""trial"",""time""
""fullscreenenter"",""1"",""3007""
","
","","null","","null","","fixation","2021-06-28 17:22:05.348","","","","","",""
"card-selection-trial","163","466164","0.0-25.0-1.46","929","false","img/card_backs/set1/yellow.gif","img/card_backs/set1/purple.gif","img/card_backs/set1/green.gif","img/card_backs/set1/red.gif","img/card_backs/set2/gray.gif","img/card_backs/set2/pink.gif","img/card_backs/set2/blue.gif","img/card_backs/set2/orange.gif","""event"",""trial"",""time""
""fullscreenenter"",""1"",""3007""
","
","
","""event"",""trial"",""time""
""fullscreenenter"",""1"",""3007""
","
","","638.5","","","","real_trial","2021-06-28 17:22:07.995","img/card_backs/set1/red.gif","0","100","1","",""
"casino-fixation","164","466669","0.0-25.0-0.47","929","false","img/card_backs/set1/yellow.gif","img/card_backs/set1/purple.gif","img/card_backs/set1/green.gif","img/card_backs/set1/red.gif","img/card_backs/set2/gray.gif","img/card_backs/set2/pink.gif","img/card_backs/set2/blue.gif","img/card_backs/set2/orange.gif","""event"",""trial"",""time""
""fullscreenenter"",""1"",""3007""
","
","
","""event"",""trial"",""time""
""fullscreenenter"",""1"",""3007""
","
","","null","","null","","fixation","2021-06-28 17:22:08.500","","","","","",""
"card-selection-trial","165","469137","0.0-25.0-1.47","929","false","img/card_backs/set1/yellow.gif","img/card_backs/set1/purple.gif","img/card_backs/set1/green.gif","img/card_backs/set1/red.gif","img/card_backs/set2/gray.gif","img/card_backs/set2/pink.gif","img/card_backs/set2/blue.gif","img/card_backs/set2/orange.gif","""event"",""trial"",""time""
""fullscreenenter"",""1"",""3007""
","
","
","""event"",""trial"",""time""
""fullscreenenter"",""1"",""3007""
","
","","462.39999997615814","","","","real_trial","2021-06-28 17:22:10.968","img/card_backs/set1/red.gif","3","-70","1","",""
"casino-fixation","166","469642","0.0-25.0-0.48","929","false","img/card_backs/set1/yellow.gif","img/card_backs/set1/purple.gif","img/card_backs/set1/green.gif","img/card_backs/set1/red.gif","img/card_backs/set2/gray.gif","img/card_backs/set2/pink.gif","img/card_backs/set2/blue.gif","img/card_backs/set2/orange.gif","""event"",""trial"",""time""
""fullscreenenter"",""1"",""3007""
","
","
","""event"",""trial"",""time""
""fullscreenenter"",""1"",""3007""
","
","","null","","null","","fixation","2021-06-28 17:22:11.473","","","","","",""
"card-selection-trial","167","472219","0.0-25.0-1.48","929","false","img/card_backs/set1/yellow.gif","img/card_backs/set1/purple.gif","img/card_backs/set1/green.gif","img/card_backs/set1/red.gif","img/card_backs/set2/gray.gif","img/card_backs/set2/pink.gif","img/card_backs/set2/blue.gif","img/card_backs/set2/orange.gif","""event"",""trial"",""time""
""fullscreenenter"",""1"",""3007""
","
","
","""event"",""trial"",""time""
""fullscreenenter"",""1"",""3007""
","
","","571.5","","","","real_trial","2021-06-28 17:22:14.050","img/card_backs/set1/red.gif","3","-50","1","",""
