"trial_type","trial_index","time_elapsed","internal_node_id","sub_id","risk_good_first","block1_A","block1_B","block1_C","block1_D","block2_A","block2_B","block2_C","block2_D","interactions","blur_events","focus_events","fullscreenenter_events","fullscreenexit_events","success","rt","stimulus","key_press","button_pressed","task_part","timestamp","card_choice","choice_position","points_earned","block","correct","response"
"pavlovia","0","4","0.0-0.0","A1380","true","img/card_backs/set1/yellow.gif","img/card_backs/set1/purple.gif","img/card_backs/set1/green.gif","img/card_backs/set1/red.gif","img/card_backs/set2/blue.gif","img/card_backs/set2/gray.gif","img/card_backs/set2/orange.gif","img/card_backs/set2/pink.gif","""event"",""trial"",""time""
""fullscreenenter"",""1"",""2413""
","
","
","""event"",""trial"",""time""
""fullscreenenter"",""1"",""2413""
","
","","","","","","","","","","","","",""
"fullscreen","1","3344","0.0-1.0","A1380","true","img/card_backs/set1/yellow.gif","img/card_backs/set1/purple.gif","img/card_backs/set1/green.gif","img/card_backs/set1/red.gif","img/card_backs/set2/blue.gif","img/card_backs/set2/gray.gif","img/card_backs/set2/orange.gif","img/card_backs/set2/pink.gif","""event"",""trial"",""time""
""fullscreenenter"",""1"",""2413""
","
","
","""event"",""trial"",""time""
""fullscreenenter"",""1"",""2413""
","
","true","","","","","","","","","","","",""
"audio-keyboard-response","2","5187","0.0-2.0","A1380","true","img/card_backs/set1/yellow.gif","img/card_backs/set1/purple.gif","img/card_backs/set1/green.gif","img/card_backs/set1/red.gif","img/card_backs/set2/blue.gif","img/card_backs/set2/gray.gif","img/card_backs/set2/orange.gif","img/card_backs/set2/pink.gif","""event"",""trial"",""time""
""fullscreenenter"",""1"",""2413""
","
","
","""event"",""trial"",""time""
""fullscreenenter"",""1"",""2413""
","
","","0","audio/beep_loop.wav","32","","","","","","","","",""
"audio-button-response","3","8737","0.0-3.0","A1380","true","img/card_backs/set1/yellow.gif","img/card_backs/set1/purple.gif","img/card_backs/set1/green.gif","img/card_backs/set1/red.gif","img/card_backs/set2/blue.gif","img/card_backs/set2/gray.gif","img/card_backs/set2/orange.gif","img/card_backs/set2/pink.gif","""event"",""trial"",""time""
""fullscreenenter"",""1"",""2413""
","
","
","""event"",""trial"",""time""
""fullscreenenter"",""1"",""2413""
","
","","NaN","audio/turtle.mp3","","3","","","","","","","",""
"audio-button-response","4","12117","0.0-4.0","A1380","true","img/card_backs/set1/yellow.gif","img/card_backs/set1/purple.gif","img/card_backs/set1/green.gif","img/card_backs/set1/red.gif","img/card_backs/set2/blue.gif","img/card_backs/set2/gray.gif","img/card_backs/set2/orange.gif","img/card_backs/set2/pink.gif","""event"",""trial"",""time""
""fullscreenenter"",""1"",""2413""
","
","
","""event"",""trial"",""time""
""fullscreenenter"",""1"",""2413""
","
","","NaN","audio/shark.mp3","","2","","","","","","","",""
"fullscreen","5","16118","0.0-5.0","A1380","true","img/card_backs/set1/yellow.gif","img/card_backs/set1/purple.gif","img/card_backs/set1/green.gif","img/card_backs/set1/red.gif","img/card_backs/set2/blue.gif","img/card_backs/set2/gray.gif","img/card_backs/set2/orange.gif","img/card_backs/set2/pink.gif","""event"",""trial"",""time""
""fullscreenenter"",""1"",""2413""
","
","
","""event"",""trial"",""time""
""fullscreenenter"",""1"",""2413""
","
","true","","","","","","","","","","","",""
"casino-keyboard-response","6","19720","0.0-6.0-0.0","A1380","true","img/card_backs/set1/yellow.gif","img/card_backs/set1/purple.gif","img/card_backs/set1/green.gif","img/card_backs/set1/red.gif","img/card_backs/set2/blue.gif","img/card_backs/set2/gray.gif","img/card_backs/set2/orange.gif","img/card_backs/set2/pink.gif","""event"",""trial"",""time""
""fullscreenenter"",""1"",""2413""
","
","
","""event"",""trial"",""time""
""fullscreenenter"",""1"",""2413""
","
","","3600","Welcome to the casino!","71","","instructions","2021-07-13 18:14:22.904","","","","","",""
"casino-keyboard-response","7","39543","0.0-6.0-0.1","A1380","true","img/card_backs/set1/yellow.gif","img/card_backs/set1/purple.gif","img/card_backs/set1/green.gif","img/card_backs/set1/red.gif","img/card_backs/set2/blue.gif","img/card_backs/set2/gray.gif","img/card_backs/set2/orange.gif","img/card_backs/set2/pink.gif","""event"",""trial"",""time""
""fullscreenenter"",""1"",""2413""
","
","
","""event"",""trial"",""time""
""fullscreenenter"",""1"",""2413""
","
","","19822","Today you will be playing a game to earn tokens. </br> At the end of the experiment, you will be paid a bonus based on how many tokens you win. ","69","","instructions","2021-07-13 18:14:42.727","","","","","",""
"casino-keyboard-response","8","56104","0.0-6.0-0.2","A1380","true","img/card_backs/set1/yellow.gif","img/card_backs/set1/purple.gif","img/card_backs/set1/green.gif","img/card_backs/set1/red.gif","img/card_backs/set2/blue.gif","img/card_backs/set2/gray.gif","img/card_backs/set2/orange.gif","img/card_backs/set2/pink.gif","""event"",""trial"",""time""
""fullscreenenter"",""1"",""2413""
","
","
","""event"",""trial"",""time""
""fullscreenenter"",""1"",""2413""
","
","","16560","On every turn, you will be shown four different decks of cards. </br> You need to select a card from one of the four decks.  ","75","","instructions","2021-07-13 18:14:59.288","","","","","",""
"casino-keyboard-response","9","61323","0.0-6.0-0.3","A1380","true","img/card_backs/set1/yellow.gif","img/card_backs/set1/purple.gif","img/card_backs/set1/green.gif","img/card_backs/set1/red.gif","img/card_backs/set2/blue.gif","img/card_backs/set2/gray.gif","img/card_backs/set2/orange.gif","img/card_backs/set2/pink.gif","""event"",""trial"",""time""
""fullscreenenter"",""1"",""2413""
","
","
","""event"",""trial"",""time""
""fullscreenenter"",""1"",""2413""
","
","","5217","On the next screen, you will see what the decks will look like. ","66","","instructions","2021-07-13 18:15:04.508","","","","","",""
"card-selection-trial","10","65329","0.0-7.0-0.0","A1380","true","img/card_backs/set1/yellow.gif","img/card_backs/set1/purple.gif","img/card_backs/set1/green.gif","img/card_backs/set1/red.gif","img/card_backs/set2/blue.gif","img/card_backs/set2/gray.gif","img/card_backs/set2/orange.gif","img/card_backs/set2/pink.gif","""event"",""trial"",""time""
""fullscreenenter"",""1"",""2413""
","
","
","""event"",""trial"",""time""
""fullscreenenter"",""1"",""2413""
","
","","null","","","","practice","2021-07-13 18:15:08.514","null","null","null","0","",""
"casino-keyboard-response","11","78537","0.0-8.0-0.0","A1380","true","img/card_backs/set1/yellow.gif","img/card_backs/set1/purple.gif","img/card_backs/set1/green.gif","img/card_backs/set1/red.gif","img/card_backs/set2/blue.gif","img/card_backs/set2/gray.gif","img/card_backs/set2/orange.gif","img/card_backs/set2/pink.gif","""event"",""trial"",""time""
""fullscreenenter"",""1"",""2413""
","
","
","""event"",""trial"",""time""
""fullscreenenter"",""1"",""2413""
","
","","13205","You should pick a card from a deck using the '2', '4', '6', and '8' keys at the top of the keyboard.","85","","instructions","2021-07-13 18:15:21.721","","","","","",""
"casino-keyboard-response","12","84297","0.0-8.0-0.1","A1380","true","img/card_backs/set1/yellow.gif","img/card_backs/set1/purple.gif","img/card_backs/set1/green.gif","img/card_backs/set1/red.gif","img/card_backs/set2/blue.gif","img/card_backs/set2/gray.gif","img/card_backs/set2/orange.gif","img/card_backs/set2/pink.gif","""event"",""trial"",""time""
""fullscreenenter"",""1"",""2413""
","
","
","""event"",""trial"",""time""
""fullscreenenter"",""1"",""2413""
","
","","5758","Once you select a card, it will turn over and you will see how many tokens you earned.","83","","instructions","2021-07-13 18:15:27.481","","","","","",""
"casino-keyboard-response","13","100430","0.0-8.0-0.2","A1380","true","img/card_backs/set1/yellow.gif","img/card_backs/set1/purple.gif","img/card_backs/set1/green.gif","img/card_backs/set1/red.gif","img/card_backs/set2/blue.gif","img/card_backs/set2/gray.gif","img/card_backs/set2/orange.gif","img/card_backs/set2/pink.gif","""event"",""trial"",""time""
""fullscreenenter"",""1"",""2413""
","
","
","""event"",""trial"",""time""
""fullscreenenter"",""1"",""2413""
","
","","16131","Let's try practicing that! </br> First, try to put your fingers over the '2', '4', '6', and '8' keys. </br>  You can use whatever fingers are most comfortable for you. Try to find a comfortable position now. ","50","","instructions","2021-07-13 18:15:43.614","","","","","",""
"casino-keyboard-response","14","106347","0.0-8.0-0.3","A1380","true","img/card_backs/set1/yellow.gif","img/card_backs/set1/purple.gif","img/card_backs/set1/green.gif","img/card_backs/set1/red.gif","img/card_backs/set2/blue.gif","img/card_backs/set2/gray.gif","img/card_backs/set2/orange.gif","img/card_backs/set2/pink.gif","""event"",""trial"",""time""
""fullscreenenter"",""1"",""2413""
","
","
","""event"",""trial"",""time""
""fullscreenenter"",""1"",""2413""
","
","","5915.000000000015","Okay ready? </br> On the next screen, press '2' to select the left deck. ","50","","instructions","2021-07-13 18:15:49.531","","","","","",""
"card-selection-trial","15","109564","0.0-9.0-0.0","A1380","true","img/card_backs/set1/yellow.gif","img/card_backs/set1/purple.gif","img/card_backs/set1/green.gif","img/card_backs/set1/red.gif","img/card_backs/set2/blue.gif","img/card_backs/set2/gray.gif","img/card_backs/set2/orange.gif","img/card_backs/set2/pink.gif","""event"",""trial"",""time""
""fullscreenenter"",""1"",""2413""
","
","
","""event"",""trial"",""time""
""fullscreenenter"",""1"",""2413""
","
","","1137","","","","practice_card_selection","2021-07-13 18:15:52.748","img/practice_cards/backs/black.gif","0","-100","","",""
"casino-keyboard-response","16","115636","0.0-10.0-0.0","A1380","true","img/card_backs/set1/yellow.gif","img/card_backs/set1/purple.gif","img/card_backs/set1/green.gif","img/card_backs/set1/red.gif","img/card_backs/set2/blue.gif","img/card_backs/set2/gray.gif","img/card_backs/set2/orange.gif","img/card_backs/set2/pink.gif","""event"",""trial"",""time""
""fullscreenenter"",""1"",""2413""
","
","
","""event"",""trial"",""time""
""fullscreenenter"",""1"",""2413""
","
","","6069.000000000015","Great! Now on the next screen, try pressing '6' to select the third deck.","54","","instructions","2021-07-13 18:15:58.820","","","","","",""
"card-selection-trial","17","118924","0.0-11.0-0.0","A1380","true","img/card_backs/set1/yellow.gif","img/card_backs/set1/purple.gif","img/card_backs/set1/green.gif","img/card_backs/set1/red.gif","img/card_backs/set2/blue.gif","img/card_backs/set2/gray.gif","img/card_backs/set2/orange.gif","img/card_backs/set2/pink.gif","""event"",""trial"",""time""
""fullscreenenter"",""1"",""2413""
","
","
","""event"",""trial"",""time""
""fullscreenenter"",""1"",""2413""
","
","","1215","","","","practice_card_selection","2021-07-13 18:16:02.108","img/practice_cards/backs/dark_green.gif","2","-200","","",""
"casino-keyboard-response","18","124010","0.0-12.0-0.0","A1380","true","img/card_backs/set1/yellow.gif","img/card_backs/set1/purple.gif","img/card_backs/set1/green.gif","img/card_backs/set1/red.gif","img/card_backs/set2/blue.gif","img/card_backs/set2/gray.gif","img/card_backs/set2/orange.gif","img/card_backs/set2/pink.gif","""event"",""trial"",""time""
""fullscreenenter"",""1"",""2413""
","
","
","""event"",""trial"",""time""
""fullscreenenter"",""1"",""2413""
","
","","5084","Now on the next screen, try pressing '4' to select the second deck.","52","","instructions","2021-07-13 18:16:07.194","","","","","",""
"card-selection-trial","19","126956","0.0-13.0-0.0","A1380","true","img/card_backs/set1/yellow.gif","img/card_backs/set1/purple.gif","img/card_backs/set1/green.gif","img/card_backs/set1/red.gif","img/card_backs/set2/blue.gif","img/card_backs/set2/gray.gif","img/card_backs/set2/orange.gif","img/card_backs/set2/pink.gif","""event"",""trial"",""time""
""fullscreenenter"",""1"",""2413""
","
","
","""event"",""trial"",""time""
""fullscreenenter"",""1"",""2413""
","
","","877","","","","practice_card_selection","2021-07-13 18:16:10.140","img/practice_cards/backs/black.gif","1","-100","","",""
"casino-keyboard-response","20","131615","0.0-14.0-0.0","A1380","true","img/card_backs/set1/yellow.gif","img/card_backs/set1/purple.gif","img/card_backs/set1/green.gif","img/card_backs/set1/red.gif","img/card_backs/set2/blue.gif","img/card_backs/set2/gray.gif","img/card_backs/set2/orange.gif","img/card_backs/set2/pink.gif","""event"",""trial"",""time""
""fullscreenenter"",""1"",""2413""
","
","
","""event"",""trial"",""time""
""fullscreenenter"",""1"",""2413""
","
","","4656.999999999985","Finally, try pressing '8' to select the deck all the way on the right.","56","","instructions","2021-07-13 18:16:14.799","","","","","",""
"card-selection-trial","21","134423","0.0-15.0-0.0","A1380","true","img/card_backs/set1/yellow.gif","img/card_backs/set1/purple.gif","img/card_backs/set1/green.gif","img/card_backs/set1/red.gif","img/card_backs/set2/blue.gif","img/card_backs/set2/gray.gif","img/card_backs/set2/orange.gif","img/card_backs/set2/pink.gif","""event"",""trial"",""time""
""fullscreenenter"",""1"",""2413""
","
","
","""event"",""trial"",""time""
""fullscreenenter"",""1"",""2413""
","
","","740","","","","practice_card_selection","2021-07-13 18:16:17.607","img/practice_cards/backs/black.gif","3","100","","",""
"casino-keyboard-response","22","138747","0.0-16.0-0.0","A1380","true","img/card_backs/set1/yellow.gif","img/card_backs/set1/purple.gif","img/card_backs/set1/green.gif","img/card_backs/set1/red.gif","img/card_backs/set2/blue.gif","img/card_backs/set2/gray.gif","img/card_backs/set2/orange.gif","img/card_backs/set2/pink.gif","""event"",""trial"",""time""
""fullscreenenter"",""1"",""2413""
","
","
","""event"",""trial"",""time""
""fullscreenenter"",""1"",""2413""
","
","","4322","Great! It seems like you are getting the hang of this.","80","","instructions","2021-07-13 18:16:21.931","","","","","",""
"casino-keyboard-response","23","146308","0.0-16.0-0.1","A1380","true","img/card_backs/set1/yellow.gif","img/card_backs/set1/purple.gif","img/card_backs/set1/green.gif","img/card_backs/set1/red.gif","img/card_backs/set2/blue.gif","img/card_backs/set2/gray.gif","img/card_backs/set2/orange.gif","img/card_backs/set2/pink.gif","""event"",""trial"",""time""
""fullscreenenter"",""1"",""2413""
","
","
","""event"",""trial"",""time""
""fullscreenenter"",""1"",""2413""
","
","","7559","You may have noticed that some cards will cause you to <b> win </b> tokens while other cards will cause you to <b> lose </b>  tokens.","70","","instructions","2021-07-13 18:16:29.492","","","","","",""
"casino-keyboard-response","24","155465","0.0-16.0-0.2","A1380","true","img/card_backs/set1/yellow.gif","img/card_backs/set1/purple.gif","img/card_backs/set1/green.gif","img/card_backs/set1/red.gif","img/card_backs/set2/blue.gif","img/card_backs/set2/gray.gif","img/card_backs/set2/orange.gif","img/card_backs/set2/pink.gif","""event"",""trial"",""time""
""fullscreenenter"",""1"",""2413""
","
","
","""event"",""trial"",""time""
""fullscreenenter"",""1"",""2413""
","
","","9155","Each deck has a mix of cards that will cause you to win and lose tokens. </br> However, the cards in each colored deck are different.","73","","instructions","2021-07-13 18:16:38.650","","","","","",""
"casino-keyboard-response","25","163855","0.0-16.0-0.3","A1380","true","img/card_backs/set1/yellow.gif","img/card_backs/set1/purple.gif","img/card_backs/set1/green.gif","img/card_backs/set1/red.gif","img/card_backs/set2/blue.gif","img/card_backs/set2/gray.gif","img/card_backs/set2/orange.gif","img/card_backs/set2/pink.gif","""event"",""trial"",""time""
""fullscreenenter"",""1"",""2413""
","
","
","""event"",""trial"",""time""
""fullscreenenter"",""1"",""2413""
","
","","8387","Some colored decks are luckier than others. </br> If you choose the lucky decks, you will earn more tokens than if you choose the unlucky decks.","69","","instructions","2021-07-13 18:16:47.039","","","","","",""
"casino-keyboard-response","26","171283","0.0-16.0-0.4","A1380","true","img/card_backs/set1/yellow.gif","img/card_backs/set1/purple.gif","img/card_backs/set1/green.gif","img/card_backs/set1/red.gif","img/card_backs/set2/blue.gif","img/card_backs/set2/gray.gif","img/card_backs/set2/orange.gif","img/card_backs/set2/pink.gif","""event"",""trial"",""time""
""fullscreenenter"",""1"",""2413""
","
","
","""event"",""trial"",""time""
""fullscreenenter"",""1"",""2413""
","
","","7427","You should try to figure out which decks are lucky. </br> Then, try to choose the lucky decks so you can win the most tokens.","87","","instructions","2021-07-13 18:16:54.467","","","","","",""
"casino-keyboard-response","27","182440","0.0-16.0-0.5","A1380","true","img/card_backs/set1/yellow.gif","img/card_backs/set1/purple.gif","img/card_backs/set1/green.gif","img/card_backs/set1/red.gif","img/card_backs/set2/blue.gif","img/card_backs/set2/gray.gif","img/card_backs/set2/orange.gif","img/card_backs/set2/pink.gif","""event"",""trial"",""time""
""fullscreenenter"",""1"",""2413""
","
","
","""event"",""trial"",""time""
""fullscreenenter"",""1"",""2413""
","
","","11155","To make it trickier, the casino dealer will switch the locations of the decks on every turn. </br> The color of the deck determines how lucky it is. The location does not matter.","88","","instructions","2021-07-13 18:17:05.624","","","","","",""
"casino-keyboard-response","28","193378","0.0-16.0-0.6","A1380","true","img/card_backs/set1/yellow.gif","img/card_backs/set1/purple.gif","img/card_backs/set1/green.gif","img/card_backs/set1/red.gif","img/card_backs/set2/blue.gif","img/card_backs/set2/gray.gif","img/card_backs/set2/orange.gif","img/card_backs/set2/pink.gif","""event"",""trial"",""time""
""fullscreenenter"",""1"",""2413""
","
","
","""event"",""trial"",""time""
""fullscreenenter"",""1"",""2413""
","
","","10935.99999999997","The mix of cards in each colored deck will stay the same throughout the game. </br> That means that a deck that is lucky early on will stay lucky.","79","","instructions","2021-07-13 18:17:16.562","","","","","",""
"casino-keyboard-response","29","201861","0.0-16.0-0.7","A1380","true","img/card_backs/set1/yellow.gif","img/card_backs/set1/purple.gif","img/card_backs/set1/green.gif","img/card_backs/set1/red.gif","img/card_backs/set2/blue.gif","img/card_backs/set2/gray.gif","img/card_backs/set2/orange.gif","img/card_backs/set2/pink.gif","""event"",""trial"",""time""
""fullscreenenter"",""1"",""2413""
","
","
","""event"",""trial"",""time""
""fullscreenenter"",""1"",""2413""
","
","","8481","Remember though, all the decks have a <b> mix </b> of both <b> good </b> and <b> bad </b> cards so it may take a couple of turns to figure out if a deck is lucky.","69","","instructions","2021-07-13 18:17:25.046","","","","","",""
"casino-keyboard-response","30","211941","0.0-16.0-0.8","A1380","true","img/card_backs/set1/yellow.gif","img/card_backs/set1/purple.gif","img/card_backs/set1/green.gif","img/card_backs/set1/red.gif","img/card_backs/set2/blue.gif","img/card_backs/set2/gray.gif","img/card_backs/set2/orange.gif","img/card_backs/set2/pink.gif","""event"",""trial"",""time""
""fullscreenenter"",""1"",""2413""
","
","
","""event"",""trial"",""time""
""fullscreenenter"",""1"",""2413""
","
","","10077","At the end of the game, you will be paid bonus money based on how many tokens you win. </br> If you win more tokens, you will earn more money!","72","","instructions","2021-07-13 18:17:35.125","","","","","",""
"casino-keyboard-response","31","222674","0.0-16.0-0.9","A1380","true","img/card_backs/set1/yellow.gif","img/card_backs/set1/purple.gif","img/card_backs/set1/green.gif","img/card_backs/set1/red.gif","img/card_backs/set2/blue.gif","img/card_backs/set2/gray.gif","img/card_backs/set2/orange.gif","img/card_backs/set2/pink.gif","""event"",""trial"",""time""
""fullscreenenter"",""1"",""2413""
","
","
","""event"",""trial"",""time""
""fullscreenenter"",""1"",""2413""
","
","","10732","You will never <b> lose </b> money. </br> If you end up with fewer than 0 tokens, you will earn $0 of bonus money, but you will still be paid for playing the game.","83","","instructions","2021-07-13 18:17:45.858","","","","","",""
"casino-keyboard-response","32","227218","0.0-16.0-0.10","A1380","true","img/card_backs/set1/yellow.gif","img/card_backs/set1/purple.gif","img/card_backs/set1/green.gif","img/card_backs/set1/red.gif","img/card_backs/set2/blue.gif","img/card_backs/set2/gray.gif","img/card_backs/set2/orange.gif","img/card_backs/set2/pink.gif","""event"",""trial"",""time""
""fullscreenenter"",""1"",""2413""
","
","
","""event"",""trial"",""time""
""fullscreenenter"",""1"",""2413""
","
","","4543","You will have 10 seconds to make each choice.","82","","instructions","2021-07-13 18:17:50.402","","","","","",""
"casino-keyboard-response","33","235787","0.0-16.0-0.11","A1380","true","img/card_backs/set1/yellow.gif","img/card_backs/set1/purple.gif","img/card_backs/set1/green.gif","img/card_backs/set1/red.gif","img/card_backs/set2/blue.gif","img/card_backs/set2/gray.gif","img/card_backs/set2/orange.gif","img/card_backs/set2/pink.gif","""event"",""trial"",""time""
""fullscreenenter"",""1"",""2413""
","
","
","""event"",""trial"",""time""
""fullscreenenter"",""1"",""2413""
","
","","8567","Before you play the game for real, you will play with practice decks. </br> The tokens you earn during practice won't count toward your total.","86","","instructions","2021-07-13 18:17:58.972","","","","","",""
"casino-keyboard-response","34","247960","0.0-16.0-0.12","A1380","true","img/card_backs/set1/yellow.gif","img/card_backs/set1/purple.gif","img/card_backs/set1/green.gif","img/card_backs/set1/red.gif","img/card_backs/set2/blue.gif","img/card_backs/set2/gray.gif","img/card_backs/set2/orange.gif","img/card_backs/set2/pink.gif","""event"",""trial"",""time""
""fullscreenenter"",""1"",""2413""
","
","
","""event"",""trial"",""time""
""fullscreenenter"",""1"",""2413""
","
","","12171.00000000003","Ready? Remember, use the '2', '4', '6', and '8' keys to select the decks. </br> Put your fingers on those keys now and then press '2' to begin.","50","","instructions","2021-07-13 18:18:11.145","","","","","",""
"casino-fixation","35","248464","0.0-17.0-0.0","A1380","true","img/card_backs/set1/yellow.gif","img/card_backs/set1/purple.gif","img/card_backs/set1/green.gif","img/card_backs/set1/red.gif","img/card_backs/set2/blue.gif","img/card_backs/set2/gray.gif","img/card_backs/set2/orange.gif","img/card_backs/set2/pink.gif","""event"",""trial"",""time""
""fullscreenenter"",""1"",""2413""
","
","
","""event"",""trial"",""time""
""fullscreenenter"",""1"",""2413""
","
","","null","","null","","fixation","2021-07-13 18:18:11.648","","","","","",""
"card-selection-trial","36","253449","0.0-17.0-1.0","A1380","true","img/card_backs/set1/yellow.gif","img/card_backs/set1/purple.gif","img/card_backs/set1/green.gif","img/card_backs/set1/red.gif","img/card_backs/set2/blue.gif","img/card_backs/set2/gray.gif","img/card_backs/set2/orange.gif","img/card_backs/set2/pink.gif","""event"",""trial"",""time""
""fullscreenenter"",""1"",""2413""
","
","
","""event"",""trial"",""time""
""fullscreenenter"",""1"",""2413""
","
","","2979","","","","practice","2021-07-13 18:18:16.633","img/practice_cards/backs/brown.gif","2","-100","0","",""
"casino-fixation","37","253951","0.0-17.0-0.1","A1380","true","img/card_backs/set1/yellow.gif","img/card_backs/set1/purple.gif","img/card_backs/set1/green.gif","img/card_backs/set1/red.gif","img/card_backs/set2/blue.gif","img/card_backs/set2/gray.gif","img/card_backs/set2/orange.gif","img/card_backs/set2/pink.gif","""event"",""trial"",""time""
""fullscreenenter"",""1"",""2413""
","
","
","""event"",""trial"",""time""
""fullscreenenter"",""1"",""2413""
","
","","null","","null","","fixation","2021-07-13 18:18:17.136","","","","","",""
"card-selection-trial","38","257773","0.0-17.0-1.1","A1380","true","img/card_backs/set1/yellow.gif","img/card_backs/set1/purple.gif","img/card_backs/set1/green.gif","img/card_backs/set1/red.gif","img/card_backs/set2/blue.gif","img/card_backs/set2/gray.gif","img/card_backs/set2/orange.gif","img/card_backs/set2/pink.gif","""event"",""trial"",""time""
""fullscreenenter"",""1"",""2413""
","
","
","""event"",""trial"",""time""
""fullscreenenter"",""1"",""2413""
","
","","1817","","","","practice","2021-07-13 18:18:20.957","img/practice_cards/backs/dark_green.gif","1","200","0","",""
"casino-fixation","39","258275","0.0-17.0-0.2","A1380","true","img/card_backs/set1/yellow.gif","img/card_backs/set1/purple.gif","img/card_backs/set1/green.gif","img/card_backs/set1/red.gif","img/card_backs/set2/blue.gif","img/card_backs/set2/gray.gif","img/card_backs/set2/orange.gif","img/card_backs/set2/pink.gif","""event"",""trial"",""time""
""fullscreenenter"",""1"",""2413""
","
","
","""event"",""trial"",""time""
""fullscreenenter"",""1"",""2413""
","
","","null","","null","","fixation","2021-07-13 18:18:21.459","","","","","",""
"card-selection-trial","40","262970","0.0-17.0-1.2","A1380","true","img/card_backs/set1/yellow.gif","img/card_backs/set1/purple.gif","img/card_backs/set1/green.gif","img/card_backs/set1/red.gif","img/card_backs/set2/blue.gif","img/card_backs/set2/gray.gif","img/card_backs/set2/orange.gif","img/card_backs/set2/pink.gif","""event"",""trial"",""time""
""fullscreenenter"",""1"",""2413""
","
","
","""event"",""trial"",""time""
""fullscreenenter"",""1"",""2413""
","
","","2690","","","","practice","2021-07-13 18:18:26.154","img/practice_cards/backs/dark_green.gif","1","-200","0","",""
"casino-fixation","41","263473","0.0-17.0-0.3","A1380","true","img/card_backs/set1/yellow.gif","img/card_backs/set1/purple.gif","img/card_backs/set1/green.gif","img/card_backs/set1/red.gif","img/card_backs/set2/blue.gif","img/card_backs/set2/gray.gif","img/card_backs/set2/orange.gif","img/card_backs/set2/pink.gif","""event"",""trial"",""time""
""fullscreenenter"",""1"",""2413""
","
","
","""event"",""trial"",""time""
""fullscreenenter"",""1"",""2413""
","
","","null","","null","","fixation","2021-07-13 18:18:26.657","","","","","",""
"card-selection-trial","42","268032","0.0-17.0-1.3","A1380","true","img/card_backs/set1/yellow.gif","img/card_backs/set1/purple.gif","img/card_backs/set1/green.gif","img/card_backs/set1/red.gif","img/card_backs/set2/blue.gif","img/card_backs/set2/gray.gif","img/card_backs/set2/orange.gif","img/card_backs/set2/pink.gif","""event"",""trial"",""time""
""fullscreenenter"",""1"",""2413""
","
","
","""event"",""trial"",""time""
""fullscreenenter"",""1"",""2413""
","
","","2554.000000000058","","","","practice","2021-07-13 18:18:31.216","img/practice_cards/backs/dark_blue.gif","0","-200","0","",""
"casino-fixation","43","268534","0.0-17.0-0.4","A1380","true","img/card_backs/set1/yellow.gif","img/card_backs/set1/purple.gif","img/card_backs/set1/green.gif","img/card_backs/set1/red.gif","img/card_backs/set2/blue.gif","img/card_backs/set2/gray.gif","img/card_backs/set2/orange.gif","img/card_backs/set2/pink.gif","""event"",""trial"",""time""
""fullscreenenter"",""1"",""2413""
","
","
","""event"",""trial"",""time""
""fullscreenenter"",""1"",""2413""
","
","","null","","null","","fixation","2021-07-13 18:18:31.719","","","","","",""
"card-selection-trial","44","273115","0.0-17.0-1.4","A1380","true","img/card_backs/set1/yellow.gif","img/card_backs/set1/purple.gif","img/card_backs/set1/green.gif","img/card_backs/set1/red.gif","img/card_backs/set2/blue.gif","img/card_backs/set2/gray.gif","img/card_backs/set2/orange.gif","img/card_backs/set2/pink.gif","""event"",""trial"",""time""
""fullscreenenter"",""1"",""2413""
","
","
","""event"",""trial"",""time""
""fullscreenenter"",""1"",""2413""
","
","","2576","","","","practice","2021-07-13 18:18:36.299","img/practice_cards/backs/black.gif","0","-100","0","",""
"casino-fixation","45","273618","0.0-17.0-0.5","A1380","true","img/card_backs/set1/yellow.gif","img/card_backs/set1/purple.gif","img/card_backs/set1/green.gif","img/card_backs/set1/red.gif","img/card_backs/set2/blue.gif","img/card_backs/set2/gray.gif","img/card_backs/set2/orange.gif","img/card_backs/set2/pink.gif","""event"",""trial"",""time""
""fullscreenenter"",""1"",""2413""
","
","
","""event"",""trial"",""time""
""fullscreenenter"",""1"",""2413""
","
","","null","","null","","fixation","2021-07-13 18:18:36.802","","","","","",""
"card-selection-trial","46","277977","0.0-17.0-1.5","A1380","true","img/card_backs/set1/yellow.gif","img/card_backs/set1/purple.gif","img/card_backs/set1/green.gif","img/card_backs/set1/red.gif","img/card_backs/set2/blue.gif","img/card_backs/set2/gray.gif","img/card_backs/set2/orange.gif","img/card_backs/set2/pink.gif","""event"",""trial"",""time""
""fullscreenenter"",""1"",""2413""
","
","
","""event"",""trial"",""time""
""fullscreenenter"",""1"",""2413""
","
","","2355","","","","practice","2021-07-13 18:18:41.161","img/practice_cards/backs/brown.gif","1","-100","0","",""
"casino-fixation","47","278480","0.0-17.0-0.6","A1380","true","img/card_backs/set1/yellow.gif","img/card_backs/set1/purple.gif","img/card_backs/set1/green.gif","img/card_backs/set1/red.gif","img/card_backs/set2/blue.gif","img/card_backs/set2/gray.gif","img/card_backs/set2/orange.gif","img/card_backs/set2/pink.gif","""event"",""trial"",""time""
""fullscreenenter"",""1"",""2413""
","
","
","""event"",""trial"",""time""
""fullscreenenter"",""1"",""2413""
","
","","null","","null","","fixation","2021-07-13 18:18:41.664","","","","","",""
"card-selection-trial","48","283513","0.0-17.0-1.6","A1380","true","img/card_backs/set1/yellow.gif","img/card_backs/set1/purple.gif","img/card_backs/set1/green.gif","img/card_backs/set1/red.gif","img/card_backs/set2/blue.gif","img/card_backs/set2/gray.gif","img/card_backs/set2/orange.gif","img/card_backs/set2/pink.gif","""event"",""trial"",""time""
""fullscreenenter"",""1"",""2413""
","
","
","""event"",""trial"",""time""
""fullscreenenter"",""1"",""2413""
","
","","3028","","","","practice","2021-07-13 18:18:46.697","img/practice_cards/backs/brown.gif","1","-100","0","",""
"casino-fixation","49","284015","0.0-17.0-0.7","A1380","true","img/card_backs/set1/yellow.gif","img/card_backs/set1/purple.gif","img/card_backs/set1/green.gif","img/card_backs/set1/red.gif","img/card_backs/set2/blue.gif","img/card_backs/set2/gray.gif","img/card_backs/set2/orange.gif","img/card_backs/set2/pink.gif","""event"",""trial"",""time""
""fullscreenenter"",""1"",""2413""
","
","
","""event"",""trial"",""time""
""fullscreenenter"",""1"",""2413""
","
","","null","","null","","fixation","2021-07-13 18:18:47.199","","","","","",""
"card-selection-trial","50","288778","0.0-17.0-1.7","A1380","true","img/card_backs/set1/yellow.gif","img/card_backs/set1/purple.gif","img/card_backs/set1/green.gif","img/card_backs/set1/red.gif","img/card_backs/set2/blue.gif","img/card_backs/set2/gray.gif","img/card_backs/set2/orange.gif","img/card_backs/set2/pink.gif","""event"",""trial"",""time""
""fullscreenenter"",""1"",""2413""
","
","
","""event"",""trial"",""time""
""fullscreenenter"",""1"",""2413""
","
","","2757.999999999942","","","","practice","2021-07-13 18:18:51.962","img/practice_cards/backs/dark_green.gif","1","200","0","",""
"casino-fixation","51","289281","0.0-17.0-0.8","A1380","true","img/card_backs/set1/yellow.gif","img/card_backs/set1/purple.gif","img/card_backs/set1/green.gif","img/card_backs/set1/red.gif","img/card_backs/set2/blue.gif","img/card_backs/set2/gray.gif","img/card_backs/set2/orange.gif","img/card_backs/set2/pink.gif","""event"",""trial"",""time""
""fullscreenenter"",""1"",""2413""
","
","
","""event"",""trial"",""time""
""fullscreenenter"",""1"",""2413""
","
","","null","","null","","fixation","2021-07-13 18:18:52.465","","","","","",""
"card-selection-trial","52","292130","0.0-17.0-1.8","A1380","true","img/card_backs/set1/yellow.gif","img/card_backs/set1/purple.gif","img/card_backs/set1/green.gif","img/card_backs/set1/red.gif","img/card_backs/set2/blue.gif","img/card_backs/set2/gray.gif","img/card_backs/set2/orange.gif","img/card_backs/set2/pink.gif","""event"",""trial"",""time""
""fullscreenenter"",""1"",""2413""
","
","
","""event"",""trial"",""time""
""fullscreenenter"",""1"",""2413""
","
","","844","","","","practice","2021-07-13 18:18:55.314","img/practice_cards/backs/black.gif","3","100","0","",""
"casino-fixation","53","292633","0.0-17.0-0.9","A1380","true","img/card_backs/set1/yellow.gif","img/card_backs/set1/purple.gif","img/card_backs/set1/green.gif","img/card_backs/set1/red.gif","img/card_backs/set2/blue.gif","img/card_backs/set2/gray.gif","img/card_backs/set2/orange.gif","img/card_backs/set2/pink.gif","""event"",""trial"",""time""
""fullscreenenter"",""1"",""2413""
","
","
","""event"",""trial"",""time""
""fullscreenenter"",""1"",""2413""
","
","","null","","null","","fixation","2021-07-13 18:18:55.817","","","","","",""
"card-selection-trial","54","295865","0.0-17.0-1.9","A1380","true","img/card_backs/set1/yellow.gif","img/card_backs/set1/purple.gif","img/card_backs/set1/green.gif","img/card_backs/set1/red.gif","img/card_backs/set2/blue.gif","img/card_backs/set2/gray.gif","img/card_backs/set2/orange.gif","img/card_backs/set2/pink.gif","""event"",""trial"",""time""
""fullscreenenter"",""1"",""2413""
","
","
","""event"",""trial"",""time""
""fullscreenenter"",""1"",""2413""
","
","","1227","","","","practice","2021-07-13 18:18:59.049","img/practice_cards/backs/dark_green.gif","3","200","0","",""
"casino-keyboard-response","55","299354","0.0-18.0","A1380","true","img/card_backs/set1/yellow.gif","img/card_backs/set1/purple.gif","img/card_backs/set1/green.gif","img/card_backs/set1/red.gif","img/card_backs/set2/blue.gif","img/card_backs/set2/gray.gif","img/card_backs/set2/orange.gif","img/card_backs/set2/pink.gif","""event"",""trial"",""time""
""fullscreenenter"",""1"",""2413""
","
","
","""event"",""trial"",""time""
""fullscreenenter"",""1"",""2413""
","
","","3486","You earned -100 tokens during the practice round!","82","","","2021-07-13 18:19:02.538","","","","","",""
"casino-keyboard-response","56","304057","0.0-19.0-0.0","A1380","true","img/card_backs/set1/yellow.gif","img/card_backs/set1/purple.gif","img/card_backs/set1/green.gif","img/card_backs/set1/red.gif","img/card_backs/set2/blue.gif","img/card_backs/set2/gray.gif","img/card_backs/set2/orange.gif","img/card_backs/set2/pink.gif","""event"",""trial"",""time""
""fullscreenenter"",""1"",""2413""
","
","
","""event"",""trial"",""time""
""fullscreenenter"",""1"",""2413""
","
","","4700","Nice job! You are almost ready to play the real game.","86","","instructions","2021-07-13 18:19:07.241","","","","","",""
"casino-keyboard-response","57","310961","0.0-19.0-0.1","A1380","true","img/card_backs/set1/yellow.gif","img/card_backs/set1/purple.gif","img/card_backs/set1/green.gif","img/card_backs/set1/red.gif","img/card_backs/set2/blue.gif","img/card_backs/set2/gray.gif","img/card_backs/set2/orange.gif","img/card_backs/set2/pink.gif","""event"",""trial"",""time""
""fullscreenenter"",""1"",""2413""
","
","
","""event"",""trial"",""time""
""fullscreenenter"",""1"",""2413""
","
","","6902","You will play two rounds of the real game. In each round, you will pick 100 cards in total.","73","","instructions","2021-07-13 18:19:14.145","","","","","",""
"casino-keyboard-response","58","324307","0.0-19.0-0.2","A1380","true","img/card_backs/set1/yellow.gif","img/card_backs/set1/purple.gif","img/card_backs/set1/green.gif","img/card_backs/set1/red.gif","img/card_backs/set2/blue.gif","img/card_backs/set2/gray.gif","img/card_backs/set2/orange.gif","img/card_backs/set2/pink.gif","""event"",""trial"",""time""
""fullscreenenter"",""1"",""2413""
","
","
","""event"",""trial"",""time""
""fullscreenenter"",""1"",""2413""
","
","","13344","We are now going to ask you some questions about how the game works.","66","","instructions","2021-07-13 18:19:27.491","","","","","",""
"casino-keyboard-response","59","330311","0.0-19.0-0.3","A1380","true","img/card_backs/set1/yellow.gif","img/card_backs/set1/purple.gif","img/card_backs/set1/green.gif","img/card_backs/set1/red.gif","img/card_backs/set2/blue.gif","img/card_backs/set2/gray.gif","img/card_backs/set2/orange.gif","img/card_backs/set2/pink.gif","""event"",""trial"",""time""
""fullscreenenter"",""1"",""2413""
","
","
","""event"",""trial"",""time""
""fullscreenenter"",""1"",""2413""
","
","","6002","Answer carefully. You will not be able to begin the game until you answer them correctly.","67","","instructions","2021-07-13 18:19:33.495","","","","","",""
"casino-comp_q","60","337583","0.0-20.0-0.0","A1380","true","img/card_backs/set1/yellow.gif","img/card_backs/set1/purple.gif","img/card_backs/set1/green.gif","img/card_backs/set1/red.gif","img/card_backs/set2/blue.gif","img/card_backs/set2/gray.gif","img/card_backs/set2/orange.gif","img/card_backs/set2/pink.gif","""event"",""trial"",""time""
""fullscreenenter"",""1"",""2413""
","
","
","""event"",""trial"",""time""
""fullscreenenter"",""1"",""2413""
","
","","7269","True or False: All the decks have some cards that cause you to win tokens and some cards that cause you to lose tokens.","84","","","2021-07-13 18:19:40.767","","","","","",""
"casino-keyboard-response","61","340481","0.0-20.0-1.0","A1380","true","img/card_backs/set1/yellow.gif","img/card_backs/set1/purple.gif","img/card_backs/set1/green.gif","img/card_backs/set1/red.gif","img/card_backs/set2/blue.gif","img/card_backs/set2/gray.gif","img/card_backs/set2/orange.gif","img/card_backs/set2/pink.gif","""event"",""trial"",""time""
""fullscreenenter"",""1"",""2413""
","
","
","""event"",""trial"",""time""
""fullscreenenter"",""1"",""2413""
","
","","2896","True is correct! All the decks have a mix of winning and losing cards.","77","","","2021-07-13 18:19:43.665","","","","","true",""
"casino-comp_q","62","343747","0.0-21.0-0.0","A1380","true","img/card_backs/set1/yellow.gif","img/card_backs/set1/purple.gif","img/card_backs/set1/green.gif","img/card_backs/set1/red.gif","img/card_backs/set2/blue.gif","img/card_backs/set2/gray.gif","img/card_backs/set2/orange.gif","img/card_backs/set2/pink.gif","""event"",""trial"",""time""
""fullscreenenter"",""1"",""2413""
","
","
","""event"",""trial"",""time""
""fullscreenenter"",""1"",""2413""
","
","","3263.999999999942","True or False: You will have as much time as you want to make your response.","70","","","2021-07-13 18:19:46.931","","","","","",""
"casino-keyboard-response","63","346589","0.0-21.0-1.0","A1380","true","img/card_backs/set1/yellow.gif","img/card_backs/set1/purple.gif","img/card_backs/set1/green.gif","img/card_backs/set1/red.gif","img/card_backs/set2/blue.gif","img/card_backs/set2/gray.gif","img/card_backs/set2/orange.gif","img/card_backs/set2/pink.gif","""event"",""trial"",""time""
""fullscreenenter"",""1"",""2413""
","
","
","""event"",""trial"",""time""
""fullscreenenter"",""1"",""2413""
","
","","2840","False is correct! You will only have 10 seconds to make each choice.","75","","","2021-07-13 18:19:49.773","","","","","true",""
"casino-comp_q","64","350947","0.0-22.0-0.0","A1380","true","img/card_backs/set1/yellow.gif","img/card_backs/set1/purple.gif","img/card_backs/set1/green.gif","img/card_backs/set1/red.gif","img/card_backs/set2/blue.gif","img/card_backs/set2/gray.gif","img/card_backs/set2/orange.gif","img/card_backs/set2/pink.gif","""event"",""trial"",""time""
""fullscreenenter"",""1"",""2413""
","
","
","""event"",""trial"",""time""
""fullscreenenter"",""1"",""2413""
","
","","4356","True or False: The location of the deck determines how lucky it is.","70","","","2021-07-13 18:19:54.131","","","","","",""
"casino-keyboard-response","65","355492","0.0-22.0-1.0","A1380","true","img/card_backs/set1/yellow.gif","img/card_backs/set1/purple.gif","img/card_backs/set1/green.gif","img/card_backs/set1/red.gif","img/card_backs/set2/blue.gif","img/card_backs/set2/gray.gif","img/card_backs/set2/orange.gif","img/card_backs/set2/pink.gif","""event"",""trial"",""time""
""fullscreenenter"",""1"",""2413""
","
","
","""event"",""trial"",""time""
""fullscreenenter"",""1"",""2413""
","
","","4543","False is correct! The <i>color</i>  of the deck determines how lucky or unlucky it is.","68","","","2021-07-13 18:19:58.676","","","","","true",""
"casino-keyboard-response","66","359925","0.0-23.0-0.0","A1380","true","img/card_backs/set1/yellow.gif","img/card_backs/set1/purple.gif","img/card_backs/set1/green.gif","img/card_backs/set1/red.gif","img/card_backs/set2/blue.gif","img/card_backs/set2/gray.gif","img/card_backs/set2/orange.gif","img/card_backs/set2/pink.gif","""event"",""trial"",""time""
""fullscreenenter"",""1"",""2413""
","
","
","""event"",""trial"",""time""
""fullscreenenter"",""1"",""2413""
","
","","4431","Great job! Now it's time to start the real game.","82","","instructions","2021-07-13 18:20:03.109","","","","","",""
"casino-keyboard-response","67","364943","0.0-23.0-0.1","A1380","true","img/card_backs/set1/yellow.gif","img/card_backs/set1/purple.gif","img/card_backs/set1/green.gif","img/card_backs/set1/red.gif","img/card_backs/set2/blue.gif","img/card_backs/set2/gray.gif","img/card_backs/set2/orange.gif","img/card_backs/set2/pink.gif","""event"",""trial"",""time""
""fullscreenenter"",""1"",""2413""
","
","
","""event"",""trial"",""time""
""fullscreenenter"",""1"",""2413""
","
","","5016.000000000058","Before we start, we're going to head into a new room of the casino.","86","","instructions","2021-07-13 18:20:08.127","","","","","",""
"casino-keyboard-response","68","370928","0.0-24.0-0.0","A1380","true","img/card_backs/set1/yellow.gif","img/card_backs/set1/purple.gif","img/card_backs/set1/green.gif","img/card_backs/set1/red.gif","img/card_backs/set2/blue.gif","img/card_backs/set2/gray.gif","img/card_backs/set2/orange.gif","img/card_backs/set2/pink.gif","""event"",""trial"",""time""
""fullscreenenter"",""1"",""2413""
","
","
","""event"",""trial"",""time""
""fullscreenenter"",""1"",""2413""
","
","","5983","Here we are! The real game will use different cards, but the rules will be the same.","71","","instructions","2021-07-13 18:20:14.112","","","","","",""
"casino-keyboard-response","69","382448","0.0-24.0-0.1","A1380","true","img/card_backs/set1/yellow.gif","img/card_backs/set1/purple.gif","img/card_backs/set1/green.gif","img/card_backs/set1/red.gif","img/card_backs/set2/blue.gif","img/card_backs/set2/gray.gif","img/card_backs/set2/orange.gif","img/card_backs/set2/pink.gif","""event"",""trial"",""time""
""fullscreenenter"",""1"",""2413""
","
","
","""event"",""trial"",""time""
""fullscreenenter"",""1"",""2413""
","
","","11518.000000000058","Ready? Put your fingers over the '2', '4', 6', and '8' keys so you are ready to play the game. </br> Then press 2 to start.","50","","instructions","2021-07-13 18:20:25.632","","","","","",""
"casino-fixation","70","382951","0.0-25.0-0.0","A1380","true","img/card_backs/set1/yellow.gif","img/card_backs/set1/purple.gif","img/card_backs/set1/green.gif","img/card_backs/set1/red.gif","img/card_backs/set2/blue.gif","img/card_backs/set2/gray.gif","img/card_backs/set2/orange.gif","img/card_backs/set2/pink.gif","""event"",""trial"",""time""
""fullscreenenter"",""1"",""2413""
","
","
","""event"",""trial"",""time""
""fullscreenenter"",""1"",""2413""
","
","","null","","null","","fixation","2021-07-13 18:20:26.135","","","","","",""
"card-selection-trial","71","386429","0.0-25.0-1.0","A1380","true","img/card_backs/set1/yellow.gif","img/card_backs/set1/purple.gif","img/card_backs/set1/green.gif","img/card_backs/set1/red.gif","img/card_backs/set2/blue.gif","img/card_backs/set2/gray.gif","img/card_backs/set2/orange.gif","img/card_backs/set2/pink.gif","""event"",""trial"",""time""
""fullscreenenter"",""1"",""2413""
","
","
","""event"",""trial"",""time""
""fullscreenenter"",""1"",""2413""
","
","","1472.9999999999418","","","","real_trial","2021-07-13 18:20:29.613","img/card_backs/set1/green.gif","3","-110","1","",""
"casino-fixation","72","386931","0.0-25.0-0.1","A1380","true","img/card_backs/set1/yellow.gif","img/card_backs/set1/purple.gif","img/card_backs/set1/green.gif","img/card_backs/set1/red.gif","img/card_backs/set2/blue.gif","img/card_backs/set2/gray.gif","img/card_backs/set2/orange.gif","img/card_backs/set2/pink.gif","""event"",""trial"",""time""
""fullscreenenter"",""1"",""2413""
","
","
","""event"",""trial"",""time""
""fullscreenenter"",""1"",""2413""
","
","","null","","null","","fixation","2021-07-13 18:20:30.116","","","","","",""
"card-selection-trial","73","390079","0.0-25.0-1.1","A1380","true","img/card_backs/set1/yellow.gif","img/card_backs/set1/purple.gif","img/card_backs/set1/green.gif","img/card_backs/set1/red.gif","img/card_backs/set2/blue.gif","img/card_backs/set2/gray.gif","img/card_backs/set2/orange.gif","img/card_backs/set2/pink.gif","""event"",""trial"",""time""
""fullscreenenter"",""1"",""2413""
","
","
","""event"",""trial"",""time""
""fullscreenenter"",""1"",""2413""
","
","","1137","","","","real_trial","2021-07-13 18:20:33.263","img/card_backs/set1/green.gif","1","40","1","",""
"casino-fixation","74","390581","0.0-25.0-0.2","A1380","true","img/card_backs/set1/yellow.gif","img/card_backs/set1/purple.gif","img/card_backs/set1/green.gif","img/card_backs/set1/red.gif","img/card_backs/set2/blue.gif","img/card_backs/set2/gray.gif","img/card_backs/set2/orange.gif","img/card_backs/set2/pink.gif","""event"",""trial"",""time""
""fullscreenenter"",""1"",""2413""
","
","
","""event"",""trial"",""time""
""fullscreenenter"",""1"",""2413""
","
","","null","","null","","fixation","2021-07-13 18:20:33.765","","","","","",""
"card-selection-trial","75","394382","0.0-25.0-1.2","A1380","true","img/card_backs/set1/yellow.gif","img/card_backs/set1/purple.gif","img/card_backs/set1/green.gif","img/card_backs/set1/red.gif","img/card_backs/set2/blue.gif","img/card_backs/set2/gray.gif","img/card_backs/set2/orange.gif","img/card_backs/set2/pink.gif","""event"",""trial"",""time""
""fullscreenenter"",""1"",""2413""
","
","
","""event"",""trial"",""time""
""fullscreenenter"",""1"",""2413""
","
","","1789.9999999999418","","","","real_trial","2021-07-13 18:20:37.566","img/card_backs/set1/purple.gif","2","250","1","",""
"casino-fixation","76","394885","0.0-25.0-0.3","A1380","true","img/card_backs/set1/yellow.gif","img/card_backs/set1/purple.gif","img/card_backs/set1/green.gif","img/card_backs/set1/red.gif","img/card_backs/set2/blue.gif","img/card_backs/set2/gray.gif","img/card_backs/set2/orange.gif","img/card_backs/set2/pink.gif","""event"",""trial"",""time""
""fullscreenenter"",""1"",""2413""
","
","
","""event"",""trial"",""time""
""fullscreenenter"",""1"",""2413""
","
","","null","","null","","fixation","2021-07-13 18:20:38.069","","","","","",""
"card-selection-trial","77","398234","0.0-25.0-1.3","A1380","true","img/card_backs/set1/yellow.gif","img/card_backs/set1/purple.gif","img/card_backs/set1/green.gif","img/card_backs/set1/red.gif","img/card_backs/set2/blue.gif","img/card_backs/set2/gray.gif","img/card_backs/set2/orange.gif","img/card_backs/set2/pink.gif","""event"",""trial"",""time""
""fullscreenenter"",""1"",""2413""
","
","
","""event"",""trial"",""time""
""fullscreenenter"",""1"",""2413""
","
","","1340","","","","real_trial","2021-07-13 18:20:41.418","img/card_backs/set1/yellow.gif","1","250","1","",""
"casino-fixation","78","398737","0.0-25.0-0.4","A1380","true","img/card_backs/set1/yellow.gif","img/card_backs/set1/purple.gif","img/card_backs/set1/green.gif","img/card_backs/set1/red.gif","img/card_backs/set2/blue.gif","img/card_backs/set2/gray.gif","img/card_backs/set2/orange.gif","img/card_backs/set2/pink.gif","""event"",""trial"",""time""
""fullscreenenter"",""1"",""2413""
","
","
","""event"",""trial"",""time""
""fullscreenenter"",""1"",""2413""
","
","","null","","null","","fixation","2021-07-13 18:20:41.921","","","","","",""
"card-selection-trial","79","402760","0.0-25.0-1.4","A1380","true","img/card_backs/set1/yellow.gif","img/card_backs/set1/purple.gif","img/card_backs/set1/green.gif","img/card_backs/set1/red.gif","img/card_backs/set2/blue.gif","img/card_backs/set2/gray.gif","img/card_backs/set2/orange.gif","img/card_backs/set2/pink.gif","""event"",""trial"",""time""
""fullscreenenter"",""1"",""2413""
","
","
","""event"",""trial"",""time""
""fullscreenenter"",""1"",""2413""
","
","","2014","","","","real_trial","2021-07-13 18:20:45.944","img/card_backs/set1/red.gif","3","-100","1","",""
"casino-fixation","80","403263","0.0-25.0-0.5","A1380","true","img/card_backs/set1/yellow.gif","img/card_backs/set1/purple.gif","img/card_backs/set1/green.gif","img/card_backs/set1/red.gif","img/card_backs/set2/blue.gif","img/card_backs/set2/gray.gif","img/card_backs/set2/orange.gif","img/card_backs/set2/pink.gif","""event"",""trial"",""time""
""fullscreenenter"",""1"",""2413""
","
","
","""event"",""trial"",""time""
""fullscreenenter"",""1"",""2413""
","
","","null","","null","","fixation","2021-07-13 18:20:46.447","","","","","",""
"card-selection-trial","81","407058","0.0-25.0-1.5","A1380","true","img/card_backs/set1/yellow.gif","img/card_backs/set1/purple.gif","img/card_backs/set1/green.gif","img/card_backs/set1/red.gif","img/card_backs/set2/blue.gif","img/card_backs/set2/gray.gif","img/card_backs/set2/orange.gif","img/card_backs/set2/pink.gif","""event"",""trial"",""time""
""fullscreenenter"",""1"",""2413""
","
","
","""event"",""trial"",""time""
""fullscreenenter"",""1"",""2413""
","
","","1788","","","","real_trial","2021-07-13 18:20:50.242","img/card_backs/set1/yellow.gif","2","240","1","",""
"casino-fixation","82","407561","0.0-25.0-0.6","A1380","true","img/card_backs/set1/yellow.gif","img/card_backs/set1/purple.gif","img/card_backs/set1/green.gif","img/card_backs/set1/red.gif","img/card_backs/set2/blue.gif","img/card_backs/set2/gray.gif","img/card_backs/set2/orange.gif","img/card_backs/set2/pink.gif","""event"",""trial"",""time""
""fullscreenenter"",""1"",""2413""
","
","
","""event"",""trial"",""time""
""fullscreenenter"",""1"",""2413""
","
","","null","","null","","fixation","2021-07-13 18:20:50.745","","","","","",""
"card-selection-trial","83","411023","0.0-25.0-1.6","A1380","true","img/card_backs/set1/yellow.gif","img/card_backs/set1/purple.gif","img/card_backs/set1/green.gif","img/card_backs/set1/red.gif","img/card_backs/set2/blue.gif","img/card_backs/set2/gray.gif","img/card_backs/set2/orange.gif","img/card_backs/set2/pink.gif","""event"",""trial"",""time""
""fullscreenenter"",""1"",""2413""
","
","
","""event"",""trial"",""time""
""fullscreenenter"",""1"",""2413""
","
","","1456","","","","real_trial","2021-07-13 18:20:54.207","img/card_backs/set1/green.gif","0","-100","1","",""
"casino-fixation","84","411526","0.0-25.0-0.7","A1380","true","img/card_backs/set1/yellow.gif","img/card_backs/set1/purple.gif","img/card_backs/set1/green.gif","img/card_backs/set1/red.gif","img/card_backs/set2/blue.gif","img/card_backs/set2/gray.gif","img/card_backs/set2/orange.gif","img/card_backs/set2/pink.gif","""event"",""trial"",""time""
""fullscreenenter"",""1"",""2413""
","
","
","""event"",""trial"",""time""
""fullscreenenter"",""1"",""2413""
","
","","null","","null","","fixation","2021-07-13 18:20:54.710","","","","","",""
"card-selection-trial","85","414218","0.0-25.0-1.7","A1380","true","img/card_backs/set1/yellow.gif","img/card_backs/set1/purple.gif","img/card_backs/set1/green.gif","img/card_backs/set1/red.gif","img/card_backs/set2/blue.gif","img/card_backs/set2/gray.gif","img/card_backs/set2/orange.gif","img/card_backs/set2/pink.gif","""event"",""trial"",""time""
""fullscreenenter"",""1"",""2413""
","
","
","""event"",""trial"",""time""
""fullscreenenter"",""1"",""2413""
","
","","685","","","","real_trial","2021-07-13 18:20:57.402","img/card_backs/set1/yellow.gif","2","250","1","",""
"casino-fixation","86","414721","0.0-25.0-0.8","A1380","true","img/card_backs/set1/yellow.gif","img/card_backs/set1/purple.gif","img/card_backs/set1/green.gif","img/card_backs/set1/red.gif","img/card_backs/set2/blue.gif","img/card_backs/set2/gray.gif","img/card_backs/set2/orange.gif","img/card_backs/set2/pink.gif","""event"",""trial"",""time""
""fullscreenenter"",""1"",""2413""
","
","
","""event"",""trial"",""time""
""fullscreenenter"",""1"",""2413""
","
","","null","","null","","fixation","2021-07-13 18:20:57.905","","","","","",""
"card-selection-trial","87","418269","0.0-25.0-1.8","A1380","true","img/card_backs/set1/yellow.gif","img/card_backs/set1/purple.gif","img/card_backs/set1/green.gif","img/card_backs/set1/red.gif","img/card_backs/set2/blue.gif","img/card_backs/set2/gray.gif","img/card_backs/set2/orange.gif","img/card_backs/set2/pink.gif","""event"",""trial"",""time""
""fullscreenenter"",""1"",""2413""
","
","
","""event"",""trial"",""time""
""fullscreenenter"",""1"",""2413""
","
","","1542","","","","real_trial","2021-07-13 18:21:01.453","img/card_backs/set1/yellow.gif","2","-210","1","",""
"casino-fixation","88","418772","0.0-25.0-0.9","A1380","true","img/card_backs/set1/yellow.gif","img/card_backs/set1/purple.gif","img/card_backs/set1/green.gif","img/card_backs/set1/red.gif","img/card_backs/set2/blue.gif","img/card_backs/set2/gray.gif","img/card_backs/set2/orange.gif","img/card_backs/set2/pink.gif","""event"",""trial"",""time""
""fullscreenenter"",""1"",""2413""
","
","
","""event"",""trial"",""time""
""fullscreenenter"",""1"",""2413""
","
","","null","","null","","fixation","2021-07-13 18:21:01.956","","","","","",""
"card-selection-trial","89","421621","0.0-25.0-1.9","A1380","true","img/card_backs/set1/yellow.gif","img/card_backs/set1/purple.gif","img/card_backs/set1/green.gif","img/card_backs/set1/red.gif","img/card_backs/set2/blue.gif","img/card_backs/set2/gray.gif","img/card_backs/set2/orange.gif","img/card_backs/set2/pink.gif","""event"",""trial"",""time""
""fullscreenenter"",""1"",""2413""
","
","
","""event"",""trial"",""time""
""fullscreenenter"",""1"",""2413""
","
","","838.0000000000582","","","","real_trial","2021-07-13 18:21:04.810","img/card_backs/set1/red.gif","1","-110","1","",""
"casino-fixation","90","422129","0.0-25.0-0.10","A1380","true","img/card_backs/set1/yellow.gif","img/card_backs/set1/purple.gif","img/card_backs/set1/green.gif","img/card_backs/set1/red.gif","img/card_backs/set2/blue.gif","img/card_backs/set2/gray.gif","img/card_backs/set2/orange.gif","img/card_backs/set2/pink.gif","""event"",""trial"",""time""
""fullscreenenter"",""1"",""2413""
","
","
","""event"",""trial"",""time""
""fullscreenenter"",""1"",""2413""
","
","","null","","null","","fixation","2021-07-13 18:21:05.313","","","","","",""
"card-selection-trial","91","425223","0.0-25.0-1.10","A1380","true","img/card_backs/set1/yellow.gif","img/card_backs/set1/purple.gif","img/card_backs/set1/green.gif","img/card_backs/set1/red.gif","img/card_backs/set2/blue.gif","img/card_backs/set2/gray.gif","img/card_backs/set2/orange.gif","img/card_backs/set2/pink.gif","""event"",""trial"",""time""
""fullscreenenter"",""1"",""2413""
","
","
","""event"",""trial"",""time""
""fullscreenenter"",""1"",""2413""
","
","","1088","","","","real_trial","2021-07-13 18:21:08.407","img/card_backs/set1/yellow.gif","0","240","1","",""
"casino-fixation","92","425725","0.0-25.0-0.11","A1380","true","img/card_backs/set1/yellow.gif","img/card_backs/set1/purple.gif","img/card_backs/set1/green.gif","img/card_backs/set1/red.gif","img/card_backs/set2/blue.gif","img/card_backs/set2/gray.gif","img/card_backs/set2/orange.gif","img/card_backs/set2/pink.gif","""event"",""trial"",""time""
""fullscreenenter"",""1"",""2413""
","
","
","""event"",""trial"",""time""
""fullscreenenter"",""1"",""2413""
","
","","null","","null","","fixation","2021-07-13 18:21:08.910","","","","","",""
"card-selection-trial","93","429476","0.0-25.0-1.11","A1380","true","img/card_backs/set1/yellow.gif","img/card_backs/set1/purple.gif","img/card_backs/set1/green.gif","img/card_backs/set1/red.gif","img/card_backs/set2/blue.gif","img/card_backs/set2/gray.gif","img/card_backs/set2/orange.gif","img/card_backs/set2/pink.gif","""event"",""trial"",""time""
""fullscreenenter"",""1"",""2413""
","
","
","""event"",""trial"",""time""
""fullscreenenter"",""1"",""2413""
","
","","1745","","","","real_trial","2021-07-13 18:21:12.660","img/card_backs/set1/green.gif","3","50","1","",""
"casino-fixation","94","429979","0.0-25.0-0.12","A1380","true","img/card_backs/set1/yellow.gif","img/card_backs/set1/purple.gif","img/card_backs/set1/green.gif","img/card_backs/set1/red.gif","img/card_backs/set2/blue.gif","img/card_backs/set2/gray.gif","img/card_backs/set2/orange.gif","img/card_backs/set2/pink.gif","""event"",""trial"",""time""
""fullscreenenter"",""1"",""2413""
","
","
","""event"",""trial"",""time""
""fullscreenenter"",""1"",""2413""
","
","","null","","null","","fixation","2021-07-13 18:21:13.163","","","","","",""
"card-selection-trial","95","433725","0.0-25.0-1.12","A1380","true","img/card_backs/set1/yellow.gif","img/card_backs/set1/purple.gif","img/card_backs/set1/green.gif","img/card_backs/set1/red.gif","img/card_backs/set2/blue.gif","img/card_backs/set2/gray.gif","img/card_backs/set2/orange.gif","img/card_backs/set2/pink.gif","""event"",""trial"",""time""
""fullscreenenter"",""1"",""2413""
","
","
","""event"",""trial"",""time""
""fullscreenenter"",""1"",""2413""
","
","","1740.9999999999418","","","","real_trial","2021-07-13 18:21:16.909","img/card_backs/set1/yellow.gif","1","-190","1","",""
"casino-fixation","96","434228","0.0-25.0-0.13","A1380","true","img/card_backs/set1/yellow.gif","img/card_backs/set1/purple.gif","img/card_backs/set1/green.gif","img/card_backs/set1/red.gif","img/card_backs/set2/blue.gif","img/card_backs/set2/gray.gif","img/card_backs/set2/orange.gif","img/card_backs/set2/pink.gif","""event"",""trial"",""time""
""fullscreenenter"",""1"",""2413""
","
","
","""event"",""trial"",""time""
""fullscreenenter"",""1"",""2413""
","
","","null","","null","","fixation","2021-07-13 18:21:17.412","","","","","",""
"card-selection-trial","97","437063","0.0-25.0-1.13","A1380","true","img/card_backs/set1/yellow.gif","img/card_backs/set1/purple.gif","img/card_backs/set1/green.gif","img/card_backs/set1/red.gif","img/card_backs/set2/blue.gif","img/card_backs/set2/gray.gif","img/card_backs/set2/orange.gif","img/card_backs/set2/pink.gif","""event"",""trial"",""time""
""fullscreenenter"",""1"",""2413""
","
","
","""event"",""trial"",""time""
""fullscreenenter"",""1"",""2413""
","
","","830","","","","real_trial","2021-07-13 18:21:20.247","img/card_backs/set1/green.gif","2","-100","1","",""
"casino-fixation","98","437565","0.0-25.0-0.14","A1380","true","img/card_backs/set1/yellow.gif","img/card_backs/set1/purple.gif","img/card_backs/set1/green.gif","img/card_backs/set1/red.gif","img/card_backs/set2/blue.gif","img/card_backs/set2/gray.gif","img/card_backs/set2/orange.gif","img/card_backs/set2/pink.gif","""event"",""trial"",""time""
""fullscreenenter"",""1"",""2413""
","
","
","""event"",""trial"",""time""
""fullscreenenter"",""1"",""2413""
","
","","null","","null","","fixation","2021-07-13 18:21:20.749","","","","","",""
"card-selection-trial","99","440797","0.0-25.0-1.14","A1380","true","img/card_backs/set1/yellow.gif","img/card_backs/set1/purple.gif","img/card_backs/set1/green.gif","img/card_backs/set1/red.gif","img/card_backs/set2/blue.gif","img/card_backs/set2/gray.gif","img/card_backs/set2/orange.gif","img/card_backs/set2/pink.gif","""event"",""trial"",""time""
""fullscreenenter"",""1"",""2413""
","
","
","""event"",""trial"",""time""
""fullscreenenter"",""1"",""2413""
","
","","1225","","","","real_trial","2021-07-13 18:21:23.981","img/card_backs/set1/green.gif","0","50","1","",""
"casino-fixation","100","441299","0.0-25.0-0.15","A1380","true","img/card_backs/set1/yellow.gif","img/card_backs/set1/purple.gif","img/card_backs/set1/green.gif","img/card_backs/set1/red.gif","img/card_backs/set2/blue.gif","img/card_backs/set2/gray.gif","img/card_backs/set2/orange.gif","img/card_backs/set2/pink.gif","""event"",""trial"",""time""
""fullscreenenter"",""1"",""2413""
","
","
","""event"",""trial"",""time""
""fullscreenenter"",""1"",""2413""
","
","","null","","null","","fixation","2021-07-13 18:21:24.483","","","","","",""
"card-selection-trial","101","444234","0.0-25.0-1.15","A1380","true","img/card_backs/set1/yellow.gif","img/card_backs/set1/purple.gif","img/card_backs/set1/green.gif","img/card_backs/set1/red.gif","img/card_backs/set2/blue.gif","img/card_backs/set2/gray.gif","img/card_backs/set2/orange.gif","img/card_backs/set2/pink.gif","""event"",""trial"",""time""
""fullscreenenter"",""1"",""2413""
","
","
","""event"",""trial"",""time""
""fullscreenenter"",""1"",""2413""
","
","","930","","","","real_trial","2021-07-13 18:21:27.418","img/card_backs/set1/yellow.gif","0","-190","1","",""
"casino-fixation","102","444737","0.0-25.0-0.16","A1380","true","img/card_backs/set1/yellow.gif","img/card_backs/set1/purple.gif","img/card_backs/set1/green.gif","img/card_backs/set1/red.gif","img/card_backs/set2/blue.gif","img/card_backs/set2/gray.gif","img/card_backs/set2/orange.gif","img/card_backs/set2/pink.gif","""event"",""trial"",""time""
""fullscreenenter"",""1"",""2413""
","
","
","""event"",""trial"",""time""
""fullscreenenter"",""1"",""2413""
","
","","null","","null","","fixation","2021-07-13 18:21:27.921","","","","","",""
"card-selection-trial","103","447610","0.0-25.0-1.16","A1380","true","img/card_backs/set1/yellow.gif","img/card_backs/set1/purple.gif","img/card_backs/set1/green.gif","img/card_backs/set1/red.gif","img/card_backs/set2/blue.gif","img/card_backs/set2/gray.gif","img/card_backs/set2/orange.gif","img/card_backs/set2/pink.gif","""event"",""trial"",""time""
""fullscreenenter"",""1"",""2413""
","
","
","""event"",""trial"",""time""
""fullscreenenter"",""1"",""2413""
","
","","868","","","","real_trial","2021-07-13 18:21:30.794","img/card_backs/set1/red.gif","0","-100","1","",""
"casino-fixation","104","448113","0.0-25.0-0.17","A1380","true","img/card_backs/set1/yellow.gif","img/card_backs/set1/purple.gif","img/card_backs/set1/green.gif","img/card_backs/set1/red.gif","img/card_backs/set2/blue.gif","img/card_backs/set2/gray.gif","img/card_backs/set2/orange.gif","img/card_backs/set2/pink.gif","""event"",""trial"",""time""
""fullscreenenter"",""1"",""2413""
","
","
","""event"",""trial"",""time""
""fullscreenenter"",""1"",""2413""
","
","","null","","null","","fixation","2021-07-13 18:21:31.297","","","","","",""
"card-selection-trial","105","452627","0.0-25.0-1.17","A1380","true","img/card_backs/set1/yellow.gif","img/card_backs/set1/purple.gif","img/card_backs/set1/green.gif","img/card_backs/set1/red.gif","img/card_backs/set2/blue.gif","img/card_backs/set2/gray.gif","img/card_backs/set2/orange.gif","img/card_backs/set2/pink.gif","""event"",""trial"",""time""
""fullscreenenter"",""1"",""2413""
","
","
","""event"",""trial"",""time""
""fullscreenenter"",""1"",""2413""
","
","","2509","","","","real_trial","2021-07-13 18:21:35.811","img/card_backs/set1/purple.gif","2","240","1","",""
"casino-fixation","106","453130","0.0-25.0-0.18","A1380","true","img/card_backs/set1/yellow.gif","img/card_backs/set1/purple.gif","img/card_backs/set1/green.gif","img/card_backs/set1/red.gif","img/card_backs/set2/blue.gif","img/card_backs/set2/gray.gif","img/card_backs/set2/orange.gif","img/card_backs/set2/pink.gif","""event"",""trial"",""time""
""fullscreenenter"",""1"",""2413""
","
","
","""event"",""trial"",""time""
""fullscreenenter"",""1"",""2413""
","
","","null","","null","","fixation","2021-07-13 18:21:36.314","","","","","",""
"card-selection-trial","107","456073","0.0-25.0-1.18","A1380","true","img/card_backs/set1/yellow.gif","img/card_backs/set1/purple.gif","img/card_backs/set1/green.gif","img/card_backs/set1/red.gif","img/card_backs/set2/blue.gif","img/card_backs/set2/gray.gif","img/card_backs/set2/orange.gif","img/card_backs/set2/pink.gif","""event"",""trial"",""time""
""fullscreenenter"",""1"",""2413""
","
","
","""event"",""trial"",""time""
""fullscreenenter"",""1"",""2413""
","
","","937.9999999999418","","","","real_trial","2021-07-13 18:21:39.257","img/card_backs/set1/yellow.gif","1","240","1","",""
"casino-fixation","108","456576","0.0-25.0-0.19","A1380","true","img/card_backs/set1/yellow.gif","img/card_backs/set1/purple.gif","img/card_backs/set1/green.gif","img/card_backs/set1/red.gif","img/card_backs/set2/blue.gif","img/card_backs/set2/gray.gif","img/card_backs/set2/orange.gif","img/card_backs/set2/pink.gif","""event"",""trial"",""time""
""fullscreenenter"",""1"",""2413""
","
","
","""event"",""trial"",""time""
""fullscreenenter"",""1"",""2413""
","
","","null","","null","","fixation","2021-07-13 18:21:39.760","","","","","",""
"card-selection-trial","109","460638","0.0-25.0-1.19","A1380","true","img/card_backs/set1/yellow.gif","img/card_backs/set1/purple.gif","img/card_backs/set1/green.gif","img/card_backs/set1/red.gif","img/card_backs/set2/blue.gif","img/card_backs/set2/gray.gif","img/card_backs/set2/orange.gif","img/card_backs/set2/pink.gif","""event"",""trial"",""time""
""fullscreenenter"",""1"",""2413""
","
","
","""event"",""trial"",""time""
""fullscreenenter"",""1"",""2413""
","
","","2058","","","","real_trial","2021-07-13 18:21:43.822","img/card_backs/set1/purple.gif","0","-200","1","",""
"casino-fixation","110","461140","0.0-25.0-0.20","A1380","true","img/card_backs/set1/yellow.gif","img/card_backs/set1/purple.gif","img/card_backs/set1/green.gif","img/card_backs/set1/red.gif","img/card_backs/set2/blue.gif","img/card_backs/set2/gray.gif","img/card_backs/set2/orange.gif","img/card_backs/set2/pink.gif","""event"",""trial"",""time""
""fullscreenenter"",""1"",""2413""
","
","
","""event"",""trial"",""time""
""fullscreenenter"",""1"",""2413""
","
","","null","","null","","fixation","2021-07-13 18:21:44.324","","","","","",""
"card-selection-trial","111","463608","0.0-25.0-1.20","A1380","true","img/card_backs/set1/yellow.gif","img/card_backs/set1/purple.gif","img/card_backs/set1/green.gif","img/card_backs/set1/red.gif","img/card_backs/set2/blue.gif","img/card_backs/set2/gray.gif","img/card_backs/set2/orange.gif","img/card_backs/set2/pink.gif","""event"",""trial"",""time""
""fullscreenenter"",""1"",""2413""
","
","
","""event"",""trial"",""time""
""fullscreenenter"",""1"",""2413""
","
","","463","","","","real_trial","2021-07-13 18:21:46.792","img/card_backs/set1/yellow.gif","0","-210","1","",""
"casino-fixation","112","464111","0.0-25.0-0.21","A1380","true","img/card_backs/set1/yellow.gif","img/card_backs/set1/purple.gif","img/card_backs/set1/green.gif","img/card_backs/set1/red.gif","img/card_backs/set2/blue.gif","img/card_backs/set2/gray.gif","img/card_backs/set2/orange.gif","img/card_backs/set2/pink.gif","""event"",""trial"",""time""
""fullscreenenter"",""1"",""2413""
","
","
","""event"",""trial"",""time""
""fullscreenenter"",""1"",""2413""
","
","","null","","null","","fixation","2021-07-13 18:21:47.295","","","","","",""
"card-selection-trial","113","467320","0.0-25.0-1.21","A1380","true","img/card_backs/set1/yellow.gif","img/card_backs/set1/purple.gif","img/card_backs/set1/green.gif","img/card_backs/set1/red.gif","img/card_backs/set2/blue.gif","img/card_backs/set2/gray.gif","img/card_backs/set2/orange.gif","img/card_backs/set2/pink.gif","""event"",""trial"",""time""
""fullscreenenter"",""1"",""2413""
","
","
","""event"",""trial"",""time""
""fullscreenenter"",""1"",""2413""
","
","","1203.9999999999418","","","","real_trial","2021-07-13 18:21:50.504","img/card_backs/set1/yellow.gif","1","250","1","",""
"casino-fixation","114","467823","0.0-25.0-0.22","A1380","true","img/card_backs/set1/yellow.gif","img/card_backs/set1/purple.gif","img/card_backs/set1/green.gif","img/card_backs/set1/red.gif","img/card_backs/set2/blue.gif","img/card_backs/set2/gray.gif","img/card_backs/set2/orange.gif","img/card_backs/set2/pink.gif","""event"",""trial"",""time""
""fullscreenenter"",""1"",""2413""
","
","
","""event"",""trial"",""time""
""fullscreenenter"",""1"",""2413""
","
","","null","","null","","fixation","2021-07-13 18:21:51.007","","","","","",""
"card-selection-trial","115","470587","0.0-25.0-1.22","A1380","true","img/card_backs/set1/yellow.gif","img/card_backs/set1/purple.gif","img/card_backs/set1/green.gif","img/card_backs/set1/red.gif","img/card_backs/set2/blue.gif","img/card_backs/set2/gray.gif","img/card_backs/set2/orange.gif","img/card_backs/set2/pink.gif","""event"",""trial"",""time""
""fullscreenenter"",""1"",""2413""
","
","
","""event"",""trial"",""time""
""fullscreenenter"",""1"",""2413""
","
","","758","","","","real_trial","2021-07-13 18:21:53.771","img/card_backs/set1/green.gif","0","60","1","",""
"casino-fixation","116","471089","0.0-25.0-0.23","A1380","true","img/card_backs/set1/yellow.gif","img/card_backs/set1/purple.gif","img/card_backs/set1/green.gif","img/card_backs/set1/red.gif","img/card_backs/set2/blue.gif","img/card_backs/set2/gray.gif","img/card_backs/set2/orange.gif","img/card_backs/set2/pink.gif","""event"",""trial"",""time""
""fullscreenenter"",""1"",""2413""
","
","
","""event"",""trial"",""time""
""fullscreenenter"",""1"",""2413""
","
","","null","","null","","fixation","2021-07-13 18:21:54.273","","","","","",""
"card-selection-trial","117","475919","0.0-25.0-1.23","A1380","true","img/card_backs/set1/yellow.gif","img/card_backs/set1/purple.gif","img/card_backs/set1/green.gif","img/card_backs/set1/red.gif","img/card_backs/set2/blue.gif","img/card_backs/set2/gray.gif","img/card_backs/set2/orange.gif","img/card_backs/set2/pink.gif","""event"",""trial"",""time""
""fullscreenenter"",""1"",""2413""
","
","
","""event"",""trial"",""time""
""fullscreenenter"",""1"",""2413""
","
","","2824","","","","real_trial","2021-07-13 18:21:59.103","img/card_backs/set1/red.gif","2","40","1","",""
"casino-fixation","118","476425","0.0-25.0-0.24","A1380","true","img/card_backs/set1/yellow.gif","img/card_backs/set1/purple.gif","img/card_backs/set1/green.gif","img/card_backs/set1/red.gif","img/card_backs/set2/blue.gif","img/card_backs/set2/gray.gif","img/card_backs/set2/orange.gif","img/card_backs/set2/pink.gif","""event"",""trial"",""time""
""fullscreenenter"",""1"",""2413""
","
","
","""event"",""trial"",""time""
""fullscreenenter"",""1"",""2413""
","
","","null","","null","","fixation","2021-07-13 18:21:59.609","","","","","",""
"card-selection-trial","119","480374","0.0-25.0-1.24","A1380","true","img/card_backs/set1/yellow.gif","img/card_backs/set1/purple.gif","img/card_backs/set1/green.gif","img/card_backs/set1/red.gif","img/card_backs/set2/blue.gif","img/card_backs/set2/gray.gif","img/card_backs/set2/orange.gif","img/card_backs/set2/pink.gif","""event"",""trial"",""time""
""fullscreenenter"",""1"",""2413""
","
","
","""event"",""trial"",""time""
""fullscreenenter"",""1"",""2413""
","
","","1943.0000000000582","","","","real_trial","2021-07-13 18:22:03.559","img/card_backs/set1/yellow.gif","0","250","1","",""
"casino-fixation","120","480881","0.0-25.0-0.25","A1380","true","img/card_backs/set1/yellow.gif","img/card_backs/set1/purple.gif","img/card_backs/set1/green.gif","img/card_backs/set1/red.gif","img/card_backs/set2/blue.gif","img/card_backs/set2/gray.gif","img/card_backs/set2/orange.gif","img/card_backs/set2/pink.gif","""event"",""trial"",""time""
""fullscreenenter"",""1"",""2413""
","
","
","""event"",""trial"",""time""
""fullscreenenter"",""1"",""2413""
","
","","null","","null","","fixation","2021-07-13 18:22:04.065","","","","","",""
"card-selection-trial","121","484312","0.0-25.0-1.25","A1380","true","img/card_backs/set1/yellow.gif","img/card_backs/set1/purple.gif","img/card_backs/set1/green.gif","img/card_backs/set1/red.gif","img/card_backs/set2/blue.gif","img/card_backs/set2/gray.gif","img/card_backs/set2/orange.gif","img/card_backs/set2/pink.gif","""event"",""trial"",""time""
""fullscreenenter"",""1"",""2413""
","
","
","""event"",""trial"",""time""
""fullscreenenter"",""1"",""2413""
","
","","1425","","","","real_trial","2021-07-13 18:22:07.496","img/card_backs/set1/purple.gif","3","260","1","",""
"casino-fixation","122","484814","0.0-25.0-0.26","A1380","true","img/card_backs/set1/yellow.gif","img/card_backs/set1/purple.gif","img/card_backs/set1/green.gif","img/card_backs/set1/red.gif","img/card_backs/set2/blue.gif","img/card_backs/set2/gray.gif","img/card_backs/set2/orange.gif","img/card_backs/set2/pink.gif","""event"",""trial"",""time""
""fullscreenenter"",""1"",""2413""
","
","
","""event"",""trial"",""time""
""fullscreenenter"",""1"",""2413""
","
","","null","","null","","fixation","2021-07-13 18:22:07.999","","","","","",""
"card-selection-trial","123","487368","0.0-25.0-1.26","A1380","true","img/card_backs/set1/yellow.gif","img/card_backs/set1/purple.gif","img/card_backs/set1/green.gif","img/card_backs/set1/red.gif","img/card_backs/set2/blue.gif","img/card_backs/set2/gray.gif","img/card_backs/set2/orange.gif","img/card_backs/set2/pink.gif","""event"",""trial"",""time""
""fullscreenenter"",""1"",""2413""
","
","
","""event"",""trial"",""time""
""fullscreenenter"",""1"",""2413""
","
","","548","","","","real_trial","2021-07-13 18:22:10.552","img/card_backs/set1/yellow.gif","1","-200","1","",""
"casino-fixation","124","487870","0.0-25.0-0.27","A1380","true","img/card_backs/set1/yellow.gif","img/card_backs/set1/purple.gif","img/card_backs/set1/green.gif","img/card_backs/set1/red.gif","img/card_backs/set2/blue.gif","img/card_backs/set2/gray.gif","img/card_backs/set2/orange.gif","img/card_backs/set2/pink.gif","""event"",""trial"",""time""
""fullscreenenter"",""1"",""2413""
","
","
","""event"",""trial"",""time""
""fullscreenenter"",""1"",""2413""
","
","","null","","null","","fixation","2021-07-13 18:22:11.054","","","","","",""
"card-selection-trial","125","491196","0.0-25.0-1.27","A1380","true","img/card_backs/set1/yellow.gif","img/card_backs/set1/purple.gif","img/card_backs/set1/green.gif","img/card_backs/set1/red.gif","img/card_backs/set2/blue.gif","img/card_backs/set2/gray.gif","img/card_backs/set2/orange.gif","img/card_backs/set2/pink.gif","""event"",""trial"",""time""
""fullscreenenter"",""1"",""2413""
","
","
","""event"",""trial"",""time""
""fullscreenenter"",""1"",""2413""
","
","","1322","","","","real_trial","2021-07-13 18:22:14.380","img/card_backs/set1/red.gif","0","-90","1","",""
"casino-fixation","126","491699","0.0-25.0-0.28","A1380","true","img/card_backs/set1/yellow.gif","img/card_backs/set1/purple.gif","img/card_backs/set1/green.gif","img/card_backs/set1/red.gif","img/card_backs/set2/blue.gif","img/card_backs/set2/gray.gif","img/card_backs/set2/orange.gif","img/card_backs/set2/pink.gif","""event"",""trial"",""time""
""fullscreenenter"",""1"",""2413""
","
","
","""event"",""trial"",""time""
""fullscreenenter"",""1"",""2413""
","
","","null","","null","","fixation","2021-07-13 18:22:14.883","","","","","",""
"card-selection-trial","127","494932","0.0-25.0-1.28","A1380","true","img/card_backs/set1/yellow.gif","img/card_backs/set1/purple.gif","img/card_backs/set1/green.gif","img/card_backs/set1/red.gif","img/card_backs/set2/blue.gif","img/card_backs/set2/gray.gif","img/card_backs/set2/orange.gif","img/card_backs/set2/pink.gif","""event"",""trial"",""time""
""fullscreenenter"",""1"",""2413""
","
","
","""event"",""trial"",""time""
""fullscreenenter"",""1"",""2413""
","
","","1228","","","","real_trial","2021-07-13 18:22:18.116","img/card_backs/set1/red.gif","2","-100","1","",""
"casino-fixation","128","495434","0.0-25.0-0.29","A1380","true","img/card_backs/set1/yellow.gif","img/card_backs/set1/purple.gif","img/card_backs/set1/green.gif","img/card_backs/set1/red.gif","img/card_backs/set2/blue.gif","img/card_backs/set2/gray.gif","img/card_backs/set2/orange.gif","img/card_backs/set2/pink.gif","""event"",""trial"",""time""
""fullscreenenter"",""1"",""2413""
","
","
","""event"",""trial"",""time""
""fullscreenenter"",""1"",""2413""
","
","","null","","null","","fixation","2021-07-13 18:22:18.618","","","","","",""
"card-selection-trial","129","499634","0.0-25.0-1.29","A1380","true","img/card_backs/set1/yellow.gif","img/card_backs/set1/purple.gif","img/card_backs/set1/green.gif","img/card_backs/set1/red.gif","img/card_backs/set2/blue.gif","img/card_backs/set2/gray.gif","img/card_backs/set2/orange.gif","img/card_backs/set2/pink.gif","""event"",""trial"",""time""
""fullscreenenter"",""1"",""2413""
","
","
","""event"",""trial"",""time""
""fullscreenenter"",""1"",""2413""
","
","","2194.999999999942","","","","real_trial","2021-07-13 18:22:22.818","img/card_backs/set1/yellow.gif","3","-190","1","",""
"casino-fixation","130","500136","0.0-25.0-0.30","A1380","true","img/card_backs/set1/yellow.gif","img/card_backs/set1/purple.gif","img/card_backs/set1/green.gif","img/card_backs/set1/red.gif","img/card_backs/set2/blue.gif","img/card_backs/set2/gray.gif","img/card_backs/set2/orange.gif","img/card_backs/set2/pink.gif","""event"",""trial"",""time""
""fullscreenenter"",""1"",""2413""
","
","
","""event"",""trial"",""time""
""fullscreenenter"",""1"",""2413""
","
","","null","","null","","fixation","2021-07-13 18:22:23.320","","","","","",""
"card-selection-trial","131","502650","0.0-25.0-1.30","A1380","true","img/card_backs/set1/yellow.gif","img/card_backs/set1/purple.gif","img/card_backs/set1/green.gif","img/card_backs/set1/red.gif","img/card_backs/set2/blue.gif","img/card_backs/set2/gray.gif","img/card_backs/set2/orange.gif","img/card_backs/set2/pink.gif","""event"",""trial"",""time""
""fullscreenenter"",""1"",""2413""
","
","
","""event"",""trial"",""time""
""fullscreenenter"",""1"",""2413""
","
","","507.9999999999418","","","","real_trial","2021-07-13 18:22:25.834","img/card_backs/set1/yellow.gif","3","-210","1","",""
"casino-fixation","132","503153","0.0-25.0-0.31","A1380","true","img/card_backs/set1/yellow.gif","img/card_backs/set1/purple.gif","img/card_backs/set1/green.gif","img/card_backs/set1/red.gif","img/card_backs/set2/blue.gif","img/card_backs/set2/gray.gif","img/card_backs/set2/orange.gif","img/card_backs/set2/pink.gif","""event"",""trial"",""time""
""fullscreenenter"",""1"",""2413""
","
","
","""event"",""trial"",""time""
""fullscreenenter"",""1"",""2413""
","
","","null","","null","","fixation","2021-07-13 18:22:26.337","","","","","",""
"card-selection-trial","133","507352","0.0-25.0-1.31","A1380","true","img/card_backs/set1/yellow.gif","img/card_backs/set1/purple.gif","img/card_backs/set1/green.gif","img/card_backs/set1/red.gif","img/card_backs/set2/blue.gif","img/card_backs/set2/gray.gif","img/card_backs/set2/orange.gif","img/card_backs/set2/pink.gif","""event"",""trial"",""time""
""fullscreenenter"",""1"",""2413""
","
","
","""event"",""trial"",""time""
""fullscreenenter"",""1"",""2413""
","
","","2195","","","","real_trial","2021-07-13 18:22:30.536","img/card_backs/set1/purple.gif","2","-190","1","",""
"casino-fixation","134","507854","0.0-25.0-0.32","A1380","true","img/card_backs/set1/yellow.gif","img/card_backs/set1/purple.gif","img/card_backs/set1/green.gif","img/card_backs/set1/red.gif","img/card_backs/set2/blue.gif","img/card_backs/set2/gray.gif","img/card_backs/set2/orange.gif","img/card_backs/set2/pink.gif","""event"",""trial"",""time""
""fullscreenenter"",""1"",""2413""
","
","
","""event"",""trial"",""time""
""fullscreenenter"",""1"",""2413""
","
","","null","","null","","fixation","2021-07-13 18:22:31.039","","","","","",""
"card-selection-trial","135","511333","0.0-25.0-1.32","A1380","true","img/card_backs/set1/yellow.gif","img/card_backs/set1/purple.gif","img/card_backs/set1/green.gif","img/card_backs/set1/red.gif","img/card_backs/set2/blue.gif","img/card_backs/set2/gray.gif","img/card_backs/set2/orange.gif","img/card_backs/set2/pink.gif","""event"",""trial"",""time""
""fullscreenenter"",""1"",""2413""
","
","
","""event"",""trial"",""time""
""fullscreenenter"",""1"",""2413""
","
","","1473","","","","real_trial","2021-07-13 18:22:34.517","img/card_backs/set1/green.gif","1","40","1","",""
"casino-fixation","136","511835","0.0-25.0-0.33","A1380","true","img/card_backs/set1/yellow.gif","img/card_backs/set1/purple.gif","img/card_backs/set1/green.gif","img/card_backs/set1/red.gif","img/card_backs/set2/blue.gif","img/card_backs/set2/gray.gif","img/card_backs/set2/orange.gif","img/card_backs/set2/pink.gif","""event"",""trial"",""time""
""fullscreenenter"",""1"",""2413""
","
","
","""event"",""trial"",""time""
""fullscreenenter"",""1"",""2413""
","
","","null","","null","","fixation","2021-07-13 18:22:35.019","","","","","",""
"card-selection-trial","137","515179","0.0-25.0-1.33","A1380","true","img/card_backs/set1/yellow.gif","img/card_backs/set1/purple.gif","img/card_backs/set1/green.gif","img/card_backs/set1/red.gif","img/card_backs/set2/blue.gif","img/card_backs/set2/gray.gif","img/card_backs/set2/orange.gif","img/card_backs/set2/pink.gif","""event"",""trial"",""time""
""fullscreenenter"",""1"",""2413""
","
","
","""event"",""trial"",""time""
""fullscreenenter"",""1"",""2413""
","
","","1338.9999999999418","","","","real_trial","2021-07-13 18:22:38.366","img/card_backs/set1/green.gif","2","60","1","",""
"casino-fixation","138","515685","0.0-25.0-0.34","A1380","true","img/card_backs/set1/yellow.gif","img/card_backs/set1/purple.gif","img/card_backs/set1/green.gif","img/card_backs/set1/red.gif","img/card_backs/set2/blue.gif","img/card_backs/set2/gray.gif","img/card_backs/set2/orange.gif","img/card_backs/set2/pink.gif","""event"",""trial"",""time""
""fullscreenenter"",""1"",""2413""
","
","
","""event"",""trial"",""time""
""fullscreenenter"",""1"",""2413""
","
","","null","","null","","fixation","2021-07-13 18:22:38.869","","","","","",""
"card-selection-trial","139","518558","0.0-25.0-1.34","A1380","true","img/card_backs/set1/yellow.gif","img/card_backs/set1/purple.gif","img/card_backs/set1/green.gif","img/card_backs/set1/red.gif","img/card_backs/set2/blue.gif","img/card_backs/set2/gray.gif","img/card_backs/set2/orange.gif","img/card_backs/set2/pink.gif","""event"",""trial"",""time""
""fullscreenenter"",""1"",""2413""
","
","
","""event"",""trial"",""time""
""fullscreenenter"",""1"",""2413""
","
","","866","","","","real_trial","2021-07-13 18:22:41.742","img/card_backs/set1/yellow.gif","0","250","1","",""
"casino-fixation","140","519063","0.0-25.0-0.35","A1380","true","img/card_backs/set1/yellow.gif","img/card_backs/set1/purple.gif","img/card_backs/set1/green.gif","img/card_backs/set1/red.gif","img/card_backs/set2/blue.gif","img/card_backs/set2/gray.gif","img/card_backs/set2/orange.gif","img/card_backs/set2/pink.gif","""event"",""trial"",""time""
""fullscreenenter"",""1"",""2413""
","
","
","""event"",""trial"",""time""
""fullscreenenter"",""1"",""2413""
","
","","null","","null","","fixation","2021-07-13 18:22:42.247","","","","","",""
"card-selection-trial","141","522518","0.0-25.0-1.35","A1380","true","img/card_backs/set1/yellow.gif","img/card_backs/set1/purple.gif","img/card_backs/set1/green.gif","img/card_backs/set1/red.gif","img/card_backs/set2/blue.gif","img/card_backs/set2/gray.gif","img/card_backs/set2/orange.gif","img/card_backs/set2/pink.gif","""event"",""trial"",""time""
""fullscreenenter"",""1"",""2413""
","
","
","""event"",""trial"",""time""
""fullscreenenter"",""1"",""2413""
","
","","1449.0000000001164","","","","real_trial","2021-07-13 18:22:45.702","img/card_backs/set1/yellow.gif","3","-190","1","",""
"casino-fixation","142","523020","0.0-25.0-0.36","A1380","true","img/card_backs/set1/yellow.gif","img/card_backs/set1/purple.gif","img/card_backs/set1/green.gif","img/card_backs/set1/red.gif","img/card_backs/set2/blue.gif","img/card_backs/set2/gray.gif","img/card_backs/set2/orange.gif","img/card_backs/set2/pink.gif","""event"",""trial"",""time""
""fullscreenenter"",""1"",""2413""
","
","
","""event"",""trial"",""time""
""fullscreenenter"",""1"",""2413""
","
","","null","","null","","fixation","2021-07-13 18:22:46.204","","","","","",""
"card-selection-trial","143","525757","0.0-25.0-1.36","A1380","true","img/card_backs/set1/yellow.gif","img/card_backs/set1/purple.gif","img/card_backs/set1/green.gif","img/card_backs/set1/red.gif","img/card_backs/set2/blue.gif","img/card_backs/set2/gray.gif","img/card_backs/set2/orange.gif","img/card_backs/set2/pink.gif","""event"",""trial"",""time""
""fullscreenenter"",""1"",""2413""
","
","
","""event"",""trial"",""time""
""fullscreenenter"",""1"",""2413""
","
","","731","","","","real_trial","2021-07-13 18:22:48.941","img/card_backs/set1/yellow.gif","2","240","1","",""
"casino-fixation","144","526260","0.0-25.0-0.37","A1380","true","img/card_backs/set1/yellow.gif","img/card_backs/set1/purple.gif","img/card_backs/set1/green.gif","img/card_backs/set1/red.gif","img/card_backs/set2/blue.gif","img/card_backs/set2/gray.gif","img/card_backs/set2/orange.gif","img/card_backs/set2/pink.gif","""event"",""trial"",""time""
""fullscreenenter"",""1"",""2413""
","
","
","""event"",""trial"",""time""
""fullscreenenter"",""1"",""2413""
","
","","null","","null","","fixation","2021-07-13 18:22:49.444","","","","","",""
"card-selection-trial","145","529898","0.0-25.0-1.37","A1380","true","img/card_backs/set1/yellow.gif","img/card_backs/set1/purple.gif","img/card_backs/set1/green.gif","img/card_backs/set1/red.gif","img/card_backs/set2/blue.gif","img/card_backs/set2/gray.gif","img/card_backs/set2/orange.gif","img/card_backs/set2/pink.gif","""event"",""trial"",""time""
""fullscreenenter"",""1"",""2413""
","
","
","""event"",""trial"",""time""
""fullscreenenter"",""1"",""2413""
","
","","1633.0000000001164","","","","real_trial","2021-07-13 18:22:53.082","img/card_backs/set1/yellow.gif","1","250","1","",""
"casino-fixation","146","530400","0.0-25.0-0.38","A1380","true","img/card_backs/set1/yellow.gif","img/card_backs/set1/purple.gif","img/card_backs/set1/green.gif","img/card_backs/set1/red.gif","img/card_backs/set2/blue.gif","img/card_backs/set2/gray.gif","img/card_backs/set2/orange.gif","img/card_backs/set2/pink.gif","""event"",""trial"",""time""
""fullscreenenter"",""1"",""2413""
","
","
","""event"",""trial"",""time""
""fullscreenenter"",""1"",""2413""
","
","","null","","null","","fixation","2021-07-13 18:22:53.584","","","","","",""
"card-selection-trial","147","533228","0.0-25.0-1.38","A1380","true","img/card_backs/set1/yellow.gif","img/card_backs/set1/purple.gif","img/card_backs/set1/green.gif","img/card_backs/set1/red.gif","img/card_backs/set2/blue.gif","img/card_backs/set2/gray.gif","img/card_backs/set2/orange.gif","img/card_backs/set2/pink.gif","""event"",""trial"",""time""
""fullscreenenter"",""1"",""2413""
","
","
","""event"",""trial"",""time""
""fullscreenenter"",""1"",""2413""
","
","","823","","","","real_trial","2021-07-13 18:22:56.412","img/card_backs/set1/yellow.gif","0","240","1","",""
"casino-fixation","148","533730","0.0-25.0-0.39","A1380","true","img/card_backs/set1/yellow.gif","img/card_backs/set1/purple.gif","img/card_backs/set1/green.gif","img/card_backs/set1/red.gif","img/card_backs/set2/blue.gif","img/card_backs/set2/gray.gif","img/card_backs/set2/orange.gif","img/card_backs/set2/pink.gif","""event"",""trial"",""time""
""fullscreenenter"",""1"",""2413""
","
","
","""event"",""trial"",""time""
""fullscreenenter"",""1"",""2413""
","
","","null","","null","","fixation","2021-07-13 18:22:56.914","","","","","",""
"card-selection-trial","149","536468","0.0-25.0-1.39","A1380","true","img/card_backs/set1/yellow.gif","img/card_backs/set1/purple.gif","img/card_backs/set1/green.gif","img/card_backs/set1/red.gif","img/card_backs/set2/blue.gif","img/card_backs/set2/gray.gif","img/card_backs/set2/orange.gif","img/card_backs/set2/pink.gif","""event"",""trial"",""time""
""fullscreenenter"",""1"",""2413""
","
","
","""event"",""trial"",""time""
""fullscreenenter"",""1"",""2413""
","
","","732","","","","real_trial","2021-07-13 18:22:59.652","img/card_backs/set1/yellow.gif","0","-210","1","",""
"casino-fixation","150","536970","0.0-25.0-0.40","A1380","true","img/card_backs/set1/yellow.gif","img/card_backs/set1/purple.gif","img/card_backs/set1/green.gif","img/card_backs/set1/red.gif","img/card_backs/set2/blue.gif","img/card_backs/set2/gray.gif","img/card_backs/set2/orange.gif","img/card_backs/set2/pink.gif","""event"",""trial"",""time""
""fullscreenenter"",""1"",""2413""
","
","
","""event"",""trial"",""time""
""fullscreenenter"",""1"",""2413""
","
","","null","","null","","fixation","2021-07-13 18:23:00.154","","","","","",""
"card-selection-trial","151","540360","0.0-25.0-1.40","A1380","true","img/card_backs/set1/yellow.gif","img/card_backs/set1/purple.gif","img/card_backs/set1/green.gif","img/card_backs/set1/red.gif","img/card_backs/set2/blue.gif","img/card_backs/set2/gray.gif","img/card_backs/set2/orange.gif","img/card_backs/set2/pink.gif","""event"",""trial"",""time""
""fullscreenenter"",""1"",""2413""
","
","
","""event"",""trial"",""time""
""fullscreenenter"",""1"",""2413""
","
","","1384","","","","real_trial","2021-07-13 18:23:03.547","img/card_backs/set1/green.gif","1","-110","1","",""
"casino-fixation","152","540866","0.0-25.0-0.41","A1380","true","img/card_backs/set1/yellow.gif","img/card_backs/set1/purple.gif","img/card_backs/set1/green.gif","img/card_backs/set1/red.gif","img/card_backs/set2/blue.gif","img/card_backs/set2/gray.gif","img/card_backs/set2/orange.gif","img/card_backs/set2/pink.gif","""event"",""trial"",""time""
""fullscreenenter"",""1"",""2413""
","
","
","""event"",""trial"",""time""
""fullscreenenter"",""1"",""2413""
","
","","null","","null","","fixation","2021-07-13 18:23:04.050","","","","","",""
"card-selection-trial","153","543600","0.0-25.0-1.41","A1380","true","img/card_backs/set1/yellow.gif","img/card_backs/set1/purple.gif","img/card_backs/set1/green.gif","img/card_backs/set1/red.gif","img/card_backs/set2/blue.gif","img/card_backs/set2/gray.gif","img/card_backs/set2/orange.gif","img/card_backs/set2/pink.gif","""event"",""trial"",""time""
""fullscreenenter"",""1"",""2413""
","
","
","""event"",""trial"",""time""
""fullscreenenter"",""1"",""2413""
","
","","729","","","","real_trial","2021-07-13 18:23:06.785","img/card_backs/set1/yellow.gif","2","250","1","",""
"casino-fixation","154","544103","0.0-25.0-0.42","A1380","true","img/card_backs/set1/yellow.gif","img/card_backs/set1/purple.gif","img/card_backs/set1/green.gif","img/card_backs/set1/red.gif","img/card_backs/set2/blue.gif","img/card_backs/set2/gray.gif","img/card_backs/set2/orange.gif","img/card_backs/set2/pink.gif","""event"",""trial"",""time""
""fullscreenenter"",""1"",""2413""
","
","
","""event"",""trial"",""time""
""fullscreenenter"",""1"",""2413""
","
","","null","","null","","fixation","2021-07-13 18:23:07.287","","","","","",""
"card-selection-trial","155","546883","0.0-25.0-1.42","A1380","true","img/card_backs/set1/yellow.gif","img/card_backs/set1/purple.gif","img/card_backs/set1/green.gif","img/card_backs/set1/red.gif","img/card_backs/set2/blue.gif","img/card_backs/set2/gray.gif","img/card_backs/set2/orange.gif","img/card_backs/set2/pink.gif","""event"",""trial"",""time""
""fullscreenenter"",""1"",""2413""
","
","
","""event"",""trial"",""time""
""fullscreenenter"",""1"",""2413""
","
","","774","","","","real_trial","2021-07-13 18:23:10.067","img/card_backs/set1/yellow.gif","0","-190","1","",""
"casino-fixation","156","547386","0.0-25.0-0.43","A1380","true","img/card_backs/set1/yellow.gif","img/card_backs/set1/purple.gif","img/card_backs/set1/green.gif","img/card_backs/set1/red.gif","img/card_backs/set2/blue.gif","img/card_backs/set2/gray.gif","img/card_backs/set2/orange.gif","img/card_backs/set2/pink.gif","""event"",""trial"",""time""
""fullscreenenter"",""1"",""2413""
","
","
","""event"",""trial"",""time""
""fullscreenenter"",""1"",""2413""
","
","","null","","null","","fixation","2021-07-13 18:23:10.570","","","","","",""
"card-selection-trial","157","550189","0.0-25.0-1.43","A1380","true","img/card_backs/set1/yellow.gif","img/card_backs/set1/purple.gif","img/card_backs/set1/green.gif","img/card_backs/set1/red.gif","img/card_backs/set2/blue.gif","img/card_backs/set2/gray.gif","img/card_backs/set2/orange.gif","img/card_backs/set2/pink.gif","""event"",""trial"",""time""
""fullscreenenter"",""1"",""2413""
","
","
","""event"",""trial"",""time""
""fullscreenenter"",""1"",""2413""
","
","","798","","","","real_trial","2021-07-13 18:23:13.373","img/card_backs/set1/red.gif","0","50","1","",""
"casino-fixation","158","550692","0.0-25.0-0.44","A1380","true","img/card_backs/set1/yellow.gif","img/card_backs/set1/purple.gif","img/card_backs/set1/green.gif","img/card_backs/set1/red.gif","img/card_backs/set2/blue.gif","img/card_backs/set2/gray.gif","img/card_backs/set2/orange.gif","img/card_backs/set2/pink.gif","""event"",""trial"",""time""
""fullscreenenter"",""1"",""2413""
","
","
","""event"",""trial"",""time""
""fullscreenenter"",""1"",""2413""
","
","","null","","null","","fixation","2021-07-13 18:23:13.876","","","","","",""
"card-selection-trial","159","554581","0.0-25.0-1.44","A1380","true","img/card_backs/set1/yellow.gif","img/card_backs/set1/purple.gif","img/card_backs/set1/green.gif","img/card_backs/set1/red.gif","img/card_backs/set2/blue.gif","img/card_backs/set2/gray.gif","img/card_backs/set2/orange.gif","img/card_backs/set2/pink.gif","""event"",""trial"",""time""
""fullscreenenter"",""1"",""2413""
","
","
","""event"",""trial"",""time""
""fullscreenenter"",""1"",""2413""
","
","","1883","","","","real_trial","2021-07-13 18:23:17.765","img/card_backs/set1/yellow.gif","2","260","1","",""
"casino-fixation","160","555084","0.0-25.0-0.45","A1380","true","img/card_backs/set1/yellow.gif","img/card_backs/set1/purple.gif","img/card_backs/set1/green.gif","img/card_backs/set1/red.gif","img/card_backs/set2/blue.gif","img/card_backs/set2/gray.gif","img/card_backs/set2/orange.gif","img/card_backs/set2/pink.gif","""event"",""trial"",""time""
""fullscreenenter"",""1"",""2413""
","
","
","""event"",""trial"",""time""
""fullscreenenter"",""1"",""2413""
","
","","null","","null","","fixation","2021-07-13 18:23:18.268","","","","","",""
"card-selection-trial","161","557866","0.0-25.0-1.45","A1380","true","img/card_backs/set1/yellow.gif","img/card_backs/set1/purple.gif","img/card_backs/set1/green.gif","img/card_backs/set1/red.gif","img/card_backs/set2/blue.gif","img/card_backs/set2/gray.gif","img/card_backs/set2/orange.gif","img/card_backs/set2/pink.gif","""event"",""trial"",""time""
""fullscreenenter"",""1"",""2413""
","
","
","""event"",""trial"",""time""
""fullscreenenter"",""1"",""2413""
","
","","777","","","","real_trial","2021-07-13 18:23:21.050","img/card_backs/set1/green.gif","0","-90","1","",""
"casino-fixation","162","558368","0.0-25.0-0.46","A1380","true","img/card_backs/set1/yellow.gif","img/card_backs/set1/purple.gif","img/card_backs/set1/green.gif","img/card_backs/set1/red.gif","img/card_backs/set2/blue.gif","img/card_backs/set2/gray.gif","img/card_backs/set2/orange.gif","img/card_backs/set2/pink.gif","""event"",""trial"",""time""
""fullscreenenter"",""1"",""2413""
","
","
","""event"",""trial"",""time""
""fullscreenenter"",""1"",""2413""
","
","","null","","null","","fixation","2021-07-13 18:23:21.552","","","","","",""
"card-selection-trial","163","561398","0.0-25.0-1.46","A1380","true","img/card_backs/set1/yellow.gif","img/card_backs/set1/purple.gif","img/card_backs/set1/green.gif","img/card_backs/set1/red.gif","img/card_backs/set2/blue.gif","img/card_backs/set2/gray.gif","img/card_backs/set2/orange.gif","img/card_backs/set2/pink.gif","""event"",""trial"",""time""
""fullscreenenter"",""1"",""2413""
","
","
","""event"",""trial"",""time""
""fullscreenenter"",""1"",""2413""
","
","","1024","","","","real_trial","2021-07-13 18:23:24.582","img/card_backs/set1/yellow.gif","3","-210","1","",""
"casino-fixation","164","561901","0.0-25.0-0.47","A1380","true","img/card_backs/set1/yellow.gif","img/card_backs/set1/purple.gif","img/card_backs/set1/green.gif","img/card_backs/set1/red.gif","img/card_backs/set2/blue.gif","img/card_backs/set2/gray.gif","img/card_backs/set2/orange.gif","img/card_backs/set2/pink.gif","""event"",""trial"",""time""
""fullscreenenter"",""1"",""2413""
","
","
","""event"",""trial"",""time""
""fullscreenenter"",""1"",""2413""
","
","","null","","null","","fixation","2021-07-13 18:23:25.085","","","","","",""
"card-selection-trial","165","564413","0.0-25.0-1.47","A1380","true","img/card_backs/set1/yellow.gif","img/card_backs/set1/purple.gif","img/card_backs/set1/green.gif","img/card_backs/set1/red.gif","img/card_backs/set2/blue.gif","img/card_backs/set2/gray.gif","img/card_backs/set2/orange.gif","img/card_backs/set2/pink.gif","""event"",""trial"",""time""
""fullscreenenter"",""1"",""2413""
","
","
","""event"",""trial"",""time""
""fullscreenenter"",""1"",""2413""
","
","","506","","","","real_trial","2021-07-13 18:23:27.597","img/card_backs/set1/yellow.gif","3","-190","1","",""
"casino-fixation","166","564916","0.0-25.0-0.48","A1380","true","img/card_backs/set1/yellow.gif","img/card_backs/set1/purple.gif","img/card_backs/set1/green.gif","img/card_backs/set1/red.gif","img/card_backs/set2/blue.gif","img/card_backs/set2/gray.gif","img/card_backs/set2/orange.gif","img/card_backs/set2/pink.gif","""event"",""trial"",""time""
""fullscreenenter"",""1"",""2413""
","
","
","""event"",""trial"",""time""
""fullscreenenter"",""1"",""2413""
","
","","null","","null","","fixation","2021-07-13 18:23:28.100","","","","","",""
"card-selection-trial","167","568148","0.0-25.0-1.48","A1380","true","img/card_backs/set1/yellow.gif","img/card_backs/set1/purple.gif","img/card_backs/set1/green.gif","img/card_backs/set1/red.gif","img/card_backs/set2/blue.gif","img/card_backs/set2/gray.gif","img/card_backs/set2/orange.gif","img/card_backs/set2/pink.gif","""event"",""trial"",""time""
""fullscreenenter"",""1"",""2413""
","
","
","""event"",""trial"",""time""
""fullscreenenter"",""1"",""2413""
","
","","1227","","","","real_trial","2021-07-13 18:23:31.332","img/card_backs/set1/yellow.gif","1","-210","1","",""
"casino-fixation","168","568651","0.0-25.0-0.49","A1380","true","img/card_backs/set1/yellow.gif","img/card_backs/set1/purple.gif","img/card_backs/set1/green.gif","img/card_backs/set1/red.gif","img/card_backs/set2/blue.gif","img/card_backs/set2/gray.gif","img/card_backs/set2/orange.gif","img/card_backs/set2/pink.gif","""event"",""trial"",""time""
""fullscreenenter"",""1"",""2413""
","
","
","""event"",""trial"",""time""
""fullscreenenter"",""1"",""2413""
","
","","null","","null","","fixation","2021-07-13 18:23:31.835","","","","","",""
