"trial_type","trial_index","time_elapsed","internal_node_id","sub_id","risk_good_first","block1_A","block1_B","block1_C","block1_D","block2_A","block2_B","block2_C","block2_D","interactions","blur_events","focus_events","fullscreenenter_events","fullscreenexit_events","success","rt","stimulus","key_press","button_pressed","task_part","timestamp","card_choice","choice_position","points_earned","block","correct","response"
"pavlovia","0","8","0.0-0.0","946","true","img/card_backs/set1/yellow.gif","img/card_backs/set1/purple.gif","img/card_backs/set1/red.gif","img/card_backs/set1/green.gif","img/card_backs/set2/pink.gif","img/card_backs/set2/blue.gif","img/card_backs/set2/gray.gif","img/card_backs/set2/orange.gif","""event"",""trial"",""time""
""fullscreenenter"",""1"",""9945""
","
","
","""event"",""trial"",""time""
""fullscreenenter"",""1"",""9945""
","
","","","","","","","","","","","","",""
"fullscreen","1","10935","0.0-1.0","946","true","img/card_backs/set1/yellow.gif","img/card_backs/set1/purple.gif","img/card_backs/set1/red.gif","img/card_backs/set1/green.gif","img/card_backs/set2/pink.gif","img/card_backs/set2/blue.gif","img/card_backs/set2/gray.gif","img/card_backs/set2/orange.gif","""event"",""trial"",""time""
""fullscreenenter"",""1"",""9945""
","
","
","""event"",""trial"",""time""
""fullscreenenter"",""1"",""9945""
","
","true","","","","","","","","","","","",""
"audio-keyboard-response","2","16822","0.0-2.0","946","true","img/card_backs/set1/yellow.gif","img/card_backs/set1/purple.gif","img/card_backs/set1/red.gif","img/card_backs/set1/green.gif","img/card_backs/set2/pink.gif","img/card_backs/set2/blue.gif","img/card_backs/set2/gray.gif","img/card_backs/set2/orange.gif","""event"",""trial"",""time""
""fullscreenenter"",""1"",""9945""
","
","
","""event"",""trial"",""time""
""fullscreenenter"",""1"",""9945""
","
","","5764","audio/beep_loop.wav","32","","","","","","","","",""
"audio-button-response","3","23705","0.0-3.0","946","true","img/card_backs/set1/yellow.gif","img/card_backs/set1/purple.gif","img/card_backs/set1/red.gif","img/card_backs/set1/green.gif","img/card_backs/set2/pink.gif","img/card_backs/set2/blue.gif","img/card_backs/set2/gray.gif","img/card_backs/set2/orange.gif","""event"",""trial"",""time""
""fullscreenenter"",""1"",""9945""
","
","
","""event"",""trial"",""time""
""fullscreenenter"",""1"",""9945""
","
","","NaN","audio/turtle.mp3","","3","","","","","","","",""
"audio-button-response","4","26930","0.0-4.0","946","true","img/card_backs/set1/yellow.gif","img/card_backs/set1/purple.gif","img/card_backs/set1/red.gif","img/card_backs/set1/green.gif","img/card_backs/set2/pink.gif","img/card_backs/set2/blue.gif","img/card_backs/set2/gray.gif","img/card_backs/set2/orange.gif","""event"",""trial"",""time""
""fullscreenenter"",""1"",""9945""
","
","
","""event"",""trial"",""time""
""fullscreenenter"",""1"",""9945""
","
","","NaN","audio/shark.mp3","","2","","","","","","","",""
"fullscreen","5","31518","0.0-5.0","946","true","img/card_backs/set1/yellow.gif","img/card_backs/set1/purple.gif","img/card_backs/set1/red.gif","img/card_backs/set1/green.gif","img/card_backs/set2/pink.gif","img/card_backs/set2/blue.gif","img/card_backs/set2/gray.gif","img/card_backs/set2/orange.gif","""event"",""trial"",""time""
""fullscreenenter"",""1"",""9945""
","
","
","""event"",""trial"",""time""
""fullscreenenter"",""1"",""9945""
","
","true","","","","","","","","","","","",""
"casino-keyboard-response","6","40454","0.0-6.0-0.0","946","true","img/card_backs/set1/yellow.gif","img/card_backs/set1/purple.gif","img/card_backs/set1/red.gif","img/card_backs/set1/green.gif","img/card_backs/set2/pink.gif","img/card_backs/set2/blue.gif","img/card_backs/set2/gray.gif","img/card_backs/set2/orange.gif","""event"",""trial"",""time""
""fullscreenenter"",""1"",""9945""
","
","
","""event"",""trial"",""time""
""fullscreenenter"",""1"",""9945""
","
","","8929.860000032932","Welcome to the casino!","71","","instructions","2021-06-26 10:48:52.177","","","","","",""
"casino-keyboard-response","7","50750","0.0-6.0-0.1","946","true","img/card_backs/set1/yellow.gif","img/card_backs/set1/purple.gif","img/card_backs/set1/red.gif","img/card_backs/set1/green.gif","img/card_backs/set2/pink.gif","img/card_backs/set2/blue.gif","img/card_backs/set2/gray.gif","img/card_backs/set2/orange.gif","""event"",""trial"",""time""
""fullscreenenter"",""1"",""9945""
","
","
","""event"",""trial"",""time""
""fullscreenenter"",""1"",""9945""
","
","","10293.089999991935","Today you will be playing a game to earn tokens. </br> At the end of the experiment, you will be paid a bonus based on how many tokens you win. ","69","","instructions","2021-06-26 10:49:02.472","","","","","",""
"casino-keyboard-response","8","58352","0.0-6.0-0.2","946","true","img/card_backs/set1/yellow.gif","img/card_backs/set1/purple.gif","img/card_backs/set1/red.gif","img/card_backs/set1/green.gif","img/card_backs/set2/pink.gif","img/card_backs/set2/blue.gif","img/card_backs/set2/gray.gif","img/card_backs/set2/orange.gif","""event"",""trial"",""time""
""fullscreenenter"",""1"",""9945""
","
","
","""event"",""trial"",""time""
""fullscreenenter"",""1"",""9945""
","
","","7599.719999998342","On every turn, you will be shown four different decks of cards. </br> You need to select a card from one of the four decks.  ","75","","instructions","2021-06-26 10:49:10.074","","","","","",""
"casino-keyboard-response","9","63277","0.0-6.0-0.3","946","true","img/card_backs/set1/yellow.gif","img/card_backs/set1/purple.gif","img/card_backs/set1/red.gif","img/card_backs/set1/green.gif","img/card_backs/set2/pink.gif","img/card_backs/set2/blue.gif","img/card_backs/set2/gray.gif","img/card_backs/set2/orange.gif","""event"",""trial"",""time""
""fullscreenenter"",""1"",""9945""
","
","
","""event"",""trial"",""time""
""fullscreenenter"",""1"",""9945""
","
","","4924.070000008214","On the next screen, you will see what the decks will look like. ","66","","instructions","2021-06-26 10:49:14.999","","","","","",""
"card-selection-trial","10","67286","0.0-7.0-0.0","946","true","img/card_backs/set1/yellow.gif","img/card_backs/set1/purple.gif","img/card_backs/set1/red.gif","img/card_backs/set1/green.gif","img/card_backs/set2/pink.gif","img/card_backs/set2/blue.gif","img/card_backs/set2/gray.gif","img/card_backs/set2/orange.gif","""event"",""trial"",""time""
""fullscreenenter"",""1"",""9945""
","
","
","""event"",""trial"",""time""
""fullscreenenter"",""1"",""9945""
","
","","null","","","","practice","2021-06-26 10:49:19.008","null","null","null","0","",""
"casino-keyboard-response","11","77887","0.0-8.0-0.0","946","true","img/card_backs/set1/yellow.gif","img/card_backs/set1/purple.gif","img/card_backs/set1/red.gif","img/card_backs/set1/green.gif","img/card_backs/set2/pink.gif","img/card_backs/set2/blue.gif","img/card_backs/set2/gray.gif","img/card_backs/set2/orange.gif","""event"",""trial"",""time""
""fullscreenenter"",""1"",""9945""
","
","
","""event"",""trial"",""time""
""fullscreenenter"",""1"",""9945""
","
","","10599.700000020675","You should pick a card from a deck using the '2', '4', '6', and '8' keys at the top of the keyboard.","85","","instructions","2021-06-26 10:49:29.610","","","","","",""
"casino-keyboard-response","12","84574","0.0-8.0-0.1","946","true","img/card_backs/set1/yellow.gif","img/card_backs/set1/purple.gif","img/card_backs/set1/red.gif","img/card_backs/set1/green.gif","img/card_backs/set2/pink.gif","img/card_backs/set2/blue.gif","img/card_backs/set2/gray.gif","img/card_backs/set2/orange.gif","""event"",""trial"",""time""
""fullscreenenter"",""1"",""9945""
","
","
","""event"",""trial"",""time""
""fullscreenenter"",""1"",""9945""
","
","","6685.089999984484","Once you select a card, it will turn over and you will see how many tokens you earned.","83","","instructions","2021-06-26 10:49:36.297","","","","","",""
"casino-keyboard-response","13","102492","0.0-8.0-0.2","946","true","img/card_backs/set1/yellow.gif","img/card_backs/set1/purple.gif","img/card_backs/set1/red.gif","img/card_backs/set1/green.gif","img/card_backs/set2/pink.gif","img/card_backs/set2/blue.gif","img/card_backs/set2/gray.gif","img/card_backs/set2/orange.gif","""event"",""trial"",""time""
""fullscreenenter"",""1"",""9945""
","
","
","""event"",""trial"",""time""
""fullscreenenter"",""1"",""9945""
","
","","17915.534999978263","Let's try practicing that! </br> First, try to put your fingers over the '2', '4', '6', and '8' keys. </br>  You can use whatever fingers are most comfortable for you. Try to find a comfortable position now. ","50","","instructions","2021-06-26 10:49:54.214","","","","","",""
"casino-keyboard-response","14","112177","0.0-8.0-0.3","946","true","img/card_backs/set1/yellow.gif","img/card_backs/set1/purple.gif","img/card_backs/set1/red.gif","img/card_backs/set1/green.gif","img/card_backs/set2/pink.gif","img/card_backs/set2/blue.gif","img/card_backs/set2/gray.gif","img/card_backs/set2/orange.gif","""event"",""trial"",""time""
""fullscreenenter"",""1"",""9945""
","
","
","""event"",""trial"",""time""
""fullscreenenter"",""1"",""9945""
","
","","9679.15499996161","Okay ready? </br> On the next screen, press '2' to select the left deck. ","50","","instructions","2021-06-26 10:50:03.899","","","","","",""
"card-selection-trial","15","118987","0.0-9.0-0.0","946","true","img/card_backs/set1/yellow.gif","img/card_backs/set1/purple.gif","img/card_backs/set1/red.gif","img/card_backs/set1/green.gif","img/card_backs/set2/pink.gif","img/card_backs/set2/blue.gif","img/card_backs/set2/gray.gif","img/card_backs/set2/orange.gif","""event"",""trial"",""time""
""fullscreenenter"",""1"",""9945""
","
","
","""event"",""trial"",""time""
""fullscreenenter"",""1"",""9945""
","
","","4751.300000003539","","","","practice_card_selection","2021-06-26 10:50:10.711","img/practice_cards/backs/black.gif","0","100","","",""
"casino-keyboard-response","16","125952","0.0-10.0-0.0","946","true","img/card_backs/set1/yellow.gif","img/card_backs/set1/purple.gif","img/card_backs/set1/red.gif","img/card_backs/set1/green.gif","img/card_backs/set2/pink.gif","img/card_backs/set2/blue.gif","img/card_backs/set2/gray.gif","img/card_backs/set2/orange.gif","""event"",""trial"",""time""
""fullscreenenter"",""1"",""9945""
","
","
","""event"",""trial"",""time""
""fullscreenenter"",""1"",""9945""
","
","","6959.549999970477","Great! Now on the next screen, try pressing '6' to select the third deck.","54","","instructions","2021-06-26 10:50:17.675","","","","","",""
"card-selection-trial","17","129709","0.0-11.0-0.0","946","true","img/card_backs/set1/yellow.gif","img/card_backs/set1/purple.gif","img/card_backs/set1/red.gif","img/card_backs/set1/green.gif","img/card_backs/set2/pink.gif","img/card_backs/set2/blue.gif","img/card_backs/set2/gray.gif","img/card_backs/set2/orange.gif","""event"",""trial"",""time""
""fullscreenenter"",""1"",""9945""
","
","
","""event"",""trial"",""time""
""fullscreenenter"",""1"",""9945""
","
","","1741.199999989476","","","","practice_card_selection","2021-06-26 10:50:21.431","img/practice_cards/backs/dark_blue.gif","2","200","","",""
"casino-keyboard-response","18","135441","0.0-12.0-0.0","946","true","img/card_backs/set1/yellow.gif","img/card_backs/set1/purple.gif","img/card_backs/set1/red.gif","img/card_backs/set1/green.gif","img/card_backs/set2/pink.gif","img/card_backs/set2/blue.gif","img/card_backs/set2/gray.gif","img/card_backs/set2/orange.gif","""event"",""trial"",""time""
""fullscreenenter"",""1"",""9945""
","
","
","""event"",""trial"",""time""
""fullscreenenter"",""1"",""9945""
","
","","5730.574999994133","Now on the next screen, try pressing '4' to select the second deck.","52","","instructions","2021-06-26 10:50:27.163","","","","","",""
"card-selection-trial","19","138598","0.0-13.0-0.0","946","true","img/card_backs/set1/yellow.gif","img/card_backs/set1/purple.gif","img/card_backs/set1/red.gif","img/card_backs/set1/green.gif","img/card_backs/set2/pink.gif","img/card_backs/set2/blue.gif","img/card_backs/set2/gray.gif","img/card_backs/set2/orange.gif","""event"",""trial"",""time""
""fullscreenenter"",""1"",""9945""
","
","
","""event"",""trial"",""time""
""fullscreenenter"",""1"",""9945""
","
","","1149.4450000463985","","","","practice_card_selection","2021-06-26 10:50:30.320","img/practice_cards/backs/brown.gif","1","-100","","",""
"casino-keyboard-response","20","144033","0.0-14.0-0.0","946","true","img/card_backs/set1/yellow.gif","img/card_backs/set1/purple.gif","img/card_backs/set1/red.gif","img/card_backs/set1/green.gif","img/card_backs/set2/pink.gif","img/card_backs/set2/blue.gif","img/card_backs/set2/gray.gif","img/card_backs/set2/orange.gif","""event"",""trial"",""time""
""fullscreenenter"",""1"",""9945""
","
","
","""event"",""trial"",""time""
""fullscreenenter"",""1"",""9945""
","
","","5432.900000014342","Finally, try pressing '8' to select the deck all the way on the right.","56","","instructions","2021-06-26 10:50:35.755","","","","","",""
"card-selection-trial","21","147147","0.0-15.0-0.0","946","true","img/card_backs/set1/yellow.gif","img/card_backs/set1/purple.gif","img/card_backs/set1/red.gif","img/card_backs/set1/green.gif","img/card_backs/set2/pink.gif","img/card_backs/set2/blue.gif","img/card_backs/set2/gray.gif","img/card_backs/set2/orange.gif","""event"",""trial"",""time""
""fullscreenenter"",""1"",""9945""
","
","
","""event"",""trial"",""time""
""fullscreenenter"",""1"",""9945""
","
","","1107.2150000254624","","","","practice_card_selection","2021-06-26 10:50:38.869","img/practice_cards/backs/dark_green.gif","3","200","","",""
"casino-keyboard-response","22","156493","0.0-16.0-0.0","946","true","img/card_backs/set1/yellow.gif","img/card_backs/set1/purple.gif","img/card_backs/set1/red.gif","img/card_backs/set1/green.gif","img/card_backs/set2/pink.gif","img/card_backs/set2/blue.gif","img/card_backs/set2/gray.gif","img/card_backs/set2/orange.gif","""event"",""trial"",""time""
""fullscreenenter"",""1"",""9945""
","
","
","""event"",""trial"",""time""
""fullscreenenter"",""1"",""9945""
","
","","9344.455000013113","Great! It seems like you are getting the hang of this.","80","","instructions","2021-06-26 10:50:48.215","","","","","",""
"casino-keyboard-response","23","166888","0.0-16.0-0.1","946","true","img/card_backs/set1/yellow.gif","img/card_backs/set1/purple.gif","img/card_backs/set1/red.gif","img/card_backs/set1/green.gif","img/card_backs/set2/pink.gif","img/card_backs/set2/blue.gif","img/card_backs/set2/gray.gif","img/card_backs/set2/orange.gif","""event"",""trial"",""time""
""fullscreenenter"",""1"",""9945""
","
","
","""event"",""trial"",""time""
""fullscreenenter"",""1"",""9945""
","
","","10391.064999974333","You may have noticed that some cards will cause you to <b> win </b> tokens while other cards will cause you to <b> lose </b>  tokens.","70","","instructions","2021-06-26 10:50:58.610","","","","","",""
"casino-keyboard-response","24","178118","0.0-16.0-0.2","946","true","img/card_backs/set1/yellow.gif","img/card_backs/set1/purple.gif","img/card_backs/set1/red.gif","img/card_backs/set1/green.gif","img/card_backs/set2/pink.gif","img/card_backs/set2/blue.gif","img/card_backs/set2/gray.gif","img/card_backs/set2/orange.gif","""event"",""trial"",""time""
""fullscreenenter"",""1"",""9945""
","
","
","""event"",""trial"",""time""
""fullscreenenter"",""1"",""9945""
","
","","11225.585000007413","Each deck has a mix of cards that will cause you to win and lose tokens. </br> However, the cards in each colored deck are different.","73","","instructions","2021-06-26 10:51:09.840","","","","","",""
"casino-keyboard-response","25","189548","0.0-16.0-0.3","946","true","img/card_backs/set1/yellow.gif","img/card_backs/set1/purple.gif","img/card_backs/set1/red.gif","img/card_backs/set1/green.gif","img/card_backs/set2/pink.gif","img/card_backs/set2/blue.gif","img/card_backs/set2/gray.gif","img/card_backs/set2/orange.gif","""event"",""trial"",""time""
""fullscreenenter"",""1"",""9945""
","
","
","""event"",""trial"",""time""
""fullscreenenter"",""1"",""9945""
","
","","11424.69999997411","Some colored decks are luckier than others. </br> If you choose the lucky decks, you will earn more tokens than if you choose the unlucky decks.","69","","instructions","2021-06-26 10:51:21.270","","","","","",""
"casino-keyboard-response","26","199994","0.0-16.0-0.4","946","true","img/card_backs/set1/yellow.gif","img/card_backs/set1/purple.gif","img/card_backs/set1/red.gif","img/card_backs/set1/green.gif","img/card_backs/set2/pink.gif","img/card_backs/set2/blue.gif","img/card_backs/set2/gray.gif","img/card_backs/set2/orange.gif","""event"",""trial"",""time""
""fullscreenenter"",""1"",""9945""
","
","
","""event"",""trial"",""time""
""fullscreenenter"",""1"",""9945""
","
","","10444.029999955092","You should try to figure out which decks are lucky. </br> Then, try to choose the lucky decks so you can win the most tokens.","87","","instructions","2021-06-26 10:51:31.717","","","","","",""
"casino-keyboard-response","27","213472","0.0-16.0-0.5","946","true","img/card_backs/set1/yellow.gif","img/card_backs/set1/purple.gif","img/card_backs/set1/red.gif","img/card_backs/set1/green.gif","img/card_backs/set2/pink.gif","img/card_backs/set2/blue.gif","img/card_backs/set2/gray.gif","img/card_backs/set2/orange.gif","""event"",""trial"",""time""
""fullscreenenter"",""1"",""9945""
","
","
","""event"",""trial"",""time""
""fullscreenenter"",""1"",""9945""
","
","","13475.295000011101","To make it trickier, the casino dealer will switch the locations of the decks on every turn. </br> The color of the deck determines how lucky it is. The location does not matter.","88","","instructions","2021-06-26 10:51:45.195","","","","","",""
"casino-keyboard-response","28","230165","0.0-16.0-0.6","946","true","img/card_backs/set1/yellow.gif","img/card_backs/set1/purple.gif","img/card_backs/set1/red.gif","img/card_backs/set1/green.gif","img/card_backs/set2/pink.gif","img/card_backs/set2/blue.gif","img/card_backs/set2/gray.gif","img/card_backs/set2/orange.gif","""event"",""trial"",""time""
""fullscreenenter"",""1"",""9945""
","
","
","""event"",""trial"",""time""
""fullscreenenter"",""1"",""9945""
","
","","16689.38000005437","The mix of cards in each colored deck will stay the same throughout the game. </br> That means that a deck that is lucky early on will stay lucky.","79","","instructions","2021-06-26 10:52:01.887","","","","","",""
"casino-keyboard-response","29","239776","0.0-16.0-0.7","946","true","img/card_backs/set1/yellow.gif","img/card_backs/set1/purple.gif","img/card_backs/set1/red.gif","img/card_backs/set1/green.gif","img/card_backs/set2/pink.gif","img/card_backs/set2/blue.gif","img/card_backs/set2/gray.gif","img/card_backs/set2/orange.gif","""event"",""trial"",""time""
""fullscreenenter"",""1"",""9945""
","
","
","""event"",""trial"",""time""
""fullscreenenter"",""1"",""9945""
","
","","9607.880000025034","Remember though, all the decks have a <b> mix </b> of both <b> good </b> and <b> bad </b> cards so it may take a couple of turns to figure out if a deck is lucky.","69","","instructions","2021-06-26 10:52:11.498","","","","","",""
"casino-keyboard-response","30","250376","0.0-16.0-0.8","946","true","img/card_backs/set1/yellow.gif","img/card_backs/set1/purple.gif","img/card_backs/set1/red.gif","img/card_backs/set1/green.gif","img/card_backs/set2/pink.gif","img/card_backs/set2/blue.gif","img/card_backs/set2/gray.gif","img/card_backs/set2/orange.gif","""event"",""trial"",""time""
""fullscreenenter"",""1"",""9945""
","
","
","""event"",""trial"",""time""
""fullscreenenter"",""1"",""9945""
","
","","10597.165000042878","At the end of the game, you will be paid bonus money based on how many tokens you win. </br> If you win more tokens, you will earn more money!","72","","instructions","2021-06-26 10:52:22.098","","","","","",""
"casino-keyboard-response","31","262549","0.0-16.0-0.9","946","true","img/card_backs/set1/yellow.gif","img/card_backs/set1/purple.gif","img/card_backs/set1/red.gif","img/card_backs/set1/green.gif","img/card_backs/set2/pink.gif","img/card_backs/set2/blue.gif","img/card_backs/set2/gray.gif","img/card_backs/set2/orange.gif","""event"",""trial"",""time""
""fullscreenenter"",""1"",""9945""
","
","
","""event"",""trial"",""time""
""fullscreenenter"",""1"",""9945""
","
","","12170.090000028722","You will never <b> lose </b> money. </br> If you end up with fewer than 0 tokens, you will earn $0 of bonus money, but you will still be paid for playing the game.","83","","instructions","2021-06-26 10:52:34.271","","","","","",""
"casino-keyboard-response","32","281175","0.0-16.0-0.10","946","true","img/card_backs/set1/yellow.gif","img/card_backs/set1/purple.gif","img/card_backs/set1/red.gif","img/card_backs/set1/green.gif","img/card_backs/set2/pink.gif","img/card_backs/set2/blue.gif","img/card_backs/set2/gray.gif","img/card_backs/set2/orange.gif","""event"",""trial"",""time""
""fullscreenenter"",""1"",""9945""
","
","
","""event"",""trial"",""time""
""fullscreenenter"",""1"",""9945""
","
","","18622.88500001887","You will have 10 seconds to make each choice.","82","","instructions","2021-06-26 10:52:52.897","","","","","",""
"casino-keyboard-response","33","290488","0.0-16.0-0.11","946","true","img/card_backs/set1/yellow.gif","img/card_backs/set1/purple.gif","img/card_backs/set1/red.gif","img/card_backs/set1/green.gif","img/card_backs/set2/pink.gif","img/card_backs/set2/blue.gif","img/card_backs/set2/gray.gif","img/card_backs/set2/orange.gif","""event"",""trial"",""time""
""fullscreenenter"",""1"",""9945""
","
","
","""event"",""trial"",""time""
""fullscreenenter"",""1"",""9945""
","
","","9307.909999974072","Before you play the game for real, you will play with practice decks. </br> The tokens you earn during practice won't count toward your total.","86","","instructions","2021-06-26 10:53:02.210","","","","","",""
"casino-keyboard-response","34","303198","0.0-16.0-0.12","946","true","img/card_backs/set1/yellow.gif","img/card_backs/set1/purple.gif","img/card_backs/set1/red.gif","img/card_backs/set1/green.gif","img/card_backs/set2/pink.gif","img/card_backs/set2/blue.gif","img/card_backs/set2/gray.gif","img/card_backs/set2/orange.gif","""event"",""trial"",""time""
""fullscreenenter"",""1"",""9945""
","
","
","""event"",""trial"",""time""
""fullscreenenter"",""1"",""9945""
","
","","12706.73999999417","Ready? Remember, use the '2', '4', '6', and '8' keys to select the decks. </br> Put your fingers on those keys now and then press '2' to begin.","50","","instructions","2021-06-26 10:53:14.920","","","","","",""
"casino-fixation","35","303701","0.0-17.0-0.0","946","true","img/card_backs/set1/yellow.gif","img/card_backs/set1/purple.gif","img/card_backs/set1/red.gif","img/card_backs/set1/green.gif","img/card_backs/set2/pink.gif","img/card_backs/set2/blue.gif","img/card_backs/set2/gray.gif","img/card_backs/set2/orange.gif","""event"",""trial"",""time""
""fullscreenenter"",""1"",""9945""
","
","
","""event"",""trial"",""time""
""fullscreenenter"",""1"",""9945""
","
","","null","","null","","fixation","2021-06-26 10:53:15.423","","","","","",""
"card-selection-trial","36","310742","0.0-17.0-1.0","946","true","img/card_backs/set1/yellow.gif","img/card_backs/set1/purple.gif","img/card_backs/set1/red.gif","img/card_backs/set1/green.gif","img/card_backs/set2/pink.gif","img/card_backs/set2/blue.gif","img/card_backs/set2/gray.gif","img/card_backs/set2/orange.gif","""event"",""trial"",""time""
""fullscreenenter"",""1"",""9945""
","
","
","""event"",""trial"",""time""
""fullscreenenter"",""1"",""9945""
","
","","5027.554999978747","","","","practice","2021-06-26 10:53:22.464","img/practice_cards/backs/dark_blue.gif","3","200","0","",""
"casino-fixation","37","311248","0.0-17.0-0.1","946","true","img/card_backs/set1/yellow.gif","img/card_backs/set1/purple.gif","img/card_backs/set1/red.gif","img/card_backs/set1/green.gif","img/card_backs/set2/pink.gif","img/card_backs/set2/blue.gif","img/card_backs/set2/gray.gif","img/card_backs/set2/orange.gif","""event"",""trial"",""time""
""fullscreenenter"",""1"",""9945""
","
","
","""event"",""trial"",""time""
""fullscreenenter"",""1"",""9945""
","
","","null","","null","","fixation","2021-06-26 10:53:22.970","","","","","",""
"card-selection-trial","38","317883","0.0-17.0-1.1","946","true","img/card_backs/set1/yellow.gif","img/card_backs/set1/purple.gif","img/card_backs/set1/red.gif","img/card_backs/set1/green.gif","img/card_backs/set2/pink.gif","img/card_backs/set2/blue.gif","img/card_backs/set2/gray.gif","img/card_backs/set2/orange.gif","""event"",""trial"",""time""
""fullscreenenter"",""1"",""9945""
","
","
","""event"",""trial"",""time""
""fullscreenenter"",""1"",""9945""
","
","","4624.0100000286475","","","","practice","2021-06-26 10:53:29.605","img/practice_cards/backs/black.gif","0","-100","0","",""
"casino-fixation","39","318386","0.0-17.0-0.2","946","true","img/card_backs/set1/yellow.gif","img/card_backs/set1/purple.gif","img/card_backs/set1/red.gif","img/card_backs/set1/green.gif","img/card_backs/set2/pink.gif","img/card_backs/set2/blue.gif","img/card_backs/set2/gray.gif","img/card_backs/set2/orange.gif","""event"",""trial"",""time""
""fullscreenenter"",""1"",""9945""
","
","
","""event"",""trial"",""time""
""fullscreenenter"",""1"",""9945""
","
","","null","","null","","fixation","2021-06-26 10:53:30.108","","","","","",""
"card-selection-trial","40","323549","0.0-17.0-1.2","946","true","img/card_backs/set1/yellow.gif","img/card_backs/set1/purple.gif","img/card_backs/set1/red.gif","img/card_backs/set1/green.gif","img/card_backs/set2/pink.gif","img/card_backs/set2/blue.gif","img/card_backs/set2/gray.gif","img/card_backs/set2/orange.gif","""event"",""trial"",""time""
""fullscreenenter"",""1"",""9945""
","
","
","""event"",""trial"",""time""
""fullscreenenter"",""1"",""9945""
","
","","3154.4050000375137","","","","practice","2021-06-26 10:53:35.271","img/practice_cards/backs/black.gif","2","-100","0","",""
"casino-fixation","41","324054","0.0-17.0-0.3","946","true","img/card_backs/set1/yellow.gif","img/card_backs/set1/purple.gif","img/card_backs/set1/red.gif","img/card_backs/set1/green.gif","img/card_backs/set2/pink.gif","img/card_backs/set2/blue.gif","img/card_backs/set2/gray.gif","img/card_backs/set2/orange.gif","""event"",""trial"",""time""
""fullscreenenter"",""1"",""9945""
","
","
","""event"",""trial"",""time""
""fullscreenenter"",""1"",""9945""
","
","","null","","null","","fixation","2021-06-26 10:53:35.776","","","","","",""
"card-selection-trial","42","330045","0.0-17.0-1.3","946","true","img/card_backs/set1/yellow.gif","img/card_backs/set1/purple.gif","img/card_backs/set1/red.gif","img/card_backs/set1/green.gif","img/card_backs/set2/pink.gif","img/card_backs/set2/blue.gif","img/card_backs/set2/gray.gif","img/card_backs/set2/orange.gif","""event"",""trial"",""time""
""fullscreenenter"",""1"",""9945""
","
","
","""event"",""trial"",""time""
""fullscreenenter"",""1"",""9945""
","
","","3982.8899999847636","","","","practice","2021-06-26 10:53:41.767","img/practice_cards/backs/dark_blue.gif","3","200","0","",""
"casino-fixation","43","330550","0.0-17.0-0.4","946","true","img/card_backs/set1/yellow.gif","img/card_backs/set1/purple.gif","img/card_backs/set1/red.gif","img/card_backs/set1/green.gif","img/card_backs/set2/pink.gif","img/card_backs/set2/blue.gif","img/card_backs/set2/gray.gif","img/card_backs/set2/orange.gif","""event"",""trial"",""time""
""fullscreenenter"",""1"",""9945""
","
","
","""event"",""trial"",""time""
""fullscreenenter"",""1"",""9945""
","
","","null","","null","","fixation","2021-06-26 10:53:42.272","","","","","",""
"card-selection-trial","44","333889","0.0-17.0-1.4","946","true","img/card_backs/set1/yellow.gif","img/card_backs/set1/purple.gif","img/card_backs/set1/red.gif","img/card_backs/set1/green.gif","img/card_backs/set2/pink.gif","img/card_backs/set2/blue.gif","img/card_backs/set2/gray.gif","img/card_backs/set2/orange.gif","""event"",""trial"",""time""
""fullscreenenter"",""1"",""9945""
","
","
","""event"",""trial"",""time""
""fullscreenenter"",""1"",""9945""
","
","","1326.215000008233","","","","practice","2021-06-26 10:53:45.611","img/practice_cards/backs/dark_green.gif","1","200","0","",""
"casino-fixation","45","334394","0.0-17.0-0.5","946","true","img/card_backs/set1/yellow.gif","img/card_backs/set1/purple.gif","img/card_backs/set1/red.gif","img/card_backs/set1/green.gif","img/card_backs/set2/pink.gif","img/card_backs/set2/blue.gif","img/card_backs/set2/gray.gif","img/card_backs/set2/orange.gif","""event"",""trial"",""time""
""fullscreenenter"",""1"",""9945""
","
","
","""event"",""trial"",""time""
""fullscreenenter"",""1"",""9945""
","
","","null","","null","","fixation","2021-06-26 10:53:46.116","","","","","",""
"card-selection-trial","46","340112","0.0-17.0-1.5","946","true","img/card_backs/set1/yellow.gif","img/card_backs/set1/purple.gif","img/card_backs/set1/red.gif","img/card_backs/set1/green.gif","img/card_backs/set2/pink.gif","img/card_backs/set2/blue.gif","img/card_backs/set2/gray.gif","img/card_backs/set2/orange.gif","""event"",""trial"",""time""
""fullscreenenter"",""1"",""9945""
","
","
","""event"",""trial"",""time""
""fullscreenenter"",""1"",""9945""
","
","","3708.924999984447","","","","practice","2021-06-26 10:53:51.834","img/practice_cards/backs/dark_blue.gif","1","200","0","",""
"casino-fixation","47","340617","0.0-17.0-0.6","946","true","img/card_backs/set1/yellow.gif","img/card_backs/set1/purple.gif","img/card_backs/set1/red.gif","img/card_backs/set1/green.gif","img/card_backs/set2/pink.gif","img/card_backs/set2/blue.gif","img/card_backs/set2/gray.gif","img/card_backs/set2/orange.gif","""event"",""trial"",""time""
""fullscreenenter"",""1"",""9945""
","
","
","""event"",""trial"",""time""
""fullscreenenter"",""1"",""9945""
","
","","null","","null","","fixation","2021-06-26 10:53:52.339","","","","","",""
"card-selection-trial","48","347328","0.0-17.0-1.6","946","true","img/card_backs/set1/yellow.gif","img/card_backs/set1/purple.gif","img/card_backs/set1/red.gif","img/card_backs/set1/green.gif","img/card_backs/set2/pink.gif","img/card_backs/set2/blue.gif","img/card_backs/set2/gray.gif","img/card_backs/set2/orange.gif","""event"",""trial"",""time""
""fullscreenenter"",""1"",""9945""
","
","
","""event"",""trial"",""time""
""fullscreenenter"",""1"",""9945""
","
","","4698.520000034478","","","","practice","2021-06-26 10:53:59.050","img/practice_cards/backs/black.gif","3","-100","0","",""
"casino-fixation","49","347831","0.0-17.0-0.7","946","true","img/card_backs/set1/yellow.gif","img/card_backs/set1/purple.gif","img/card_backs/set1/red.gif","img/card_backs/set1/green.gif","img/card_backs/set2/pink.gif","img/card_backs/set2/blue.gif","img/card_backs/set2/gray.gif","img/card_backs/set2/orange.gif","""event"",""trial"",""time""
""fullscreenenter"",""1"",""9945""
","
","
","""event"",""trial"",""time""
""fullscreenenter"",""1"",""9945""
","
","","null","","null","","fixation","2021-06-26 10:53:59.553","","","","","",""
"card-selection-trial","50","352616","0.0-17.0-1.7","946","true","img/card_backs/set1/yellow.gif","img/card_backs/set1/purple.gif","img/card_backs/set1/red.gif","img/card_backs/set1/green.gif","img/card_backs/set2/pink.gif","img/card_backs/set2/blue.gif","img/card_backs/set2/gray.gif","img/card_backs/set2/orange.gif","""event"",""trial"",""time""
""fullscreenenter"",""1"",""9945""
","
","
","""event"",""trial"",""time""
""fullscreenenter"",""1"",""9945""
","
","","2774.0849999827333","","","","practice","2021-06-26 10:54:04.338","img/practice_cards/backs/dark_blue.gif","1","-200","0","",""
"casino-fixation","51","353121","0.0-17.0-0.8","946","true","img/card_backs/set1/yellow.gif","img/card_backs/set1/purple.gif","img/card_backs/set1/red.gif","img/card_backs/set1/green.gif","img/card_backs/set2/pink.gif","img/card_backs/set2/blue.gif","img/card_backs/set2/gray.gif","img/card_backs/set2/orange.gif","""event"",""trial"",""time""
""fullscreenenter"",""1"",""9945""
","
","
","""event"",""trial"",""time""
""fullscreenenter"",""1"",""9945""
","
","","null","","null","","fixation","2021-06-26 10:54:04.843","","","","","",""
"card-selection-trial","52","355944","0.0-17.0-1.8","946","true","img/card_backs/set1/yellow.gif","img/card_backs/set1/purple.gif","img/card_backs/set1/red.gif","img/card_backs/set1/green.gif","img/card_backs/set2/pink.gif","img/card_backs/set2/blue.gif","img/card_backs/set2/gray.gif","img/card_backs/set2/orange.gif","""event"",""trial"",""time""
""fullscreenenter"",""1"",""9945""
","
","
","""event"",""trial"",""time""
""fullscreenenter"",""1"",""9945""
","
","","811.5899999975227","","","","practice","2021-06-26 10:54:07.667","img/practice_cards/backs/dark_green.gif","2","200","0","",""
"casino-fixation","53","356447","0.0-17.0-0.9","946","true","img/card_backs/set1/yellow.gif","img/card_backs/set1/purple.gif","img/card_backs/set1/red.gif","img/card_backs/set1/green.gif","img/card_backs/set2/pink.gif","img/card_backs/set2/blue.gif","img/card_backs/set2/gray.gif","img/card_backs/set2/orange.gif","""event"",""trial"",""time""
""fullscreenenter"",""1"",""9945""
","
","
","""event"",""trial"",""time""
""fullscreenenter"",""1"",""9945""
","
","","null","","null","","fixation","2021-06-26 10:54:08.169","","","","","",""
"card-selection-trial","54","359379","0.0-17.0-1.9","946","true","img/card_backs/set1/yellow.gif","img/card_backs/set1/purple.gif","img/card_backs/set1/red.gif","img/card_backs/set1/green.gif","img/card_backs/set2/pink.gif","img/card_backs/set2/blue.gif","img/card_backs/set2/gray.gif","img/card_backs/set2/orange.gif","""event"",""trial"",""time""
""fullscreenenter"",""1"",""9945""
","
","
","""event"",""trial"",""time""
""fullscreenenter"",""1"",""9945""
","
","","920.1999999932013","","","","practice","2021-06-26 10:54:11.101","img/practice_cards/backs/black.gif","0","100","0","",""
"casino-keyboard-response","55","368578","0.0-18.0","946","true","img/card_backs/set1/yellow.gif","img/card_backs/set1/purple.gif","img/card_backs/set1/red.gif","img/card_backs/set1/green.gif","img/card_backs/set2/pink.gif","img/card_backs/set2/blue.gif","img/card_backs/set2/gray.gif","img/card_backs/set2/orange.gif","""event"",""trial"",""time""
""fullscreenenter"",""1"",""9945""
","
","
","""event"",""trial"",""time""
""fullscreenenter"",""1"",""9945""
","
","","9196.164999972098","You earned 600 tokens during the practice round!","82","","","2021-06-26 10:54:20.300","","","","","",""
"casino-keyboard-response","56","373917","0.0-19.0-0.0","946","true","img/card_backs/set1/yellow.gif","img/card_backs/set1/purple.gif","img/card_backs/set1/red.gif","img/card_backs/set1/green.gif","img/card_backs/set2/pink.gif","img/card_backs/set2/blue.gif","img/card_backs/set2/gray.gif","img/card_backs/set2/orange.gif","""event"",""trial"",""time""
""fullscreenenter"",""1"",""9945""
","
","
","""event"",""trial"",""time""
""fullscreenenter"",""1"",""9945""
","
","","5336.814999987837","Nice job! You are almost ready to play the real game.","86","","instructions","2021-06-26 10:54:25.639","","","","","",""
"casino-keyboard-response","57","386090","0.0-19.0-0.1","946","true","img/card_backs/set1/yellow.gif","img/card_backs/set1/purple.gif","img/card_backs/set1/red.gif","img/card_backs/set1/green.gif","img/card_backs/set2/pink.gif","img/card_backs/set2/blue.gif","img/card_backs/set2/gray.gif","img/card_backs/set2/orange.gif","""event"",""trial"",""time""
""fullscreenenter"",""1"",""9945""
","
","
","""event"",""trial"",""time""
""fullscreenenter"",""1"",""9945""
","
","","12170.144999981858","You will play two rounds of the real game. In each round, you will pick 100 cards in total.","73","","instructions","2021-06-26 10:54:37.812","","","","","",""
"casino-keyboard-response","58","392592","0.0-19.0-0.2","946","true","img/card_backs/set1/yellow.gif","img/card_backs/set1/purple.gif","img/card_backs/set1/red.gif","img/card_backs/set1/green.gif","img/card_backs/set2/pink.gif","img/card_backs/set2/blue.gif","img/card_backs/set2/gray.gif","img/card_backs/set2/orange.gif","""event"",""trial"",""time""
""fullscreenenter"",""1"",""9945""
","
","
","""event"",""trial"",""time""
""fullscreenenter"",""1"",""9945""
","
","","6499.00999997044","We are now going to ask you some questions about how the game works.","66","","instructions","2021-06-26 10:54:44.314","","","","","",""
"casino-keyboard-response","59","399724","0.0-19.0-0.3","946","true","img/card_backs/set1/yellow.gif","img/card_backs/set1/purple.gif","img/card_backs/set1/red.gif","img/card_backs/set1/green.gif","img/card_backs/set2/pink.gif","img/card_backs/set2/blue.gif","img/card_backs/set2/gray.gif","img/card_backs/set2/orange.gif","""event"",""trial"",""time""
""fullscreenenter"",""1"",""9945""
","
","
","""event"",""trial"",""time""
""fullscreenenter"",""1"",""9945""
","
","","7129.994999966584","Answer carefully. You will not be able to begin the game until you answer them correctly.","67","","instructions","2021-06-26 10:54:51.447","","","","","",""
"casino-comp_q","60","408591","0.0-20.0-0.0","946","true","img/card_backs/set1/yellow.gif","img/card_backs/set1/purple.gif","img/card_backs/set1/red.gif","img/card_backs/set1/green.gif","img/card_backs/set2/pink.gif","img/card_backs/set2/blue.gif","img/card_backs/set2/gray.gif","img/card_backs/set2/orange.gif","""event"",""trial"",""time""
""fullscreenenter"",""1"",""9945""
","
","
","""event"",""trial"",""time""
""fullscreenenter"",""1"",""9945""
","
","","8864.13000000175","True or False: All the decks have some cards that cause you to win tokens and some cards that cause you to lose tokens.","84","","","2021-06-26 10:55:00.314","","","","","",""
"casino-keyboard-response","61","413717","0.0-20.0-1.0","946","true","img/card_backs/set1/yellow.gif","img/card_backs/set1/purple.gif","img/card_backs/set1/red.gif","img/card_backs/set1/green.gif","img/card_backs/set2/pink.gif","img/card_backs/set2/blue.gif","img/card_backs/set2/gray.gif","img/card_backs/set2/orange.gif","""event"",""trial"",""time""
""fullscreenenter"",""1"",""9945""
","
","
","""event"",""trial"",""time""
""fullscreenenter"",""1"",""9945""
","
","","5123.005000001285","True is correct! All the decks have a mix of winning and losing cards.","77","","","2021-06-26 10:55:05.441","","","","","true",""
"casino-comp_q","62","419697","0.0-21.0-0.0","946","true","img/card_backs/set1/yellow.gif","img/card_backs/set1/purple.gif","img/card_backs/set1/red.gif","img/card_backs/set1/green.gif","img/card_backs/set2/pink.gif","img/card_backs/set2/blue.gif","img/card_backs/set2/gray.gif","img/card_backs/set2/orange.gif","""event"",""trial"",""time""
""fullscreenenter"",""1"",""9945""
","
","
","""event"",""trial"",""time""
""fullscreenenter"",""1"",""9945""
","
","","5975.600000005215","True or False: You will have as much time as you want to make your response.","70","","","2021-06-26 10:55:11.419","","","","","",""
"casino-keyboard-response","63","423995","0.0-21.0-1.0","946","true","img/card_backs/set1/yellow.gif","img/card_backs/set1/purple.gif","img/card_backs/set1/red.gif","img/card_backs/set1/green.gif","img/card_backs/set2/pink.gif","img/card_backs/set2/blue.gif","img/card_backs/set2/gray.gif","img/card_backs/set2/orange.gif","""event"",""trial"",""time""
""fullscreenenter"",""1"",""9945""
","
","
","""event"",""trial"",""time""
""fullscreenenter"",""1"",""9945""
","
","","4293.270000023767","False is correct! You will only have 10 seconds to make each choice.","75","","","2021-06-26 10:55:15.717","","","","","true",""
"casino-comp_q","64","431308","0.0-22.0-0.0","946","true","img/card_backs/set1/yellow.gif","img/card_backs/set1/purple.gif","img/card_backs/set1/red.gif","img/card_backs/set1/green.gif","img/card_backs/set2/pink.gif","img/card_backs/set2/blue.gif","img/card_backs/set2/gray.gif","img/card_backs/set2/orange.gif","""event"",""trial"",""time""
""fullscreenenter"",""1"",""9945""
","
","
","""event"",""trial"",""time""
""fullscreenenter"",""1"",""9945""
","
","","7309.654999990016","True or False: The location of the deck determines how lucky it is.","70","","","2021-06-26 10:55:23.032","","","","","",""
"casino-keyboard-response","65","435946","0.0-22.0-1.0","946","true","img/card_backs/set1/yellow.gif","img/card_backs/set1/purple.gif","img/card_backs/set1/red.gif","img/card_backs/set1/green.gif","img/card_backs/set2/pink.gif","img/card_backs/set2/blue.gif","img/card_backs/set2/gray.gif","img/card_backs/set2/orange.gif","""event"",""trial"",""time""
""fullscreenenter"",""1"",""9945""
","
","
","""event"",""trial"",""time""
""fullscreenenter"",""1"",""9945""
","
","","4632.564999978058","False is correct! The <i>color</i>  of the deck determines how lucky or unlucky it is.","68","","","2021-06-26 10:55:27.668","","","","","true",""
"casino-keyboard-response","66","446105","0.0-23.0-0.0","946","true","img/card_backs/set1/yellow.gif","img/card_backs/set1/purple.gif","img/card_backs/set1/red.gif","img/card_backs/set1/green.gif","img/card_backs/set2/pink.gif","img/card_backs/set2/blue.gif","img/card_backs/set2/gray.gif","img/card_backs/set2/orange.gif","""event"",""trial"",""time""
""fullscreenenter"",""1"",""9945""
","
","
","""event"",""trial"",""time""
""fullscreenenter"",""1"",""9945""
","
","","10156.360000022687","Great job! Now it's time to start the real game.","82","","instructions","2021-06-26 10:55:37.827","","","","","",""
"casino-keyboard-response","67","452600","0.0-23.0-0.1","946","true","img/card_backs/set1/yellow.gif","img/card_backs/set1/purple.gif","img/card_backs/set1/red.gif","img/card_backs/set1/green.gif","img/card_backs/set2/pink.gif","img/card_backs/set2/blue.gif","img/card_backs/set2/gray.gif","img/card_backs/set2/orange.gif","""event"",""trial"",""time""
""fullscreenenter"",""1"",""9945""
","
","
","""event"",""trial"",""time""
""fullscreenenter"",""1"",""9945""
","
","","6491.909999982454","Before we start, we're going to head into a new room of the casino.","86","","instructions","2021-06-26 10:55:44.322","","","","","",""
"casino-keyboard-response","68","460007","0.0-24.0-0.0","946","true","img/card_backs/set1/yellow.gif","img/card_backs/set1/purple.gif","img/card_backs/set1/red.gif","img/card_backs/set1/green.gif","img/card_backs/set2/pink.gif","img/card_backs/set2/blue.gif","img/card_backs/set2/gray.gif","img/card_backs/set2/orange.gif","""event"",""trial"",""time""
""fullscreenenter"",""1"",""9945""
","
","
","""event"",""trial"",""time""
""fullscreenenter"",""1"",""9945""
","
","","7404.544999997597","Here we are! The real game will use different cards, but the rules will be the same.","71","","instructions","2021-06-26 10:55:51.729","","","","","",""
"casino-keyboard-response","69","468640","0.0-24.0-0.1","946","true","img/card_backs/set1/yellow.gif","img/card_backs/set1/purple.gif","img/card_backs/set1/red.gif","img/card_backs/set1/green.gif","img/card_backs/set2/pink.gif","img/card_backs/set2/blue.gif","img/card_backs/set2/gray.gif","img/card_backs/set2/orange.gif","""event"",""trial"",""time""
""fullscreenenter"",""1"",""9945""
","
","
","""event"",""trial"",""time""
""fullscreenenter"",""1"",""9945""
","
","","8630.85499999579","Ready? Put your fingers over the '2', '4', 6', and '8' keys so you are ready to play the game. </br> Then press 2 to start.","50","","instructions","2021-06-26 10:56:00.362","","","","","",""
"casino-fixation","70","469143","0.0-25.0-0.0","946","true","img/card_backs/set1/yellow.gif","img/card_backs/set1/purple.gif","img/card_backs/set1/red.gif","img/card_backs/set1/green.gif","img/card_backs/set2/pink.gif","img/card_backs/set2/blue.gif","img/card_backs/set2/gray.gif","img/card_backs/set2/orange.gif","""event"",""trial"",""time""
""fullscreenenter"",""1"",""9945""
","
","
","""event"",""trial"",""time""
""fullscreenenter"",""1"",""9945""
","
","","null","","null","","fixation","2021-06-26 10:56:00.865","","","","","",""
"card-selection-trial","71","474675","0.0-25.0-1.0","946","true","img/card_backs/set1/yellow.gif","img/card_backs/set1/purple.gif","img/card_backs/set1/red.gif","img/card_backs/set1/green.gif","img/card_backs/set2/pink.gif","img/card_backs/set2/blue.gif","img/card_backs/set2/gray.gif","img/card_backs/set2/orange.gif","""event"",""trial"",""time""
""fullscreenenter"",""1"",""9945""
","
","
","""event"",""trial"",""time""
""fullscreenenter"",""1"",""9945""
","
","","3520.0450000120327","","","","real_trial","2021-06-26 10:56:06.398","img/card_backs/set1/green.gif","2","-100","1","",""
"casino-fixation","72","475180","0.0-25.0-0.1","946","true","img/card_backs/set1/yellow.gif","img/card_backs/set1/purple.gif","img/card_backs/set1/red.gif","img/card_backs/set1/green.gif","img/card_backs/set2/pink.gif","img/card_backs/set2/blue.gif","img/card_backs/set2/gray.gif","img/card_backs/set2/orange.gif","""event"",""trial"",""time""
""fullscreenenter"",""1"",""9945""
","
","
","""event"",""trial"",""time""
""fullscreenenter"",""1"",""9945""
","
","","null","","null","","fixation","2021-06-26 10:56:06.902","","","","","",""
"card-selection-trial","73","478073","0.0-25.0-1.1","946","true","img/card_backs/set1/yellow.gif","img/card_backs/set1/purple.gif","img/card_backs/set1/red.gif","img/card_backs/set1/green.gif","img/card_backs/set2/pink.gif","img/card_backs/set2/blue.gif","img/card_backs/set2/gray.gif","img/card_backs/set2/orange.gif","""event"",""trial"",""time""
""fullscreenenter"",""1"",""9945""
","
","
","""event"",""trial"",""time""
""fullscreenenter"",""1"",""9945""
","
","","884.265000000596","","","","real_trial","2021-06-26 10:56:09.795","img/card_backs/set1/yellow.gif","3","-190","1","",""
"casino-fixation","74","478576","0.0-25.0-0.2","946","true","img/card_backs/set1/yellow.gif","img/card_backs/set1/purple.gif","img/card_backs/set1/red.gif","img/card_backs/set1/green.gif","img/card_backs/set2/pink.gif","img/card_backs/set2/blue.gif","img/card_backs/set2/gray.gif","img/card_backs/set2/orange.gif","""event"",""trial"",""time""
""fullscreenenter"",""1"",""9945""
","
","
","""event"",""trial"",""time""
""fullscreenenter"",""1"",""9945""
","
","","null","","null","","fixation","2021-06-26 10:56:10.298","","","","","",""
"card-selection-trial","75","484883","0.0-25.0-1.2","946","true","img/card_backs/set1/yellow.gif","img/card_backs/set1/purple.gif","img/card_backs/set1/red.gif","img/card_backs/set1/green.gif","img/card_backs/set2/pink.gif","img/card_backs/set2/blue.gif","img/card_backs/set2/gray.gif","img/card_backs/set2/orange.gif","""event"",""trial"",""time""
""fullscreenenter"",""1"",""9945""
","
","
","""event"",""trial"",""time""
""fullscreenenter"",""1"",""9945""
","
","","4296.809999970719","","","","real_trial","2021-06-26 10:56:16.605","img/card_backs/set1/yellow.gif","1","240","1","",""
"casino-fixation","76","485386","0.0-25.0-0.3","946","true","img/card_backs/set1/yellow.gif","img/card_backs/set1/purple.gif","img/card_backs/set1/red.gif","img/card_backs/set1/green.gif","img/card_backs/set2/pink.gif","img/card_backs/set2/blue.gif","img/card_backs/set2/gray.gif","img/card_backs/set2/orange.gif","""event"",""trial"",""time""
""fullscreenenter"",""1"",""9945""
","
","
","""event"",""trial"",""time""
""fullscreenenter"",""1"",""9945""
","
","","null","","null","","fixation","2021-06-26 10:56:17.108","","","","","",""
"card-selection-trial","77","489264","0.0-25.0-1.3","946","true","img/card_backs/set1/yellow.gif","img/card_backs/set1/purple.gif","img/card_backs/set1/red.gif","img/card_backs/set1/green.gif","img/card_backs/set2/pink.gif","img/card_backs/set2/blue.gif","img/card_backs/set2/gray.gif","img/card_backs/set2/orange.gif","""event"",""trial"",""time""
""fullscreenenter"",""1"",""9945""
","
","
","""event"",""trial"",""time""
""fullscreenenter"",""1"",""9945""
","
","","1867.1500000054948","","","","real_trial","2021-06-26 10:56:20.986","img/card_backs/set1/yellow.gif","0","-210","1","",""
"casino-fixation","78","489769","0.0-25.0-0.4","946","true","img/card_backs/set1/yellow.gif","img/card_backs/set1/purple.gif","img/card_backs/set1/red.gif","img/card_backs/set1/green.gif","img/card_backs/set2/pink.gif","img/card_backs/set2/blue.gif","img/card_backs/set2/gray.gif","img/card_backs/set2/orange.gif","""event"",""trial"",""time""
""fullscreenenter"",""1"",""9945""
","
","
","""event"",""trial"",""time""
""fullscreenenter"",""1"",""9945""
","
","","null","","null","","fixation","2021-06-26 10:56:21.491","","","","","",""
"card-selection-trial","79","492724","0.0-25.0-1.4","946","true","img/card_backs/set1/yellow.gif","img/card_backs/set1/purple.gif","img/card_backs/set1/red.gif","img/card_backs/set1/green.gif","img/card_backs/set2/pink.gif","img/card_backs/set2/blue.gif","img/card_backs/set2/gray.gif","img/card_backs/set2/orange.gif","""event"",""trial"",""time""
""fullscreenenter"",""1"",""9945""
","
","
","""event"",""trial"",""time""
""fullscreenenter"",""1"",""9945""
","
","","946.7299999669194","","","","real_trial","2021-06-26 10:56:24.446","img/card_backs/set1/red.gif","1","-100","1","",""
"casino-fixation","80","493228","0.0-25.0-0.5","946","true","img/card_backs/set1/yellow.gif","img/card_backs/set1/purple.gif","img/card_backs/set1/red.gif","img/card_backs/set1/green.gif","img/card_backs/set2/pink.gif","img/card_backs/set2/blue.gif","img/card_backs/set2/gray.gif","img/card_backs/set2/orange.gif","""event"",""trial"",""time""
""fullscreenenter"",""1"",""9945""
","
","
","""event"",""trial"",""time""
""fullscreenenter"",""1"",""9945""
","
","","null","","null","","fixation","2021-06-26 10:56:24.950","","","","","",""
"card-selection-trial","81","496590","0.0-25.0-1.5","946","true","img/card_backs/set1/yellow.gif","img/card_backs/set1/purple.gif","img/card_backs/set1/red.gif","img/card_backs/set1/green.gif","img/card_backs/set2/pink.gif","img/card_backs/set2/blue.gif","img/card_backs/set2/gray.gif","img/card_backs/set2/orange.gif","""event"",""trial"",""time""
""fullscreenenter"",""1"",""9945""
","
","
","""event"",""trial"",""time""
""fullscreenenter"",""1"",""9945""
","
","","1353.1800000346266","","","","real_trial","2021-06-26 10:56:28.312","img/card_backs/set1/yellow.gif","2","260","1","",""
"casino-fixation","82","497096","0.0-25.0-0.6","946","true","img/card_backs/set1/yellow.gif","img/card_backs/set1/purple.gif","img/card_backs/set1/red.gif","img/card_backs/set1/green.gif","img/card_backs/set2/pink.gif","img/card_backs/set2/blue.gif","img/card_backs/set2/gray.gif","img/card_backs/set2/orange.gif","""event"",""trial"",""time""
""fullscreenenter"",""1"",""9945""
","
","
","""event"",""trial"",""time""
""fullscreenenter"",""1"",""9945""
","
","","null","","null","","fixation","2021-06-26 10:56:28.818","","","","","",""
"card-selection-trial","83","500395","0.0-25.0-1.6","946","true","img/card_backs/set1/yellow.gif","img/card_backs/set1/purple.gif","img/card_backs/set1/red.gif","img/card_backs/set1/green.gif","img/card_backs/set2/pink.gif","img/card_backs/set2/blue.gif","img/card_backs/set2/gray.gif","img/card_backs/set2/orange.gif","""event"",""trial"",""time""
""fullscreenenter"",""1"",""9945""
","
","
","""event"",""trial"",""time""
""fullscreenenter"",""1"",""9945""
","
","","1288.635000004433","","","","real_trial","2021-06-26 10:56:32.117","img/card_backs/set1/yellow.gif","3","-200","1","",""
"casino-fixation","84","500900","0.0-25.0-0.7","946","true","img/card_backs/set1/yellow.gif","img/card_backs/set1/purple.gif","img/card_backs/set1/red.gif","img/card_backs/set1/green.gif","img/card_backs/set2/pink.gif","img/card_backs/set2/blue.gif","img/card_backs/set2/gray.gif","img/card_backs/set2/orange.gif","""event"",""trial"",""time""
""fullscreenenter"",""1"",""9945""
","
","
","""event"",""trial"",""time""
""fullscreenenter"",""1"",""9945""
","
","","null","","null","","fixation","2021-06-26 10:56:32.622","","","","","",""
"card-selection-trial","85","503652","0.0-25.0-1.7","946","true","img/card_backs/set1/yellow.gif","img/card_backs/set1/purple.gif","img/card_backs/set1/red.gif","img/card_backs/set1/green.gif","img/card_backs/set2/pink.gif","img/card_backs/set2/blue.gif","img/card_backs/set2/gray.gif","img/card_backs/set2/orange.gif","""event"",""trial"",""time""
""fullscreenenter"",""1"",""9945""
","
","
","""event"",""trial"",""time""
""fullscreenenter"",""1"",""9945""
","
","","741.7850000201724","","","","real_trial","2021-06-26 10:56:35.374","img/card_backs/set1/red.gif","2","-90","1","",""
"casino-fixation","86","504157","0.0-25.0-0.8","946","true","img/card_backs/set1/yellow.gif","img/card_backs/set1/purple.gif","img/card_backs/set1/red.gif","img/card_backs/set1/green.gif","img/card_backs/set2/pink.gif","img/card_backs/set2/blue.gif","img/card_backs/set2/gray.gif","img/card_backs/set2/orange.gif","""event"",""trial"",""time""
""fullscreenenter"",""1"",""9945""
","
","
","""event"",""trial"",""time""
""fullscreenenter"",""1"",""9945""
","
","","null","","null","","fixation","2021-06-26 10:56:35.879","","","","","",""
"card-selection-trial","87","506627","0.0-25.0-1.8","946","true","img/card_backs/set1/yellow.gif","img/card_backs/set1/purple.gif","img/card_backs/set1/red.gif","img/card_backs/set1/green.gif","img/card_backs/set2/pink.gif","img/card_backs/set2/blue.gif","img/card_backs/set2/gray.gif","img/card_backs/set2/orange.gif","""event"",""trial"",""time""
""fullscreenenter"",""1"",""9945""
","
","
","""event"",""trial"",""time""
""fullscreenenter"",""1"",""9945""
","
","","462.3049999936484","","","","real_trial","2021-06-26 10:56:38.349","img/card_backs/set1/green.gif","1","50","1","",""
"casino-fixation","88","507133","0.0-25.0-0.9","946","true","img/card_backs/set1/yellow.gif","img/card_backs/set1/purple.gif","img/card_backs/set1/red.gif","img/card_backs/set1/green.gif","img/card_backs/set2/pink.gif","img/card_backs/set2/blue.gif","img/card_backs/set2/gray.gif","img/card_backs/set2/orange.gif","""event"",""trial"",""time""
""fullscreenenter"",""1"",""9945""
","
","
","""event"",""trial"",""time""
""fullscreenenter"",""1"",""9945""
","
","","null","","null","","fixation","2021-06-26 10:56:38.855","","","","","",""
"card-selection-trial","89","509742","0.0-25.0-1.9","946","true","img/card_backs/set1/yellow.gif","img/card_backs/set1/purple.gif","img/card_backs/set1/red.gif","img/card_backs/set1/green.gif","img/card_backs/set2/pink.gif","img/card_backs/set2/blue.gif","img/card_backs/set2/gray.gif","img/card_backs/set2/orange.gif","""event"",""trial"",""time""
""fullscreenenter"",""1"",""9945""
","
","
","""event"",""trial"",""time""
""fullscreenenter"",""1"",""9945""
","
","","596.0199999972247","","","","real_trial","2021-06-26 10:56:41.464","img/card_backs/set1/yellow.gif","1","-200","1","",""
"casino-fixation","90","510246","0.0-25.0-0.10","946","true","img/card_backs/set1/yellow.gif","img/card_backs/set1/purple.gif","img/card_backs/set1/red.gif","img/card_backs/set1/green.gif","img/card_backs/set2/pink.gif","img/card_backs/set2/blue.gif","img/card_backs/set2/gray.gif","img/card_backs/set2/orange.gif","""event"",""trial"",""time""
""fullscreenenter"",""1"",""9945""
","
","
","""event"",""trial"",""time""
""fullscreenenter"",""1"",""9945""
","
","","null","","null","","fixation","2021-06-26 10:56:41.968","","","","","",""
"card-selection-trial","91","513193","0.0-25.0-1.10","946","true","img/card_backs/set1/yellow.gif","img/card_backs/set1/purple.gif","img/card_backs/set1/red.gif","img/card_backs/set1/green.gif","img/card_backs/set2/pink.gif","img/card_backs/set2/blue.gif","img/card_backs/set2/gray.gif","img/card_backs/set2/orange.gif","""event"",""trial"",""time""
""fullscreenenter"",""1"",""9945""
","
","
","""event"",""trial"",""time""
""fullscreenenter"",""1"",""9945""
","
","","934.3750000116415","","","","real_trial","2021-06-26 10:56:44.915","img/card_backs/set1/purple.gif","0","-190","1","",""
"casino-fixation","92","513697","0.0-25.0-0.11","946","true","img/card_backs/set1/yellow.gif","img/card_backs/set1/purple.gif","img/card_backs/set1/red.gif","img/card_backs/set1/green.gif","img/card_backs/set2/pink.gif","img/card_backs/set2/blue.gif","img/card_backs/set2/gray.gif","img/card_backs/set2/orange.gif","""event"",""trial"",""time""
""fullscreenenter"",""1"",""9945""
","
","
","""event"",""trial"",""time""
""fullscreenenter"",""1"",""9945""
","
","","null","","null","","fixation","2021-06-26 10:56:45.420","","","","","",""
"card-selection-trial","93","517056","0.0-25.0-1.11","946","true","img/card_backs/set1/yellow.gif","img/card_backs/set1/purple.gif","img/card_backs/set1/red.gif","img/card_backs/set1/green.gif","img/card_backs/set2/pink.gif","img/card_backs/set2/blue.gif","img/card_backs/set2/gray.gif","img/card_backs/set2/orange.gif","""event"",""trial"",""time""
""fullscreenenter"",""1"",""9945""
","
","
","""event"",""trial"",""time""
""fullscreenenter"",""1"",""9945""
","
","","1346.8949999660254","","","","real_trial","2021-06-26 10:56:48.778","img/card_backs/set1/purple.gif","3","250","1","",""
"casino-fixation","94","517561","0.0-25.0-0.12","946","true","img/card_backs/set1/yellow.gif","img/card_backs/set1/purple.gif","img/card_backs/set1/red.gif","img/card_backs/set1/green.gif","img/card_backs/set2/pink.gif","img/card_backs/set2/blue.gif","img/card_backs/set2/gray.gif","img/card_backs/set2/orange.gif","""event"",""trial"",""time""
""fullscreenenter"",""1"",""9945""
","
","
","""event"",""trial"",""time""
""fullscreenenter"",""1"",""9945""
","
","","null","","null","","fixation","2021-06-26 10:56:49.283","","","","","",""
"card-selection-trial","95","520571","0.0-25.0-1.12","946","true","img/card_backs/set1/yellow.gif","img/card_backs/set1/purple.gif","img/card_backs/set1/red.gif","img/card_backs/set1/green.gif","img/card_backs/set2/pink.gif","img/card_backs/set2/blue.gif","img/card_backs/set2/gray.gif","img/card_backs/set2/orange.gif","""event"",""trial"",""time""
""fullscreenenter"",""1"",""9945""
","
","
","""event"",""trial"",""time""
""fullscreenenter"",""1"",""9945""
","
","","1000.3450000076555","","","","real_trial","2021-06-26 10:56:52.293","img/card_backs/set1/green.gif","2","-90","1","",""
"casino-fixation","96","521076","0.0-25.0-0.13","946","true","img/card_backs/set1/yellow.gif","img/card_backs/set1/purple.gif","img/card_backs/set1/red.gif","img/card_backs/set1/green.gif","img/card_backs/set2/pink.gif","img/card_backs/set2/blue.gif","img/card_backs/set2/gray.gif","img/card_backs/set2/orange.gif","""event"",""trial"",""time""
""fullscreenenter"",""1"",""9945""
","
","
","""event"",""trial"",""time""
""fullscreenenter"",""1"",""9945""
","
","","null","","null","","fixation","2021-06-26 10:56:52.798","","","","","",""
"card-selection-trial","97","523761","0.0-25.0-1.13","946","true","img/card_backs/set1/yellow.gif","img/card_backs/set1/purple.gif","img/card_backs/set1/red.gif","img/card_backs/set1/green.gif","img/card_backs/set2/pink.gif","img/card_backs/set2/blue.gif","img/card_backs/set2/gray.gif","img/card_backs/set2/orange.gif","""event"",""trial"",""time""
""fullscreenenter"",""1"",""9945""
","
","
","""event"",""trial"",""time""
""fullscreenenter"",""1"",""9945""
","
","","672.6699999999255","","","","real_trial","2021-06-26 10:56:55.483","img/card_backs/set1/red.gif","3","40","1","",""
"casino-fixation","98","524266","0.0-25.0-0.14","946","true","img/card_backs/set1/yellow.gif","img/card_backs/set1/purple.gif","img/card_backs/set1/red.gif","img/card_backs/set1/green.gif","img/card_backs/set2/pink.gif","img/card_backs/set2/blue.gif","img/card_backs/set2/gray.gif","img/card_backs/set2/orange.gif","""event"",""trial"",""time""
""fullscreenenter"",""1"",""9945""
","
","
","""event"",""trial"",""time""
""fullscreenenter"",""1"",""9945""
","
","","null","","null","","fixation","2021-06-26 10:56:55.988","","","","","",""
"card-selection-trial","99","526965","0.0-25.0-1.14","946","true","img/card_backs/set1/yellow.gif","img/card_backs/set1/purple.gif","img/card_backs/set1/red.gif","img/card_backs/set1/green.gif","img/card_backs/set2/pink.gif","img/card_backs/set2/blue.gif","img/card_backs/set2/gray.gif","img/card_backs/set2/orange.gif","""event"",""trial"",""time""
""fullscreenenter"",""1"",""9945""
","
","
","""event"",""trial"",""time""
""fullscreenenter"",""1"",""9945""
","
","","687.8950000391342","","","","real_trial","2021-06-26 10:56:58.687","img/card_backs/set1/red.gif","1","50","1","",""
"casino-fixation","100","527470","0.0-25.0-0.15","946","true","img/card_backs/set1/yellow.gif","img/card_backs/set1/purple.gif","img/card_backs/set1/red.gif","img/card_backs/set1/green.gif","img/card_backs/set2/pink.gif","img/card_backs/set2/blue.gif","img/card_backs/set2/gray.gif","img/card_backs/set2/orange.gif","""event"",""trial"",""time""
""fullscreenenter"",""1"",""9945""
","
","
","""event"",""trial"",""time""
""fullscreenenter"",""1"",""9945""
","
","","null","","null","","fixation","2021-06-26 10:56:59.192","","","","","",""
"card-selection-trial","101","530065","0.0-25.0-1.15","946","true","img/card_backs/set1/yellow.gif","img/card_backs/set1/purple.gif","img/card_backs/set1/red.gif","img/card_backs/set1/green.gif","img/card_backs/set2/pink.gif","img/card_backs/set2/blue.gif","img/card_backs/set2/gray.gif","img/card_backs/set2/orange.gif","""event"",""trial"",""time""
""fullscreenenter"",""1"",""9945""
","
","
","""event"",""trial"",""time""
""fullscreenenter"",""1"",""9945""
","
","","585.5850000516511","","","","real_trial","2021-06-26 10:57:01.788","img/card_backs/set1/red.gif","0","40","1","",""
"casino-fixation","102","530573","0.0-25.0-0.16","946","true","img/card_backs/set1/yellow.gif","img/card_backs/set1/purple.gif","img/card_backs/set1/red.gif","img/card_backs/set1/green.gif","img/card_backs/set2/pink.gif","img/card_backs/set2/blue.gif","img/card_backs/set2/gray.gif","img/card_backs/set2/orange.gif","""event"",""trial"",""time""
""fullscreenenter"",""1"",""9945""
","
","
","""event"",""trial"",""time""
""fullscreenenter"",""1"",""9945""
","
","","null","","null","","fixation","2021-06-26 10:57:02.295","","","","","",""
"card-selection-trial","103","533012","0.0-25.0-1.16","946","true","img/card_backs/set1/yellow.gif","img/card_backs/set1/purple.gif","img/card_backs/set1/red.gif","img/card_backs/set1/green.gif","img/card_backs/set2/pink.gif","img/card_backs/set2/blue.gif","img/card_backs/set2/gray.gif","img/card_backs/set2/orange.gif","""event"",""trial"",""time""
""fullscreenenter"",""1"",""9945""
","
","
","""event"",""trial"",""time""
""fullscreenenter"",""1"",""9945""
","
","","426.8900000024587","","","","real_trial","2021-06-26 10:57:04.734","img/card_backs/set1/green.gif","1","-90","1","",""
"casino-fixation","104","533516","0.0-25.0-0.17","946","true","img/card_backs/set1/yellow.gif","img/card_backs/set1/purple.gif","img/card_backs/set1/red.gif","img/card_backs/set1/green.gif","img/card_backs/set2/pink.gif","img/card_backs/set2/blue.gif","img/card_backs/set2/gray.gif","img/card_backs/set2/orange.gif","""event"",""trial"",""time""
""fullscreenenter"",""1"",""9945""
","
","
","""event"",""trial"",""time""
""fullscreenenter"",""1"",""9945""
","
","","null","","null","","fixation","2021-06-26 10:57:05.238","","","","","",""
"card-selection-trial","105","536927","0.0-25.0-1.17","946","true","img/card_backs/set1/yellow.gif","img/card_backs/set1/purple.gif","img/card_backs/set1/red.gif","img/card_backs/set1/green.gif","img/card_backs/set2/pink.gif","img/card_backs/set2/blue.gif","img/card_backs/set2/gray.gif","img/card_backs/set2/orange.gif","""event"",""trial"",""time""
""fullscreenenter"",""1"",""9945""
","
","
","""event"",""trial"",""time""
""fullscreenenter"",""1"",""9945""
","
","","1398.830000020098","","","","real_trial","2021-06-26 10:57:08.649","img/card_backs/set1/green.gif","3","60","1","",""
"casino-fixation","106","537432","0.0-25.0-0.18","946","true","img/card_backs/set1/yellow.gif","img/card_backs/set1/purple.gif","img/card_backs/set1/red.gif","img/card_backs/set1/green.gif","img/card_backs/set2/pink.gif","img/card_backs/set2/blue.gif","img/card_backs/set2/gray.gif","img/card_backs/set2/orange.gif","""event"",""trial"",""time""
""fullscreenenter"",""1"",""9945""
","
","
","""event"",""trial"",""time""
""fullscreenenter"",""1"",""9945""
","
","","null","","null","","fixation","2021-06-26 10:57:09.154","","","","","",""
"card-selection-trial","107","542895","0.0-25.0-1.18","946","true","img/card_backs/set1/yellow.gif","img/card_backs/set1/purple.gif","img/card_backs/set1/red.gif","img/card_backs/set1/green.gif","img/card_backs/set2/pink.gif","img/card_backs/set2/blue.gif","img/card_backs/set2/gray.gif","img/card_backs/set2/orange.gif","""event"",""trial"",""time""
""fullscreenenter"",""1"",""9945""
","
","
","""event"",""trial"",""time""
""fullscreenenter"",""1"",""9945""
","
","","3451.230000006035","","","","real_trial","2021-06-26 10:57:14.617","img/card_backs/set1/purple.gif","2","260","1","",""
"casino-fixation","108","543400","0.0-25.0-0.19","946","true","img/card_backs/set1/yellow.gif","img/card_backs/set1/purple.gif","img/card_backs/set1/red.gif","img/card_backs/set1/green.gif","img/card_backs/set2/pink.gif","img/card_backs/set2/blue.gif","img/card_backs/set2/gray.gif","img/card_backs/set2/orange.gif","""event"",""trial"",""time""
""fullscreenenter"",""1"",""9945""
","
","
","""event"",""trial"",""time""
""fullscreenenter"",""1"",""9945""
","
","","null","","null","","fixation","2021-06-26 10:57:15.122","","","","","",""
"card-selection-trial","109","546134","0.0-25.0-1.19","946","true","img/card_backs/set1/yellow.gif","img/card_backs/set1/purple.gif","img/card_backs/set1/red.gif","img/card_backs/set1/green.gif","img/card_backs/set2/pink.gif","img/card_backs/set2/blue.gif","img/card_backs/set2/gray.gif","img/card_backs/set2/orange.gif","""event"",""trial"",""time""
""fullscreenenter"",""1"",""9945""
","
","
","""event"",""trial"",""time""
""fullscreenenter"",""1"",""9945""
","
","","722.4599999608472","","","","real_trial","2021-06-26 10:57:17.856","img/card_backs/set1/yellow.gif","2","-210","1","",""
"casino-fixation","110","546639","0.0-25.0-0.20","946","true","img/card_backs/set1/yellow.gif","img/card_backs/set1/purple.gif","img/card_backs/set1/red.gif","img/card_backs/set1/green.gif","img/card_backs/set2/pink.gif","img/card_backs/set2/blue.gif","img/card_backs/set2/gray.gif","img/card_backs/set2/orange.gif","""event"",""trial"",""time""
""fullscreenenter"",""1"",""9945""
","
","
","""event"",""trial"",""time""
""fullscreenenter"",""1"",""9945""
","
","","null","","null","","fixation","2021-06-26 10:57:18.361","","","","","",""
"card-selection-trial","111","549193","0.0-25.0-1.20","946","true","img/card_backs/set1/yellow.gif","img/card_backs/set1/purple.gif","img/card_backs/set1/red.gif","img/card_backs/set1/green.gif","img/card_backs/set2/pink.gif","img/card_backs/set2/blue.gif","img/card_backs/set2/gray.gif","img/card_backs/set2/orange.gif","""event"",""trial"",""time""
""fullscreenenter"",""1"",""9945""
","
","
","""event"",""trial"",""time""
""fullscreenenter"",""1"",""9945""
","
","","542.8249999531545","","","","real_trial","2021-06-26 10:57:20.916","img/card_backs/set1/green.gif","3","-100","1","",""
"casino-fixation","112","549698","0.0-25.0-0.21","946","true","img/card_backs/set1/yellow.gif","img/card_backs/set1/purple.gif","img/card_backs/set1/red.gif","img/card_backs/set1/green.gif","img/card_backs/set2/pink.gif","img/card_backs/set2/blue.gif","img/card_backs/set2/gray.gif","img/card_backs/set2/orange.gif","""event"",""trial"",""time""
""fullscreenenter"",""1"",""9945""
","
","
","""event"",""trial"",""time""
""fullscreenenter"",""1"",""9945""
","
","","null","","null","","fixation","2021-06-26 10:57:21.420","","","","","",""
"card-selection-trial","113","552319","0.0-25.0-1.21","946","true","img/card_backs/set1/yellow.gif","img/card_backs/set1/purple.gif","img/card_backs/set1/red.gif","img/card_backs/set1/green.gif","img/card_backs/set2/pink.gif","img/card_backs/set2/blue.gif","img/card_backs/set2/gray.gif","img/card_backs/set2/orange.gif","""event"",""trial"",""time""
""fullscreenenter"",""1"",""9945""
","
","
","""event"",""trial"",""time""
""fullscreenenter"",""1"",""9945""
","
","","609.5499999937601","","","","real_trial","2021-06-26 10:57:24.042","img/card_backs/set1/green.gif","0","50","1","",""
"casino-fixation","114","552824","0.0-25.0-0.22","946","true","img/card_backs/set1/yellow.gif","img/card_backs/set1/purple.gif","img/card_backs/set1/red.gif","img/card_backs/set1/green.gif","img/card_backs/set2/pink.gif","img/card_backs/set2/blue.gif","img/card_backs/set2/gray.gif","img/card_backs/set2/orange.gif","""event"",""trial"",""time""
""fullscreenenter"",""1"",""9945""
","
","
","""event"",""trial"",""time""
""fullscreenenter"",""1"",""9945""
","
","","null","","null","","fixation","2021-06-26 10:57:24.546","","","","","",""
"card-selection-trial","115","555277","0.0-25.0-1.22","946","true","img/card_backs/set1/yellow.gif","img/card_backs/set1/purple.gif","img/card_backs/set1/red.gif","img/card_backs/set1/green.gif","img/card_backs/set2/pink.gif","img/card_backs/set2/blue.gif","img/card_backs/set2/gray.gif","img/card_backs/set2/orange.gif","""event"",""trial"",""time""
""fullscreenenter"",""1"",""9945""
","
","
","""event"",""trial"",""time""
""fullscreenenter"",""1"",""9945""
","
","","443.6100000166334","","","","real_trial","2021-06-26 10:57:26.999","img/card_backs/set1/yellow.gif","1","-190","1","",""
"casino-fixation","116","555782","0.0-25.0-0.23","946","true","img/card_backs/set1/yellow.gif","img/card_backs/set1/purple.gif","img/card_backs/set1/red.gif","img/card_backs/set1/green.gif","img/card_backs/set2/pink.gif","img/card_backs/set2/blue.gif","img/card_backs/set2/gray.gif","img/card_backs/set2/orange.gif","""event"",""trial"",""time""
""fullscreenenter"",""1"",""9945""
","
","
","""event"",""trial"",""time""
""fullscreenenter"",""1"",""9945""
","
","","null","","null","","fixation","2021-06-26 10:57:27.504","","","","","",""
"card-selection-trial","117","558261","0.0-25.0-1.23","946","true","img/card_backs/set1/yellow.gif","img/card_backs/set1/purple.gif","img/card_backs/set1/red.gif","img/card_backs/set1/green.gif","img/card_backs/set2/pink.gif","img/card_backs/set2/blue.gif","img/card_backs/set2/gray.gif","img/card_backs/set2/orange.gif","""event"",""trial"",""time""
""fullscreenenter"",""1"",""9945""
","
","
","""event"",""trial"",""time""
""fullscreenenter"",""1"",""9945""
","
","","469.24499998567626","","","","real_trial","2021-06-26 10:57:29.983","img/card_backs/set1/yellow.gif","0","260","1","",""
"casino-fixation","118","558763","0.0-25.0-0.24","946","true","img/card_backs/set1/yellow.gif","img/card_backs/set1/purple.gif","img/card_backs/set1/red.gif","img/card_backs/set1/green.gif","img/card_backs/set2/pink.gif","img/card_backs/set2/blue.gif","img/card_backs/set2/gray.gif","img/card_backs/set2/orange.gif","""event"",""trial"",""time""
""fullscreenenter"",""1"",""9945""
","
","
","""event"",""trial"",""time""
""fullscreenenter"",""1"",""9945""
","
","","null","","null","","fixation","2021-06-26 10:57:30.485","","","","","",""
"card-selection-trial","119","561985","0.0-25.0-1.24","946","true","img/card_backs/set1/yellow.gif","img/card_backs/set1/purple.gif","img/card_backs/set1/red.gif","img/card_backs/set1/green.gif","img/card_backs/set2/pink.gif","img/card_backs/set2/blue.gif","img/card_backs/set2/gray.gif","img/card_backs/set2/orange.gif","""event"",""trial"",""time""
""fullscreenenter"",""1"",""9945""
","
","
","""event"",""trial"",""time""
""fullscreenenter"",""1"",""9945""
","
","","1211.3249999820255","","","","real_trial","2021-06-26 10:57:33.707","img/card_backs/set1/purple.gif","3","240","1","",""
"casino-fixation","120","562490","0.0-25.0-0.25","946","true","img/card_backs/set1/yellow.gif","img/card_backs/set1/purple.gif","img/card_backs/set1/red.gif","img/card_backs/set1/green.gif","img/card_backs/set2/pink.gif","img/card_backs/set2/blue.gif","img/card_backs/set2/gray.gif","img/card_backs/set2/orange.gif","""event"",""trial"",""time""
""fullscreenenter"",""1"",""9945""
","
","
","""event"",""trial"",""time""
""fullscreenenter"",""1"",""9945""
","
","","null","","null","","fixation","2021-06-26 10:57:34.212","","","","","",""
"card-selection-trial","121","566873","0.0-25.0-1.25","946","true","img/card_backs/set1/yellow.gif","img/card_backs/set1/purple.gif","img/card_backs/set1/red.gif","img/card_backs/set1/green.gif","img/card_backs/set2/pink.gif","img/card_backs/set2/blue.gif","img/card_backs/set2/gray.gif","img/card_backs/set2/orange.gif","""event"",""trial"",""time""
""fullscreenenter"",""1"",""9945""
","
","
","""event"",""trial"",""time""
""fullscreenenter"",""1"",""9945""
","
","","2371.144999982789","","","","real_trial","2021-06-26 10:57:38.595","img/card_backs/set1/yellow.gif","2","260","1","",""
"casino-fixation","122","567378","0.0-25.0-0.26","946","true","img/card_backs/set1/yellow.gif","img/card_backs/set1/purple.gif","img/card_backs/set1/red.gif","img/card_backs/set1/green.gif","img/card_backs/set2/pink.gif","img/card_backs/set2/blue.gif","img/card_backs/set2/gray.gif","img/card_backs/set2/orange.gif","""event"",""trial"",""time""
""fullscreenenter"",""1"",""9945""
","
","
","""event"",""trial"",""time""
""fullscreenenter"",""1"",""9945""
","
","","null","","null","","fixation","2021-06-26 10:57:39.100","","","","","",""
"card-selection-trial","123","570086","0.0-25.0-1.26","946","true","img/card_backs/set1/yellow.gif","img/card_backs/set1/purple.gif","img/card_backs/set1/red.gif","img/card_backs/set1/green.gif","img/card_backs/set2/pink.gif","img/card_backs/set2/blue.gif","img/card_backs/set2/gray.gif","img/card_backs/set2/orange.gif","""event"",""trial"",""time""
""fullscreenenter"",""1"",""9945""
","
","
","""event"",""trial"",""time""
""fullscreenenter"",""1"",""9945""
","
","","698.2049999642186","","","","real_trial","2021-06-26 10:57:41.808","img/card_backs/set1/purple.gif","2","-200","1","",""
"casino-fixation","124","570590","0.0-25.0-0.27","946","true","img/card_backs/set1/yellow.gif","img/card_backs/set1/purple.gif","img/card_backs/set1/red.gif","img/card_backs/set1/green.gif","img/card_backs/set2/pink.gif","img/card_backs/set2/blue.gif","img/card_backs/set2/gray.gif","img/card_backs/set2/orange.gif","""event"",""trial"",""time""
""fullscreenenter"",""1"",""9945""
","
","
","""event"",""trial"",""time""
""fullscreenenter"",""1"",""9945""
","
","","null","","null","","fixation","2021-06-26 10:57:42.312","","","","","",""
"card-selection-trial","125","573145","0.0-25.0-1.27","946","true","img/card_backs/set1/yellow.gif","img/card_backs/set1/purple.gif","img/card_backs/set1/red.gif","img/card_backs/set1/green.gif","img/card_backs/set2/pink.gif","img/card_backs/set2/blue.gif","img/card_backs/set2/gray.gif","img/card_backs/set2/orange.gif","""event"",""trial"",""time""
""fullscreenenter"",""1"",""9945""
","
","
","""event"",""trial"",""time""
""fullscreenenter"",""1"",""9945""
","
","","546.0450000246055","","","","real_trial","2021-06-26 10:57:44.868","img/card_backs/set1/green.gif","1","-90","1","",""
"casino-fixation","126","573650","0.0-25.0-0.28","946","true","img/card_backs/set1/yellow.gif","img/card_backs/set1/purple.gif","img/card_backs/set1/red.gif","img/card_backs/set1/green.gif","img/card_backs/set2/pink.gif","img/card_backs/set2/blue.gif","img/card_backs/set2/gray.gif","img/card_backs/set2/orange.gif","""event"",""trial"",""time""
""fullscreenenter"",""1"",""9945""
","
","
","""event"",""trial"",""time""
""fullscreenenter"",""1"",""9945""
","
","","null","","null","","fixation","2021-06-26 10:57:45.372","","","","","",""
"card-selection-trial","127","576091","0.0-25.0-1.28","946","true","img/card_backs/set1/yellow.gif","img/card_backs/set1/purple.gif","img/card_backs/set1/red.gif","img/card_backs/set1/green.gif","img/card_backs/set2/pink.gif","img/card_backs/set2/blue.gif","img/card_backs/set2/gray.gif","img/card_backs/set2/orange.gif","""event"",""trial"",""time""
""fullscreenenter"",""1"",""9945""
","
","
","""event"",""trial"",""time""
""fullscreenenter"",""1"",""9945""
","
","","432.50500003341585","","","","real_trial","2021-06-26 10:57:47.813","img/card_backs/set1/green.gif","3","-90","1","",""
"casino-fixation","128","576596","0.0-25.0-0.29","946","true","img/card_backs/set1/yellow.gif","img/card_backs/set1/purple.gif","img/card_backs/set1/red.gif","img/card_backs/set1/green.gif","img/card_backs/set2/pink.gif","img/card_backs/set2/blue.gif","img/card_backs/set2/gray.gif","img/card_backs/set2/orange.gif","""event"",""trial"",""time""
""fullscreenenter"",""1"",""9945""
","
","
","""event"",""trial"",""time""
""fullscreenenter"",""1"",""9945""
","
","","null","","null","","fixation","2021-06-26 10:57:48.318","","","","","",""
"card-selection-trial","129","579217","0.0-25.0-1.29","946","true","img/card_backs/set1/yellow.gif","img/card_backs/set1/purple.gif","img/card_backs/set1/red.gif","img/card_backs/set1/green.gif","img/card_backs/set2/pink.gif","img/card_backs/set2/blue.gif","img/card_backs/set2/gray.gif","img/card_backs/set2/orange.gif","""event"",""trial"",""time""
""fullscreenenter"",""1"",""9945""
","
","
","""event"",""trial"",""time""
""fullscreenenter"",""1"",""9945""
","
","","613.1549999699928","","","","real_trial","2021-06-26 10:57:50.939","img/card_backs/set1/purple.gif","0","250","1","",""
"casino-fixation","130","579722","0.0-25.0-0.30","946","true","img/card_backs/set1/yellow.gif","img/card_backs/set1/purple.gif","img/card_backs/set1/red.gif","img/card_backs/set1/green.gif","img/card_backs/set2/pink.gif","img/card_backs/set2/blue.gif","img/card_backs/set2/gray.gif","img/card_backs/set2/orange.gif","""event"",""trial"",""time""
""fullscreenenter"",""1"",""9945""
","
","
","""event"",""trial"",""time""
""fullscreenenter"",""1"",""9945""
","
","","null","","null","","fixation","2021-06-26 10:57:51.444","","","","","",""
"card-selection-trial","131","582343","0.0-25.0-1.30","946","true","img/card_backs/set1/yellow.gif","img/card_backs/set1/purple.gif","img/card_backs/set1/red.gif","img/card_backs/set1/green.gif","img/card_backs/set2/pink.gif","img/card_backs/set2/blue.gif","img/card_backs/set2/gray.gif","img/card_backs/set2/orange.gif","""event"",""trial"",""time""
""fullscreenenter"",""1"",""9945""
","
","
","""event"",""trial"",""time""
""fullscreenenter"",""1"",""9945""
","
","","611.5749999880791","","","","real_trial","2021-06-26 10:57:54.065","img/card_backs/set1/green.gif","1","-110","1","",""
"casino-fixation","132","582849","0.0-25.0-0.31","946","true","img/card_backs/set1/yellow.gif","img/card_backs/set1/purple.gif","img/card_backs/set1/red.gif","img/card_backs/set1/green.gif","img/card_backs/set2/pink.gif","img/card_backs/set2/blue.gif","img/card_backs/set2/gray.gif","img/card_backs/set2/orange.gif","""event"",""trial"",""time""
""fullscreenenter"",""1"",""9945""
","
","
","""event"",""trial"",""time""
""fullscreenenter"",""1"",""9945""
","
","","null","","null","","fixation","2021-06-26 10:57:54.571","","","","","",""
"card-selection-trial","133","585339","0.0-25.0-1.31","946","true","img/card_backs/set1/yellow.gif","img/card_backs/set1/purple.gif","img/card_backs/set1/red.gif","img/card_backs/set1/green.gif","img/card_backs/set2/pink.gif","img/card_backs/set2/blue.gif","img/card_backs/set2/gray.gif","img/card_backs/set2/orange.gif","""event"",""trial"",""time""
""fullscreenenter"",""1"",""9945""
","
","
","""event"",""trial"",""time""
""fullscreenenter"",""1"",""9945""
","
","","479.8449999652803","","","","real_trial","2021-06-26 10:57:57.061","img/card_backs/set1/red.gif","2","40","1","",""
"casino-fixation","134","585844","0.0-25.0-0.32","946","true","img/card_backs/set1/yellow.gif","img/card_backs/set1/purple.gif","img/card_backs/set1/red.gif","img/card_backs/set1/green.gif","img/card_backs/set2/pink.gif","img/card_backs/set2/blue.gif","img/card_backs/set2/gray.gif","img/card_backs/set2/orange.gif","""event"",""trial"",""time""
""fullscreenenter"",""1"",""9945""
","
","
","""event"",""trial"",""time""
""fullscreenenter"",""1"",""9945""
","
","","null","","null","","fixation","2021-06-26 10:57:57.566","","","","","",""
"card-selection-trial","135","589086","0.0-25.0-1.32","946","true","img/card_backs/set1/yellow.gif","img/card_backs/set1/purple.gif","img/card_backs/set1/red.gif","img/card_backs/set1/green.gif","img/card_backs/set2/pink.gif","img/card_backs/set2/blue.gif","img/card_backs/set2/gray.gif","img/card_backs/set2/orange.gif","""event"",""trial"",""time""
""fullscreenenter"",""1"",""9945""
","
","
","""event"",""trial"",""time""
""fullscreenenter"",""1"",""9945""
","
","","1233.3399999770336","","","","real_trial","2021-06-26 10:58:00.808","img/card_backs/set1/green.gif","2","-110","1","",""
"casino-fixation","136","589590","0.0-25.0-0.33","946","true","img/card_backs/set1/yellow.gif","img/card_backs/set1/purple.gif","img/card_backs/set1/red.gif","img/card_backs/set1/green.gif","img/card_backs/set2/pink.gif","img/card_backs/set2/blue.gif","img/card_backs/set2/gray.gif","img/card_backs/set2/orange.gif","""event"",""trial"",""time""
""fullscreenenter"",""1"",""9945""
","
","
","""event"",""trial"",""time""
""fullscreenenter"",""1"",""9945""
","
","","null","","null","","fixation","2021-06-26 10:58:01.313","","","","","",""
"card-selection-trial","137","591972","0.0-25.0-1.33","946","true","img/card_backs/set1/yellow.gif","img/card_backs/set1/purple.gif","img/card_backs/set1/red.gif","img/card_backs/set1/green.gif","img/card_backs/set2/pink.gif","img/card_backs/set2/blue.gif","img/card_backs/set2/gray.gif","img/card_backs/set2/orange.gif","""event"",""trial"",""time""
""fullscreenenter"",""1"",""9945""
","
","
","""event"",""trial"",""time""
""fullscreenenter"",""1"",""9945""
","
","","372.78999999398366","","","","real_trial","2021-06-26 10:58:03.694","img/card_backs/set1/yellow.gif","3","240","1","",""
"casino-fixation","138","592476","0.0-25.0-0.34","946","true","img/card_backs/set1/yellow.gif","img/card_backs/set1/purple.gif","img/card_backs/set1/red.gif","img/card_backs/set1/green.gif","img/card_backs/set2/pink.gif","img/card_backs/set2/blue.gif","img/card_backs/set2/gray.gif","img/card_backs/set2/orange.gif","""event"",""trial"",""time""
""fullscreenenter"",""1"",""9945""
","
","
","""event"",""trial"",""time""
""fullscreenenter"",""1"",""9945""
","
","","null","","null","","fixation","2021-06-26 10:58:04.199","","","","","",""
"card-selection-trial","139","596921","0.0-25.0-1.34","946","true","img/card_backs/set1/yellow.gif","img/card_backs/set1/purple.gif","img/card_backs/set1/red.gif","img/card_backs/set1/green.gif","img/card_backs/set2/pink.gif","img/card_backs/set2/blue.gif","img/card_backs/set2/gray.gif","img/card_backs/set2/orange.gif","""event"",""trial"",""time""
""fullscreenenter"",""1"",""9945""
","
","
","""event"",""trial"",""time""
""fullscreenenter"",""1"",""9945""
","
","","2432.3999999905936","","","","real_trial","2021-06-26 10:58:08.643","img/card_backs/set1/purple.gif","1","250","1","",""
"casino-fixation","140","597425","0.0-25.0-0.35","946","true","img/card_backs/set1/yellow.gif","img/card_backs/set1/purple.gif","img/card_backs/set1/red.gif","img/card_backs/set1/green.gif","img/card_backs/set2/pink.gif","img/card_backs/set2/blue.gif","img/card_backs/set2/gray.gif","img/card_backs/set2/orange.gif","""event"",""trial"",""time""
""fullscreenenter"",""1"",""9945""
","
","
","""event"",""trial"",""time""
""fullscreenenter"",""1"",""9945""
","
","","null","","null","","fixation","2021-06-26 10:58:09.147","","","","","",""
"card-selection-trial","141","601449","0.0-25.0-1.35","946","true","img/card_backs/set1/yellow.gif","img/card_backs/set1/purple.gif","img/card_backs/set1/red.gif","img/card_backs/set1/green.gif","img/card_backs/set2/pink.gif","img/card_backs/set2/blue.gif","img/card_backs/set2/gray.gif","img/card_backs/set2/orange.gif","""event"",""trial"",""time""
""fullscreenenter"",""1"",""9945""
","
","
","""event"",""trial"",""time""
""fullscreenenter"",""1"",""9945""
","
","","2011.8700000457466","","","","real_trial","2021-06-26 10:58:13.171","img/card_backs/set1/yellow.gif","0","240","1","",""
"casino-fixation","142","601953","0.0-25.0-0.36","946","true","img/card_backs/set1/yellow.gif","img/card_backs/set1/purple.gif","img/card_backs/set1/red.gif","img/card_backs/set1/green.gif","img/card_backs/set2/pink.gif","img/card_backs/set2/blue.gif","img/card_backs/set2/gray.gif","img/card_backs/set2/orange.gif","""event"",""trial"",""time""
""fullscreenenter"",""1"",""9945""
","
","
","""event"",""trial"",""time""
""fullscreenenter"",""1"",""9945""
","
","","null","","null","","fixation","2021-06-26 10:58:13.676","","","","","",""
"card-selection-trial","143","604900","0.0-25.0-1.36","946","true","img/card_backs/set1/yellow.gif","img/card_backs/set1/purple.gif","img/card_backs/set1/red.gif","img/card_backs/set1/green.gif","img/card_backs/set2/pink.gif","img/card_backs/set2/blue.gif","img/card_backs/set2/gray.gif","img/card_backs/set2/orange.gif","""event"",""trial"",""time""
""fullscreenenter"",""1"",""9945""
","
","
","""event"",""trial"",""time""
""fullscreenenter"",""1"",""9945""
","
","","936.5300000063144","","","","real_trial","2021-06-26 10:58:16.622","img/card_backs/set1/yellow.gif","2","260","1","",""
"casino-fixation","144","605405","0.0-25.0-0.37","946","true","img/card_backs/set1/yellow.gif","img/card_backs/set1/purple.gif","img/card_backs/set1/red.gif","img/card_backs/set1/green.gif","img/card_backs/set2/pink.gif","img/card_backs/set2/blue.gif","img/card_backs/set2/gray.gif","img/card_backs/set2/orange.gif","""event"",""trial"",""time""
""fullscreenenter"",""1"",""9945""
","
","
","""event"",""trial"",""time""
""fullscreenenter"",""1"",""9945""
","
","","null","","null","","fixation","2021-06-26 10:58:17.127","","","","","",""
"card-selection-trial","145","607875","0.0-25.0-1.37","946","true","img/card_backs/set1/yellow.gif","img/card_backs/set1/purple.gif","img/card_backs/set1/red.gif","img/card_backs/set1/green.gif","img/card_backs/set2/pink.gif","img/card_backs/set2/blue.gif","img/card_backs/set2/gray.gif","img/card_backs/set2/orange.gif","""event"",""trial"",""time""
""fullscreenenter"",""1"",""9945""
","
","
","""event"",""trial"",""time""
""fullscreenenter"",""1"",""9945""
","
","","460.300000035204","","","","real_trial","2021-06-26 10:58:19.597","img/card_backs/set1/green.gif","3","50","1","",""
"casino-fixation","146","608380","0.0-25.0-0.38","946","true","img/card_backs/set1/yellow.gif","img/card_backs/set1/purple.gif","img/card_backs/set1/red.gif","img/card_backs/set1/green.gif","img/card_backs/set2/pink.gif","img/card_backs/set2/blue.gif","img/card_backs/set2/gray.gif","img/card_backs/set2/orange.gif","""event"",""trial"",""time""
""fullscreenenter"",""1"",""9945""
","
","
","""event"",""trial"",""time""
""fullscreenenter"",""1"",""9945""
","
","","null","","null","","fixation","2021-06-26 10:58:20.102","","","","","",""
"card-selection-trial","147","611924","0.0-25.0-1.38","946","true","img/card_backs/set1/yellow.gif","img/card_backs/set1/purple.gif","img/card_backs/set1/red.gif","img/card_backs/set1/green.gif","img/card_backs/set2/pink.gif","img/card_backs/set2/blue.gif","img/card_backs/set2/gray.gif","img/card_backs/set2/orange.gif","""event"",""trial"",""time""
""fullscreenenter"",""1"",""9945""
","
","
","""event"",""trial"",""time""
""fullscreenenter"",""1"",""9945""
","
","","1532.375000009779","","","","real_trial","2021-06-26 10:58:23.646","img/card_backs/set1/yellow.gif","2","240","1","",""
"casino-fixation","148","612429","0.0-25.0-0.39","946","true","img/card_backs/set1/yellow.gif","img/card_backs/set1/purple.gif","img/card_backs/set1/red.gif","img/card_backs/set1/green.gif","img/card_backs/set2/pink.gif","img/card_backs/set2/blue.gif","img/card_backs/set2/gray.gif","img/card_backs/set2/orange.gif","""event"",""trial"",""time""
""fullscreenenter"",""1"",""9945""
","
","
","""event"",""trial"",""time""
""fullscreenenter"",""1"",""9945""
","
","","null","","null","","fixation","2021-06-26 10:58:24.151","","","","","",""
"card-selection-trial","149","616417","0.0-25.0-1.39","946","true","img/card_backs/set1/yellow.gif","img/card_backs/set1/purple.gif","img/card_backs/set1/red.gif","img/card_backs/set1/green.gif","img/card_backs/set2/pink.gif","img/card_backs/set2/blue.gif","img/card_backs/set2/gray.gif","img/card_backs/set2/orange.gif","""event"",""trial"",""time""
""fullscreenenter"",""1"",""9945""
","
","
","""event"",""trial"",""time""
""fullscreenenter"",""1"",""9945""
","
","","1977.4350000079721","","","","real_trial","2021-06-26 10:58:28.140","img/card_backs/set1/yellow.gif","1","250","1","",""
"casino-fixation","150","616922","0.0-25.0-0.40","946","true","img/card_backs/set1/yellow.gif","img/card_backs/set1/purple.gif","img/card_backs/set1/red.gif","img/card_backs/set1/green.gif","img/card_backs/set2/pink.gif","img/card_backs/set2/blue.gif","img/card_backs/set2/gray.gif","img/card_backs/set2/orange.gif","""event"",""trial"",""time""
""fullscreenenter"",""1"",""9945""
","
","
","""event"",""trial"",""time""
""fullscreenenter"",""1"",""9945""
","
","","null","","null","","fixation","2021-06-26 10:58:28.644","","","","","",""
"card-selection-trial","151","619465","0.0-25.0-1.40","946","true","img/card_backs/set1/yellow.gif","img/card_backs/set1/purple.gif","img/card_backs/set1/red.gif","img/card_backs/set1/green.gif","img/card_backs/set2/pink.gif","img/card_backs/set2/blue.gif","img/card_backs/set2/gray.gif","img/card_backs/set2/orange.gif","""event"",""trial"",""time""
""fullscreenenter"",""1"",""9945""
","
","
","""event"",""trial"",""time""
""fullscreenenter"",""1"",""9945""
","
","","532.6700000441633","","","","real_trial","2021-06-26 10:58:31.187","img/card_backs/set1/yellow.gif","0","-200","1","",""
"casino-fixation","152","619969","0.0-25.0-0.41","946","true","img/card_backs/set1/yellow.gif","img/card_backs/set1/purple.gif","img/card_backs/set1/red.gif","img/card_backs/set1/green.gif","img/card_backs/set2/pink.gif","img/card_backs/set2/blue.gif","img/card_backs/set2/gray.gif","img/card_backs/set2/orange.gif","""event"",""trial"",""time""
""fullscreenenter"",""1"",""9945""
","
","
","""event"",""trial"",""time""
""fullscreenenter"",""1"",""9945""
","
","","null","","null","","fixation","2021-06-26 10:58:31.691","","","","","",""
"card-selection-trial","153","623358","0.0-25.0-1.41","946","true","img/card_backs/set1/yellow.gif","img/card_backs/set1/purple.gif","img/card_backs/set1/red.gif","img/card_backs/set1/green.gif","img/card_backs/set2/pink.gif","img/card_backs/set2/blue.gif","img/card_backs/set2/gray.gif","img/card_backs/set2/orange.gif","""event"",""trial"",""time""
""fullscreenenter"",""1"",""9945""
","
","
","""event"",""trial"",""time""
""fullscreenenter"",""1"",""9945""
","
","","1376.2599999899976","","","","real_trial","2021-06-26 10:58:35.080","img/card_backs/set1/red.gif","3","40","1","",""
"casino-fixation","154","623865","0.0-25.0-0.42","946","true","img/card_backs/set1/yellow.gif","img/card_backs/set1/purple.gif","img/card_backs/set1/red.gif","img/card_backs/set1/green.gif","img/card_backs/set2/pink.gif","img/card_backs/set2/blue.gif","img/card_backs/set2/gray.gif","img/card_backs/set2/orange.gif","""event"",""trial"",""time""
""fullscreenenter"",""1"",""9945""
","
","
","""event"",""trial"",""time""
""fullscreenenter"",""1"",""9945""
","
","","null","","null","","fixation","2021-06-26 10:58:35.587","","","","","",""
"card-selection-trial","155","626321","0.0-25.0-1.42","946","true","img/card_backs/set1/yellow.gif","img/card_backs/set1/purple.gif","img/card_backs/set1/red.gif","img/card_backs/set1/green.gif","img/card_backs/set2/pink.gif","img/card_backs/set2/blue.gif","img/card_backs/set2/gray.gif","img/card_backs/set2/orange.gif","""event"",""trial"",""time""
""fullscreenenter"",""1"",""9945""
","
","
","""event"",""trial"",""time""
""fullscreenenter"",""1"",""9945""
","
","","445.44500001939014","","","","real_trial","2021-06-26 10:58:38.043","img/card_backs/set1/red.gif","2","-100","1","",""
"casino-fixation","156","626826","0.0-25.0-0.43","946","true","img/card_backs/set1/yellow.gif","img/card_backs/set1/purple.gif","img/card_backs/set1/red.gif","img/card_backs/set1/green.gif","img/card_backs/set2/pink.gif","img/card_backs/set2/blue.gif","img/card_backs/set2/gray.gif","img/card_backs/set2/orange.gif","""event"",""trial"",""time""
""fullscreenenter"",""1"",""9945""
","
","
","""event"",""trial"",""time""
""fullscreenenter"",""1"",""9945""
","
","","null","","null","","fixation","2021-06-26 10:58:38.548","","","","","",""
"card-selection-trial","157","629554","0.0-25.0-1.43","946","true","img/card_backs/set1/yellow.gif","img/card_backs/set1/purple.gif","img/card_backs/set1/red.gif","img/card_backs/set1/green.gif","img/card_backs/set2/pink.gif","img/card_backs/set2/blue.gif","img/card_backs/set2/gray.gif","img/card_backs/set2/orange.gif","""event"",""trial"",""time""
""fullscreenenter"",""1"",""9945""
","
","
","""event"",""trial"",""time""
""fullscreenenter"",""1"",""9945""
","
","","718.460000003688","","","","real_trial","2021-06-26 10:58:41.276","img/card_backs/set1/red.gif","3","-110","1","",""
"casino-fixation","158","630059","0.0-25.0-0.44","946","true","img/card_backs/set1/yellow.gif","img/card_backs/set1/purple.gif","img/card_backs/set1/red.gif","img/card_backs/set1/green.gif","img/card_backs/set2/pink.gif","img/card_backs/set2/blue.gif","img/card_backs/set2/gray.gif","img/card_backs/set2/orange.gif","""event"",""trial"",""time""
""fullscreenenter"",""1"",""9945""
","
","
","""event"",""trial"",""time""
""fullscreenenter"",""1"",""9945""
","
","","null","","null","","fixation","2021-06-26 10:58:41.781","","","","","",""
"card-selection-trial","159","632602","0.0-25.0-1.44","946","true","img/card_backs/set1/yellow.gif","img/card_backs/set1/purple.gif","img/card_backs/set1/red.gif","img/card_backs/set1/green.gif","img/card_backs/set2/pink.gif","img/card_backs/set2/blue.gif","img/card_backs/set2/gray.gif","img/card_backs/set2/orange.gif","""event"",""trial"",""time""
""fullscreenenter"",""1"",""9945""
","
","
","""event"",""trial"",""time""
""fullscreenenter"",""1"",""9945""
","
","","532.1899999980815","","","","real_trial","2021-06-26 10:58:44.324","img/card_backs/set1/red.gif","1","-110","1","",""
"casino-fixation","160","633107","0.0-25.0-0.45","946","true","img/card_backs/set1/yellow.gif","img/card_backs/set1/purple.gif","img/card_backs/set1/red.gif","img/card_backs/set1/green.gif","img/card_backs/set2/pink.gif","img/card_backs/set2/blue.gif","img/card_backs/set2/gray.gif","img/card_backs/set2/orange.gif","""event"",""trial"",""time""
""fullscreenenter"",""1"",""9945""
","
","
","""event"",""trial"",""time""
""fullscreenenter"",""1"",""9945""
","
","","null","","null","","fixation","2021-06-26 10:58:44.829","","","","","",""
"card-selection-trial","161","635603","0.0-25.0-1.45","946","true","img/card_backs/set1/yellow.gif","img/card_backs/set1/purple.gif","img/card_backs/set1/red.gif","img/card_backs/set1/green.gif","img/card_backs/set2/pink.gif","img/card_backs/set2/blue.gif","img/card_backs/set2/gray.gif","img/card_backs/set2/orange.gif","""event"",""trial"",""time""
""fullscreenenter"",""1"",""9945""
","
","
","""event"",""trial"",""time""
""fullscreenenter"",""1"",""9945""
","
","","485.1300000445917","","","","real_trial","2021-06-26 10:58:47.325","img/card_backs/set1/purple.gif","0","260","1","",""
"casino-fixation","162","636108","0.0-25.0-0.46","946","true","img/card_backs/set1/yellow.gif","img/card_backs/set1/purple.gif","img/card_backs/set1/red.gif","img/card_backs/set1/green.gif","img/card_backs/set2/pink.gif","img/card_backs/set2/blue.gif","img/card_backs/set2/gray.gif","img/card_backs/set2/orange.gif","""event"",""trial"",""time""
""fullscreenenter"",""1"",""9945""
","
","
","""event"",""trial"",""time""
""fullscreenenter"",""1"",""9945""
","
","","null","","null","","fixation","2021-06-26 10:58:47.830","","","","","",""
"card-selection-trial","163","640401","0.0-25.0-1.46","946","true","img/card_backs/set1/yellow.gif","img/card_backs/set1/purple.gif","img/card_backs/set1/red.gif","img/card_backs/set1/green.gif","img/card_backs/set2/pink.gif","img/card_backs/set2/blue.gif","img/card_backs/set2/gray.gif","img/card_backs/set2/orange.gif","""event"",""trial"",""time""
""fullscreenenter"",""1"",""9945""
","
","
","""event"",""trial"",""time""
""fullscreenenter"",""1"",""9945""
","
","","2281.6949999541976","","","","real_trial","2021-06-26 10:58:52.123","img/card_backs/set1/green.gif","2","60","1","",""
"casino-fixation","164","640907","0.0-25.0-0.47","946","true","img/card_backs/set1/yellow.gif","img/card_backs/set1/purple.gif","img/card_backs/set1/red.gif","img/card_backs/set1/green.gif","img/card_backs/set2/pink.gif","img/card_backs/set2/blue.gif","img/card_backs/set2/gray.gif","img/card_backs/set2/orange.gif","""event"",""trial"",""time""
""fullscreenenter"",""1"",""9945""
","
","
","""event"",""trial"",""time""
""fullscreenenter"",""1"",""9945""
","
","","null","","null","","fixation","2021-06-26 10:58:52.629","","","","","",""
"card-selection-trial","165","645309","0.0-25.0-1.47","946","true","img/card_backs/set1/yellow.gif","img/card_backs/set1/purple.gif","img/card_backs/set1/red.gif","img/card_backs/set1/green.gif","img/card_backs/set2/pink.gif","img/card_backs/set2/blue.gif","img/card_backs/set2/gray.gif","img/card_backs/set2/orange.gif","""event"",""trial"",""time""
""fullscreenenter"",""1"",""9945""
","
","
","""event"",""trial"",""time""
""fullscreenenter"",""1"",""9945""
","
","","2390.625","","","","real_trial","2021-06-26 10:58:57.032","img/card_backs/set1/yellow.gif","1","260","1","",""
"casino-fixation","166","645814","0.0-25.0-0.48","946","true","img/card_backs/set1/yellow.gif","img/card_backs/set1/purple.gif","img/card_backs/set1/red.gif","img/card_backs/set1/green.gif","img/card_backs/set2/pink.gif","img/card_backs/set2/blue.gif","img/card_backs/set2/gray.gif","img/card_backs/set2/orange.gif","""event"",""trial"",""time""
""fullscreenenter"",""1"",""9945""
","
","
","""event"",""trial"",""time""
""fullscreenenter"",""1"",""9945""
","
","","null","","null","","fixation","2021-06-26 10:58:57.536","","","","","",""
"card-selection-trial","167","648452","0.0-25.0-1.48","946","true","img/card_backs/set1/yellow.gif","img/card_backs/set1/purple.gif","img/card_backs/set1/red.gif","img/card_backs/set1/green.gif","img/card_backs/set2/pink.gif","img/card_backs/set2/blue.gif","img/card_backs/set2/gray.gif","img/card_backs/set2/orange.gif","""event"",""trial"",""time""
""fullscreenenter"",""1"",""9945""
","
","
","""event"",""trial"",""time""
