"trial_type","trial_index","time_elapsed","internal_node_id","sub_id","risk_good_first","block1_A","block1_B","block1_C","block1_D","block2_A","block2_B","block2_C","block2_D","interactions","blur_events","focus_events","fullscreenenter_events","fullscreenexit_events","success","rt","stimulus","key_press","button_pressed","task_part","timestamp","card_choice","choice_position","points_earned","block","correct","response"
"pavlovia","0","15","0.0-0.0","887","false","img/card_backs/set1/green.gif","img/card_backs/set1/red.gif","img/card_backs/set1/purple.gif","img/card_backs/set1/yellow.gif","img/card_backs/set2/blue.gif","img/card_backs/set2/orange.gif","img/card_backs/set2/pink.gif","img/card_backs/set2/gray.gif","""event"",""trial"",""time""
""blur"",""0"",""0""
""focus"",""1"",""6776""
""fullscreenenter"",""1"",""6933""
","""event"",""trial"",""time""
""blur"",""0"",""0""
","""event"",""trial"",""time""
""focus"",""1"",""6776""
","""event"",""trial"",""time""
""fullscreenenter"",""1"",""6933""
","
","","","","","","","","","","","","",""
"fullscreen","1","7878","0.0-1.0","887","false","img/card_backs/set1/green.gif","img/card_backs/set1/red.gif","img/card_backs/set1/purple.gif","img/card_backs/set1/yellow.gif","img/card_backs/set2/blue.gif","img/card_backs/set2/orange.gif","img/card_backs/set2/pink.gif","img/card_backs/set2/gray.gif","""event"",""trial"",""time""
""blur"",""0"",""0""
""focus"",""1"",""6776""
""fullscreenenter"",""1"",""6933""
","""event"",""trial"",""time""
""blur"",""0"",""0""
","""event"",""trial"",""time""
""focus"",""1"",""6776""
","""event"",""trial"",""time""
""fullscreenenter"",""1"",""6933""
","
","true","","","","","","","","","","","",""
"audio-keyboard-response","2","14277","0.0-2.0","887","false","img/card_backs/set1/green.gif","img/card_backs/set1/red.gif","img/card_backs/set1/purple.gif","img/card_backs/set1/yellow.gif","img/card_backs/set2/blue.gif","img/card_backs/set2/orange.gif","img/card_backs/set2/pink.gif","img/card_backs/set2/gray.gif","""event"",""trial"",""time""
""blur"",""0"",""0""
""focus"",""1"",""6776""
""fullscreenenter"",""1"",""6933""
","""event"",""trial"",""time""
""blur"",""0"",""0""
","""event"",""trial"",""time""
""focus"",""1"",""6776""
","""event"",""trial"",""time""
""fullscreenenter"",""1"",""6933""
","
","","6229","audio/beep_loop.wav","32","","","","","","","","",""
"audio-button-response","3","23613","0.0-3.0","887","false","img/card_backs/set1/green.gif","img/card_backs/set1/red.gif","img/card_backs/set1/purple.gif","img/card_backs/set1/yellow.gif","img/card_backs/set2/blue.gif","img/card_backs/set2/orange.gif","img/card_backs/set2/pink.gif","img/card_backs/set2/gray.gif","""event"",""trial"",""time""
""blur"",""0"",""0""
""focus"",""1"",""6776""
""fullscreenenter"",""1"",""6933""
","""event"",""trial"",""time""
""blur"",""0"",""0""
","""event"",""trial"",""time""
""focus"",""1"",""6776""
","""event"",""trial"",""time""
""fullscreenenter"",""1"",""6933""
","
","","NaN","audio/turtle.mp3","","3","","","","","","","",""
"audio-button-response","4","26385","0.0-4.0","887","false","img/card_backs/set1/green.gif","img/card_backs/set1/red.gif","img/card_backs/set1/purple.gif","img/card_backs/set1/yellow.gif","img/card_backs/set2/blue.gif","img/card_backs/set2/orange.gif","img/card_backs/set2/pink.gif","img/card_backs/set2/gray.gif","""event"",""trial"",""time""
""blur"",""0"",""0""
""focus"",""1"",""6776""
""fullscreenenter"",""1"",""6933""
","""event"",""trial"",""time""
""blur"",""0"",""0""
","""event"",""trial"",""time""
""focus"",""1"",""6776""
","""event"",""trial"",""time""
""fullscreenenter"",""1"",""6933""
","
","","NaN","audio/shark.mp3","","2","","","","","","","",""
"fullscreen","5","30395","0.0-5.0","887","false","img/card_backs/set1/green.gif","img/card_backs/set1/red.gif","img/card_backs/set1/purple.gif","img/card_backs/set1/yellow.gif","img/card_backs/set2/blue.gif","img/card_backs/set2/orange.gif","img/card_backs/set2/pink.gif","img/card_backs/set2/gray.gif","""event"",""trial"",""time""
""blur"",""0"",""0""
""focus"",""1"",""6776""
""fullscreenenter"",""1"",""6933""
","""event"",""trial"",""time""
""blur"",""0"",""0""
","""event"",""trial"",""time""
""focus"",""1"",""6776""
","""event"",""trial"",""time""
""fullscreenenter"",""1"",""6933""
","
","true","","","","","","","","","","","",""
"casino-keyboard-response","6","36415","0.0-6.0-0.0","887","false","img/card_backs/set1/green.gif","img/card_backs/set1/red.gif","img/card_backs/set1/purple.gif","img/card_backs/set1/yellow.gif","img/card_backs/set2/blue.gif","img/card_backs/set2/orange.gif","img/card_backs/set2/pink.gif","img/card_backs/set2/gray.gif","""event"",""trial"",""time""
""blur"",""0"",""0""
""focus"",""1"",""6776""
""fullscreenenter"",""1"",""6933""
","""event"",""trial"",""time""
""blur"",""0"",""0""
","""event"",""trial"",""time""
""focus"",""1"",""6776""
","""event"",""trial"",""time""
""fullscreenenter"",""1"",""6933""
","
","","6011.169999837875","Welcome to the casino!","71","","instructions","2021-04-21 20:39:59.667","","","","","",""
"casino-keyboard-response","7","46763","0.0-6.0-0.1","887","false","img/card_backs/set1/green.gif","img/card_backs/set1/red.gif","img/card_backs/set1/purple.gif","img/card_backs/set1/yellow.gif","img/card_backs/set2/blue.gif","img/card_backs/set2/orange.gif","img/card_backs/set2/pink.gif","img/card_backs/set2/gray.gif","""event"",""trial"",""time""
""blur"",""0"",""0""
""focus"",""1"",""6776""
""fullscreenenter"",""1"",""6933""
","""event"",""trial"",""time""
""blur"",""0"",""0""
","""event"",""trial"",""time""
""focus"",""1"",""6776""
","""event"",""trial"",""time""
""fullscreenenter"",""1"",""6933""
","
","","10343.469999730587","Today you will be playing a game to earn tokens. </br> At the end of the experiment, you will be paid a bonus based on how many tokens you win. ","69","","instructions","2021-04-21 20:40:10.014","","","","","",""
"casino-keyboard-response","8","54271","0.0-6.0-0.2","887","false","img/card_backs/set1/green.gif","img/card_backs/set1/red.gif","img/card_backs/set1/purple.gif","img/card_backs/set1/yellow.gif","img/card_backs/set2/blue.gif","img/card_backs/set2/orange.gif","img/card_backs/set2/pink.gif","img/card_backs/set2/gray.gif","""event"",""trial"",""time""
""blur"",""0"",""0""
""focus"",""1"",""6776""
""fullscreenenter"",""1"",""6933""
","""event"",""trial"",""time""
""blur"",""0"",""0""
","""event"",""trial"",""time""
""focus"",""1"",""6776""
","""event"",""trial"",""time""
""fullscreenenter"",""1"",""6933""
","
","","7503.714999184012","On every turn, you will be shown four different decks of cards. </br> You need to select a card from one of the four decks.  ","75","","instructions","2021-04-21 20:40:17.522","","","","","",""
"casino-keyboard-response","9","59591","0.0-6.0-0.3","887","false","img/card_backs/set1/green.gif","img/card_backs/set1/red.gif","img/card_backs/set1/purple.gif","img/card_backs/set1/yellow.gif","img/card_backs/set2/blue.gif","img/card_backs/set2/orange.gif","img/card_backs/set2/pink.gif","img/card_backs/set2/gray.gif","""event"",""trial"",""time""
""blur"",""0"",""0""
""focus"",""1"",""6776""
""fullscreenenter"",""1"",""6933""
","""event"",""trial"",""time""
""blur"",""0"",""0""
","""event"",""trial"",""time""
""focus"",""1"",""6776""
","""event"",""trial"",""time""
""fullscreenenter"",""1"",""6933""
","
","","5314.685000106692","On the next screen, you will see what the decks will look like. ","66","","instructions","2021-04-21 20:40:22.842","","","","","",""
"card-selection-trial","10","63628","0.0-7.0-0.0","887","false","img/card_backs/set1/green.gif","img/card_backs/set1/red.gif","img/card_backs/set1/purple.gif","img/card_backs/set1/yellow.gif","img/card_backs/set2/blue.gif","img/card_backs/set2/orange.gif","img/card_backs/set2/pink.gif","img/card_backs/set2/gray.gif","""event"",""trial"",""time""
""blur"",""0"",""0""
""focus"",""1"",""6776""
""fullscreenenter"",""1"",""6933""
","""event"",""trial"",""time""
""blur"",""0"",""0""
","""event"",""trial"",""time""
""focus"",""1"",""6776""
","""event"",""trial"",""time""
""fullscreenenter"",""1"",""6933""
","
","","null","","","","practice","2021-04-21 20:40:26.879","null","null","null","0","",""
"casino-keyboard-response","11","71162","0.0-8.0-0.0","887","false","img/card_backs/set1/green.gif","img/card_backs/set1/red.gif","img/card_backs/set1/purple.gif","img/card_backs/set1/yellow.gif","img/card_backs/set2/blue.gif","img/card_backs/set2/orange.gif","img/card_backs/set2/pink.gif","img/card_backs/set2/gray.gif","""event"",""trial"",""time""
""blur"",""0"",""0""
""focus"",""1"",""6776""
""fullscreenenter"",""1"",""6933""
","""event"",""trial"",""time""
""blur"",""0"",""0""
","""event"",""trial"",""time""
""focus"",""1"",""6776""
","""event"",""trial"",""time""
""fullscreenenter"",""1"",""6933""
","
","","7529.570000246167","You should pick a card from a deck using the '2', '4', '6', and '8' keys at the top of the keyboard.","85","","instructions","2021-04-21 20:40:34.414","","","","","",""
"casino-keyboard-response","12","77557","0.0-8.0-0.1","887","false","img/card_backs/set1/green.gif","img/card_backs/set1/red.gif","img/card_backs/set1/purple.gif","img/card_backs/set1/yellow.gif","img/card_backs/set2/blue.gif","img/card_backs/set2/orange.gif","img/card_backs/set2/pink.gif","img/card_backs/set2/gray.gif","""event"",""trial"",""time""
""blur"",""0"",""0""
""focus"",""1"",""6776""
""fullscreenenter"",""1"",""6933""
","""event"",""trial"",""time""
""blur"",""0"",""0""
","""event"",""trial"",""time""
""focus"",""1"",""6776""
","""event"",""trial"",""time""
""fullscreenenter"",""1"",""6933""
","
","","6391.160000115633","Once you select a card, it will turn over and you will see how many tokens you earned.","83","","instructions","2021-04-21 20:40:40.808","","","","","",""
"casino-keyboard-response","13","84954","0.0-8.0-0.2","887","false","img/card_backs/set1/green.gif","img/card_backs/set1/red.gif","img/card_backs/set1/purple.gif","img/card_backs/set1/yellow.gif","img/card_backs/set2/blue.gif","img/card_backs/set2/orange.gif","img/card_backs/set2/pink.gif","img/card_backs/set2/gray.gif","""event"",""trial"",""time""
""blur"",""0"",""0""
""focus"",""1"",""6776""
""fullscreenenter"",""1"",""6933""
","""event"",""trial"",""time""
""blur"",""0"",""0""
","""event"",""trial"",""time""
""focus"",""1"",""6776""
","""event"",""trial"",""time""
""fullscreenenter"",""1"",""6933""
","
","","7391.719998791814","Let's try practicing that! </br> First, try to put your fingers over the '2', '4', '6', and '8' keys. </br>  You can use whatever fingers are most comfortable for you. Try to find a comfortable position now. ","50","","instructions","2021-04-21 20:40:48.205","","","","","",""
"casino-keyboard-response","14","91401","0.0-8.0-0.3","887","false","img/card_backs/set1/green.gif","img/card_backs/set1/red.gif","img/card_backs/set1/purple.gif","img/card_backs/set1/yellow.gif","img/card_backs/set2/blue.gif","img/card_backs/set2/orange.gif","img/card_backs/set2/pink.gif","img/card_backs/set2/gray.gif","""event"",""trial"",""time""
""blur"",""0"",""0""
""focus"",""1"",""6776""
""fullscreenenter"",""1"",""6933""
","""event"",""trial"",""time""
""blur"",""0"",""0""
","""event"",""trial"",""time""
""focus"",""1"",""6776""
","""event"",""trial"",""time""
""fullscreenenter"",""1"",""6933""
","
","","6442.89500080049","Okay ready? </br> On the next screen, press '2' to select the left deck. ","50","","instructions","2021-04-21 20:40:54.652","","","","","",""
"card-selection-trial","15","101184","0.0-9.0-0.0","887","false","img/card_backs/set1/green.gif","img/card_backs/set1/red.gif","img/card_backs/set1/purple.gif","img/card_backs/set1/yellow.gif","img/card_backs/set2/blue.gif","img/card_backs/set2/orange.gif","img/card_backs/set2/pink.gif","img/card_backs/set2/gray.gif","""event"",""trial"",""time""
""blur"",""0"",""0""
""focus"",""1"",""6776""
""fullscreenenter"",""1"",""6933""
","""event"",""trial"",""time""
""blur"",""0"",""0""
","""event"",""trial"",""time""
""focus"",""1"",""6776""
","""event"",""trial"",""time""
""fullscreenenter"",""1"",""6933""
","
","","7736.124999821186","","","","practice_card_selection","2021-04-21 20:41:04.436","img/practice_cards/backs/brown.gif","0","-100","","",""
"casino-keyboard-response","16","107865","0.0-10.0-0.0","887","false","img/card_backs/set1/green.gif","img/card_backs/set1/red.gif","img/card_backs/set1/purple.gif","img/card_backs/set1/yellow.gif","img/card_backs/set2/blue.gif","img/card_backs/set2/orange.gif","img/card_backs/set2/pink.gif","img/card_backs/set2/gray.gif","""event"",""trial"",""time""
""blur"",""0"",""0""
""focus"",""1"",""6776""
""fullscreenenter"",""1"",""6933""
","""event"",""trial"",""time""
""blur"",""0"",""0""
","""event"",""trial"",""time""
""focus"",""1"",""6776""
","""event"",""trial"",""time""
""fullscreenenter"",""1"",""6933""
","
","","6676.119999960065","Great! Now on the next screen, try pressing '6' to select the third deck.","54","","instructions","2021-04-21 20:41:11.116","","","","","",""
"card-selection-trial","17","111503","0.0-11.0-0.0","887","false","img/card_backs/set1/green.gif","img/card_backs/set1/red.gif","img/card_backs/set1/purple.gif","img/card_backs/set1/yellow.gif","img/card_backs/set2/blue.gif","img/card_backs/set2/orange.gif","img/card_backs/set2/pink.gif","img/card_backs/set2/gray.gif","""event"",""trial"",""time""
""blur"",""0"",""0""
""focus"",""1"",""6776""
""fullscreenenter"",""1"",""6933""
","""event"",""trial"",""time""
""blur"",""0"",""0""
","""event"",""trial"",""time""
""focus"",""1"",""6776""
","""event"",""trial"",""time""
""fullscreenenter"",""1"",""6933""
","
","","1603.3350005745888","","","","practice_card_selection","2021-04-21 20:41:14.754","img/practice_cards/backs/dark_green.gif","2","-200","","",""
"casino-keyboard-response","18","117067","0.0-12.0-0.0","887","false","img/card_backs/set1/green.gif","img/card_backs/set1/red.gif","img/card_backs/set1/purple.gif","img/card_backs/set1/yellow.gif","img/card_backs/set2/blue.gif","img/card_backs/set2/orange.gif","img/card_backs/set2/pink.gif","img/card_backs/set2/gray.gif","""event"",""trial"",""time""
""blur"",""0"",""0""
""focus"",""1"",""6776""
""fullscreenenter"",""1"",""6933""
","""event"",""trial"",""time""
""blur"",""0"",""0""
","""event"",""trial"",""time""
""focus"",""1"",""6776""
","""event"",""trial"",""time""
""fullscreenenter"",""1"",""6933""
","
","","5562.109999358654","Now on the next screen, try pressing '4' to select the second deck.","52","","instructions","2021-04-21 20:41:20.318","","","","","",""
"card-selection-trial","19","120750","0.0-13.0-0.0","887","false","img/card_backs/set1/green.gif","img/card_backs/set1/red.gif","img/card_backs/set1/purple.gif","img/card_backs/set1/yellow.gif","img/card_backs/set2/blue.gif","img/card_backs/set2/orange.gif","img/card_backs/set2/pink.gif","img/card_backs/set2/gray.gif","""event"",""trial"",""time""
""blur"",""0"",""0""
""focus"",""1"",""6776""
""fullscreenenter"",""1"",""6933""
","""event"",""trial"",""time""
""blur"",""0"",""0""
","""event"",""trial"",""time""
""focus"",""1"",""6776""
","""event"",""trial"",""time""
""fullscreenenter"",""1"",""6933""
","
","","1654.2550008744001","","","","practice_card_selection","2021-04-21 20:41:24.001","img/practice_cards/backs/dark_green.gif","1","-200","","",""
"casino-keyboard-response","20","126405","0.0-14.0-0.0","887","false","img/card_backs/set1/green.gif","img/card_backs/set1/red.gif","img/card_backs/set1/purple.gif","img/card_backs/set1/yellow.gif","img/card_backs/set2/blue.gif","img/card_backs/set2/orange.gif","img/card_backs/set2/pink.gif","img/card_backs/set2/gray.gif","""event"",""trial"",""time""
""blur"",""0"",""0""
""focus"",""1"",""6776""
""fullscreenenter"",""1"",""6933""
","""event"",""trial"",""time""
""blur"",""0"",""0""
","""event"",""trial"",""time""
""focus"",""1"",""6776""
","""event"",""trial"",""time""
""fullscreenenter"",""1"",""6933""
","
","","5650.864999741316","Finally, try pressing '8' to select the deck all the way on the right.","56","","instructions","2021-04-21 20:41:29.656","","","","","",""
"card-selection-trial","21","129071","0.0-15.0-0.0","887","false","img/card_backs/set1/green.gif","img/card_backs/set1/red.gif","img/card_backs/set1/purple.gif","img/card_backs/set1/yellow.gif","img/card_backs/set2/blue.gif","img/card_backs/set2/orange.gif","img/card_backs/set2/pink.gif","img/card_backs/set2/gray.gif","""event"",""trial"",""time""
""blur"",""0"",""0""
""focus"",""1"",""6776""
""fullscreenenter"",""1"",""6933""
","""event"",""trial"",""time""
""blur"",""0"",""0""
","""event"",""trial"",""time""
""focus"",""1"",""6776""
","""event"",""trial"",""time""
""fullscreenenter"",""1"",""6933""
","
","","632.5649991631508","","","","practice_card_selection","2021-04-21 20:41:32.322","img/practice_cards/backs/dark_green.gif","3","-200","","",""
"casino-keyboard-response","22","133152","0.0-16.0-0.0","887","false","img/card_backs/set1/green.gif","img/card_backs/set1/red.gif","img/card_backs/set1/purple.gif","img/card_backs/set1/yellow.gif","img/card_backs/set2/blue.gif","img/card_backs/set2/orange.gif","img/card_backs/set2/pink.gif","img/card_backs/set2/gray.gif","""event"",""trial"",""time""
""blur"",""0"",""0""
""focus"",""1"",""6776""
""fullscreenenter"",""1"",""6933""
","""event"",""trial"",""time""
""blur"",""0"",""0""
","""event"",""trial"",""time""
""focus"",""1"",""6776""
","""event"",""trial"",""time""
""fullscreenenter"",""1"",""6933""
","
","","4078.3999990671873","Great! It seems like you are getting the hang of this.","80","","instructions","2021-04-21 20:41:36.403","","","","","",""
"casino-keyboard-response","23","140911","0.0-16.0-0.1","887","false","img/card_backs/set1/green.gif","img/card_backs/set1/red.gif","img/card_backs/set1/purple.gif","img/card_backs/set1/yellow.gif","img/card_backs/set2/blue.gif","img/card_backs/set2/orange.gif","img/card_backs/set2/pink.gif","img/card_backs/set2/gray.gif","""event"",""trial"",""time""
""blur"",""0"",""0""
""focus"",""1"",""6776""
""fullscreenenter"",""1"",""6933""
","""event"",""trial"",""time""
""blur"",""0"",""0""
","""event"",""trial"",""time""
""focus"",""1"",""6776""
","""event"",""trial"",""time""
""fullscreenenter"",""1"",""6933""
","
","","7754.519999027252","You may have noticed that some cards will cause you to <b> win </b> tokens while other cards will cause you to <b> lose </b>  tokens.","70","","instructions","2021-04-21 20:41:44.162","","","","","",""
"casino-keyboard-response","24","151277","0.0-16.0-0.2","887","false","img/card_backs/set1/green.gif","img/card_backs/set1/red.gif","img/card_backs/set1/purple.gif","img/card_backs/set1/yellow.gif","img/card_backs/set2/blue.gif","img/card_backs/set2/orange.gif","img/card_backs/set2/pink.gif","img/card_backs/set2/gray.gif","""event"",""trial"",""time""
""blur"",""0"",""0""
""focus"",""1"",""6776""
""fullscreenenter"",""1"",""6933""
","""event"",""trial"",""time""
""blur"",""0"",""0""
","""event"",""trial"",""time""
""focus"",""1"",""6776""
","""event"",""trial"",""time""
""fullscreenenter"",""1"",""6933""
","
","","10362.184999510646","Each deck has a mix of cards that will cause you to win and lose tokens. </br> However, the cards in each colored deck are different.","73","","instructions","2021-04-21 20:41:54.528","","","","","",""
"casino-keyboard-response","25","160744","0.0-16.0-0.3","887","false","img/card_backs/set1/green.gif","img/card_backs/set1/red.gif","img/card_backs/set1/purple.gif","img/card_backs/set1/yellow.gif","img/card_backs/set2/blue.gif","img/card_backs/set2/orange.gif","img/card_backs/set2/pink.gif","img/card_backs/set2/gray.gif","""event"",""trial"",""time""
""blur"",""0"",""0""
""focus"",""1"",""6776""
""fullscreenenter"",""1"",""6933""
","""event"",""trial"",""time""
""blur"",""0"",""0""
","""event"",""trial"",""time""
""focus"",""1"",""6776""
","""event"",""trial"",""time""
""fullscreenenter"",""1"",""6933""
","
","","9463.39499950409","Some colored decks are luckier than others. </br> If you choose the lucky decks, you will earn more tokens than if you choose the unlucky decks.","69","","instructions","2021-04-21 20:42:03.995","","","","","",""
"casino-keyboard-response","26","168254","0.0-16.0-0.4","887","false","img/card_backs/set1/green.gif","img/card_backs/set1/red.gif","img/card_backs/set1/purple.gif","img/card_backs/set1/yellow.gif","img/card_backs/set2/blue.gif","img/card_backs/set2/orange.gif","img/card_backs/set2/pink.gif","img/card_backs/set2/gray.gif","""event"",""trial"",""time""
""blur"",""0"",""0""
""focus"",""1"",""6776""
""fullscreenenter"",""1"",""6933""
","""event"",""trial"",""time""
""blur"",""0"",""0""
","""event"",""trial"",""time""
""focus"",""1"",""6776""
","""event"",""trial"",""time""
""fullscreenenter"",""1"",""6933""
","
","","7504.920000210404","You should try to figure out which decks are lucky. </br> Then, try to choose the lucky decks so you can win the most tokens.","87","","instructions","2021-04-21 20:42:11.505","","","","","",""
"casino-keyboard-response","27","180032","0.0-16.0-0.5","887","false","img/card_backs/set1/green.gif","img/card_backs/set1/red.gif","img/card_backs/set1/purple.gif","img/card_backs/set1/yellow.gif","img/card_backs/set2/blue.gif","img/card_backs/set2/orange.gif","img/card_backs/set2/pink.gif","img/card_backs/set2/gray.gif","""event"",""trial"",""time""
""blur"",""0"",""0""
""focus"",""1"",""6776""
""fullscreenenter"",""1"",""6933""
","""event"",""trial"",""time""
""blur"",""0"",""0""
","""event"",""trial"",""time""
""focus"",""1"",""6776""
","""event"",""trial"",""time""
""fullscreenenter"",""1"",""6933""
","
","","11773.114999756217","To make it trickier, the casino dealer will switch the locations of the decks on every turn. </br> The color of the deck determines how lucky it is. The location does not matter.","88","","instructions","2021-04-21 20:42:23.283","","","","","",""
"casino-keyboard-response","28","189959","0.0-16.0-0.6","887","false","img/card_backs/set1/green.gif","img/card_backs/set1/red.gif","img/card_backs/set1/purple.gif","img/card_backs/set1/yellow.gif","img/card_backs/set2/blue.gif","img/card_backs/set2/orange.gif","img/card_backs/set2/pink.gif","img/card_backs/set2/gray.gif","""event"",""trial"",""time""
""blur"",""0"",""0""
""focus"",""1"",""6776""
""fullscreenenter"",""1"",""6933""
","""event"",""trial"",""time""
""blur"",""0"",""0""
","""event"",""trial"",""time""
""focus"",""1"",""6776""
","""event"",""trial"",""time""
""fullscreenenter"",""1"",""6933""
","
","","9921.395000070333","The mix of cards in each colored deck will stay the same throughout the game. </br> That means that a deck that is lucky early on will stay lucky.","79","","instructions","2021-04-21 20:42:33.210","","","","","",""
"casino-keyboard-response","29","198555","0.0-16.0-0.7","887","false","img/card_backs/set1/green.gif","img/card_backs/set1/red.gif","img/card_backs/set1/purple.gif","img/card_backs/set1/yellow.gif","img/card_backs/set2/blue.gif","img/card_backs/set2/orange.gif","img/card_backs/set2/pink.gif","img/card_backs/set2/gray.gif","""event"",""trial"",""time""
""blur"",""0"",""0""
""focus"",""1"",""6776""
""fullscreenenter"",""1"",""6933""
","""event"",""trial"",""time""
""blur"",""0"",""0""
","""event"",""trial"",""time""
""focus"",""1"",""6776""
","""event"",""trial"",""time""
""fullscreenenter"",""1"",""6933""
","
","","8591.874999925494","Remember though, all the decks have a <b> mix </b> of both <b> good </b> and <b> bad </b> cards so it may take a couple of turns to figure out if a deck is lucky.","69","","instructions","2021-04-21 20:42:41.806","","","","","",""
"casino-keyboard-response","30","208967","0.0-16.0-0.8","887","false","img/card_backs/set1/green.gif","img/card_backs/set1/red.gif","img/card_backs/set1/purple.gif","img/card_backs/set1/yellow.gif","img/card_backs/set2/blue.gif","img/card_backs/set2/orange.gif","img/card_backs/set2/pink.gif","img/card_backs/set2/gray.gif","""event"",""trial"",""time""
""blur"",""0"",""0""
""focus"",""1"",""6776""
""fullscreenenter"",""1"",""6933""
","""event"",""trial"",""time""
""blur"",""0"",""0""
","""event"",""trial"",""time""
""focus"",""1"",""6776""
","""event"",""trial"",""time""
""fullscreenenter"",""1"",""6933""
","
","","10405.889999121428","At the end of the game, you will be paid bonus money based on how many tokens you win. </br> If you win more tokens, you will earn more money!","72","","instructions","2021-04-21 20:42:52.218","","","","","",""
"casino-keyboard-response","31","220586","0.0-16.0-0.9","887","false","img/card_backs/set1/green.gif","img/card_backs/set1/red.gif","img/card_backs/set1/purple.gif","img/card_backs/set1/yellow.gif","img/card_backs/set2/blue.gif","img/card_backs/set2/orange.gif","img/card_backs/set2/pink.gif","img/card_backs/set2/gray.gif","""event"",""trial"",""time""
""blur"",""0"",""0""
""focus"",""1"",""6776""
""fullscreenenter"",""1"",""6933""
","""event"",""trial"",""time""
""blur"",""0"",""0""
","""event"",""trial"",""time""
""focus"",""1"",""6776""
","""event"",""trial"",""time""
""fullscreenenter"",""1"",""6933""
","
","","11613.214999437332","You will never <b> lose </b> money. </br> If you end up with fewer than 0 tokens, you will earn $0 of bonus money, but you will still be paid for playing the game.","83","","instructions","2021-04-21 20:43:03.838","","","","","",""
"casino-keyboard-response","32","224968","0.0-16.0-0.10","887","false","img/card_backs/set1/green.gif","img/card_backs/set1/red.gif","img/card_backs/set1/purple.gif","img/card_backs/set1/yellow.gif","img/card_backs/set2/blue.gif","img/card_backs/set2/orange.gif","img/card_backs/set2/pink.gif","img/card_backs/set2/gray.gif","""event"",""trial"",""time""
""blur"",""0"",""0""
""focus"",""1"",""6776""
""fullscreenenter"",""1"",""6933""
","""event"",""trial"",""time""
""blur"",""0"",""0""
","""event"",""trial"",""time""
""focus"",""1"",""6776""
","""event"",""trial"",""time""
""fullscreenenter"",""1"",""6933""
","
","","4376.1849999427795","You will have 10 seconds to make each choice.","82","","instructions","2021-04-21 20:43:08.219","","","","","",""
"casino-keyboard-response","33","233383","0.0-16.0-0.11","887","false","img/card_backs/set1/green.gif","img/card_backs/set1/red.gif","img/card_backs/set1/purple.gif","img/card_backs/set1/yellow.gif","img/card_backs/set2/blue.gif","img/card_backs/set2/orange.gif","img/card_backs/set2/pink.gif","img/card_backs/set2/gray.gif","""event"",""trial"",""time""
""blur"",""0"",""0""
""focus"",""1"",""6776""
""fullscreenenter"",""1"",""6933""
","""event"",""trial"",""time""
""blur"",""0"",""0""
","""event"",""trial"",""time""
""focus"",""1"",""6776""
","""event"",""trial"",""time""
""fullscreenenter"",""1"",""6933""
","
","","8411.154998466372","Before you play the game for real, you will play with practice decks. </br> The tokens you earn during practice won't count toward your total.","86","","instructions","2021-04-21 20:43:16.635","","","","","",""
"casino-keyboard-response","34","241053","0.0-16.0-0.12","887","false","img/card_backs/set1/green.gif","img/card_backs/set1/red.gif","img/card_backs/set1/purple.gif","img/card_backs/set1/yellow.gif","img/card_backs/set2/blue.gif","img/card_backs/set2/orange.gif","img/card_backs/set2/pink.gif","img/card_backs/set2/gray.gif","""event"",""trial"",""time""
""blur"",""0"",""0""
""focus"",""1"",""6776""
""fullscreenenter"",""1"",""6933""
","""event"",""trial"",""time""
""blur"",""0"",""0""
","""event"",""trial"",""time""
""focus"",""1"",""6776""
","""event"",""trial"",""time""
""fullscreenenter"",""1"",""6933""
","
","","7665.335001423955","Ready? Remember, use the '2', '4', '6', and '8' keys to select the decks. </br> Put your fingers on those keys now and then press '2' to begin.","50","","instructions","2021-04-21 20:43:24.304","","","","","",""
"casino-fixation","35","241567","0.0-17.0-0.0","887","false","img/card_backs/set1/green.gif","img/card_backs/set1/red.gif","img/card_backs/set1/purple.gif","img/card_backs/set1/yellow.gif","img/card_backs/set2/blue.gif","img/card_backs/set2/orange.gif","img/card_backs/set2/pink.gif","img/card_backs/set2/gray.gif","""event"",""trial"",""time""
""blur"",""0"",""0""
""focus"",""1"",""6776""
""fullscreenenter"",""1"",""6933""
","""event"",""trial"",""time""
""blur"",""0"",""0""
","""event"",""trial"",""time""
""focus"",""1"",""6776""
","""event"",""trial"",""time""
""fullscreenenter"",""1"",""6933""
","
","","null","","null","","fixation","2021-04-21 20:43:24.819","","","","","",""
"card-selection-trial","36","246963","0.0-17.0-1.0","887","false","img/card_backs/set1/green.gif","img/card_backs/set1/red.gif","img/card_backs/set1/purple.gif","img/card_backs/set1/yellow.gif","img/card_backs/set2/blue.gif","img/card_backs/set2/orange.gif","img/card_backs/set2/pink.gif","img/card_backs/set2/gray.gif","""event"",""trial"",""time""
""blur"",""0"",""0""
""focus"",""1"",""6776""
""fullscreenenter"",""1"",""6933""
","""event"",""trial"",""time""
""blur"",""0"",""0""
","""event"",""trial"",""time""
""focus"",""1"",""6776""
","""event"",""trial"",""time""
""fullscreenenter"",""1"",""6933""
","
","","3374.5300006121397","","","","practice","2021-04-21 20:43:30.215","img/practice_cards/backs/dark_green.gif","2","200","0","",""
"casino-fixation","37","247468","0.0-17.0-0.1","887","false","img/card_backs/set1/green.gif","img/card_backs/set1/red.gif","img/card_backs/set1/purple.gif","img/card_backs/set1/yellow.gif","img/card_backs/set2/blue.gif","img/card_backs/set2/orange.gif","img/card_backs/set2/pink.gif","img/card_backs/set2/gray.gif","""event"",""trial"",""time""
""blur"",""0"",""0""
""focus"",""1"",""6776""
""fullscreenenter"",""1"",""6933""
","""event"",""trial"",""time""
""blur"",""0"",""0""
","""event"",""trial"",""time""
""focus"",""1"",""6776""
","""event"",""trial"",""time""
""fullscreenenter"",""1"",""6933""
","
","","null","","null","","fixation","2021-04-21 20:43:30.719","","","","","",""
"card-selection-trial","38","252681","0.0-17.0-1.1","887","false","img/card_backs/set1/green.gif","img/card_backs/set1/red.gif","img/card_backs/set1/purple.gif","img/card_backs/set1/yellow.gif","img/card_backs/set2/blue.gif","img/card_backs/set2/orange.gif","img/card_backs/set2/pink.gif","img/card_backs/set2/gray.gif","""event"",""trial"",""time""
""blur"",""0"",""0""
""focus"",""1"",""6776""
""fullscreenenter"",""1"",""6933""
","""event"",""trial"",""time""
""blur"",""0"",""0""
","""event"",""trial"",""time""
""focus"",""1"",""6776""
","""event"",""trial"",""time""
""fullscreenenter"",""1"",""6933""
","
","","3190.099999308586","","","","practice","2021-04-21 20:43:35.932","img/practice_cards/backs/dark_green.gif","0","-200","0","",""
"casino-fixation","39","253185","0.0-17.0-0.2","887","false","img/card_backs/set1/green.gif","img/card_backs/set1/red.gif","img/card_backs/set1/purple.gif","img/card_backs/set1/yellow.gif","img/card_backs/set2/blue.gif","img/card_backs/set2/orange.gif","img/card_backs/set2/pink.gif","img/card_backs/set2/gray.gif","""event"",""trial"",""time""
""blur"",""0"",""0""
""focus"",""1"",""6776""
""fullscreenenter"",""1"",""6933""
","""event"",""trial"",""time""
""blur"",""0"",""0""
","""event"",""trial"",""time""
""focus"",""1"",""6776""
","""event"",""trial"",""time""
""fullscreenenter"",""1"",""6933""
","
","","null","","null","","fixation","2021-04-21 20:43:36.436","","","","","",""
"card-selection-trial","40","256915","0.0-17.0-1.2","887","false","img/card_backs/set1/green.gif","img/card_backs/set1/red.gif","img/card_backs/set1/purple.gif","img/card_backs/set1/yellow.gif","img/card_backs/set2/blue.gif","img/card_backs/set2/orange.gif","img/card_backs/set2/pink.gif","img/card_backs/set2/gray.gif","""event"",""trial"",""time""
""blur"",""0"",""0""
""focus"",""1"",""6776""
""fullscreenenter"",""1"",""6933""
","""event"",""trial"",""time""
""blur"",""0"",""0""
","""event"",""trial"",""time""
""focus"",""1"",""6776""
","""event"",""trial"",""time""
""fullscreenenter"",""1"",""6933""
","
","","1703.6799993366003","","","","practice","2021-04-21 20:43:40.166","img/practice_cards/backs/brown.gif","2","100","0","",""
"casino-fixation","41","257434","0.0-17.0-0.3","887","false","img/card_backs/set1/green.gif","img/card_backs/set1/red.gif","img/card_backs/set1/purple.gif","img/card_backs/set1/yellow.gif","img/card_backs/set2/blue.gif","img/card_backs/set2/orange.gif","img/card_backs/set2/pink.gif","img/card_backs/set2/gray.gif","""event"",""trial"",""time""
""blur"",""0"",""0""
""focus"",""1"",""6776""
""fullscreenenter"",""1"",""6933""
","""event"",""trial"",""time""
""blur"",""0"",""0""
","""event"",""trial"",""time""
""focus"",""1"",""6776""
","""event"",""trial"",""time""
""fullscreenenter"",""1"",""6933""
","
","","null","","null","","fixation","2021-04-21 20:43:40.685","","","","","",""
"card-selection-trial","42","261944","0.0-17.0-1.3","887","false","img/card_backs/set1/green.gif","img/card_backs/set1/red.gif","img/card_backs/set1/purple.gif","img/card_backs/set1/yellow.gif","img/card_backs/set2/blue.gif","img/card_backs/set2/orange.gif","img/card_backs/set2/pink.gif","img/card_backs/set2/gray.gif","""event"",""trial"",""time""
""blur"",""0"",""0""
""focus"",""1"",""6776""
""fullscreenenter"",""1"",""6933""
","""event"",""trial"",""time""
""blur"",""0"",""0""
","""event"",""trial"",""time""
""focus"",""1"",""6776""
","""event"",""trial"",""time""
""fullscreenenter"",""1"",""6933""
","
","","2495.644999668002","","","","practice","2021-04-21 20:43:45.196","img/practice_cards/backs/dark_blue.gif","3","200","0","",""
"casino-fixation","43","262451","0.0-17.0-0.4","887","false","img/card_backs/set1/green.gif","img/card_backs/set1/red.gif","img/card_backs/set1/purple.gif","img/card_backs/set1/yellow.gif","img/card_backs/set2/blue.gif","img/card_backs/set2/orange.gif","img/card_backs/set2/pink.gif","img/card_backs/set2/gray.gif","""event"",""trial"",""time""
""blur"",""0"",""0""
""focus"",""1"",""6776""
""fullscreenenter"",""1"",""6933""
","""event"",""trial"",""time""
""blur"",""0"",""0""
","""event"",""trial"",""time""
""focus"",""1"",""6776""
","""event"",""trial"",""time""
""fullscreenenter"",""1"",""6933""
","
","","null","","null","","fixation","2021-04-21 20:43:45.703","","","","","",""
"card-selection-trial","44","265814","0.0-17.0-1.4","887","false","img/card_backs/set1/green.gif","img/card_backs/set1/red.gif","img/card_backs/set1/purple.gif","img/card_backs/set1/yellow.gif","img/card_backs/set2/blue.gif","img/card_backs/set2/orange.gif","img/card_backs/set2/pink.gif","img/card_backs/set2/gray.gif","""event"",""trial"",""time""
""blur"",""0"",""0""
""focus"",""1"",""6776""
""fullscreenenter"",""1"",""6933""
","""event"",""trial"",""time""
""blur"",""0"",""0""
","""event"",""trial"",""time""
""focus"",""1"",""6776""
","""event"",""trial"",""time""
""fullscreenenter"",""1"",""6933""
","
","","1343.2599995285273","","","","practice","2021-04-21 20:43:49.065","img/practice_cards/backs/dark_green.gif","1","200","0","",""
"casino-fixation","45","266319","0.0-17.0-0.5","887","false","img/card_backs/set1/green.gif","img/card_backs/set1/red.gif","img/card_backs/set1/purple.gif","img/card_backs/set1/yellow.gif","img/card_backs/set2/blue.gif","img/card_backs/set2/orange.gif","img/card_backs/set2/pink.gif","img/card_backs/set2/gray.gif","""event"",""trial"",""time""
""blur"",""0"",""0""
""focus"",""1"",""6776""
""fullscreenenter"",""1"",""6933""
","""event"",""trial"",""time""
""blur"",""0"",""0""
","""event"",""trial"",""time""
""focus"",""1"",""6776""
","""event"",""trial"",""time""
""fullscreenenter"",""1"",""6933""
","
","","null","","null","","fixation","2021-04-21 20:43:49.570","","","","","",""
"card-selection-trial","46","271403","0.0-17.0-1.5","887","false","img/card_backs/set1/green.gif","img/card_backs/set1/red.gif","img/card_backs/set1/purple.gif","img/card_backs/set1/yellow.gif","img/card_backs/set2/blue.gif","img/card_backs/set2/orange.gif","img/card_backs/set2/pink.gif","img/card_backs/set2/gray.gif","""event"",""trial"",""time""
""blur"",""0"",""0""
""focus"",""1"",""6776""
""fullscreenenter"",""1"",""6933""
","""event"",""trial"",""time""
""blur"",""0"",""0""
","""event"",""trial"",""time""
""focus"",""1"",""6776""
","""event"",""trial"",""time""
""fullscreenenter"",""1"",""6933""
","
","","3074.500000104308","","","","practice","2021-04-21 20:43:54.655","img/practice_cards/backs/black.gif","0","100","0","",""
"casino-fixation","47","271907","0.0-17.0-0.6","887","false","img/card_backs/set1/green.gif","img/card_backs/set1/red.gif","img/card_backs/set1/purple.gif","img/card_backs/set1/yellow.gif","img/card_backs/set2/blue.gif","img/card_backs/set2/orange.gif","img/card_backs/set2/pink.gif","img/card_backs/set2/gray.gif","""event"",""trial"",""time""
""blur"",""0"",""0""
""focus"",""1"",""6776""
""fullscreenenter"",""1"",""6933""
","""event"",""trial"",""time""
""blur"",""0"",""0""
","""event"",""trial"",""time""
""focus"",""1"",""6776""
","""event"",""trial"",""time""
""fullscreenenter"",""1"",""6933""
","
","","null","","null","","fixation","2021-04-21 20:43:55.159","","","","","",""
"card-selection-trial","48","275811","0.0-17.0-1.6","887","false","img/card_backs/set1/green.gif","img/card_backs/set1/red.gif","img/card_backs/set1/purple.gif","img/card_backs/set1/yellow.gif","img/card_backs/set2/blue.gif","img/card_backs/set2/orange.gif","img/card_backs/set2/pink.gif","img/card_backs/set2/gray.gif","""event"",""trial"",""time""
""blur"",""0"",""0""
""focus"",""1"",""6776""
""fullscreenenter"",""1"",""6933""
","""event"",""trial"",""time""
""blur"",""0"",""0""
","""event"",""trial"",""time""
""focus"",""1"",""6776""
","""event"",""trial"",""time""
""fullscreenenter"",""1"",""6933""
","
","","1891.4749994874","","","","practice","2021-04-21 20:43:59.062","img/practice_cards/backs/dark_green.gif","3","-200","0","",""
"casino-fixation","49","276315","0.0-17.0-0.7","887","false","img/card_backs/set1/green.gif","img/card_backs/set1/red.gif","img/card_backs/set1/purple.gif","img/card_backs/set1/yellow.gif","img/card_backs/set2/blue.gif","img/card_backs/set2/orange.gif","img/card_backs/set2/pink.gif","img/card_backs/set2/gray.gif","""event"",""trial"",""time""
""blur"",""0"",""0""
""focus"",""1"",""6776""
""fullscreenenter"",""1"",""6933""
","""event"",""trial"",""time""
""blur"",""0"",""0""
","""event"",""trial"",""time""
""focus"",""1"",""6776""
","""event"",""trial"",""time""
""fullscreenenter"",""1"",""6933""
","
","","null","","null","","fixation","2021-04-21 20:43:59.566","","","","","",""
"card-selection-trial","50","279628","0.0-17.0-1.7","887","false","img/card_backs/set1/green.gif","img/card_backs/set1/red.gif","img/card_backs/set1/purple.gif","img/card_backs/set1/yellow.gif","img/card_backs/set2/blue.gif","img/card_backs/set2/orange.gif","img/card_backs/set2/pink.gif","img/card_backs/set2/gray.gif","""event"",""trial"",""time""
""blur"",""0"",""0""
""focus"",""1"",""6776""
""fullscreenenter"",""1"",""6933""
","""event"",""trial"",""time""
""blur"",""0"",""0""
","""event"",""trial"",""time""
""focus"",""1"",""6776""
","""event"",""trial"",""time""
""fullscreenenter"",""1"",""6933""
","
","","1302.725000306964","","","","practice","2021-04-21 20:44:02.880","img/practice_cards/backs/brown.gif","1","-100","0","",""
"casino-fixation","51","280133","0.0-17.0-0.8","887","false","img/card_backs/set1/green.gif","img/card_backs/set1/red.gif","img/card_backs/set1/purple.gif","img/card_backs/set1/yellow.gif","img/card_backs/set2/blue.gif","img/card_backs/set2/orange.gif","img/card_backs/set2/pink.gif","img/card_backs/set2/gray.gif","""event"",""trial"",""time""
""blur"",""0"",""0""
""focus"",""1"",""6776""
""fullscreenenter"",""1"",""6933""
","""event"",""trial"",""time""
""blur"",""0"",""0""
","""event"",""trial"",""time""
""focus"",""1"",""6776""
","""event"",""trial"",""time""
""fullscreenenter"",""1"",""6933""
","
","","null","","null","","fixation","2021-04-21 20:44:03.384","","","","","",""
"card-selection-trial","52","283443","0.0-17.0-1.8","887","false","img/card_backs/set1/green.gif","img/card_backs/set1/red.gif","img/card_backs/set1/purple.gif","img/card_backs/set1/yellow.gif","img/card_backs/set2/blue.gif","img/card_backs/set2/orange.gif","img/card_backs/set2/pink.gif","img/card_backs/set2/gray.gif","""event"",""trial"",""time""
""blur"",""0"",""0""
""focus"",""1"",""6776""
""fullscreenenter"",""1"",""6933""
","""event"",""trial"",""time""
""blur"",""0"",""0""
","""event"",""trial"",""time""
""focus"",""1"",""6776""
","""event"",""trial"",""time""
""fullscreenenter"",""1"",""6933""
","
","","1299.2850001901388","","","","practice","2021-04-21 20:44:06.694","img/practice_cards/backs/dark_green.gif","0","200","0","",""
"casino-fixation","53","283946","0.0-17.0-0.9","887","false","img/card_backs/set1/green.gif","img/card_backs/set1/red.gif","img/card_backs/set1/purple.gif","img/card_backs/set1/yellow.gif","img/card_backs/set2/blue.gif","img/card_backs/set2/orange.gif","img/card_backs/set2/pink.gif","img/card_backs/set2/gray.gif","""event"",""trial"",""time""
""blur"",""0"",""0""
""focus"",""1"",""6776""
""fullscreenenter"",""1"",""6933""
","""event"",""trial"",""time""
""blur"",""0"",""0""
","""event"",""trial"",""time""
""focus"",""1"",""6776""
","""event"",""trial"",""time""
""fullscreenenter"",""1"",""6933""
","
","","null","","null","","fixation","2021-04-21 20:44:07.198","","","","","",""
"card-selection-trial","54","286562","0.0-17.0-1.9","887","false","img/card_backs/set1/green.gif","img/card_backs/set1/red.gif","img/card_backs/set1/purple.gif","img/card_backs/set1/yellow.gif","img/card_backs/set2/blue.gif","img/card_backs/set2/orange.gif","img/card_backs/set2/pink.gif","img/card_backs/set2/gray.gif","""event"",""trial"",""time""
""blur"",""0"",""0""
""focus"",""1"",""6776""
""fullscreenenter"",""1"",""6933""
","""event"",""trial"",""time""
""blur"",""0"",""0""
","""event"",""trial"",""time""
""focus"",""1"",""6776""
","""event"",""trial"",""time""
""fullscreenenter"",""1"",""6933""
","
","","603.0500009655952","","","","practice","2021-04-21 20:44:09.813","img/practice_cards/backs/dark_blue.gif","0","200","0","",""
"casino-keyboard-response","55","290515","0.0-18.0","887","false","img/card_backs/set1/green.gif","img/card_backs/set1/red.gif","img/card_backs/set1/purple.gif","img/card_backs/set1/yellow.gif","img/card_backs/set2/blue.gif","img/card_backs/set2/orange.gif","img/card_backs/set2/pink.gif","img/card_backs/set2/gray.gif","""event"",""trial"",""time""
""blur"",""0"",""0""
""focus"",""1"",""6776""
""fullscreenenter"",""1"",""6933""
","""event"",""trial"",""time""
""blur"",""0"",""0""
","""event"",""trial"",""time""
""focus"",""1"",""6776""
","""event"",""trial"",""time""
""fullscreenenter"",""1"",""6933""
","
","","3942.509999498725","You earned 700 tokens during the practice round!","82","","","2021-04-21 20:44:13.766","","","","","",""
"casino-keyboard-response","56","296676","0.0-19.0-0.0","887","false","img/card_backs/set1/green.gif","img/card_backs/set1/red.gif","img/card_backs/set1/purple.gif","img/card_backs/set1/yellow.gif","img/card_backs/set2/blue.gif","img/card_backs/set2/orange.gif","img/card_backs/set2/pink.gif","img/card_backs/set2/gray.gif","""event"",""trial"",""time""
""blur"",""0"",""0""
""focus"",""1"",""6776""
""fullscreenenter"",""1"",""6933""
","""event"",""trial"",""time""
""blur"",""0"",""0""
","""event"",""trial"",""time""
""focus"",""1"",""6776""
","""event"",""trial"",""time""
""fullscreenenter"",""1"",""6933""
","
","","6156.5000005066395","Nice job! You are almost ready to play the real game.","86","","instructions","2021-04-21 20:44:19.927","","","","","",""
"casino-keyboard-response","57","304303","0.0-19.0-0.1","887","false","img/card_backs/set1/green.gif","img/card_backs/set1/red.gif","img/card_backs/set1/purple.gif","img/card_backs/set1/yellow.gif","img/card_backs/set2/blue.gif","img/card_backs/set2/orange.gif","img/card_backs/set2/pink.gif","img/card_backs/set2/gray.gif","""event"",""trial"",""time""
""blur"",""0"",""0""
""focus"",""1"",""6776""
""fullscreenenter"",""1"",""6933""
","""event"",""trial"",""time""
""blur"",""0"",""0""
","""event"",""trial"",""time""
""focus"",""1"",""6776""
","""event"",""trial"",""time""
""fullscreenenter"",""1"",""6933""
","
","","7623.224999755621","You will play two rounds of the real game. In each round, you will pick 100 cards in total.","73","","instructions","2021-04-21 20:44:27.554","","","","","",""
"casino-keyboard-response","58","309140","0.0-19.0-0.2","887","false","img/card_backs/set1/green.gif","img/card_backs/set1/red.gif","img/card_backs/set1/purple.gif","img/card_backs/set1/yellow.gif","img/card_backs/set2/blue.gif","img/card_backs/set2/orange.gif","img/card_backs/set2/pink.gif","img/card_backs/set2/gray.gif","""event"",""trial"",""time""
""blur"",""0"",""0""
""focus"",""1"",""6776""
""fullscreenenter"",""1"",""6933""
","""event"",""trial"",""time""
""blur"",""0"",""0""
","""event"",""trial"",""time""
""focus"",""1"",""6776""
","""event"",""trial"",""time""
""fullscreenenter"",""1"",""6933""
","
","","4832.474999129772","We are now going to ask you some questions about how the game works.","66","","instructions","2021-04-21 20:44:32.391","","","","","",""
"casino-keyboard-response","59","315546","0.0-19.0-0.3","887","false","img/card_backs/set1/green.gif","img/card_backs/set1/red.gif","img/card_backs/set1/purple.gif","img/card_backs/set1/yellow.gif","img/card_backs/set2/blue.gif","img/card_backs/set2/orange.gif","img/card_backs/set2/pink.gif","img/card_backs/set2/gray.gif","""event"",""trial"",""time""
""blur"",""0"",""0""
""focus"",""1"",""6776""
""fullscreenenter"",""1"",""6933""
","""event"",""trial"",""time""
""blur"",""0"",""0""
","""event"",""trial"",""time""
""focus"",""1"",""6776""
","""event"",""trial"",""time""
""fullscreenenter"",""1"",""6933""
","
","","6402.829999104142","Answer carefully. You will not be able to begin the game until you answer them correctly.","67","","instructions","2021-04-21 20:44:38.797","","","","","",""
"casino-comp_q","60","322464","0.0-20.0-0.0","887","false","img/card_backs/set1/green.gif","img/card_backs/set1/red.gif","img/card_backs/set1/purple.gif","img/card_backs/set1/yellow.gif","img/card_backs/set2/blue.gif","img/card_backs/set2/orange.gif","img/card_backs/set2/pink.gif","img/card_backs/set2/gray.gif","""event"",""trial"",""time""
""blur"",""0"",""0""
""focus"",""1"",""6776""
""fullscreenenter"",""1"",""6933""
","""event"",""trial"",""time""
""blur"",""0"",""0""
","""event"",""trial"",""time""
""focus"",""1"",""6776""
","""event"",""trial"",""time""
""fullscreenenter"",""1"",""6933""
","
","","6914.0150006860495","True or False: All the decks have some cards that cause you to win tokens and some cards that cause you to lose tokens.","84","","","2021-04-21 20:44:45.716","","","","","",""
"casino-keyboard-response","61","326021","0.0-20.0-1.0","887","false","img/card_backs/set1/green.gif","img/card_backs/set1/red.gif","img/card_backs/set1/purple.gif","img/card_backs/set1/yellow.gif","img/card_backs/set2/blue.gif","img/card_backs/set2/orange.gif","img/card_backs/set2/pink.gif","img/card_backs/set2/gray.gif","""event"",""trial"",""time""
""blur"",""0"",""0""
""focus"",""1"",""6776""
""fullscreenenter"",""1"",""6933""
","""event"",""trial"",""time""
""blur"",""0"",""0""
","""event"",""trial"",""time""
""focus"",""1"",""6776""
","""event"",""trial"",""time""
""fullscreenenter"",""1"",""6933""
","
","","3552.5449998676777","True is correct! All the decks have a mix of winning and losing cards.","77","","","2021-04-21 20:44:49.273","","","","","true",""
"casino-comp_q","62","331142","0.0-21.0-0.0","887","false","img/card_backs/set1/green.gif","img/card_backs/set1/red.gif","img/card_backs/set1/purple.gif","img/card_backs/set1/yellow.gif","img/card_backs/set2/blue.gif","img/card_backs/set2/orange.gif","img/card_backs/set2/pink.gif","img/card_backs/set2/gray.gif","""event"",""trial"",""time""
""blur"",""0"",""0""
""focus"",""1"",""6776""
""fullscreenenter"",""1"",""6933""
","""event"",""trial"",""time""
""blur"",""0"",""0""
","""event"",""trial"",""time""
""focus"",""1"",""6776""
","""event"",""trial"",""time""
""fullscreenenter"",""1"",""6933""
","
","","5116.55000038445","True or False: You will have as much time as you want to make your response.","70","","","2021-04-21 20:44:54.393","","","","","",""
"casino-keyboard-response","63","334130","0.0-21.0-1.0","887","false","img/card_backs/set1/green.gif","img/card_backs/set1/red.gif","img/card_backs/set1/purple.gif","img/card_backs/set1/yellow.gif","img/card_backs/set2/blue.gif","img/card_backs/set2/orange.gif","img/card_backs/set2/pink.gif","img/card_backs/set2/gray.gif","""event"",""trial"",""time""
""blur"",""0"",""0""
""focus"",""1"",""6776""
""fullscreenenter"",""1"",""6933""
","""event"",""trial"",""time""
""blur"",""0"",""0""
","""event"",""trial"",""time""
""focus"",""1"",""6776""
","""event"",""trial"",""time""
""fullscreenenter"",""1"",""6933""
","
","","2983.7449993938208","False is correct! You will only have 10 seconds to make each choice.","75","","","2021-04-21 20:44:57.381","","","","","true",""
"casino-comp_q","64","338672","0.0-22.0-0.0","887","false","img/card_backs/set1/green.gif","img/card_backs/set1/red.gif","img/card_backs/set1/purple.gif","img/card_backs/set1/yellow.gif","img/card_backs/set2/blue.gif","img/card_backs/set2/orange.gif","img/card_backs/set2/pink.gif","img/card_backs/set2/gray.gif","""event"",""trial"",""time""
""blur"",""0"",""0""
""focus"",""1"",""6776""
""fullscreenenter"",""1"",""6933""
","""event"",""trial"",""time""
""blur"",""0"",""0""
","""event"",""trial"",""time""
""focus"",""1"",""6776""
","""event"",""trial"",""time""
""fullscreenenter"",""1"",""6933""
","
","","4538.165001198649","True or False: The location of the deck determines how lucky it is.","70","","","2021-04-21 20:45:01.923","","","","","",""
"casino-keyboard-response","65","341412","0.0-22.0-1.0","887","false","img/card_backs/set1/green.gif","img/card_backs/set1/red.gif","img/card_backs/set1/purple.gif","img/card_backs/set1/yellow.gif","img/card_backs/set2/blue.gif","img/card_backs/set2/orange.gif","img/card_backs/set2/pink.gif","img/card_backs/set2/gray.gif","""event"",""trial"",""time""
""blur"",""0"",""0""
""focus"",""1"",""6776""
""fullscreenenter"",""1"",""6933""
","""event"",""trial"",""time""
""blur"",""0"",""0""
","""event"",""trial"",""time""
""focus"",""1"",""6776""
","""event"",""trial"",""time""
""fullscreenenter"",""1"",""6933""
","
","","2735.2850008755922","False is correct! The <i>color</i>  of the deck determines how lucky or unlucky it is.","68","","","2021-04-21 20:45:04.664","","","","","true",""
"casino-keyboard-response","66","346068","0.0-23.0-0.0","887","false","img/card_backs/set1/green.gif","img/card_backs/set1/red.gif","img/card_backs/set1/purple.gif","img/card_backs/set1/yellow.gif","img/card_backs/set2/blue.gif","img/card_backs/set2/orange.gif","img/card_backs/set2/pink.gif","img/card_backs/set2/gray.gif","""event"",""trial"",""time""
""blur"",""0"",""0""
""focus"",""1"",""6776""
""fullscreenenter"",""1"",""6933""
","""event"",""trial"",""time""
""blur"",""0"",""0""
","""event"",""trial"",""time""
""focus"",""1"",""6776""
","""event"",""trial"",""time""
""fullscreenenter"",""1"",""6933""
","
","","4651.480000466108","Great job! Now it's time to start the real game.","82","","instructions","2021-04-21 20:45:09.319","","","","","",""
"casino-keyboard-response","67","351530","0.0-23.0-0.1","887","false","img/card_backs/set1/green.gif","img/card_backs/set1/red.gif","img/card_backs/set1/purple.gif","img/card_backs/set1/yellow.gif","img/card_backs/set2/blue.gif","img/card_backs/set2/orange.gif","img/card_backs/set2/pink.gif","img/card_backs/set2/gray.gif","""event"",""trial"",""time""
""blur"",""0"",""0""
""focus"",""1"",""6776""
""fullscreenenter"",""1"",""6933""
","""event"",""trial"",""time""
""blur"",""0"",""0""
","""event"",""trial"",""time""
""focus"",""1"",""6776""
","""event"",""trial"",""time""
""fullscreenenter"",""1"",""6933""
","
","","5454.714998602867","Before we start, we're going to head into a new room of the casino.","86","","instructions","2021-04-21 20:45:14.781","","","","","",""
"casino-keyboard-response","68","358179","0.0-24.0-0.0","887","false","img/card_backs/set1/green.gif","img/card_backs/set1/red.gif","img/card_backs/set1/purple.gif","img/card_backs/set1/yellow.gif","img/card_backs/set2/blue.gif","img/card_backs/set2/orange.gif","img/card_backs/set2/pink.gif","img/card_backs/set2/gray.gif","""event"",""trial"",""time""
""blur"",""0"",""0""
""focus"",""1"",""6776""
""fullscreenenter"",""1"",""6933""
","""event"",""trial"",""time""
""blur"",""0"",""0""
","""event"",""trial"",""time""
""focus"",""1"",""6776""
","""event"",""trial"",""time""
""fullscreenenter"",""1"",""6933""
","
","","6643.534999340773","Here we are! The real game will use different cards, but the rules will be the same.","71","","instructions","2021-04-21 20:45:21.430","","","","","",""
"casino-keyboard-response","69","367103","0.0-24.0-0.1","887","false","img/card_backs/set1/green.gif","img/card_backs/set1/red.gif","img/card_backs/set1/purple.gif","img/card_backs/set1/yellow.gif","img/card_backs/set2/blue.gif","img/card_backs/set2/orange.gif","img/card_backs/set2/pink.gif","img/card_backs/set2/gray.gif","""event"",""trial"",""time""
""blur"",""0"",""0""
""focus"",""1"",""6776""
""fullscreenenter"",""1"",""6933""
","""event"",""trial"",""time""
""blur"",""0"",""0""
","""event"",""trial"",""time""
""focus"",""1"",""6776""
","""event"",""trial"",""time""
""fullscreenenter"",""1"",""6933""
","
","","8920.259999111295","Ready? Put your fingers over the '2', '4', 6', and '8' keys so you are ready to play the game. </br> Then press 2 to start.","50","","instructions","2021-04-21 20:45:30.354","","","","","",""
"casino-fixation","70","367612","0.0-25.0-0.0","887","false","img/card_backs/set1/green.gif","img/card_backs/set1/red.gif","img/card_backs/set1/purple.gif","img/card_backs/set1/yellow.gif","img/card_backs/set2/blue.gif","img/card_backs/set2/orange.gif","img/card_backs/set2/pink.gif","img/card_backs/set2/gray.gif","""event"",""trial"",""time""
""blur"",""0"",""0""
""focus"",""1"",""6776""
""fullscreenenter"",""1"",""6933""
","""event"",""trial"",""time""
""blur"",""0"",""0""
","""event"",""trial"",""time""
""focus"",""1"",""6776""
","""event"",""trial"",""time""
""fullscreenenter"",""1"",""6933""
","
","","null","","null","","fixation","2021-04-21 20:45:30.864","","","","","",""
"card-selection-trial","71","371560","0.0-25.0-1.0","887","false","img/card_backs/set1/green.gif","img/card_backs/set1/red.gif","img/card_backs/set1/purple.gif","img/card_backs/set1/yellow.gif","img/card_backs/set2/blue.gif","img/card_backs/set2/orange.gif","img/card_backs/set2/pink.gif","img/card_backs/set2/gray.gif","""event"",""trial"",""time""
""blur"",""0"",""0""
""focus"",""1"",""6776""
""fullscreenenter"",""1"",""6933""
","""event"",""trial"",""time""
""blur"",""0"",""0""
","""event"",""trial"",""time""
""focus"",""1"",""6776""
","""event"",""trial"",""time""
""fullscreenenter"",""1"",""6933""
","
","","1931.6299986094236","","","","real_trial","2021-04-21 20:45:34.811","img/card_backs/set1/green.gif","3","-230","1","",""
"casino-fixation","72","372066","0.0-25.0-0.1","887","false","img/card_backs/set1/green.gif","img/card_backs/set1/red.gif","img/card_backs/set1/purple.gif","img/card_backs/set1/yellow.gif","img/card_backs/set2/blue.gif","img/card_backs/set2/orange.gif","img/card_backs/set2/pink.gif","img/card_backs/set2/gray.gif","""event"",""trial"",""time""
""blur"",""0"",""0""
""focus"",""1"",""6776""
""fullscreenenter"",""1"",""6933""
","""event"",""trial"",""time""
""blur"",""0"",""0""
","""event"",""trial"",""time""
""focus"",""1"",""6776""
","""event"",""trial"",""time""
""fullscreenenter"",""1"",""6933""
","
","","null","","null","","fixation","2021-04-21 20:45:35.317","","","","","",""
"card-selection-trial","73","376287","0.0-25.0-1.1","887","false","img/card_backs/set1/green.gif","img/card_backs/set1/red.gif","img/card_backs/set1/purple.gif","img/card_backs/set1/yellow.gif","img/card_backs/set2/blue.gif","img/card_backs/set2/orange.gif","img/card_backs/set2/pink.gif","img/card_backs/set2/gray.gif","""event"",""trial"",""time""
""blur"",""0"",""0""
""focus"",""1"",""6776""
""fullscreenenter"",""1"",""6933""
","""event"",""trial"",""time""
""blur"",""0"",""0""
","""event"",""trial"",""time""
""focus"",""1"",""6776""
","""event"",""trial"",""time""
""fullscreenenter"",""1"",""6933""
","
","","2201.080000028014","","","","real_trial","2021-04-21 20:45:39.538","img/card_backs/set1/green.gif","2","200","1","",""
"casino-fixation","74","376797","0.0-25.0-0.2","887","false","img/card_backs/set1/green.gif","img/card_backs/set1/red.gif","img/card_backs/set1/purple.gif","img/card_backs/set1/yellow.gif","img/card_backs/set2/blue.gif","img/card_backs/set2/orange.gif","img/card_backs/set2/pink.gif","img/card_backs/set2/gray.gif","""event"",""trial"",""time""
""blur"",""0"",""0""
""focus"",""1"",""6776""
""fullscreenenter"",""1"",""6933""
","""event"",""trial"",""time""
""blur"",""0"",""0""
","""event"",""trial"",""time""
""focus"",""1"",""6776""
","""event"",""trial"",""time""
""fullscreenenter"",""1"",""6933""
","
","","null","","null","","fixation","2021-04-21 20:45:40.048","","","","","",""
"card-selection-trial","75","380184","0.0-25.0-1.2","887","false","img/card_backs/set1/green.gif","img/card_backs/set1/red.gif","img/card_backs/set1/purple.gif","img/card_backs/set1/yellow.gif","img/card_backs/set2/blue.gif","img/card_backs/set2/orange.gif","img/card_backs/set2/pink.gif","img/card_backs/set2/gray.gif","""event"",""trial"",""time""
""blur"",""0"",""0""
""focus"",""1"",""6776""
""fullscreenenter"",""1"",""6933""
","""event"",""trial"",""time""
""blur"",""0"",""0""
","""event"",""trial"",""time""
""focus"",""1"",""6776""
","""event"",""trial"",""time""
""fullscreenenter"",""1"",""6933""
","
","","1369.6749992668629","","","","real_trial","2021-04-21 20:45:43.435","img/card_backs/set1/green.gif","1","-240","1","",""
"casino-fixation","76","380696","0.0-25.0-0.3","887","false","img/card_backs/set1/green.gif","img/card_backs/set1/red.gif","img/card_backs/set1/purple.gif","img/card_backs/set1/yellow.gif","img/card_backs/set2/blue.gif","img/card_backs/set2/orange.gif","img/card_backs/set2/pink.gif","img/card_backs/set2/gray.gif","""event"",""trial"",""time""
""blur"",""0"",""0""
""focus"",""1"",""6776""
""fullscreenenter"",""1"",""6933""
","""event"",""trial"",""time""
""blur"",""0"",""0""
","""event"",""trial"",""time""
""focus"",""1"",""6776""
","""event"",""trial"",""time""
""fullscreenenter"",""1"",""6933""
","
","","null","","null","","fixation","2021-04-21 20:45:43.947","","","","","",""
"card-selection-trial","77","384074","0.0-25.0-1.3","887","false","img/card_backs/set1/green.gif","img/card_backs/set1/red.gif","img/card_backs/set1/purple.gif","img/card_backs/set1/yellow.gif","img/card_backs/set2/blue.gif","img/card_backs/set2/orange.gif","img/card_backs/set2/pink.gif","img/card_backs/set2/gray.gif","""event"",""trial"",""time""
""blur"",""0"",""0""
""focus"",""1"",""6776""
""fullscreenenter"",""1"",""6933""
","""event"",""trial"",""time""
""blur"",""0"",""0""
","""event"",""trial"",""time""
""focus"",""1"",""6776""
","""event"",""trial"",""time""
""fullscreenenter"",""1"",""6933""
","
","","1357.0850007236004","","","","real_trial","2021-04-21 20:45:47.326","img/card_backs/set1/green.gif","3","200","1","",""
"casino-fixation","78","384579","0.0-25.0-0.4","887","false","img/card_backs/set1/green.gif","img/card_backs/set1/red.gif","img/card_backs/set1/purple.gif","img/card_backs/set1/yellow.gif","img/card_backs/set2/blue.gif","img/card_backs/set2/orange.gif","img/card_backs/set2/pink.gif","img/card_backs/set2/gray.gif","""event"",""trial"",""time""
""blur"",""0"",""0""
""focus"",""1"",""6776""
""fullscreenenter"",""1"",""6933""
","""event"",""trial"",""time""
""blur"",""0"",""0""
","""event"",""trial"",""time""
""focus"",""1"",""6776""
","""event"",""trial"",""time""
""fullscreenenter"",""1"",""6933""
","
","","null","","null","","fixation","2021-04-21 20:45:47.830","","","","","",""
"card-selection-trial","79","390158","0.0-25.0-1.4","887","false","img/card_backs/set1/green.gif","img/card_backs/set1/red.gif","img/card_backs/set1/purple.gif","img/card_backs/set1/yellow.gif","img/card_backs/set2/blue.gif","img/card_backs/set2/orange.gif","img/card_backs/set2/pink.gif","img/card_backs/set2/gray.gif","""event"",""trial"",""time""
""blur"",""0"",""0""
""focus"",""1"",""6776""
""fullscreenenter"",""1"",""6933""
","""event"",""trial"",""time""
""blur"",""0"",""0""
","""event"",""trial"",""time""
""focus"",""1"",""6776""
","""event"",""trial"",""time""
""fullscreenenter"",""1"",""6933""
","
","","3567.409999668598","","","","real_trial","2021-04-21 20:45:53.409","img/card_backs/set1/green.gif","2","-240","1","",""
"casino-fixation","80","390676","0.0-25.0-0.5","887","false","img/card_backs/set1/green.gif","img/card_backs/set1/red.gif","img/card_backs/set1/purple.gif","img/card_backs/set1/yellow.gif","img/card_backs/set2/blue.gif","img/card_backs/set2/orange.gif","img/card_backs/set2/pink.gif","img/card_backs/set2/gray.gif","""event"",""trial"",""time""
""blur"",""0"",""0""
""focus"",""1"",""6776""
""fullscreenenter"",""1"",""6933""
","""event"",""trial"",""time""
""blur"",""0"",""0""
","""event"",""trial"",""time""
""focus"",""1"",""6776""
","""event"",""trial"",""time""
""fullscreenenter"",""1"",""6933""
","
","","null","","null","","fixation","2021-04-21 20:45:53.927","","","","","",""
"card-selection-trial","81","394890","0.0-25.0-1.5","887","false","img/card_backs/set1/green.gif","img/card_backs/set1/red.gif","img/card_backs/set1/purple.gif","img/card_backs/set1/yellow.gif","img/card_backs/set2/blue.gif","img/card_backs/set2/orange.gif","img/card_backs/set2/pink.gif","img/card_backs/set2/gray.gif","""event"",""trial"",""time""
""blur"",""0"",""0""
""focus"",""1"",""6776""
""fullscreenenter"",""1"",""6933""
","""event"",""trial"",""time""
""blur"",""0"",""0""
","""event"",""trial"",""time""
""focus"",""1"",""6776""
","""event"",""trial"",""time""
""fullscreenenter"",""1"",""6933""
","
","","2190.0350004434586","","","","real_trial","2021-04-21 20:45:58.141","img/card_backs/set1/purple.gif","1","120","1","",""
"casino-fixation","82","395398","0.0-25.0-0.6","887","false","img/card_backs/set1/green.gif","img/card_backs/set1/red.gif","img/card_backs/set1/purple.gif","img/card_backs/set1/yellow.gif","img/card_backs/set2/blue.gif","img/card_backs/set2/orange.gif","img/card_backs/set2/pink.gif","img/card_backs/set2/gray.gif","""event"",""trial"",""time""
""blur"",""0"",""0""
""focus"",""1"",""6776""
""fullscreenenter"",""1"",""6933""
","""event"",""trial"",""time""
""blur"",""0"",""0""
","""event"",""trial"",""time""
""focus"",""1"",""6776""
","""event"",""trial"",""time""
""fullscreenenter"",""1"",""6933""
","
","","null","","null","","fixation","2021-04-21 20:45:58.649","","","","","",""
"card-selection-trial","83","397867","0.0-25.0-1.6","887","false","img/card_backs/set1/green.gif","img/card_backs/set1/red.gif","img/card_backs/set1/purple.gif","img/card_backs/set1/yellow.gif","img/card_backs/set2/blue.gif","img/card_backs/set2/orange.gif","img/card_backs/set2/pink.gif","img/card_backs/set2/gray.gif","""event"",""trial"",""time""
""blur"",""0"",""0""
""focus"",""1"",""6776""
""fullscreenenter"",""1"",""6933""
","""event"",""trial"",""time""
""blur"",""0"",""0""
","""event"",""trial"",""time""
""focus"",""1"",""6776""
","""event"",""trial"",""time""
""fullscreenenter"",""1"",""6933""
","
","","458.48000049591064","","","","real_trial","2021-04-21 20:46:01.118","img/card_backs/set1/yellow.gif","1","-50","1","",""
"casino-fixation","84","398369","0.0-25.0-0.7","887","false","img/card_backs/set1/green.gif","img/card_backs/set1/red.gif","img/card_backs/set1/purple.gif","img/card_backs/set1/yellow.gif","img/card_backs/set2/blue.gif","img/card_backs/set2/orange.gif","img/card_backs/set2/pink.gif","img/card_backs/set2/gray.gif","""event"",""trial"",""time""
""blur"",""0"",""0""
""focus"",""1"",""6776""
""fullscreenenter"",""1"",""6933""
","""event"",""trial"",""time""
""blur"",""0"",""0""
","""event"",""trial"",""time""
""focus"",""1"",""6776""
","""event"",""trial"",""time""
""fullscreenenter"",""1"",""6933""
","
","","null","","null","","fixation","2021-04-21 20:46:01.620","","","","","",""
"card-selection-trial","85","401464","0.0-25.0-1.7","887","false","img/card_backs/set1/green.gif","img/card_backs/set1/red.gif","img/card_backs/set1/purple.gif","img/card_backs/set1/yellow.gif","img/card_backs/set2/blue.gif","img/card_backs/set2/orange.gif","img/card_backs/set2/pink.gif","img/card_backs/set2/gray.gif","""event"",""trial"",""time""
""blur"",""0"",""0""
""focus"",""1"",""6776""
""fullscreenenter"",""1"",""6933""
","""event"",""trial"",""time""
""blur"",""0"",""0""
","""event"",""trial"",""time""
""focus"",""1"",""6776""
","""event"",""trial"",""time""
""fullscreenenter"",""1"",""6933""
","
","","1085.2000005543232","","","","real_trial","2021-04-21 20:46:04.715","img/card_backs/set1/purple.gif","0","110","1","",""
"casino-fixation","86","401967","0.0-25.0-0.8","887","false","img/card_backs/set1/green.gif","img/card_backs/set1/red.gif","img/card_backs/set1/purple.gif","img/card_backs/set1/yellow.gif","img/card_backs/set2/blue.gif","img/card_backs/set2/orange.gif","img/card_backs/set2/pink.gif","img/card_backs/set2/gray.gif","""event"",""trial"",""time""
""blur"",""0"",""0""
""focus"",""1"",""6776""
""fullscreenenter"",""1"",""6933""
","""event"",""trial"",""time""
""blur"",""0"",""0""
","""event"",""trial"",""time""
""focus"",""1"",""6776""
","""event"",""trial"",""time""
""fullscreenenter"",""1"",""6933""
","
","","null","","null","","fixation","2021-04-21 20:46:05.218","","","","","",""
"card-selection-trial","87","404927","0.0-25.0-1.8","887","false","img/card_backs/set1/green.gif","img/card_backs/set1/red.gif","img/card_backs/set1/purple.gif","img/card_backs/set1/yellow.gif","img/card_backs/set2/blue.gif","img/card_backs/set2/orange.gif","img/card_backs/set2/pink.gif","img/card_backs/set2/gray.gif","""event"",""trial"",""time""
""blur"",""0"",""0""
""focus"",""1"",""6776""
""fullscreenenter"",""1"",""6933""
","""event"",""trial"",""time""
""blur"",""0"",""0""
","""event"",""trial"",""time""
""focus"",""1"",""6776""
","""event"",""trial"",""time""
""fullscreenenter"",""1"",""6933""
","
","","949.6100004762411","","","","real_trial","2021-04-21 20:46:08.178","img/card_backs/set1/purple.gif","0","100","1","",""
"casino-fixation","88","405428","0.0-25.0-0.9","887","false","img/card_backs/set1/green.gif","img/card_backs/set1/red.gif","img/card_backs/set1/purple.gif","img/card_backs/set1/yellow.gif","img/card_backs/set2/blue.gif","img/card_backs/set2/orange.gif","img/card_backs/set2/pink.gif","img/card_backs/set2/gray.gif","""event"",""trial"",""time""
""blur"",""0"",""0""
""focus"",""1"",""6776""
""fullscreenenter"",""1"",""6933""
","""event"",""trial"",""time""
""blur"",""0"",""0""
","""event"",""trial"",""time""
""focus"",""1"",""6776""
","""event"",""trial"",""time""
""fullscreenenter"",""1"",""6933""
","
","","null","","null","","fixation","2021-04-21 20:46:08.680","","","","","",""
"card-selection-trial","89","408829","0.0-25.0-1.9","887","false","img/card_backs/set1/green.gif","img/card_backs/set1/red.gif","img/card_backs/set1/purple.gif","img/card_backs/set1/yellow.gif","img/card_backs/set2/blue.gif","img/card_backs/set2/orange.gif","img/card_backs/set2/pink.gif","img/card_backs/set2/gray.gif","""event"",""trial"",""time""
""blur"",""0"",""0""
""focus"",""1"",""6776""
""fullscreenenter"",""1"",""6933""
","""event"",""trial"",""time""
""blur"",""0"",""0""
","""event"",""trial"",""time""
""focus"",""1"",""6776""
","""event"",""trial"",""time""
""fullscreenenter"",""1"",""6933""
","
","","1391.0199999809265","","","","real_trial","2021-04-21 20:46:12.081","img/card_backs/set1/purple.gif","1","-50","1","",""
"casino-fixation","90","409332","0.0-25.0-0.10","887","false","img/card_backs/set1/green.gif","img/card_backs/set1/red.gif","img/card_backs/set1/purple.gif","img/card_backs/set1/yellow.gif","img/card_backs/set2/blue.gif","img/card_backs/set2/orange.gif","img/card_backs/set2/pink.gif","img/card_backs/set2/gray.gif","""event"",""trial"",""time""
""blur"",""0"",""0""
""focus"",""1"",""6776""
""fullscreenenter"",""1"",""6933""
","""event"",""trial"",""time""
""blur"",""0"",""0""
","""event"",""trial"",""time""
""focus"",""1"",""6776""
","""event"",""trial"",""time""
""fullscreenenter"",""1"",""6933""
","
","","null","","null","","fixation","2021-04-21 20:46:12.584","","","","","",""
"card-selection-trial","91","412933","0.0-25.0-1.10","887","false","img/card_backs/set1/green.gif","img/card_backs/set1/red.gif","img/card_backs/set1/purple.gif","img/card_backs/set1/yellow.gif","img/card_backs/set2/blue.gif","img/card_backs/set2/orange.gif","img/card_backs/set2/pink.gif","img/card_backs/set2/gray.gif","""event"",""trial"",""time""
""blur"",""0"",""0""
""focus"",""1"",""6776""
""fullscreenenter"",""1"",""6933""
","""event"",""trial"",""time""
""blur"",""0"",""0""
","""event"",""trial"",""time""
""focus"",""1"",""6776""
","""event"",""trial"",""time""
""fullscreenenter"",""1"",""6933""
","
","","1591.0700000822544","","","","real_trial","2021-04-21 20:46:16.184","img/card_backs/set1/purple.gif","2","100","1","",""
"casino-fixation","92","413434","0.0-25.0-0.11","887","false","img/card_backs/set1/green.gif","img/card_backs/set1/red.gif","img/card_backs/set1/purple.gif","img/card_backs/set1/yellow.gif","img/card_backs/set2/blue.gif","img/card_backs/set2/orange.gif","img/card_backs/set2/pink.gif","img/card_backs/set2/gray.gif","""event"",""trial"",""time""
""blur"",""0"",""0""
""focus"",""1"",""6776""
""fullscreenenter"",""1"",""6933""
","""event"",""trial"",""time""
""blur"",""0"",""0""
","""event"",""trial"",""time""
""focus"",""1"",""6776""
","""event"",""trial"",""time""
""fullscreenenter"",""1"",""6933""
","
","","null","","null","","fixation","2021-04-21 20:46:16.686","","","","","",""
"card-selection-trial","93","417440","0.0-25.0-1.11","887","false","img/card_backs/set1/green.gif","img/card_backs/set1/red.gif","img/card_backs/set1/purple.gif","img/card_backs/set1/yellow.gif","img/card_backs/set2/blue.gif","img/card_backs/set2/orange.gif","img/card_backs/set2/pink.gif","img/card_backs/set2/gray.gif","""event"",""trial"",""time""
""blur"",""0"",""0""
""focus"",""1"",""6776""
""fullscreenenter"",""1"",""6933""
","""event"",""trial"",""time""
""blur"",""0"",""0""
","""event"",""trial"",""time""
""focus"",""1"",""6776""
","""event"",""trial"",""time""
""fullscreenenter"",""1"",""6933""
","
","","1992.1849984675646","","","","real_trial","2021-04-21 20:46:20.691","img/card_backs/set1/yellow.gif","2","-60","1","",""
"casino-fixation","94","417942","0.0-25.0-0.12","887","false","img/card_backs/set1/green.gif","img/card_backs/set1/red.gif","img/card_backs/set1/purple.gif","img/card_backs/set1/yellow.gif","img/card_backs/set2/blue.gif","img/card_backs/set2/orange.gif","img/card_backs/set2/pink.gif","img/card_backs/set2/gray.gif","""event"",""trial"",""time""
""blur"",""0"",""0""
""focus"",""1"",""6776""
""fullscreenenter"",""1"",""6933""
","""event"",""trial"",""time""
""blur"",""0"",""0""
","""event"",""trial"",""time""
""focus"",""1"",""6776""
","""event"",""trial"",""time""
""fullscreenenter"",""1"",""6933""
","
","","null","","null","","fixation","2021-04-21 20:46:21.193","","","","","",""
"card-selection-trial","95","421107","0.0-25.0-1.12","887","false","img/card_backs/set1/green.gif","img/card_backs/set1/red.gif","img/card_backs/set1/purple.gif","img/card_backs/set1/yellow.gif","img/card_backs/set2/blue.gif","img/card_backs/set2/orange.gif","img/card_backs/set2/pink.gif","img/card_backs/set2/gray.gif","""event"",""trial"",""time""
""blur"",""0"",""0""
""focus"",""1"",""6776""
""fullscreenenter"",""1"",""6933""
","""event"",""trial"",""time""
""blur"",""0"",""0""
","""event"",""trial"",""time""
""focus"",""1"",""6776""
","""event"",""trial"",""time""
""fullscreenenter"",""1"",""6933""
","
","","1155.1249995827675","","","","real_trial","2021-04-21 20:46:24.358","img/card_backs/set1/yellow.gif","3","110","1","",""
"casino-fixation","96","421609","0.0-25.0-0.13","887","false","img/card_backs/set1/green.gif","img/card_backs/set1/red.gif","img/card_backs/set1/purple.gif","img/card_backs/set1/yellow.gif","img/card_backs/set2/blue.gif","img/card_backs/set2/orange.gif","img/card_backs/set2/pink.gif","img/card_backs/set2/gray.gif","""event"",""trial"",""time""
""blur"",""0"",""0""
""focus"",""1"",""6776""
""fullscreenenter"",""1"",""6933""
","""event"",""trial"",""time""
""blur"",""0"",""0""
","""event"",""trial"",""time""
""focus"",""1"",""6776""
","""event"",""trial"",""time""
""fullscreenenter"",""1"",""6933""
","
","","null","","null","","fixation","2021-04-21 20:46:24.860","","","","","",""
"card-selection-trial","97","424635","0.0-25.0-1.13","887","false","img/card_backs/set1/green.gif","img/card_backs/set1/red.gif","img/card_backs/set1/purple.gif","img/card_backs/set1/yellow.gif","img/card_backs/set2/blue.gif","img/card_backs/set2/orange.gif","img/card_backs/set2/pink.gif","img/card_backs/set2/gray.gif","""event"",""trial"",""time""
""blur"",""0"",""0""
""focus"",""1"",""6776""
""fullscreenenter"",""1"",""6933""
","""event"",""trial"",""time""
""blur"",""0"",""0""
","""event"",""trial"",""time""
""focus"",""1"",""6776""
","""event"",""trial"",""time""
""fullscreenenter"",""1"",""6933""
","
","","1015.8500000834465","","","","real_trial","2021-04-21 20:46:27.886","img/card_backs/set1/purple.gif","0","-70","1","",""
"casino-fixation","98","425137","0.0-25.0-0.14","887","false","img/card_backs/set1/green.gif","img/card_backs/set1/red.gif","img/card_backs/set1/purple.gif","img/card_backs/set1/yellow.gif","img/card_backs/set2/blue.gif","img/card_backs/set2/orange.gif","img/card_backs/set2/pink.gif","img/card_backs/set2/gray.gif","""event"",""trial"",""time""
""blur"",""0"",""0""
""focus"",""1"",""6776""
""fullscreenenter"",""1"",""6933""
","""event"",""trial"",""time""
""blur"",""0"",""0""
","""event"",""trial"",""time""
""focus"",""1"",""6776""
","""event"",""trial"",""time""
""fullscreenenter"",""1"",""6933""
","
","","null","","null","","fixation","2021-04-21 20:46:28.388","","","","","",""
"card-selection-trial","99","429059","0.0-25.0-1.14","887","false","img/card_backs/set1/green.gif","img/card_backs/set1/red.gif","img/card_backs/set1/purple.gif","img/card_backs/set1/yellow.gif","img/card_backs/set2/blue.gif","img/card_backs/set2/orange.gif","img/card_backs/set2/pink.gif","img/card_backs/set2/gray.gif","""event"",""trial"",""time""
""blur"",""0"",""0""
""focus"",""1"",""6776""
""fullscreenenter"",""1"",""6933""
","""event"",""trial"",""time""
""blur"",""0"",""0""
","""event"",""trial"",""time""
""focus"",""1"",""6776""
","""event"",""trial"",""time""
""fullscreenenter"",""1"",""6933""
","
","","1911.744998767972","","","","real_trial","2021-04-21 20:46:32.310","img/card_backs/set1/red.gif","0","-250","1","",""
"casino-fixation","100","429562","0.0-25.0-0.15","887","false","img/card_backs/set1/green.gif","img/card_backs/set1/red.gif","img/card_backs/set1/purple.gif","img/card_backs/set1/yellow.gif","img/card_backs/set2/blue.gif","img/card_backs/set2/orange.gif","img/card_backs/set2/pink.gif","img/card_backs/set2/gray.gif","""event"",""trial"",""time""
""blur"",""0"",""0""
""focus"",""1"",""6776""
""fullscreenenter"",""1"",""6933""
","""event"",""trial"",""time""
""blur"",""0"",""0""
","""event"",""trial"",""time""
""focus"",""1"",""6776""
","""event"",""trial"",""time""
""fullscreenenter"",""1"",""6933""
","
","","null","","null","","fixation","2021-04-21 20:46:32.814","","","","","",""
"card-selection-trial","101","432937","0.0-25.0-1.15","887","false","img/card_backs/set1/green.gif","img/card_backs/set1/red.gif","img/card_backs/set1/purple.gif","img/card_backs/set1/yellow.gif","img/card_backs/set2/blue.gif","img/card_backs/set2/orange.gif","img/card_backs/set2/pink.gif","img/card_backs/set2/gray.gif","""event"",""trial"",""time""
""blur"",""0"",""0""
""focus"",""1"",""6776""
""fullscreenenter"",""1"",""6933""
","""event"",""trial"",""time""
""blur"",""0"",""0""
","""event"",""trial"",""time""
""focus"",""1"",""6776""
","""event"",""trial"",""time""
""fullscreenenter"",""1"",""6933""
","
","","1364.0349991619587","","","","real_trial","2021-04-21 20:46:36.188","img/card_backs/set1/red.gif","1","-250","1","",""
"casino-fixation","102","433440","0.0-25.0-0.16","887","false","img/card_backs/set1/green.gif","img/card_backs/set1/red.gif","img/card_backs/set1/purple.gif","img/card_backs/set1/yellow.gif","img/card_backs/set2/blue.gif","img/card_backs/set2/orange.gif","img/card_backs/set2/pink.gif","img/card_backs/set2/gray.gif","""event"",""trial"",""time""
""blur"",""0"",""0""
""focus"",""1"",""6776""
""fullscreenenter"",""1"",""6933""
","""event"",""trial"",""time""
""blur"",""0"",""0""
","""event"",""trial"",""time""
""focus"",""1"",""6776""
","""event"",""trial"",""time""
""fullscreenenter"",""1"",""6933""
","
","","null","","null","","fixation","2021-04-21 20:46:36.691","","","","","",""
"card-selection-trial","103","437783","0.0-25.0-1.16","887","false","img/card_backs/set1/green.gif","img/card_backs/set1/red.gif","img/card_backs/set1/purple.gif","img/card_backs/set1/yellow.gif","img/card_backs/set2/blue.gif","img/card_backs/set2/orange.gif","img/card_backs/set2/pink.gif","img/card_backs/set2/gray.gif","""event"",""trial"",""time""
""blur"",""0"",""0""
""focus"",""1"",""6776""
""fullscreenenter"",""1"",""6933""
","""event"",""trial"",""time""
""blur"",""0"",""0""
","""event"",""trial"",""time""
""focus"",""1"",""6776""
","""event"",""trial"",""time""
""fullscreenenter"",""1"",""6933""
","
","","2333.56000110507","","","","real_trial","2021-04-21 20:46:41.035","img/card_backs/set1/red.gif","2","-240","1","",""
"casino-fixation","104","438286","0.0-25.0-0.17","887","false","img/card_backs/set1/green.gif","img/card_backs/set1/red.gif","img/card_backs/set1/purple.gif","img/card_backs/set1/yellow.gif","img/card_backs/set2/blue.gif","img/card_backs/set2/orange.gif","img/card_backs/set2/pink.gif","img/card_backs/set2/gray.gif","""event"",""trial"",""time""
""blur"",""0"",""0""
""focus"",""1"",""6776""
""fullscreenenter"",""1"",""6933""
","""event"",""trial"",""time""
""blur"",""0"",""0""
","""event"",""trial"",""time""
""focus"",""1"",""6776""
","""event"",""trial"",""time""
""fullscreenenter"",""1"",""6933""
","
","","null","","null","","fixation","2021-04-21 20:46:41.538","","","","","",""
"card-selection-trial","105","441513","0.0-25.0-1.17","887","false","img/card_backs/set1/green.gif","img/card_backs/set1/red.gif","img/card_backs/set1/purple.gif","img/card_backs/set1/yellow.gif","img/card_backs/set2/blue.gif","img/card_backs/set2/orange.gif","img/card_backs/set2/pink.gif","img/card_backs/set2/gray.gif","""event"",""trial"",""time""
""blur"",""0"",""0""
""focus"",""1"",""6776""
""fullscreenenter"",""1"",""6933""
","""event"",""trial"",""time""
""blur"",""0"",""0""
","""event"",""trial"",""time""
""focus"",""1"",""6776""
","""event"",""trial"",""time""
""fullscreenenter"",""1"",""6933""
","
","","1216.9049996882677","","","","real_trial","2021-04-21 20:46:44.764","img/card_backs/set1/purple.gif","3","100","1","",""
"casino-fixation","106","442018","0.0-25.0-0.18","887","false","img/card_backs/set1/green.gif","img/card_backs/set1/red.gif","img/card_backs/set1/purple.gif","img/card_backs/set1/yellow.gif","img/card_backs/set2/blue.gif","img/card_backs/set2/orange.gif","img/card_backs/set2/pink.gif","img/card_backs/set2/gray.gif","""event"",""trial"",""time""
""blur"",""0"",""0""
""focus"",""1"",""6776""
""fullscreenenter"",""1"",""6933""
","""event"",""trial"",""time""
""blur"",""0"",""0""
","""event"",""trial"",""time""
""focus"",""1"",""6776""
","""event"",""trial"",""time""
""fullscreenenter"",""1"",""6933""
","
","","null","","null","","fixation","2021-04-21 20:46:45.269","","","","","",""
"card-selection-trial","107","445365","0.0-25.0-1.18","887","false","img/card_backs/set1/green.gif","img/card_backs/set1/red.gif","img/card_backs/set1/purple.gif","img/card_backs/set1/yellow.gif","img/card_backs/set2/blue.gif","img/card_backs/set2/orange.gif","img/card_backs/set2/pink.gif","img/card_backs/set2/gray.gif","""event"",""trial"",""time""
""blur"",""0"",""0""
""focus"",""1"",""6776""
""fullscreenenter"",""1"",""6933""
","""event"",""trial"",""time""
""blur"",""0"",""0""
","""event"",""trial"",""time""
""focus"",""1"",""6776""
","""event"",""trial"",""time""
""fullscreenenter"",""1"",""6933""
","
","","1338.570000603795","","","","real_trial","2021-04-21 20:46:48.616","img/card_backs/set1/purple.gif","3","100","1","",""
"casino-fixation","108","445868","0.0-25.0-0.19","887","false","img/card_backs/set1/green.gif","img/card_backs/set1/red.gif","img/card_backs/set1/purple.gif","img/card_backs/set1/yellow.gif","img/card_backs/set2/blue.gif","img/card_backs/set2/orange.gif","img/card_backs/set2/pink.gif","img/card_backs/set2/gray.gif","""event"",""trial"",""time""
""blur"",""0"",""0""
""focus"",""1"",""6776""
""fullscreenenter"",""1"",""6933""
","""event"",""trial"",""time""
""blur"",""0"",""0""
","""event"",""trial"",""time""
""focus"",""1"",""6776""
","""event"",""trial"",""time""
""fullscreenenter"",""1"",""6933""
","
","","null","","null","","fixation","2021-04-21 20:46:49.119","","","","","",""
"card-selection-trial","109","449128","0.0-25.0-1.19","887","false","img/card_backs/set1/green.gif","img/card_backs/set1/red.gif","img/card_backs/set1/purple.gif","img/card_backs/set1/yellow.gif","img/card_backs/set2/blue.gif","img/card_backs/set2/orange.gif","img/card_backs/set2/pink.gif","img/card_backs/set2/gray.gif","""event"",""trial"",""time""
""blur"",""0"",""0""
""focus"",""1"",""6776""
""fullscreenenter"",""1"",""6933""
","""event"",""trial"",""time""
""blur"",""0"",""0""
","""event"",""trial"",""time""
""focus"",""1"",""6776""
","""event"",""trial"",""time""
""fullscreenenter"",""1"",""6933""
","
","","1250.08499994874","","","","real_trial","2021-04-21 20:46:52.379","img/card_backs/set1/purple.gif","0","-70","1","",""
"casino-fixation","110","449634","0.0-25.0-0.20","887","false","img/card_backs/set1/green.gif","img/card_backs/set1/red.gif","img/card_backs/set1/purple.gif","img/card_backs/set1/yellow.gif","img/card_backs/set2/blue.gif","img/card_backs/set2/orange.gif","img/card_backs/set2/pink.gif","img/card_backs/set2/gray.gif","""event"",""trial"",""time""
""blur"",""0"",""0""
""focus"",""1"",""6776""
""fullscreenenter"",""1"",""6933""
","""event"",""trial"",""time""
""blur"",""0"",""0""
","""event"",""trial"",""time""
""focus"",""1"",""6776""
","""event"",""trial"",""time""
""fullscreenenter"",""1"",""6933""
","
","","null","","null","","fixation","2021-04-21 20:46:52.885","","","","","",""
"card-selection-trial","111","453015","0.0-25.0-1.20","887","false","img/card_backs/set1/green.gif","img/card_backs/set1/red.gif","img/card_backs/set1/purple.gif","img/card_backs/set1/yellow.gif","img/card_backs/set2/blue.gif","img/card_backs/set2/orange.gif","img/card_backs/set2/pink.gif","img/card_backs/set2/gray.gif","""event"",""trial"",""time""
""blur"",""0"",""0""
""focus"",""1"",""6776""
""fullscreenenter"",""1"",""6933""
","""event"",""trial"",""time""
""blur"",""0"",""0""
","""event"",""trial"",""time""
""focus"",""1"",""6776""
","""event"",""trial"",""time""
""fullscreenenter"",""1"",""6933""
","
","","1371.6899994760752","","","","real_trial","2021-04-21 20:46:56.266","img/card_backs/set1/yellow.gif","3","120","1","",""
"casino-fixation","112","453517","0.0-25.0-0.21","887","false","img/card_backs/set1/green.gif","img/card_backs/set1/red.gif","img/card_backs/set1/purple.gif","img/card_backs/set1/yellow.gif","img/card_backs/set2/blue.gif","img/card_backs/set2/orange.gif","img/card_backs/set2/pink.gif","img/card_backs/set2/gray.gif","""event"",""trial"",""time""
""blur"",""0"",""0""
""focus"",""1"",""6776""
""fullscreenenter"",""1"",""6933""
","""event"",""trial"",""time""
""blur"",""0"",""0""
","""event"",""trial"",""time""
""focus"",""1"",""6776""
","""event"",""trial"",""time""
""fullscreenenter"",""1"",""6933""
","
","","null","","null","","fixation","2021-04-21 20:46:56.768","","","","","",""
"card-selection-trial","113","457654","0.0-25.0-1.21","887","false","img/card_backs/set1/green.gif","img/card_backs/set1/red.gif","img/card_backs/set1/purple.gif","img/card_backs/set1/yellow.gif","img/card_backs/set2/blue.gif","img/card_backs/set2/orange.gif","img/card_backs/set2/pink.gif","img/card_backs/set2/gray.gif","""event"",""trial"",""time""
""blur"",""0"",""0""
""focus"",""1"",""6776""
""fullscreenenter"",""1"",""6933""
","""event"",""trial"",""time""
""blur"",""0"",""0""
","""event"",""trial"",""time""
""focus"",""1"",""6776""
","""event"",""trial"",""time""
""fullscreenenter"",""1"",""6933""
","
","","2126.6450006514788","","","","real_trial","2021-04-21 20:47:00.905","img/card_backs/set1/green.gif","3","190","1","",""
"casino-fixation","114","458156","0.0-25.0-0.22","887","false","img/card_backs/set1/green.gif","img/card_backs/set1/red.gif","img/card_backs/set1/purple.gif","img/card_backs/set1/yellow.gif","img/card_backs/set2/blue.gif","img/card_backs/set2/orange.gif","img/card_backs/set2/pink.gif","img/card_backs/set2/gray.gif","""event"",""trial"",""time""
""blur"",""0"",""0""
""focus"",""1"",""6776""
""fullscreenenter"",""1"",""6933""
","""event"",""trial"",""time""
""blur"",""0"",""0""
","""event"",""trial"",""time""
""focus"",""1"",""6776""
","""event"",""trial"",""time""
""fullscreenenter"",""1"",""6933""
","
","","null","","null","","fixation","2021-04-21 20:47:01.407","","","","","",""
"card-selection-trial","115","462088","0.0-25.0-1.22","887","false","img/card_backs/set1/green.gif","img/card_backs/set1/red.gif","img/card_backs/set1/purple.gif","img/card_backs/set1/yellow.gif","img/card_backs/set2/blue.gif","img/card_backs/set2/orange.gif","img/card_backs/set2/pink.gif","img/card_backs/set2/gray.gif","""event"",""trial"",""time""
""blur"",""0"",""0""
""focus"",""1"",""6776""
""fullscreenenter"",""1"",""6933""
","""event"",""trial"",""time""
""blur"",""0"",""0""
","""event"",""trial"",""time""
""focus"",""1"",""6776""
","""event"",""trial"",""time""
""fullscreenenter"",""1"",""6933""
","
","","1921.994999051094","","","","real_trial","2021-04-21 20:47:05.339","img/card_backs/set1/green.gif","1","-250","1","",""
"casino-fixation","116","462592","0.0-25.0-0.23","887","false","img/card_backs/set1/green.gif","img/card_backs/set1/red.gif","img/card_backs/set1/purple.gif","img/card_backs/set1/yellow.gif","img/card_backs/set2/blue.gif","img/card_backs/set2/orange.gif","img/card_backs/set2/pink.gif","img/card_backs/set2/gray.gif","""event"",""trial"",""time""
""blur"",""0"",""0""
""focus"",""1"",""6776""
""fullscreenenter"",""1"",""6933""
","""event"",""trial"",""time""
""blur"",""0"",""0""
","""event"",""trial"",""time""
""focus"",""1"",""6776""
","""event"",""trial"",""time""
""fullscreenenter"",""1"",""6933""
","
","","null","","null","","fixation","2021-04-21 20:47:05.843","","","","","",""
"card-selection-trial","117","466270","0.0-25.0-1.23","887","false","img/card_backs/set1/green.gif","img/card_backs/set1/red.gif","img/card_backs/set1/purple.gif","img/card_backs/set1/yellow.gif","img/card_backs/set2/blue.gif","img/card_backs/set2/orange.gif","img/card_backs/set2/pink.gif","img/card_backs/set2/gray.gif","""event"",""trial"",""time""
""blur"",""0"",""0""
""focus"",""1"",""6776""
""fullscreenenter"",""1"",""6933""
","""event"",""trial"",""time""
""blur"",""0"",""0""
","""event"",""trial"",""time""
""focus"",""1"",""6776""
","""event"",""trial"",""time""
""fullscreenenter"",""1"",""6933""
","
","","1667.0999992638826","","","","real_trial","2021-04-21 20:47:09.521","img/card_backs/set1/purple.gif","3","120","1","",""
"casino-fixation","118","466773","0.0-25.0-0.24","887","false","img/card_backs/set1/green.gif","img/card_backs/set1/red.gif","img/card_backs/set1/purple.gif","img/card_backs/set1/yellow.gif","img/card_backs/set2/blue.gif","img/card_backs/set2/orange.gif","img/card_backs/set2/pink.gif","img/card_backs/set2/gray.gif","""event"",""trial"",""time""
""blur"",""0"",""0""
""focus"",""1"",""6776""
""fullscreenenter"",""1"",""6933""
","""event"",""trial"",""time""
""blur"",""0"",""0""
","""event"",""trial"",""time""
""focus"",""1"",""6776""
","""event"",""trial"",""time""
""fullscreenenter"",""1"",""6933""
","
","","null","","null","","fixation","2021-04-21 20:47:10.025","","","","","",""
"card-selection-trial","119","469476","0.0-25.0-1.24","887","false","img/card_backs/set1/green.gif","img/card_backs/set1/red.gif","img/card_backs/set1/purple.gif","img/card_backs/set1/yellow.gif","img/card_backs/set2/blue.gif","img/card_backs/set2/orange.gif","img/card_backs/set2/pink.gif","img/card_backs/set2/gray.gif","""event"",""trial"",""time""
""blur"",""0"",""0""
""focus"",""1"",""6776""
""fullscreenenter"",""1"",""6933""
","""event"",""trial"",""time""
""blur"",""0"",""0""
","""event"",""trial"",""time""
""focus"",""1"",""6776""
","""event"",""trial"",""time""
""fullscreenenter"",""1"",""6933""
","
","","692.3600006848574","","","","real_trial","2021-04-21 20:47:12.727","img/card_backs/set1/purple.gif","3","-70","1","",""
"casino-fixation","120","469979","0.0-25.0-0.25","887","false","img/card_backs/set1/green.gif","img/card_backs/set1/red.gif","img/card_backs/set1/purple.gif","img/card_backs/set1/yellow.gif","img/card_backs/set2/blue.gif","img/card_backs/set2/orange.gif","img/card_backs/set2/pink.gif","img/card_backs/set2/gray.gif","""event"",""trial"",""time""
""blur"",""0"",""0""
""focus"",""1"",""6776""
""fullscreenenter"",""1"",""6933""
","""event"",""trial"",""time""
""blur"",""0"",""0""
","""event"",""trial"",""time""
""focus"",""1"",""6776""
","""event"",""trial"",""time""
""fullscreenenter"",""1"",""6933""
","
","","null","","null","","fixation","2021-04-21 20:47:13.230","","","","","",""
"card-selection-trial","121","473203","0.0-25.0-1.25","887","false","img/card_backs/set1/green.gif","img/card_backs/set1/red.gif","img/card_backs/set1/purple.gif","img/card_backs/set1/yellow.gif","img/card_backs/set2/blue.gif","img/card_backs/set2/orange.gif","img/card_backs/set2/pink.gif","img/card_backs/set2/gray.gif","""event"",""trial"",""time""
""blur"",""0"",""0""
""focus"",""1"",""6776""
""fullscreenenter"",""1"",""6933""
","""event"",""trial"",""time""
""blur"",""0"",""0""
","""event"",""trial"",""time""
""focus"",""1"",""6776""
","""event"",""trial"",""time""
""fullscreenenter"",""1"",""6933""
","
","","1213.0900006741285","","","","real_trial","2021-04-21 20:47:16.454","img/card_backs/set1/yellow.gif","0","-70","1","",""
"casino-fixation","122","473705","0.0-25.0-0.26","887","false","img/card_backs/set1/green.gif","img/card_backs/set1/red.gif","img/card_backs/set1/purple.gif","img/card_backs/set1/yellow.gif","img/card_backs/set2/blue.gif","img/card_backs/set2/orange.gif","img/card_backs/set2/pink.gif","img/card_backs/set2/gray.gif","""event"",""trial"",""time""
""blur"",""0"",""0""
""focus"",""1"",""6776""
""fullscreenenter"",""1"",""6933""
","""event"",""trial"",""time""
""blur"",""0"",""0""
","""event"",""trial"",""time""
""focus"",""1"",""6776""
","""event"",""trial"",""time""
""fullscreenenter"",""1"",""6933""
","
","","null","","null","","fixation","2021-04-21 20:47:16.956","","","","","",""
"card-selection-trial","123","476839","0.0-25.0-1.26","887","false","img/card_backs/set1/green.gif","img/card_backs/set1/red.gif","img/card_backs/set1/purple.gif","img/card_backs/set1/yellow.gif","img/card_backs/set2/blue.gif","img/card_backs/set2/orange.gif","img/card_backs/set2/pink.gif","img/card_backs/set2/gray.gif","""event"",""trial"",""time""
""blur"",""0"",""0""
""focus"",""1"",""6776""
""fullscreenenter"",""1"",""6933""
","""event"",""trial"",""time""
""blur"",""0"",""0""
","""event"",""trial"",""time""
""focus"",""1"",""6776""
","""event"",""trial"",""time""
""fullscreenenter"",""1"",""6933""
","
","","1124.5449986308813","","","","real_trial","2021-04-21 20:47:20.090","img/card_backs/set1/green.gif","2","-250","1","",""
"casino-fixation","124","477341","0.0-25.0-0.27","887","false","img/card_backs/set1/green.gif","img/card_backs/set1/red.gif","img/card_backs/set1/purple.gif","img/card_backs/set1/yellow.gif","img/card_backs/set2/blue.gif","img/card_backs/set2/orange.gif","img/card_backs/set2/pink.gif","img/card_backs/set2/gray.gif","""event"",""trial"",""time""
""blur"",""0"",""0""
""focus"",""1"",""6776""
""fullscreenenter"",""1"",""6933""
","""event"",""trial"",""time""
""blur"",""0"",""0""
","""event"",""trial"",""time""
""focus"",""1"",""6776""
","""event"",""trial"",""time""
""fullscreenenter"",""1"",""6933""
","
","","null","","null","","fixation","2021-04-21 20:47:20.592","","","","","",""
"card-selection-trial","125","481132","0.0-25.0-1.27","887","false","img/card_backs/set1/green.gif","img/card_backs/set1/red.gif","img/card_backs/set1/purple.gif","img/card_backs/set1/yellow.gif","img/card_backs/set2/blue.gif","img/card_backs/set2/orange.gif","img/card_backs/set2/pink.gif","img/card_backs/set2/gray.gif","""event"",""trial"",""time""
""blur"",""0"",""0""
""focus"",""1"",""6776""
""fullscreenenter"",""1"",""6933""
","""event"",""trial"",""time""
""blur"",""0"",""0""
","""event"",""trial"",""time""
""focus"",""1"",""6776""
","""event"",""trial"",""time""
""fullscreenenter"",""1"",""6933""
","
","","1781.0999993234873","","","","real_trial","2021-04-21 20:47:24.383","img/card_backs/set1/purple.gif","2","120","1","",""
"casino-fixation","126","481635","0.0-25.0-0.28","887","false","img/card_backs/set1/green.gif","img/card_backs/set1/red.gif","img/card_backs/set1/purple.gif","img/card_backs/set1/yellow.gif","img/card_backs/set2/blue.gif","img/card_backs/set2/orange.gif","img/card_backs/set2/pink.gif","img/card_backs/set2/gray.gif","""event"",""trial"",""time""
""blur"",""0"",""0""
""focus"",""1"",""6776""
""fullscreenenter"",""1"",""6933""
","""event"",""trial"",""time""
""blur"",""0"",""0""
","""event"",""trial"",""time""
""focus"",""1"",""6776""
","""event"",""trial"",""time""
""fullscreenenter"",""1"",""6933""
","
","","null","","null","","fixation","2021-04-21 20:47:24.886","","","","","",""
"card-selection-trial","127","485050","0.0-25.0-1.28","887","false","img/card_backs/set1/green.gif","img/card_backs/set1/red.gif","img/card_backs/set1/purple.gif","img/card_backs/set1/yellow.gif","img/card_backs/set2/blue.gif","img/card_backs/set2/orange.gif","img/card_backs/set2/pink.gif","img/card_backs/set2/gray.gif","""event"",""trial"",""time""
""blur"",""0"",""0""
""focus"",""1"",""6776""
""fullscreenenter"",""1"",""6933""
","""event"",""trial"",""time""
""blur"",""0"",""0""
","""event"",""trial"",""time""
""focus"",""1"",""6776""
","""event"",""trial"",""time""
""fullscreenenter"",""1"",""6933""
","
","","1405.74000030756","","","","real_trial","2021-04-21 20:47:28.301","img/card_backs/set1/purple.gif","3","-70","1","",""
"casino-fixation","128","485552","0.0-25.0-0.29","887","false","img/card_backs/set1/green.gif","img/card_backs/set1/red.gif","img/card_backs/set1/purple.gif","img/card_backs/set1/yellow.gif","img/card_backs/set2/blue.gif","img/card_backs/set2/orange.gif","img/card_backs/set2/pink.gif","img/card_backs/set2/gray.gif","""event"",""trial"",""time""
""blur"",""0"",""0""
""focus"",""1"",""6776""
""fullscreenenter"",""1"",""6933""
","""event"",""trial"",""time""
""blur"",""0"",""0""
","""event"",""trial"",""time""
""focus"",""1"",""6776""
","""event"",""trial"",""time""
""fullscreenenter"",""1"",""6933""
","
","","null","","null","","fixation","2021-04-21 20:47:28.803","","","","","",""
"card-selection-trial","129","488764","0.0-25.0-1.29","887","false","img/card_backs/set1/green.gif","img/card_backs/set1/red.gif","img/card_backs/set1/purple.gif","img/card_backs/set1/yellow.gif","img/card_backs/set2/blue.gif","img/card_backs/set2/orange.gif","img/card_backs/set2/pink.gif","img/card_backs/set2/gray.gif","""event"",""trial"",""time""
""blur"",""0"",""0""
""focus"",""1"",""6776""
""fullscreenenter"",""1"",""6933""
","""event"",""trial"",""time""
""blur"",""0"",""0""
","""event"",""trial"",""time""
""focus"",""1"",""6776""
","""event"",""trial"",""time""
""fullscreenenter"",""1"",""6933""
","
","","1202.1099999547005","","","","real_trial","2021-04-21 20:47:32.015","img/card_backs/set1/yellow.gif","3","-60","1","",""
"casino-fixation","130","489266","0.0-25.0-0.30","887","false","img/card_backs/set1/green.gif","img/card_backs/set1/red.gif","img/card_backs/set1/purple.gif","img/card_backs/set1/yellow.gif","img/card_backs/set2/blue.gif","img/card_backs/set2/orange.gif","img/card_backs/set2/pink.gif","img/card_backs/set2/gray.gif","""event"",""trial"",""time""
""blur"",""0"",""0""
""focus"",""1"",""6776""
""fullscreenenter"",""1"",""6933""
","""event"",""trial"",""time""
""blur"",""0"",""0""
","""event"",""trial"",""time""
""focus"",""1"",""6776""
","""event"",""trial"",""time""
""fullscreenenter"",""1"",""6933""
","
","","null","","null","","fixation","2021-04-21 20:47:32.517","","","","","",""
"card-selection-trial","131","491738","0.0-25.0-1.30","887","false","img/card_backs/set1/green.gif","img/card_backs/set1/red.gif","img/card_backs/set1/purple.gif","img/card_backs/set1/yellow.gif","img/card_backs/set2/blue.gif","img/card_backs/set2/orange.gif","img/card_backs/set2/pink.gif","img/card_backs/set2/gray.gif","""event"",""trial"",""time""
""blur"",""0"",""0""
""focus"",""1"",""6776""
""fullscreenenter"",""1"",""6933""
","""event"",""trial"",""time""
""blur"",""0"",""0""
","""event"",""trial"",""time""
""focus"",""1"",""6776""
","""event"",""trial"",""time""
""fullscreenenter"",""1"",""6933""
","
","","462.97499909996986","","","","real_trial","2021-04-21 20:47:34.989","img/card_backs/set1/red.gif","3","-250","1","",""
