"trial_type","trial_index","time_elapsed","internal_node_id","sub_id","risk_good_first","block1_A","block1_B","block1_C","block1_D","block2_A","block2_B","block2_C","block2_D","interactions","blur_events","focus_events","fullscreenenter_events","fullscreenexit_events","success","rt","stimulus","key_press","button_pressed","task_part","timestamp","card_choice","choice_position","points_earned","block","correct","response"
"pavlovia","0","3","0.0-0.0","A1406","true","img/card_backs/set1/red.gif","img/card_backs/set1/green.gif","img/card_backs/set1/purple.gif","img/card_backs/set1/yellow.gif","img/card_backs/set2/pink.gif","img/card_backs/set2/orange.gif","img/card_backs/set2/gray.gif","img/card_backs/set2/blue.gif","""event"",""trial"",""time""
""blur"",""0"",""0""
""focus"",""1"",""32876""
""fullscreenenter"",""1"",""33834""
","""event"",""trial"",""time""
""blur"",""0"",""0""
","""event"",""trial"",""time""
""focus"",""1"",""32876""
","""event"",""trial"",""time""
""fullscreenenter"",""1"",""33834""
","
","","","","","","","","","","","","",""
"fullscreen","1","34820","0.0-1.0","A1406","true","img/card_backs/set1/red.gif","img/card_backs/set1/green.gif","img/card_backs/set1/purple.gif","img/card_backs/set1/yellow.gif","img/card_backs/set2/pink.gif","img/card_backs/set2/orange.gif","img/card_backs/set2/gray.gif","img/card_backs/set2/blue.gif","""event"",""trial"",""time""
""blur"",""0"",""0""
""focus"",""1"",""32876""
""fullscreenenter"",""1"",""33834""
","""event"",""trial"",""time""
""blur"",""0"",""0""
","""event"",""trial"",""time""
""focus"",""1"",""32876""
","""event"",""trial"",""time""
""fullscreenenter"",""1"",""33834""
","
","true","","","","","","","","","","","",""
"audio-keyboard-response","2","38433","0.0-2.0","A1406","true","img/card_backs/set1/red.gif","img/card_backs/set1/green.gif","img/card_backs/set1/purple.gif","img/card_backs/set1/yellow.gif","img/card_backs/set2/pink.gif","img/card_backs/set2/orange.gif","img/card_backs/set2/gray.gif","img/card_backs/set2/blue.gif","""event"",""trial"",""time""
""blur"",""0"",""0""
""focus"",""1"",""32876""
""fullscreenenter"",""1"",""33834""
","""event"",""trial"",""time""
""blur"",""0"",""0""
","""event"",""trial"",""time""
""focus"",""1"",""32876""
","""event"",""trial"",""time""
""fullscreenenter"",""1"",""33834""
","
","","3300","audio/beep_loop.wav","32","","","","","","","","",""
"audio-button-response","3","39767","0.0-3.0","A1406","true","img/card_backs/set1/red.gif","img/card_backs/set1/green.gif","img/card_backs/set1/purple.gif","img/card_backs/set1/yellow.gif","img/card_backs/set2/pink.gif","img/card_backs/set2/orange.gif","img/card_backs/set2/gray.gif","img/card_backs/set2/blue.gif","""event"",""trial"",""time""
""blur"",""0"",""0""
""focus"",""1"",""32876""
""fullscreenenter"",""1"",""33834""
","""event"",""trial"",""time""
""blur"",""0"",""0""
","""event"",""trial"",""time""
""focus"",""1"",""32876""
","""event"",""trial"",""time""
""fullscreenenter"",""1"",""33834""
","
","","NaN","audio/turtle.mp3","","3","","","","","","","",""
"audio-button-response","4","42012","0.0-4.0","A1406","true","img/card_backs/set1/red.gif","img/card_backs/set1/green.gif","img/card_backs/set1/purple.gif","img/card_backs/set1/yellow.gif","img/card_backs/set2/pink.gif","img/card_backs/set2/orange.gif","img/card_backs/set2/gray.gif","img/card_backs/set2/blue.gif","""event"",""trial"",""time""
""blur"",""0"",""0""
""focus"",""1"",""32876""
""fullscreenenter"",""1"",""33834""
","""event"",""trial"",""time""
""blur"",""0"",""0""
","""event"",""trial"",""time""
""focus"",""1"",""32876""
","""event"",""trial"",""time""
""fullscreenenter"",""1"",""33834""
","
","","NaN","audio/shark.mp3","","2","","","","","","","",""
"fullscreen","5","45230","0.0-5.0","A1406","true","img/card_backs/set1/red.gif","img/card_backs/set1/green.gif","img/card_backs/set1/purple.gif","img/card_backs/set1/yellow.gif","img/card_backs/set2/pink.gif","img/card_backs/set2/orange.gif","img/card_backs/set2/gray.gif","img/card_backs/set2/blue.gif","""event"",""trial"",""time""
""blur"",""0"",""0""
""focus"",""1"",""32876""
""fullscreenenter"",""1"",""33834""
","""event"",""trial"",""time""
""blur"",""0"",""0""
","""event"",""trial"",""time""
""focus"",""1"",""32876""
","""event"",""trial"",""time""
""fullscreenenter"",""1"",""33834""
","
","true","","","","","","","","","","","",""
"casino-keyboard-response","6","47891","0.0-6.0-0.0","A1406","true","img/card_backs/set1/red.gif","img/card_backs/set1/green.gif","img/card_backs/set1/purple.gif","img/card_backs/set1/yellow.gif","img/card_backs/set2/pink.gif","img/card_backs/set2/orange.gif","img/card_backs/set2/gray.gif","img/card_backs/set2/blue.gif","""event"",""trial"",""time""
""blur"",""0"",""0""
""focus"",""1"",""32876""
""fullscreenenter"",""1"",""33834""
","""event"",""trial"",""time""
""blur"",""0"",""0""
","""event"",""trial"",""time""
""focus"",""1"",""32876""
","""event"",""trial"",""time""
""fullscreenenter"",""1"",""33834""
","
","","2659.3000000044703","Welcome to the casino!","71","","instructions","2021-07-22 22:43:01.309","","","","","",""
"casino-keyboard-response","7","56969","0.0-6.0-0.1","A1406","true","img/card_backs/set1/red.gif","img/card_backs/set1/green.gif","img/card_backs/set1/purple.gif","img/card_backs/set1/yellow.gif","img/card_backs/set2/pink.gif","img/card_backs/set2/orange.gif","img/card_backs/set2/gray.gif","img/card_backs/set2/blue.gif","""event"",""trial"",""time""
""blur"",""0"",""0""
""focus"",""1"",""32876""
""fullscreenenter"",""1"",""33834""
","""event"",""trial"",""time""
""blur"",""0"",""0""
","""event"",""trial"",""time""
""focus"",""1"",""32876""
","""event"",""trial"",""time""
""fullscreenenter"",""1"",""33834""
","
","","9077.20000000298","Today you will be playing a game to earn tokens. </br> At the end of the experiment, you will be paid a bonus based on how many tokens you win. ","69","","instructions","2021-07-22 22:43:10.387","","","","","",""
"casino-keyboard-response","8","64299","0.0-6.0-0.2","A1406","true","img/card_backs/set1/red.gif","img/card_backs/set1/green.gif","img/card_backs/set1/purple.gif","img/card_backs/set1/yellow.gif","img/card_backs/set2/pink.gif","img/card_backs/set2/orange.gif","img/card_backs/set2/gray.gif","img/card_backs/set2/blue.gif","""event"",""trial"",""time""
""blur"",""0"",""0""
""focus"",""1"",""32876""
""fullscreenenter"",""1"",""33834""
","""event"",""trial"",""time""
""blur"",""0"",""0""
","""event"",""trial"",""time""
""focus"",""1"",""32876""
","""event"",""trial"",""time""
""fullscreenenter"",""1"",""33834""
","
","","7328.89999999851","On every turn, you will be shown four different decks of cards. </br> You need to select a card from one of the four decks.  ","75","","instructions","2021-07-22 22:43:17.717","","","","","",""
"casino-keyboard-response","9","69323","0.0-6.0-0.3","A1406","true","img/card_backs/set1/red.gif","img/card_backs/set1/green.gif","img/card_backs/set1/purple.gif","img/card_backs/set1/yellow.gif","img/card_backs/set2/pink.gif","img/card_backs/set2/orange.gif","img/card_backs/set2/gray.gif","img/card_backs/set2/blue.gif","""event"",""trial"",""time""
""blur"",""0"",""0""
""focus"",""1"",""32876""
""fullscreenenter"",""1"",""33834""
","""event"",""trial"",""time""
""blur"",""0"",""0""
","""event"",""trial"",""time""
""focus"",""1"",""32876""
","""event"",""trial"",""time""
""fullscreenenter"",""1"",""33834""
","
","","5023.30000000447","On the next screen, you will see what the decks will look like. ","66","","instructions","2021-07-22 22:43:22.741","","","","","",""
"card-selection-trial","10","73340","0.0-7.0-0.0","A1406","true","img/card_backs/set1/red.gif","img/card_backs/set1/green.gif","img/card_backs/set1/purple.gif","img/card_backs/set1/yellow.gif","img/card_backs/set2/pink.gif","img/card_backs/set2/orange.gif","img/card_backs/set2/gray.gif","img/card_backs/set2/blue.gif","""event"",""trial"",""time""
""blur"",""0"",""0""
""focus"",""1"",""32876""
""fullscreenenter"",""1"",""33834""
","""event"",""trial"",""time""
""blur"",""0"",""0""
","""event"",""trial"",""time""
""focus"",""1"",""32876""
","""event"",""trial"",""time""
""fullscreenenter"",""1"",""33834""
","
","","null","","","","practice","2021-07-22 22:43:26.758","null","null","null","0","",""
"casino-keyboard-response","11","82053","0.0-8.0-0.0","A1406","true","img/card_backs/set1/red.gif","img/card_backs/set1/green.gif","img/card_backs/set1/purple.gif","img/card_backs/set1/yellow.gif","img/card_backs/set2/pink.gif","img/card_backs/set2/orange.gif","img/card_backs/set2/gray.gif","img/card_backs/set2/blue.gif","""event"",""trial"",""time""
""blur"",""0"",""0""
""focus"",""1"",""32876""
""fullscreenenter"",""1"",""33834""
","""event"",""trial"",""time""
""blur"",""0"",""0""
","""event"",""trial"",""time""
""focus"",""1"",""32876""
","""event"",""trial"",""time""
""fullscreenenter"",""1"",""33834""
","
","","8712.90000000596","You should pick a card from a deck using the '2', '4', '6', and '8' keys at the top of the keyboard.","85","","instructions","2021-07-22 22:43:35.471","","","","","",""
"casino-keyboard-response","12","87461","0.0-8.0-0.1","A1406","true","img/card_backs/set1/red.gif","img/card_backs/set1/green.gif","img/card_backs/set1/purple.gif","img/card_backs/set1/yellow.gif","img/card_backs/set2/pink.gif","img/card_backs/set2/orange.gif","img/card_backs/set2/gray.gif","img/card_backs/set2/blue.gif","""event"",""trial"",""time""
""blur"",""0"",""0""
""focus"",""1"",""32876""
""fullscreenenter"",""1"",""33834""
","""event"",""trial"",""time""
""blur"",""0"",""0""
","""event"",""trial"",""time""
""focus"",""1"",""32876""
","""event"",""trial"",""time""
""fullscreenenter"",""1"",""33834""
","
","","5407.10000000149","Once you select a card, it will turn over and you will see how many tokens you earned.","83","","instructions","2021-07-22 22:43:40.879","","","","","",""
"casino-keyboard-response","13","102525","0.0-8.0-0.2","A1406","true","img/card_backs/set1/red.gif","img/card_backs/set1/green.gif","img/card_backs/set1/purple.gif","img/card_backs/set1/yellow.gif","img/card_backs/set2/pink.gif","img/card_backs/set2/orange.gif","img/card_backs/set2/gray.gif","img/card_backs/set2/blue.gif","""event"",""trial"",""time""
""blur"",""0"",""0""
""focus"",""1"",""32876""
""fullscreenenter"",""1"",""33834""
","""event"",""trial"",""time""
""blur"",""0"",""0""
","""event"",""trial"",""time""
""focus"",""1"",""32876""
","""event"",""trial"",""time""
""fullscreenenter"",""1"",""33834""
","
","","15063.10000000149","Let's try practicing that! </br> First, try to put your fingers over the '2', '4', '6', and '8' keys. </br>  You can use whatever fingers are most comfortable for you. Try to find a comfortable position now. ","50","","instructions","2021-07-22 22:43:55.943","","","","","",""
"casino-keyboard-response","14","107987","0.0-8.0-0.3","A1406","true","img/card_backs/set1/red.gif","img/card_backs/set1/green.gif","img/card_backs/set1/purple.gif","img/card_backs/set1/yellow.gif","img/card_backs/set2/pink.gif","img/card_backs/set2/orange.gif","img/card_backs/set2/gray.gif","img/card_backs/set2/blue.gif","""event"",""trial"",""time""
""blur"",""0"",""0""
""focus"",""1"",""32876""
""fullscreenenter"",""1"",""33834""
","""event"",""trial"",""time""
""blur"",""0"",""0""
","""event"",""trial"",""time""
""focus"",""1"",""32876""
","""event"",""trial"",""time""
""fullscreenenter"",""1"",""33834""
","
","","5461.20000000298","Okay ready? </br> On the next screen, press '2' to select the left deck. ","50","","instructions","2021-07-22 22:44:01.408","","","","","",""
"card-selection-trial","15","110618","0.0-9.0-0.0","A1406","true","img/card_backs/set1/red.gif","img/card_backs/set1/green.gif","img/card_backs/set1/purple.gif","img/card_backs/set1/yellow.gif","img/card_backs/set2/pink.gif","img/card_backs/set2/orange.gif","img/card_backs/set2/gray.gif","img/card_backs/set2/blue.gif","""event"",""trial"",""time""
""blur"",""0"",""0""
""focus"",""1"",""32876""
""fullscreenenter"",""1"",""33834""
","""event"",""trial"",""time""
""blur"",""0"",""0""
","""event"",""trial"",""time""
""focus"",""1"",""32876""
","""event"",""trial"",""time""
""fullscreenenter"",""1"",""33834""
","
","","615","","","","practice_card_selection","2021-07-22 22:44:04.036","img/practice_cards/backs/brown.gif","0","100","","",""
"casino-keyboard-response","16","116085","0.0-10.0-0.0","A1406","true","img/card_backs/set1/red.gif","img/card_backs/set1/green.gif","img/card_backs/set1/purple.gif","img/card_backs/set1/yellow.gif","img/card_backs/set2/pink.gif","img/card_backs/set2/orange.gif","img/card_backs/set2/gray.gif","img/card_backs/set2/blue.gif","""event"",""trial"",""time""
""blur"",""0"",""0""
""focus"",""1"",""32876""
""fullscreenenter"",""1"",""33834""
","""event"",""trial"",""time""
""blur"",""0"",""0""
","""event"",""trial"",""time""
""focus"",""1"",""32876""
","""event"",""trial"",""time""
""fullscreenenter"",""1"",""33834""
","
","","5466","Great! Now on the next screen, try pressing '6' to select the third deck.","54","","instructions","2021-07-22 22:44:09.503","","","","","",""
"card-selection-trial","17","118660","0.0-11.0-0.0","A1406","true","img/card_backs/set1/red.gif","img/card_backs/set1/green.gif","img/card_backs/set1/purple.gif","img/card_backs/set1/yellow.gif","img/card_backs/set2/pink.gif","img/card_backs/set2/orange.gif","img/card_backs/set2/gray.gif","img/card_backs/set2/blue.gif","""event"",""trial"",""time""
""blur"",""0"",""0""
""focus"",""1"",""32876""
""fullscreenenter"",""1"",""33834""
","""event"",""trial"",""time""
""blur"",""0"",""0""
","""event"",""trial"",""time""
""focus"",""1"",""32876""
","""event"",""trial"",""time""
""fullscreenenter"",""1"",""33834""
","
","","559.6000000014901","","","","practice_card_selection","2021-07-22 22:44:12.078","img/practice_cards/backs/brown.gif","2","100","","",""
"casino-keyboard-response","18","123259","0.0-12.0-0.0","A1406","true","img/card_backs/set1/red.gif","img/card_backs/set1/green.gif","img/card_backs/set1/purple.gif","img/card_backs/set1/yellow.gif","img/card_backs/set2/pink.gif","img/card_backs/set2/orange.gif","img/card_backs/set2/gray.gif","img/card_backs/set2/blue.gif","""event"",""trial"",""time""
""blur"",""0"",""0""
""focus"",""1"",""32876""
""fullscreenenter"",""1"",""33834""
","""event"",""trial"",""time""
""blur"",""0"",""0""
","""event"",""trial"",""time""
""focus"",""1"",""32876""
","""event"",""trial"",""time""
""fullscreenenter"",""1"",""33834""
","
","","4598.70000000298","Now on the next screen, try pressing '4' to select the second deck.","52","","instructions","2021-07-22 22:44:16.677","","","","","",""
"card-selection-trial","19","125570","0.0-13.0-0.0","A1406","true","img/card_backs/set1/red.gif","img/card_backs/set1/green.gif","img/card_backs/set1/purple.gif","img/card_backs/set1/yellow.gif","img/card_backs/set2/pink.gif","img/card_backs/set2/orange.gif","img/card_backs/set2/gray.gif","img/card_backs/set2/blue.gif","""event"",""trial"",""time""
""blur"",""0"",""0""
""focus"",""1"",""32876""
""fullscreenenter"",""1"",""33834""
","""event"",""trial"",""time""
""blur"",""0"",""0""
","""event"",""trial"",""time""
""focus"",""1"",""32876""
","""event"",""trial"",""time""
""fullscreenenter"",""1"",""33834""
","
","","299.79999999701977","","","","practice_card_selection","2021-07-22 22:44:18.988","img/practice_cards/backs/brown.gif","1","100","","",""
"casino-keyboard-response","20","129991","0.0-14.0-0.0","A1406","true","img/card_backs/set1/red.gif","img/card_backs/set1/green.gif","img/card_backs/set1/purple.gif","img/card_backs/set1/yellow.gif","img/card_backs/set2/pink.gif","img/card_backs/set2/orange.gif","img/card_backs/set2/gray.gif","img/card_backs/set2/blue.gif","""event"",""trial"",""time""
""blur"",""0"",""0""
""focus"",""1"",""32876""
""fullscreenenter"",""1"",""33834""
","""event"",""trial"",""time""
""blur"",""0"",""0""
","""event"",""trial"",""time""
""focus"",""1"",""32876""
","""event"",""trial"",""time""
""fullscreenenter"",""1"",""33834""
","
","","4420.70000000298","Finally, try pressing '8' to select the deck all the way on the right.","56","","instructions","2021-07-22 22:44:23.409","","","","","",""
"card-selection-trial","21","132149","0.0-15.0-0.0","A1406","true","img/card_backs/set1/red.gif","img/card_backs/set1/green.gif","img/card_backs/set1/purple.gif","img/card_backs/set1/yellow.gif","img/card_backs/set2/pink.gif","img/card_backs/set2/orange.gif","img/card_backs/set2/gray.gif","img/card_backs/set2/blue.gif","""event"",""trial"",""time""
""blur"",""0"",""0""
""focus"",""1"",""32876""
""fullscreenenter"",""1"",""33834""
","""event"",""trial"",""time""
""blur"",""0"",""0""
","""event"",""trial"",""time""
""focus"",""1"",""32876""
","""event"",""trial"",""time""
""fullscreenenter"",""1"",""33834""
","
","","148.60000000149012","","","","practice_card_selection","2021-07-22 22:44:25.567","img/practice_cards/backs/dark_green.gif","3","-200","","",""
"casino-keyboard-response","22","135649","0.0-16.0-0.0","A1406","true","img/card_backs/set1/red.gif","img/card_backs/set1/green.gif","img/card_backs/set1/purple.gif","img/card_backs/set1/yellow.gif","img/card_backs/set2/pink.gif","img/card_backs/set2/orange.gif","img/card_backs/set2/gray.gif","img/card_backs/set2/blue.gif","""event"",""trial"",""time""
""blur"",""0"",""0""
""focus"",""1"",""32876""
""fullscreenenter"",""1"",""33834""
","""event"",""trial"",""time""
""blur"",""0"",""0""
","""event"",""trial"",""time""
""focus"",""1"",""32876""
","""event"",""trial"",""time""
""fullscreenenter"",""1"",""33834""
","
","","3499.10000000149","Great! It seems like you are getting the hang of this.","80","","instructions","2021-07-22 22:44:29.067","","","","","",""
"casino-keyboard-response","23","143062","0.0-16.0-0.1","A1406","true","img/card_backs/set1/red.gif","img/card_backs/set1/green.gif","img/card_backs/set1/purple.gif","img/card_backs/set1/yellow.gif","img/card_backs/set2/pink.gif","img/card_backs/set2/orange.gif","img/card_backs/set2/gray.gif","img/card_backs/set2/blue.gif","""event"",""trial"",""time""
""blur"",""0"",""0""
""focus"",""1"",""32876""
""fullscreenenter"",""1"",""33834""
","""event"",""trial"",""time""
""blur"",""0"",""0""
","""event"",""trial"",""time""
""focus"",""1"",""32876""
","""event"",""trial"",""time""
""fullscreenenter"",""1"",""33834""
","
","","7411.20000000298","You may have noticed that some cards will cause you to <b> win </b> tokens while other cards will cause you to <b> lose </b>  tokens.","70","","instructions","2021-07-22 22:44:36.480","","","","","",""
"casino-keyboard-response","24","151230","0.0-16.0-0.2","A1406","true","img/card_backs/set1/red.gif","img/card_backs/set1/green.gif","img/card_backs/set1/purple.gif","img/card_backs/set1/yellow.gif","img/card_backs/set2/pink.gif","img/card_backs/set2/orange.gif","img/card_backs/set2/gray.gif","img/card_backs/set2/blue.gif","""event"",""trial"",""time""
""blur"",""0"",""0""
""focus"",""1"",""32876""
""fullscreenenter"",""1"",""33834""
","""event"",""trial"",""time""
""blur"",""0"",""0""
","""event"",""trial"",""time""
""focus"",""1"",""32876""
","""event"",""trial"",""time""
""fullscreenenter"",""1"",""33834""
","
","","8166.89999999851","Each deck has a mix of cards that will cause you to win and lose tokens. </br> However, the cards in each colored deck are different.","73","","instructions","2021-07-22 22:44:44.648","","","","","",""
"casino-keyboard-response","25","159748","0.0-16.0-0.3","A1406","true","img/card_backs/set1/red.gif","img/card_backs/set1/green.gif","img/card_backs/set1/purple.gif","img/card_backs/set1/yellow.gif","img/card_backs/set2/pink.gif","img/card_backs/set2/orange.gif","img/card_backs/set2/gray.gif","img/card_backs/set2/blue.gif","""event"",""trial"",""time""
""blur"",""0"",""0""
""focus"",""1"",""32876""
""fullscreenenter"",""1"",""33834""
","""event"",""trial"",""time""
""blur"",""0"",""0""
","""event"",""trial"",""time""
""focus"",""1"",""32876""
","""event"",""trial"",""time""
""fullscreenenter"",""1"",""33834""
","
","","8517.20000000298","Some colored decks are luckier than others. </br> If you choose the lucky decks, you will earn more tokens than if you choose the unlucky decks.","69","","instructions","2021-07-22 22:44:53.166","","","","","",""
"casino-keyboard-response","26","166622","0.0-16.0-0.4","A1406","true","img/card_backs/set1/red.gif","img/card_backs/set1/green.gif","img/card_backs/set1/purple.gif","img/card_backs/set1/yellow.gif","img/card_backs/set2/pink.gif","img/card_backs/set2/orange.gif","img/card_backs/set2/gray.gif","img/card_backs/set2/blue.gif","""event"",""trial"",""time""
""blur"",""0"",""0""
""focus"",""1"",""32876""
""fullscreenenter"",""1"",""33834""
","""event"",""trial"",""time""
""blur"",""0"",""0""
","""event"",""trial"",""time""
""focus"",""1"",""32876""
","""event"",""trial"",""time""
""fullscreenenter"",""1"",""33834""
","
","","6872.89999999851","You should try to figure out which decks are lucky. </br> Then, try to choose the lucky decks so you can win the most tokens.","87","","instructions","2021-07-22 22:45:00.040","","","","","",""
"casino-keyboard-response","27","177778","0.0-16.0-0.5","A1406","true","img/card_backs/set1/red.gif","img/card_backs/set1/green.gif","img/card_backs/set1/purple.gif","img/card_backs/set1/yellow.gif","img/card_backs/set2/pink.gif","img/card_backs/set2/orange.gif","img/card_backs/set2/gray.gif","img/card_backs/set2/blue.gif","""event"",""trial"",""time""
""blur"",""0"",""0""
""focus"",""1"",""32876""
""fullscreenenter"",""1"",""33834""
","""event"",""trial"",""time""
""blur"",""0"",""0""
","""event"",""trial"",""time""
""focus"",""1"",""32876""
","""event"",""trial"",""time""
""fullscreenenter"",""1"",""33834""
","
","","11155.40000000596","To make it trickier, the casino dealer will switch the locations of the decks on every turn. </br> The color of the deck determines how lucky it is. The location does not matter.","88","","instructions","2021-07-22 22:45:11.196","","","","","",""
"casino-keyboard-response","28","187062","0.0-16.0-0.6","A1406","true","img/card_backs/set1/red.gif","img/card_backs/set1/green.gif","img/card_backs/set1/purple.gif","img/card_backs/set1/yellow.gif","img/card_backs/set2/pink.gif","img/card_backs/set2/orange.gif","img/card_backs/set2/gray.gif","img/card_backs/set2/blue.gif","""event"",""trial"",""time""
""blur"",""0"",""0""
""focus"",""1"",""32876""
""fullscreenenter"",""1"",""33834""
","""event"",""trial"",""time""
""blur"",""0"",""0""
","""event"",""trial"",""time""
""focus"",""1"",""32876""
","""event"",""trial"",""time""
""fullscreenenter"",""1"",""33834""
","
","","9282.89999999851","The mix of cards in each colored deck will stay the same throughout the game. </br> That means that a deck that is lucky early on will stay lucky.","79","","instructions","2021-07-22 22:45:20.480","","","","","",""
"casino-keyboard-response","29","195524","0.0-16.0-0.7","A1406","true","img/card_backs/set1/red.gif","img/card_backs/set1/green.gif","img/card_backs/set1/purple.gif","img/card_backs/set1/yellow.gif","img/card_backs/set2/pink.gif","img/card_backs/set2/orange.gif","img/card_backs/set2/gray.gif","img/card_backs/set2/blue.gif","""event"",""trial"",""time""
""blur"",""0"",""0""
""focus"",""1"",""32876""
""fullscreenenter"",""1"",""33834""
","""event"",""trial"",""time""
""blur"",""0"",""0""
","""event"",""trial"",""time""
""focus"",""1"",""32876""
","""event"",""trial"",""time""
""fullscreenenter"",""1"",""33834""
","
","","8461.40000000596","Remember though, all the decks have a <b> mix </b> of both <b> good </b> and <b> bad </b> cards so it may take a couple of turns to figure out if a deck is lucky.","69","","instructions","2021-07-22 22:45:28.942","","","","","",""
"casino-keyboard-response","30","203561","0.0-16.0-0.8","A1406","true","img/card_backs/set1/red.gif","img/card_backs/set1/green.gif","img/card_backs/set1/purple.gif","img/card_backs/set1/yellow.gif","img/card_backs/set2/pink.gif","img/card_backs/set2/orange.gif","img/card_backs/set2/gray.gif","img/card_backs/set2/blue.gif","""event"",""trial"",""time""
""blur"",""0"",""0""
""focus"",""1"",""32876""
""fullscreenenter"",""1"",""33834""
","""event"",""trial"",""time""
""blur"",""0"",""0""
","""event"",""trial"",""time""
""focus"",""1"",""32876""
","""event"",""trial"",""time""
""fullscreenenter"",""1"",""33834""
","
","","8037.10000000149","At the end of the game, you will be paid bonus money based on how many tokens you win. </br> If you win more tokens, you will earn more money!","72","","instructions","2021-07-22 22:45:36.980","","","","","",""
"casino-keyboard-response","31","213694","0.0-16.0-0.9","A1406","true","img/card_backs/set1/red.gif","img/card_backs/set1/green.gif","img/card_backs/set1/purple.gif","img/card_backs/set1/yellow.gif","img/card_backs/set2/pink.gif","img/card_backs/set2/orange.gif","img/card_backs/set2/gray.gif","img/card_backs/set2/blue.gif","""event"",""trial"",""time""
""blur"",""0"",""0""
""focus"",""1"",""32876""
""fullscreenenter"",""1"",""33834""
","""event"",""trial"",""time""
""blur"",""0"",""0""
","""event"",""trial"",""time""
""focus"",""1"",""32876""
","""event"",""trial"",""time""
""fullscreenenter"",""1"",""33834""
","
","","10131.30000000447","You will never <b> lose </b> money. </br> If you end up with fewer than 0 tokens, you will earn $0 of bonus money, but you will still be paid for playing the game.","83","","instructions","2021-07-22 22:45:47.112","","","","","",""
"casino-keyboard-response","32","217839","0.0-16.0-0.10","A1406","true","img/card_backs/set1/red.gif","img/card_backs/set1/green.gif","img/card_backs/set1/purple.gif","img/card_backs/set1/yellow.gif","img/card_backs/set2/pink.gif","img/card_backs/set2/orange.gif","img/card_backs/set2/gray.gif","img/card_backs/set2/blue.gif","""event"",""trial"",""time""
""blur"",""0"",""0""
""focus"",""1"",""32876""
""fullscreenenter"",""1"",""33834""
","""event"",""trial"",""time""
""blur"",""0"",""0""
","""event"",""trial"",""time""
""focus"",""1"",""32876""
","""event"",""trial"",""time""
""fullscreenenter"",""1"",""33834""
","
","","4144.5","You will have 10 seconds to make each choice.","82","","instructions","2021-07-22 22:45:51.258","","","","","",""
"casino-keyboard-response","33","225982","0.0-16.0-0.11","A1406","true","img/card_backs/set1/red.gif","img/card_backs/set1/green.gif","img/card_backs/set1/purple.gif","img/card_backs/set1/yellow.gif","img/card_backs/set2/pink.gif","img/card_backs/set2/orange.gif","img/card_backs/set2/gray.gif","img/card_backs/set2/blue.gif","""event"",""trial"",""time""
""blur"",""0"",""0""
""focus"",""1"",""32876""
""fullscreenenter"",""1"",""33834""
","""event"",""trial"",""time""
""blur"",""0"",""0""
","""event"",""trial"",""time""
""focus"",""1"",""32876""
","""event"",""trial"",""time""
""fullscreenenter"",""1"",""33834""
","
","","8141","Before you play the game for real, you will play with practice decks. </br> The tokens you earn during practice won't count toward your total.","86","","instructions","2021-07-22 22:45:59.400","","","","","",""
"casino-keyboard-response","34","237359","0.0-16.0-0.12","A1406","true","img/card_backs/set1/red.gif","img/card_backs/set1/green.gif","img/card_backs/set1/purple.gif","img/card_backs/set1/yellow.gif","img/card_backs/set2/pink.gif","img/card_backs/set2/orange.gif","img/card_backs/set2/gray.gif","img/card_backs/set2/blue.gif","""event"",""trial"",""time""
""blur"",""0"",""0""
""focus"",""1"",""32876""
""fullscreenenter"",""1"",""33834""
","""event"",""trial"",""time""
""blur"",""0"",""0""
","""event"",""trial"",""time""
""focus"",""1"",""32876""
","""event"",""trial"",""time""
""fullscreenenter"",""1"",""33834""
","
","","11376.20000000298","Ready? Remember, use the '2', '4', '6', and '8' keys to select the decks. </br> Put your fingers on those keys now and then press '2' to begin.","50","","instructions","2021-07-22 22:46:10.777","","","","","",""
"casino-fixation","35","237860","0.0-17.0-0.0","A1406","true","img/card_backs/set1/red.gif","img/card_backs/set1/green.gif","img/card_backs/set1/purple.gif","img/card_backs/set1/yellow.gif","img/card_backs/set2/pink.gif","img/card_backs/set2/orange.gif","img/card_backs/set2/gray.gif","img/card_backs/set2/blue.gif","""event"",""trial"",""time""
""blur"",""0"",""0""
""focus"",""1"",""32876""
""fullscreenenter"",""1"",""33834""
","""event"",""trial"",""time""
""blur"",""0"",""0""
","""event"",""trial"",""time""
""focus"",""1"",""32876""
","""event"",""trial"",""time""
""fullscreenenter"",""1"",""33834""
","
","","null","","null","","fixation","2021-07-22 22:46:11.278","","","","","",""
"card-selection-trial","36","241180","0.0-17.0-1.0","A1406","true","img/card_backs/set1/red.gif","img/card_backs/set1/green.gif","img/card_backs/set1/purple.gif","img/card_backs/set1/yellow.gif","img/card_backs/set2/pink.gif","img/card_backs/set2/orange.gif","img/card_backs/set2/gray.gif","img/card_backs/set2/blue.gif","""event"",""trial"",""time""
""blur"",""0"",""0""
""focus"",""1"",""32876""
""fullscreenenter"",""1"",""33834""
","""event"",""trial"",""time""
""blur"",""0"",""0""
","""event"",""trial"",""time""
""focus"",""1"",""32876""
","""event"",""trial"",""time""
""fullscreenenter"",""1"",""33834""
","
","","1317.1000000014901","","","","practice","2021-07-22 22:46:14.598","img/practice_cards/backs/dark_blue.gif","2","200","0","",""
"casino-fixation","37","241700","0.0-17.0-0.1","A1406","true","img/card_backs/set1/red.gif","img/card_backs/set1/green.gif","img/card_backs/set1/purple.gif","img/card_backs/set1/yellow.gif","img/card_backs/set2/pink.gif","img/card_backs/set2/orange.gif","img/card_backs/set2/gray.gif","img/card_backs/set2/blue.gif","""event"",""trial"",""time""
""blur"",""0"",""0""
""focus"",""1"",""32876""
""fullscreenenter"",""1"",""33834""
","""event"",""trial"",""time""
""blur"",""0"",""0""
","""event"",""trial"",""time""
""focus"",""1"",""32876""
","""event"",""trial"",""time""
""fullscreenenter"",""1"",""33834""
","
","","null","","null","","fixation","2021-07-22 22:46:15.118","","","","","",""
"card-selection-trial","38","244380","0.0-17.0-1.1","A1406","true","img/card_backs/set1/red.gif","img/card_backs/set1/green.gif","img/card_backs/set1/purple.gif","img/card_backs/set1/yellow.gif","img/card_backs/set2/pink.gif","img/card_backs/set2/orange.gif","img/card_backs/set2/gray.gif","img/card_backs/set2/blue.gif","""event"",""trial"",""time""
""blur"",""0"",""0""
""focus"",""1"",""32876""
""fullscreenenter"",""1"",""33834""
","""event"",""trial"",""time""
""blur"",""0"",""0""
","""event"",""trial"",""time""
""focus"",""1"",""32876""
","""event"",""trial"",""time""
""fullscreenenter"",""1"",""33834""
","
","","663.2000000029802","","","","practice","2021-07-22 22:46:17.798","img/practice_cards/backs/dark_blue.gif","2","200","0","",""
"casino-fixation","39","244890","0.0-17.0-0.2","A1406","true","img/card_backs/set1/red.gif","img/card_backs/set1/green.gif","img/card_backs/set1/purple.gif","img/card_backs/set1/yellow.gif","img/card_backs/set2/pink.gif","img/card_backs/set2/orange.gif","img/card_backs/set2/gray.gif","img/card_backs/set2/blue.gif","""event"",""trial"",""time""
""blur"",""0"",""0""
""focus"",""1"",""32876""
""fullscreenenter"",""1"",""33834""
","""event"",""trial"",""time""
""blur"",""0"",""0""
","""event"",""trial"",""time""
""focus"",""1"",""32876""
","""event"",""trial"",""time""
""fullscreenenter"",""1"",""33834""
","
","","null","","null","","fixation","2021-07-22 22:46:18.308","","","","","",""
"card-selection-trial","40","247320","0.0-17.0-1.2","A1406","true","img/card_backs/set1/red.gif","img/card_backs/set1/green.gif","img/card_backs/set1/purple.gif","img/card_backs/set1/yellow.gif","img/card_backs/set2/pink.gif","img/card_backs/set2/orange.gif","img/card_backs/set2/gray.gif","img/card_backs/set2/blue.gif","""event"",""trial"",""time""
""blur"",""0"",""0""
""focus"",""1"",""32876""
""fullscreenenter"",""1"",""33834""
","""event"",""trial"",""time""
""blur"",""0"",""0""
","""event"",""trial"",""time""
""focus"",""1"",""32876""
","""event"",""trial"",""time""
""fullscreenenter"",""1"",""33834""
","
","","423.3999999985099","","","","practice","2021-07-22 22:46:20.738","img/practice_cards/backs/brown.gif","2","-100","0","",""
"casino-fixation","41","247830","0.0-17.0-0.3","A1406","true","img/card_backs/set1/red.gif","img/card_backs/set1/green.gif","img/card_backs/set1/purple.gif","img/card_backs/set1/yellow.gif","img/card_backs/set2/pink.gif","img/card_backs/set2/orange.gif","img/card_backs/set2/gray.gif","img/card_backs/set2/blue.gif","""event"",""trial"",""time""
""blur"",""0"",""0""
""focus"",""1"",""32876""
""fullscreenenter"",""1"",""33834""
","""event"",""trial"",""time""
""blur"",""0"",""0""
","""event"",""trial"",""time""
""focus"",""1"",""32876""
","""event"",""trial"",""time""
""fullscreenenter"",""1"",""33834""
","
","","null","","null","","fixation","2021-07-22 22:46:21.248","","","","","",""
"card-selection-trial","42","250700","0.0-17.0-1.3","A1406","true","img/card_backs/set1/red.gif","img/card_backs/set1/green.gif","img/card_backs/set1/purple.gif","img/card_backs/set1/yellow.gif","img/card_backs/set2/pink.gif","img/card_backs/set2/orange.gif","img/card_backs/set2/gray.gif","img/card_backs/set2/blue.gif","""event"",""trial"",""time""
""blur"",""0"",""0""
""focus"",""1"",""32876""
""fullscreenenter"",""1"",""33834""
","""event"",""trial"",""time""
""blur"",""0"",""0""
","""event"",""trial"",""time""
""focus"",""1"",""32876""
","""event"",""trial"",""time""
""fullscreenenter"",""1"",""33834""
","
","","859.7000000029802","","","","practice","2021-07-22 22:46:24.118","img/practice_cards/backs/dark_green.gif","2","200","0","",""
"casino-fixation","43","251210","0.0-17.0-0.4","A1406","true","img/card_backs/set1/red.gif","img/card_backs/set1/green.gif","img/card_backs/set1/purple.gif","img/card_backs/set1/yellow.gif","img/card_backs/set2/pink.gif","img/card_backs/set2/orange.gif","img/card_backs/set2/gray.gif","img/card_backs/set2/blue.gif","""event"",""trial"",""time""
""blur"",""0"",""0""
""focus"",""1"",""32876""
""fullscreenenter"",""1"",""33834""
","""event"",""trial"",""time""
""blur"",""0"",""0""
","""event"",""trial"",""time""
""focus"",""1"",""32876""
","""event"",""trial"",""time""
""fullscreenenter"",""1"",""33834""
","
","","null","","null","","fixation","2021-07-22 22:46:24.628","","","","","",""
"card-selection-trial","44","254000","0.0-17.0-1.4","A1406","true","img/card_backs/set1/red.gif","img/card_backs/set1/green.gif","img/card_backs/set1/purple.gif","img/card_backs/set1/yellow.gif","img/card_backs/set2/pink.gif","img/card_backs/set2/orange.gif","img/card_backs/set2/gray.gif","img/card_backs/set2/blue.gif","""event"",""trial"",""time""
""blur"",""0"",""0""
""focus"",""1"",""32876""
""fullscreenenter"",""1"",""33834""
","""event"",""trial"",""time""
""blur"",""0"",""0""
","""event"",""trial"",""time""
""focus"",""1"",""32876""
","""event"",""trial"",""time""
""fullscreenenter"",""1"",""33834""
","
","","785.6000000014901","","","","practice","2021-07-22 22:46:27.418","img/practice_cards/backs/dark_blue.gif","2","200","0","",""
"casino-fixation","45","254520","0.0-17.0-0.5","A1406","true","img/card_backs/set1/red.gif","img/card_backs/set1/green.gif","img/card_backs/set1/purple.gif","img/card_backs/set1/yellow.gif","img/card_backs/set2/pink.gif","img/card_backs/set2/orange.gif","img/card_backs/set2/gray.gif","img/card_backs/set2/blue.gif","""event"",""trial"",""time""
""blur"",""0"",""0""
""focus"",""1"",""32876""
""fullscreenenter"",""1"",""33834""
","""event"",""trial"",""time""
""blur"",""0"",""0""
","""event"",""trial"",""time""
""focus"",""1"",""32876""
","""event"",""trial"",""time""
""fullscreenenter"",""1"",""33834""
","
","","null","","null","","fixation","2021-07-22 22:46:27.938","","","","","",""
"card-selection-trial","46","257210","0.0-17.0-1.5","A1406","true","img/card_backs/set1/red.gif","img/card_backs/set1/green.gif","img/card_backs/set1/purple.gif","img/card_backs/set1/yellow.gif","img/card_backs/set2/pink.gif","img/card_backs/set2/orange.gif","img/card_backs/set2/gray.gif","img/card_backs/set2/blue.gif","""event"",""trial"",""time""
""blur"",""0"",""0""
""focus"",""1"",""32876""
""fullscreenenter"",""1"",""33834""
","""event"",""trial"",""time""
""blur"",""0"",""0""
","""event"",""trial"",""time""
""focus"",""1"",""32876""
","""event"",""trial"",""time""
""fullscreenenter"",""1"",""33834""
","
","","685.2000000029802","","","","practice","2021-07-22 22:46:30.628","img/practice_cards/backs/dark_blue.gif","2","-200","0","",""
"casino-fixation","47","257730","0.0-17.0-0.6","A1406","true","img/card_backs/set1/red.gif","img/card_backs/set1/green.gif","img/card_backs/set1/purple.gif","img/card_backs/set1/yellow.gif","img/card_backs/set2/pink.gif","img/card_backs/set2/orange.gif","img/card_backs/set2/gray.gif","img/card_backs/set2/blue.gif","""event"",""trial"",""time""
""blur"",""0"",""0""
""focus"",""1"",""32876""
""fullscreenenter"",""1"",""33834""
","""event"",""trial"",""time""
""blur"",""0"",""0""
","""event"",""trial"",""time""
""focus"",""1"",""32876""
","""event"",""trial"",""time""
""fullscreenenter"",""1"",""33834""
","
","","null","","null","","fixation","2021-07-22 22:46:31.148","","","","","",""
"card-selection-trial","48","260299","0.0-17.0-1.6","A1406","true","img/card_backs/set1/red.gif","img/card_backs/set1/green.gif","img/card_backs/set1/purple.gif","img/card_backs/set1/yellow.gif","img/card_backs/set2/pink.gif","img/card_backs/set2/orange.gif","img/card_backs/set2/gray.gif","img/card_backs/set2/blue.gif","""event"",""trial"",""time""
""blur"",""0"",""0""
""focus"",""1"",""32876""
""fullscreenenter"",""1"",""33834""
","""event"",""trial"",""time""
""blur"",""0"",""0""
","""event"",""trial"",""time""
""focus"",""1"",""32876""
","""event"",""trial"",""time""
""fullscreenenter"",""1"",""33834""
","
","","547.5","","","","practice","2021-07-22 22:46:33.717","img/practice_cards/backs/dark_blue.gif","2","-200","0","",""
"casino-fixation","49","260820","0.0-17.0-0.7","A1406","true","img/card_backs/set1/red.gif","img/card_backs/set1/green.gif","img/card_backs/set1/purple.gif","img/card_backs/set1/yellow.gif","img/card_backs/set2/pink.gif","img/card_backs/set2/orange.gif","img/card_backs/set2/gray.gif","img/card_backs/set2/blue.gif","""event"",""trial"",""time""
""blur"",""0"",""0""
""focus"",""1"",""32876""
""fullscreenenter"",""1"",""33834""
","""event"",""trial"",""time""
""blur"",""0"",""0""
","""event"",""trial"",""time""
""focus"",""1"",""32876""
","""event"",""trial"",""time""
""fullscreenenter"",""1"",""33834""
","
","","null","","null","","fixation","2021-07-22 22:46:34.238","","","","","",""
"card-selection-trial","50","265820","0.0-17.0-1.7","A1406","true","img/card_backs/set1/red.gif","img/card_backs/set1/green.gif","img/card_backs/set1/purple.gif","img/card_backs/set1/yellow.gif","img/card_backs/set2/pink.gif","img/card_backs/set2/orange.gif","img/card_backs/set2/gray.gif","img/card_backs/set2/blue.gif","""event"",""trial"",""time""
""blur"",""0"",""0""
""focus"",""1"",""32876""
""fullscreenenter"",""1"",""33834""
","""event"",""trial"",""time""
""blur"",""0"",""0""
","""event"",""trial"",""time""
""focus"",""1"",""32876""
","""event"",""trial"",""time""
""fullscreenenter"",""1"",""33834""
","
","","2989.60000000149","","","","practice","2021-07-22 22:46:39.238","img/practice_cards/backs/dark_green.gif","1","-200","0","",""
"casino-fixation","51","266340","0.0-17.0-0.8","A1406","true","img/card_backs/set1/red.gif","img/card_backs/set1/green.gif","img/card_backs/set1/purple.gif","img/card_backs/set1/yellow.gif","img/card_backs/set2/pink.gif","img/card_backs/set2/orange.gif","img/card_backs/set2/gray.gif","img/card_backs/set2/blue.gif","""event"",""trial"",""time""
""blur"",""0"",""0""
""focus"",""1"",""32876""
""fullscreenenter"",""1"",""33834""
","""event"",""trial"",""time""
""blur"",""0"",""0""
","""event"",""trial"",""time""
""focus"",""1"",""32876""
","""event"",""trial"",""time""
""fullscreenenter"",""1"",""33834""
","
","","null","","null","","fixation","2021-07-22 22:46:39.758","","","","","",""
"card-selection-trial","52","269428","0.0-17.0-1.8","A1406","true","img/card_backs/set1/red.gif","img/card_backs/set1/green.gif","img/card_backs/set1/purple.gif","img/card_backs/set1/yellow.gif","img/card_backs/set2/pink.gif","img/card_backs/set2/orange.gif","img/card_backs/set2/gray.gif","img/card_backs/set2/blue.gif","""event"",""trial"",""time""
""blur"",""0"",""0""
""focus"",""1"",""32876""
""fullscreenenter"",""1"",""33834""
","""event"",""trial"",""time""
""blur"",""0"",""0""
","""event"",""trial"",""time""
""focus"",""1"",""32876""
","""event"",""trial"",""time""
""fullscreenenter"",""1"",""33834""
","
","","1085.2000000029802","","","","practice","2021-07-22 22:46:42.846","img/practice_cards/backs/dark_blue.gif","1","200","0","",""
"casino-fixation","53","269928","0.0-17.0-0.9","A1406","true","img/card_backs/set1/red.gif","img/card_backs/set1/green.gif","img/card_backs/set1/purple.gif","img/card_backs/set1/yellow.gif","img/card_backs/set2/pink.gif","img/card_backs/set2/orange.gif","img/card_backs/set2/gray.gif","img/card_backs/set2/blue.gif","""event"",""trial"",""time""
""blur"",""0"",""0""
""focus"",""1"",""32876""
""fullscreenenter"",""1"",""33834""
","""event"",""trial"",""time""
""blur"",""0"",""0""
","""event"",""trial"",""time""
""focus"",""1"",""32876""
","""event"",""trial"",""time""
""fullscreenenter"",""1"",""33834""
","
","","null","","null","","fixation","2021-07-22 22:46:43.346","","","","","",""
"card-selection-trial","54","272778","0.0-17.0-1.9","A1406","true","img/card_backs/set1/red.gif","img/card_backs/set1/green.gif","img/card_backs/set1/purple.gif","img/card_backs/set1/yellow.gif","img/card_backs/set2/pink.gif","img/card_backs/set2/orange.gif","img/card_backs/set2/gray.gif","img/card_backs/set2/blue.gif","""event"",""trial"",""time""
""blur"",""0"",""0""
""focus"",""1"",""32876""
""fullscreenenter"",""1"",""33834""
","""event"",""trial"",""time""
""blur"",""0"",""0""
","""event"",""trial"",""time""
""focus"",""1"",""32876""
","""event"",""trial"",""time""
""fullscreenenter"",""1"",""33834""
","
","","847","","","","practice","2021-07-22 22:46:46.196","img/practice_cards/backs/dark_green.gif","2","-200","0","",""
"casino-keyboard-response","55","275847","0.0-18.0","A1406","true","img/card_backs/set1/red.gif","img/card_backs/set1/green.gif","img/card_backs/set1/purple.gif","img/card_backs/set1/yellow.gif","img/card_backs/set2/pink.gif","img/card_backs/set2/orange.gif","img/card_backs/set2/gray.gif","img/card_backs/set2/blue.gif","""event"",""trial"",""time""
""blur"",""0"",""0""
""focus"",""1"",""32876""
""fullscreenenter"",""1"",""33834""
","""event"",""trial"",""time""
""blur"",""0"",""0""
","""event"",""trial"",""time""
""focus"",""1"",""32876""
","""event"",""trial"",""time""
""fullscreenenter"",""1"",""33834""
","
","","3068.60000000149","You earned 100 tokens during the practice round!","82","","","2021-07-22 22:46:49.266","","","","","",""
"casino-keyboard-response","56","280061","0.0-19.0-0.0","A1406","true","img/card_backs/set1/red.gif","img/card_backs/set1/green.gif","img/card_backs/set1/purple.gif","img/card_backs/set1/yellow.gif","img/card_backs/set2/pink.gif","img/card_backs/set2/orange.gif","img/card_backs/set2/gray.gif","img/card_backs/set2/blue.gif","""event"",""trial"",""time""
""blur"",""0"",""0""
""focus"",""1"",""32876""
""fullscreenenter"",""1"",""33834""
","""event"",""trial"",""time""
""blur"",""0"",""0""
","""event"",""trial"",""time""
""focus"",""1"",""32876""
","""event"",""trial"",""time""
""fullscreenenter"",""1"",""33834""
","
","","4212.20000000298","Nice job! You are almost ready to play the real game.","86","","instructions","2021-07-22 22:46:53.479","","","","","",""
"casino-keyboard-response","57","286553","0.0-19.0-0.1","A1406","true","img/card_backs/set1/red.gif","img/card_backs/set1/green.gif","img/card_backs/set1/purple.gif","img/card_backs/set1/yellow.gif","img/card_backs/set2/pink.gif","img/card_backs/set2/orange.gif","img/card_backs/set2/gray.gif","img/card_backs/set2/blue.gif","""event"",""trial"",""time""
""blur"",""0"",""0""
""focus"",""1"",""32876""
""fullscreenenter"",""1"",""33834""
","""event"",""trial"",""time""
""blur"",""0"",""0""
","""event"",""trial"",""time""
""focus"",""1"",""32876""
","""event"",""trial"",""time""
""fullscreenenter"",""1"",""33834""
","
","","6491.4000000059605","You will play two rounds of the real game. In each round, you will pick 100 cards in total.","73","","instructions","2021-07-22 22:46:59.972","","","","","",""
"casino-keyboard-response","58","290655","0.0-19.0-0.2","A1406","true","img/card_backs/set1/red.gif","img/card_backs/set1/green.gif","img/card_backs/set1/purple.gif","img/card_backs/set1/yellow.gif","img/card_backs/set2/pink.gif","img/card_backs/set2/orange.gif","img/card_backs/set2/gray.gif","img/card_backs/set2/blue.gif","""event"",""trial"",""time""
""blur"",""0"",""0""
""focus"",""1"",""32876""
""fullscreenenter"",""1"",""33834""
","""event"",""trial"",""time""
""blur"",""0"",""0""
","""event"",""trial"",""time""
""focus"",""1"",""32876""
","""event"",""trial"",""time""
""fullscreenenter"",""1"",""33834""
","
","","4101","We are now going to ask you some questions about how the game works.","66","","instructions","2021-07-22 22:47:04.073","","","","","",""
"casino-keyboard-response","59","296796","0.0-19.0-0.3","A1406","true","img/card_backs/set1/red.gif","img/card_backs/set1/green.gif","img/card_backs/set1/purple.gif","img/card_backs/set1/yellow.gif","img/card_backs/set2/pink.gif","img/card_backs/set2/orange.gif","img/card_backs/set2/gray.gif","img/card_backs/set2/blue.gif","""event"",""trial"",""time""
""blur"",""0"",""0""
""focus"",""1"",""32876""
""fullscreenenter"",""1"",""33834""
","""event"",""trial"",""time""
""blur"",""0"",""0""
","""event"",""trial"",""time""
""focus"",""1"",""32876""
","""event"",""trial"",""time""
""fullscreenenter"",""1"",""33834""
","
","","6139.70000000298","Answer carefully. You will not be able to begin the game until you answer them correctly.","67","","instructions","2021-07-22 22:47:10.214","","","","","",""
"casino-comp_q","60","302619","0.0-20.0-0.0","A1406","true","img/card_backs/set1/red.gif","img/card_backs/set1/green.gif","img/card_backs/set1/purple.gif","img/card_backs/set1/yellow.gif","img/card_backs/set2/pink.gif","img/card_backs/set2/orange.gif","img/card_backs/set2/gray.gif","img/card_backs/set2/blue.gif","""event"",""trial"",""time""
""blur"",""0"",""0""
""focus"",""1"",""32876""
""fullscreenenter"",""1"",""33834""
","""event"",""trial"",""time""
""blur"",""0"",""0""
","""event"",""trial"",""time""
""focus"",""1"",""32876""
","""event"",""trial"",""time""
""fullscreenenter"",""1"",""33834""
","
","","5822.60000000149","True or False: All the decks have some cards that cause you to win tokens and some cards that cause you to lose tokens.","84","","","2021-07-22 22:47:16.038","","","","","",""
"casino-keyboard-response","61","305163","0.0-20.0-1.0","A1406","true","img/card_backs/set1/red.gif","img/card_backs/set1/green.gif","img/card_backs/set1/purple.gif","img/card_backs/set1/yellow.gif","img/card_backs/set2/pink.gif","img/card_backs/set2/orange.gif","img/card_backs/set2/gray.gif","img/card_backs/set2/blue.gif","""event"",""trial"",""time""
""blur"",""0"",""0""
""focus"",""1"",""32876""
""fullscreenenter"",""1"",""33834""
","""event"",""trial"",""time""
""blur"",""0"",""0""
","""event"",""trial"",""time""
""focus"",""1"",""32876""
","""event"",""trial"",""time""
""fullscreenenter"",""1"",""33834""
","
","","2542.7999999970198","True is correct! All the decks have a mix of winning and losing cards.","77","","","2021-07-22 22:47:18.582","","","","","true",""
"casino-comp_q","62","307915","0.0-21.0-0.0","A1406","true","img/card_backs/set1/red.gif","img/card_backs/set1/green.gif","img/card_backs/set1/purple.gif","img/card_backs/set1/yellow.gif","img/card_backs/set2/pink.gif","img/card_backs/set2/orange.gif","img/card_backs/set2/gray.gif","img/card_backs/set2/blue.gif","""event"",""trial"",""time""
""blur"",""0"",""0""
""focus"",""1"",""32876""
""fullscreenenter"",""1"",""33834""
","""event"",""trial"",""time""
""blur"",""0"",""0""
","""event"",""trial"",""time""
""focus"",""1"",""32876""
","""event"",""trial"",""time""
""fullscreenenter"",""1"",""33834""
","
","","2751.2000000029802","True or False: You will have as much time as you want to make your response.","70","","","2021-07-22 22:47:21.334","","","","","",""
"casino-keyboard-response","63","310891","0.0-21.0-1.0","A1406","true","img/card_backs/set1/red.gif","img/card_backs/set1/green.gif","img/card_backs/set1/purple.gif","img/card_backs/set1/yellow.gif","img/card_backs/set2/pink.gif","img/card_backs/set2/orange.gif","img/card_backs/set2/gray.gif","img/card_backs/set2/blue.gif","""event"",""trial"",""time""
""blur"",""0"",""0""
""focus"",""1"",""32876""
""fullscreenenter"",""1"",""33834""
","""event"",""trial"",""time""
""blur"",""0"",""0""
","""event"",""trial"",""time""
""focus"",""1"",""32876""
","""event"",""trial"",""time""
""fullscreenenter"",""1"",""33834""
","
","","2975.10000000149","False is correct! You will only have 10 seconds to make each choice.","75","","","2021-07-22 22:47:24.309","","","","","true",""
"casino-comp_q","64","314081","0.0-22.0-0.0","A1406","true","img/card_backs/set1/red.gif","img/card_backs/set1/green.gif","img/card_backs/set1/purple.gif","img/card_backs/set1/yellow.gif","img/card_backs/set2/pink.gif","img/card_backs/set2/orange.gif","img/card_backs/set2/gray.gif","img/card_backs/set2/blue.gif","""event"",""trial"",""time""
""blur"",""0"",""0""
""focus"",""1"",""32876""
""fullscreenenter"",""1"",""33834""
","""event"",""trial"",""time""
""blur"",""0"",""0""
","""event"",""trial"",""time""
""focus"",""1"",""32876""
","""event"",""trial"",""time""
""fullscreenenter"",""1"",""33834""
","
","","3189.10000000149","True or False: The location of the deck determines how lucky it is.","70","","","2021-07-22 22:47:27.499","","","","","",""
"casino-keyboard-response","65","316687","0.0-22.0-1.0","A1406","true","img/card_backs/set1/red.gif","img/card_backs/set1/green.gif","img/card_backs/set1/purple.gif","img/card_backs/set1/yellow.gif","img/card_backs/set2/pink.gif","img/card_backs/set2/orange.gif","img/card_backs/set2/gray.gif","img/card_backs/set2/blue.gif","""event"",""trial"",""time""
""blur"",""0"",""0""
""focus"",""1"",""32876""
""fullscreenenter"",""1"",""33834""
","""event"",""trial"",""time""
""blur"",""0"",""0""
","""event"",""trial"",""time""
""focus"",""1"",""32876""
","""event"",""trial"",""time""
""fullscreenenter"",""1"",""33834""
","
","","2605.10000000149","False is correct! The <i>color</i>  of the deck determines how lucky or unlucky it is.","68","","","2021-07-22 22:47:30.105","","","","","true",""
"casino-keyboard-response","66","320658","0.0-23.0-0.0","A1406","true","img/card_backs/set1/red.gif","img/card_backs/set1/green.gif","img/card_backs/set1/purple.gif","img/card_backs/set1/yellow.gif","img/card_backs/set2/pink.gif","img/card_backs/set2/orange.gif","img/card_backs/set2/gray.gif","img/card_backs/set2/blue.gif","""event"",""trial"",""time""
""blur"",""0"",""0""
""focus"",""1"",""32876""
""fullscreenenter"",""1"",""33834""
","""event"",""trial"",""time""
""blur"",""0"",""0""
","""event"",""trial"",""time""
""focus"",""1"",""32876""
","""event"",""trial"",""time""
""fullscreenenter"",""1"",""33834""
","
","","3970.3000000044703","Great job! Now it's time to start the real game.","82","","instructions","2021-07-22 22:47:34.076","","","","","",""
"casino-keyboard-response","67","325986","0.0-23.0-0.1","A1406","true","img/card_backs/set1/red.gif","img/card_backs/set1/green.gif","img/card_backs/set1/purple.gif","img/card_backs/set1/yellow.gif","img/card_backs/set2/pink.gif","img/card_backs/set2/orange.gif","img/card_backs/set2/gray.gif","img/card_backs/set2/blue.gif","""event"",""trial"",""time""
""blur"",""0"",""0""
""focus"",""1"",""32876""
""fullscreenenter"",""1"",""33834""
","""event"",""trial"",""time""
""blur"",""0"",""0""
","""event"",""trial"",""time""
""focus"",""1"",""32876""
","""event"",""trial"",""time""
""fullscreenenter"",""1"",""33834""
","
","","5326.5","Before we start, we're going to head into a new room of the casino.","86","","instructions","2021-07-22 22:47:39.404","","","","","",""
"casino-keyboard-response","68","332488","0.0-24.0-0.0","A1406","true","img/card_backs/set1/red.gif","img/card_backs/set1/green.gif","img/card_backs/set1/purple.gif","img/card_backs/set1/yellow.gif","img/card_backs/set2/pink.gif","img/card_backs/set2/orange.gif","img/card_backs/set2/gray.gif","img/card_backs/set2/blue.gif","""event"",""trial"",""time""
""blur"",""0"",""0""
""focus"",""1"",""32876""
""fullscreenenter"",""1"",""33834""
","""event"",""trial"",""time""
""blur"",""0"",""0""
","""event"",""trial"",""time""
""focus"",""1"",""32876""
","""event"",""trial"",""time""
""fullscreenenter"",""1"",""33834""
","
","","6502.10000000149","Here we are! The real game will use different cards, but the rules will be the same.","71","","instructions","2021-07-22 22:47:45.907","","","","","",""
"casino-keyboard-response","69","337129","0.0-24.0-0.1","A1406","true","img/card_backs/set1/red.gif","img/card_backs/set1/green.gif","img/card_backs/set1/purple.gif","img/card_backs/set1/yellow.gif","img/card_backs/set2/pink.gif","img/card_backs/set2/orange.gif","img/card_backs/set2/gray.gif","img/card_backs/set2/blue.gif","""event"",""trial"",""time""
""blur"",""0"",""0""
""focus"",""1"",""32876""
""fullscreenenter"",""1"",""33834""
","""event"",""trial"",""time""
""blur"",""0"",""0""
","""event"",""trial"",""time""
""focus"",""1"",""32876""
","""event"",""trial"",""time""
""fullscreenenter"",""1"",""33834""
","
","","4640.10000000149","Ready? Put your fingers over the '2', '4', 6', and '8' keys so you are ready to play the game. </br> Then press 2 to start.","50","","instructions","2021-07-22 22:47:50.547","","","","","",""
"casino-fixation","70","337645","0.0-25.0-0.0","A1406","true","img/card_backs/set1/red.gif","img/card_backs/set1/green.gif","img/card_backs/set1/purple.gif","img/card_backs/set1/yellow.gif","img/card_backs/set2/pink.gif","img/card_backs/set2/orange.gif","img/card_backs/set2/gray.gif","img/card_backs/set2/blue.gif","""event"",""trial"",""time""
""blur"",""0"",""0""
""focus"",""1"",""32876""
""fullscreenenter"",""1"",""33834""
","""event"",""trial"",""time""
""blur"",""0"",""0""
","""event"",""trial"",""time""
""focus"",""1"",""32876""
","""event"",""trial"",""time""
""fullscreenenter"",""1"",""33834""
","
","","null","","null","","fixation","2021-07-22 22:47:51.063","","","","","",""
"card-selection-trial","71","341615","0.0-25.0-1.0","A1406","true","img/card_backs/set1/red.gif","img/card_backs/set1/green.gif","img/card_backs/set1/purple.gif","img/card_backs/set1/yellow.gif","img/card_backs/set2/pink.gif","img/card_backs/set2/orange.gif","img/card_backs/set2/gray.gif","img/card_backs/set2/blue.gif","""event"",""trial"",""time""
""blur"",""0"",""0""
""focus"",""1"",""32876""
""fullscreenenter"",""1"",""33834""
","""event"",""trial"",""time""
""blur"",""0"",""0""
","""event"",""trial"",""time""
""focus"",""1"",""32876""
","""event"",""trial"",""time""
""fullscreenenter"",""1"",""33834""
","
","","1950.2999999970198","","","","real_trial","2021-07-22 22:47:55.033","img/card_backs/set1/purple.gif","2","50","1","",""
"casino-fixation","72","342135","0.0-25.0-0.1","A1406","true","img/card_backs/set1/red.gif","img/card_backs/set1/green.gif","img/card_backs/set1/purple.gif","img/card_backs/set1/yellow.gif","img/card_backs/set2/pink.gif","img/card_backs/set2/orange.gif","img/card_backs/set2/gray.gif","img/card_backs/set2/blue.gif","""event"",""trial"",""time""
""blur"",""0"",""0""
""focus"",""1"",""32876""
""fullscreenenter"",""1"",""33834""
","""event"",""trial"",""time""
""blur"",""0"",""0""
","""event"",""trial"",""time""
""focus"",""1"",""32876""
","""event"",""trial"",""time""
""fullscreenenter"",""1"",""33834""
","
","","null","","null","","fixation","2021-07-22 22:47:55.553","","","","","",""
"card-selection-trial","73","345135","0.0-25.0-1.1","A1406","true","img/card_backs/set1/red.gif","img/card_backs/set1/green.gif","img/card_backs/set1/purple.gif","img/card_backs/set1/yellow.gif","img/card_backs/set2/pink.gif","img/card_backs/set2/orange.gif","img/card_backs/set2/gray.gif","img/card_backs/set2/blue.gif","""event"",""trial"",""time""
""blur"",""0"",""0""
""focus"",""1"",""32876""
""fullscreenenter"",""1"",""33834""
","""event"",""trial"",""time""
""blur"",""0"",""0""
","""event"",""trial"",""time""
""focus"",""1"",""32876""
","""event"",""trial"",""time""
""fullscreenenter"",""1"",""33834""
","
","","985.5","","","","real_trial","2021-07-22 22:47:58.553","img/card_backs/set1/red.gif","2","-200","1","",""
"casino-fixation","74","345655","0.0-25.0-0.2","A1406","true","img/card_backs/set1/red.gif","img/card_backs/set1/green.gif","img/card_backs/set1/purple.gif","img/card_backs/set1/yellow.gif","img/card_backs/set2/pink.gif","img/card_backs/set2/orange.gif","img/card_backs/set2/gray.gif","img/card_backs/set2/blue.gif","""event"",""trial"",""time""
""blur"",""0"",""0""
""focus"",""1"",""32876""
""fullscreenenter"",""1"",""33834""
","""event"",""trial"",""time""
""blur"",""0"",""0""
","""event"",""trial"",""time""
""focus"",""1"",""32876""
","""event"",""trial"",""time""
""fullscreenenter"",""1"",""33834""
","
","","null","","null","","fixation","2021-07-22 22:47:59.073","","","","","",""
"card-selection-trial","75","348895","0.0-25.0-1.2","A1406","true","img/card_backs/set1/red.gif","img/card_backs/set1/green.gif","img/card_backs/set1/purple.gif","img/card_backs/set1/yellow.gif","img/card_backs/set2/pink.gif","img/card_backs/set2/orange.gif","img/card_backs/set2/gray.gif","img/card_backs/set2/blue.gif","""event"",""trial"",""time""
""blur"",""0"",""0""
""focus"",""1"",""32876""
""fullscreenenter"",""1"",""33834""
","""event"",""trial"",""time""
""blur"",""0"",""0""
","""event"",""trial"",""time""
""focus"",""1"",""32876""
","""event"",""trial"",""time""
""fullscreenenter"",""1"",""33834""
","
","","1229.5","","","","real_trial","2021-07-22 22:48:02.313","img/card_backs/set1/green.gif","1","240","1","",""
"casino-fixation","76","349414","0.0-25.0-0.3","A1406","true","img/card_backs/set1/red.gif","img/card_backs/set1/green.gif","img/card_backs/set1/purple.gif","img/card_backs/set1/yellow.gif","img/card_backs/set2/pink.gif","img/card_backs/set2/orange.gif","img/card_backs/set2/gray.gif","img/card_backs/set2/blue.gif","""event"",""trial"",""time""
""blur"",""0"",""0""
""focus"",""1"",""32876""
""fullscreenenter"",""1"",""33834""
","""event"",""trial"",""time""
""blur"",""0"",""0""
","""event"",""trial"",""time""
""focus"",""1"",""32876""
","""event"",""trial"",""time""
""fullscreenenter"",""1"",""33834""
","
","","null","","null","","fixation","2021-07-22 22:48:02.832","","","","","",""
"card-selection-trial","77","354445","0.0-25.0-1.3","A1406","true","img/card_backs/set1/red.gif","img/card_backs/set1/green.gif","img/card_backs/set1/purple.gif","img/card_backs/set1/yellow.gif","img/card_backs/set2/pink.gif","img/card_backs/set2/orange.gif","img/card_backs/set2/gray.gif","img/card_backs/set2/blue.gif","""event"",""trial"",""time""
""blur"",""0"",""0""
""focus"",""1"",""32876""
""fullscreenenter"",""1"",""33834""
","""event"",""trial"",""time""
""blur"",""0"",""0""
","""event"",""trial"",""time""
""focus"",""1"",""32876""
","""event"",""trial"",""time""
""fullscreenenter"",""1"",""33834""
","
","","3016.10000000149","","","","real_trial","2021-07-22 22:48:07.863","img/card_backs/set1/yellow.gif","2","60","1","",""
"casino-fixation","78","354957","0.0-25.0-0.4","A1406","true","img/card_backs/set1/red.gif","img/card_backs/set1/green.gif","img/card_backs/set1/purple.gif","img/card_backs/set1/yellow.gif","img/card_backs/set2/pink.gif","img/card_backs/set2/orange.gif","img/card_backs/set2/gray.gif","img/card_backs/set2/blue.gif","""event"",""trial"",""time""
""blur"",""0"",""0""
""focus"",""1"",""32876""
""fullscreenenter"",""1"",""33834""
","""event"",""trial"",""time""
""blur"",""0"",""0""
","""event"",""trial"",""time""
""focus"",""1"",""32876""
","""event"",""trial"",""time""
""fullscreenenter"",""1"",""33834""
","
","","null","","null","","fixation","2021-07-22 22:48:08.375","","","","","",""
"card-selection-trial","79","359535","0.0-25.0-1.4","A1406","true","img/card_backs/set1/red.gif","img/card_backs/set1/green.gif","img/card_backs/set1/purple.gif","img/card_backs/set1/yellow.gif","img/card_backs/set2/pink.gif","img/card_backs/set2/orange.gif","img/card_backs/set2/gray.gif","img/card_backs/set2/blue.gif","""event"",""trial"",""time""
""blur"",""0"",""0""
""focus"",""1"",""32876""
""fullscreenenter"",""1"",""33834""
","""event"",""trial"",""time""
""blur"",""0"",""0""
","""event"",""trial"",""time""
""focus"",""1"",""32876""
","""event"",""trial"",""time""
""fullscreenenter"",""1"",""33834""
","
","","2557.89999999851","","","","real_trial","2021-07-22 22:48:12.953","img/card_backs/set1/red.gif","1","-190","1","",""
"casino-fixation","80","360054","0.0-25.0-0.5","A1406","true","img/card_backs/set1/red.gif","img/card_backs/set1/green.gif","img/card_backs/set1/purple.gif","img/card_backs/set1/yellow.gif","img/card_backs/set2/pink.gif","img/card_backs/set2/orange.gif","img/card_backs/set2/gray.gif","img/card_backs/set2/blue.gif","""event"",""trial"",""time""
""blur"",""0"",""0""
""focus"",""1"",""32876""
""fullscreenenter"",""1"",""33834""
","""event"",""trial"",""time""
""blur"",""0"",""0""
","""event"",""trial"",""time""
""focus"",""1"",""32876""
","""event"",""trial"",""time""
""fullscreenenter"",""1"",""33834""
","
","","null","","null","","fixation","2021-07-22 22:48:13.472","","","","","",""
"card-selection-trial","81","362815","0.0-25.0-1.5","A1406","true","img/card_backs/set1/red.gif","img/card_backs/set1/green.gif","img/card_backs/set1/purple.gif","img/card_backs/set1/yellow.gif","img/card_backs/set2/pink.gif","img/card_backs/set2/orange.gif","img/card_backs/set2/gray.gif","img/card_backs/set2/blue.gif","""event"",""trial"",""time""
""blur"",""0"",""0""
""focus"",""1"",""32876""
""fullscreenenter"",""1"",""33834""
","""event"",""trial"",""time""
""blur"",""0"",""0""
","""event"",""trial"",""time""
""focus"",""1"",""32876""
","""event"",""trial"",""time""
""fullscreenenter"",""1"",""33834""
","
","","754.1000000014901","","","","real_trial","2021-07-22 22:48:16.233","img/card_backs/set1/green.gif","1","250","1","",""
"casino-fixation","82","363335","0.0-25.0-0.6","A1406","true","img/card_backs/set1/red.gif","img/card_backs/set1/green.gif","img/card_backs/set1/purple.gif","img/card_backs/set1/yellow.gif","img/card_backs/set2/pink.gif","img/card_backs/set2/orange.gif","img/card_backs/set2/gray.gif","img/card_backs/set2/blue.gif","""event"",""trial"",""time""
""blur"",""0"",""0""
""focus"",""1"",""32876""
""fullscreenenter"",""1"",""33834""
","""event"",""trial"",""time""
""blur"",""0"",""0""
","""event"",""trial"",""time""
""focus"",""1"",""32876""
","""event"",""trial"",""time""
""fullscreenenter"",""1"",""33834""
","
","","null","","null","","fixation","2021-07-22 22:48:16.753","","","","","",""
"card-selection-trial","83","366115","0.0-25.0-1.6","A1406","true","img/card_backs/set1/red.gif","img/card_backs/set1/green.gif","img/card_backs/set1/purple.gif","img/card_backs/set1/yellow.gif","img/card_backs/set2/pink.gif","img/card_backs/set2/orange.gif","img/card_backs/set2/gray.gif","img/card_backs/set2/blue.gif","""event"",""trial"",""time""
""blur"",""0"",""0""
""focus"",""1"",""32876""
""fullscreenenter"",""1"",""33834""
","""event"",""trial"",""time""
""blur"",""0"",""0""
","""event"",""trial"",""time""
""focus"",""1"",""32876""
","""event"",""trial"",""time""
""fullscreenenter"",""1"",""33834""
","
","","773.1000000014901","","","","real_trial","2021-07-22 22:48:19.533","img/card_backs/set1/green.gif","1","-210","1","",""
"casino-fixation","84","366635","0.0-25.0-0.7","A1406","true","img/card_backs/set1/red.gif","img/card_backs/set1/green.gif","img/card_backs/set1/purple.gif","img/card_backs/set1/yellow.gif","img/card_backs/set2/pink.gif","img/card_backs/set2/orange.gif","img/card_backs/set2/gray.gif","img/card_backs/set2/blue.gif","""event"",""trial"",""time""
""blur"",""0"",""0""
""focus"",""1"",""32876""
""fullscreenenter"",""1"",""33834""
","""event"",""trial"",""time""
""blur"",""0"",""0""
","""event"",""trial"",""time""
""focus"",""1"",""32876""
","""event"",""trial"",""time""
""fullscreenenter"",""1"",""33834""
","
","","null","","null","","fixation","2021-07-22 22:48:20.053","","","","","",""
"card-selection-trial","85","369845","0.0-25.0-1.7","A1406","true","img/card_backs/set1/red.gif","img/card_backs/set1/green.gif","img/card_backs/set1/purple.gif","img/card_backs/set1/yellow.gif","img/card_backs/set2/pink.gif","img/card_backs/set2/orange.gif","img/card_backs/set2/gray.gif","img/card_backs/set2/blue.gif","""event"",""trial"",""time""
""blur"",""0"",""0""
""focus"",""1"",""32876""
""fullscreenenter"",""1"",""33834""
","""event"",""trial"",""time""
""blur"",""0"",""0""
","""event"",""trial"",""time""
""focus"",""1"",""32876""
","""event"",""trial"",""time""
""fullscreenenter"",""1"",""33834""
","
","","1207.7000000029802","","","","real_trial","2021-07-22 22:48:23.263","img/card_backs/set1/green.gif","2","240","1","",""
"casino-fixation","86","370346","0.0-25.0-0.8","A1406","true","img/card_backs/set1/red.gif","img/card_backs/set1/green.gif","img/card_backs/set1/purple.gif","img/card_backs/set1/yellow.gif","img/card_backs/set2/pink.gif","img/card_backs/set2/orange.gif","img/card_backs/set2/gray.gif","img/card_backs/set2/blue.gif","""event"",""trial"",""time""
""blur"",""0"",""0""
""focus"",""1"",""32876""
""fullscreenenter"",""1"",""33834""
","""event"",""trial"",""time""
""blur"",""0"",""0""
","""event"",""trial"",""time""
""focus"",""1"",""32876""
","""event"",""trial"",""time""
""fullscreenenter"",""1"",""33834""
","
","","null","","null","","fixation","2021-07-22 22:48:23.764","","","","","",""
"card-selection-trial","87","373152","0.0-25.0-1.8","A1406","true","img/card_backs/set1/red.gif","img/card_backs/set1/green.gif","img/card_backs/set1/purple.gif","img/card_backs/set1/yellow.gif","img/card_backs/set2/pink.gif","img/card_backs/set2/orange.gif","img/card_backs/set2/gray.gif","img/card_backs/set2/blue.gif","""event"",""trial"",""time""
""blur"",""0"",""0""
""focus"",""1"",""32876""
""fullscreenenter"",""1"",""33834""
","""event"",""trial"",""time""
""blur"",""0"",""0""
","""event"",""trial"",""time""
""focus"",""1"",""32876""
","""event"",""trial"",""time""
""fullscreenenter"",""1"",""33834""
","
","","802.5","","","","real_trial","2021-07-22 22:48:26.570","img/card_backs/set1/purple.gif","0","50","1","",""
"casino-fixation","88","373653","0.0-25.0-0.9","A1406","true","img/card_backs/set1/red.gif","img/card_backs/set1/green.gif","img/card_backs/set1/purple.gif","img/card_backs/set1/yellow.gif","img/card_backs/set2/pink.gif","img/card_backs/set2/orange.gif","img/card_backs/set2/gray.gif","img/card_backs/set2/blue.gif","""event"",""trial"",""time""
""blur"",""0"",""0""
""focus"",""1"",""32876""
""fullscreenenter"",""1"",""33834""
","""event"",""trial"",""time""
""blur"",""0"",""0""
","""event"",""trial"",""time""
""focus"",""1"",""32876""
","""event"",""trial"",""time""
""fullscreenenter"",""1"",""33834""
","
","","null","","null","","fixation","2021-07-22 22:48:27.071","","","","","",""
"card-selection-trial","89","379149","0.0-25.0-1.9","A1406","true","img/card_backs/set1/red.gif","img/card_backs/set1/green.gif","img/card_backs/set1/purple.gif","img/card_backs/set1/yellow.gif","img/card_backs/set2/pink.gif","img/card_backs/set2/orange.gif","img/card_backs/set2/gray.gif","img/card_backs/set2/blue.gif","""event"",""trial"",""time""
""blur"",""0"",""0""
""focus"",""1"",""32876""
""fullscreenenter"",""1"",""33834""
","""event"",""trial"",""time""
""blur"",""0"",""0""
","""event"",""trial"",""time""
""focus"",""1"",""32876""
","""event"",""trial"",""time""
""fullscreenenter"",""1"",""33834""
","
","","3493.2999999970198","","","","real_trial","2021-07-22 22:48:32.567","img/card_backs/set1/red.gif","0","-190","1","",""
"casino-fixation","90","379650","0.0-25.0-0.10","A1406","true","img/card_backs/set1/red.gif","img/card_backs/set1/green.gif","img/card_backs/set1/purple.gif","img/card_backs/set1/yellow.gif","img/card_backs/set2/pink.gif","img/card_backs/set2/orange.gif","img/card_backs/set2/gray.gif","img/card_backs/set2/blue.gif","""event"",""trial"",""time""
""blur"",""0"",""0""
""focus"",""1"",""32876""
""fullscreenenter"",""1"",""33834""
","""event"",""trial"",""time""
""blur"",""0"",""0""
","""event"",""trial"",""time""
""focus"",""1"",""32876""
","""event"",""trial"",""time""
""fullscreenenter"",""1"",""33834""
","
","","null","","null","","fixation","2021-07-22 22:48:33.068","","","","","",""
"card-selection-trial","91","382786","0.0-25.0-1.10","A1406","true","img/card_backs/set1/red.gif","img/card_backs/set1/green.gif","img/card_backs/set1/purple.gif","img/card_backs/set1/yellow.gif","img/card_backs/set2/pink.gif","img/card_backs/set2/orange.gif","img/card_backs/set2/gray.gif","img/card_backs/set2/blue.gif","""event"",""trial"",""time""
""blur"",""0"",""0""
""focus"",""1"",""32876""
""fullscreenenter"",""1"",""33834""
","""event"",""trial"",""time""
""blur"",""0"",""0""
","""event"",""trial"",""time""
""focus"",""1"",""32876""
","""event"",""trial"",""time""
""fullscreenenter"",""1"",""33834""
","
","","1132.6000000014901","","","","real_trial","2021-07-22 22:48:36.204","img/card_backs/set1/green.gif","1","-190","1","",""
"casino-fixation","92","383287","0.0-25.0-0.11","A1406","true","img/card_backs/set1/red.gif","img/card_backs/set1/green.gif","img/card_backs/set1/purple.gif","img/card_backs/set1/yellow.gif","img/card_backs/set2/pink.gif","img/card_backs/set2/orange.gif","img/card_backs/set2/gray.gif","img/card_backs/set2/blue.gif","""event"",""trial"",""time""
""blur"",""0"",""0""
""focus"",""1"",""32876""
""fullscreenenter"",""1"",""33834""
","""event"",""trial"",""time""
""blur"",""0"",""0""
","""event"",""trial"",""time""
""focus"",""1"",""32876""
","""event"",""trial"",""time""
""fullscreenenter"",""1"",""33834""
","
","","null","","null","","fixation","2021-07-22 22:48:36.705","","","","","",""
"card-selection-trial","93","386128","0.0-25.0-1.11","A1406","true","img/card_backs/set1/red.gif","img/card_backs/set1/green.gif","img/card_backs/set1/purple.gif","img/card_backs/set1/yellow.gif","img/card_backs/set2/pink.gif","img/card_backs/set2/orange.gif","img/card_backs/set2/gray.gif","img/card_backs/set2/blue.gif","""event"",""trial"",""time""
""blur"",""0"",""0""
""focus"",""1"",""32876""
""fullscreenenter"",""1"",""33834""
","""event"",""trial"",""time""
""blur"",""0"",""0""
","""event"",""trial"",""time""
""focus"",""1"",""32876""
","""event"",""trial"",""time""
""fullscreenenter"",""1"",""33834""
","
","","837.2000000029802","","","","real_trial","2021-07-22 22:48:39.546","img/card_backs/set1/green.gif","2","240","1","",""
"casino-fixation","94","386630","0.0-25.0-0.12","A1406","true","img/card_backs/set1/red.gif","img/card_backs/set1/green.gif","img/card_backs/set1/purple.gif","img/card_backs/set1/yellow.gif","img/card_backs/set2/pink.gif","img/card_backs/set2/orange.gif","img/card_backs/set2/gray.gif","img/card_backs/set2/blue.gif","""event"",""trial"",""time""
""blur"",""0"",""0""
""focus"",""1"",""32876""
""fullscreenenter"",""1"",""33834""
","""event"",""trial"",""time""
""blur"",""0"",""0""
","""event"",""trial"",""time""
""focus"",""1"",""32876""
","""event"",""trial"",""time""
""fullscreenenter"",""1"",""33834""
","
","","null","","null","","fixation","2021-07-22 22:48:40.048","","","","","",""
"card-selection-trial","95","389289","0.0-25.0-1.12","A1406","true","img/card_backs/set1/red.gif","img/card_backs/set1/green.gif","img/card_backs/set1/purple.gif","img/card_backs/set1/yellow.gif","img/card_backs/set2/pink.gif","img/card_backs/set2/orange.gif","img/card_backs/set2/gray.gif","img/card_backs/set2/blue.gif","""event"",""trial"",""time""
""blur"",""0"",""0""
""focus"",""1"",""32876""
""fullscreenenter"",""1"",""33834""
","""event"",""trial"",""time""
""blur"",""0"",""0""
","""event"",""trial"",""time""
""focus"",""1"",""32876""
","""event"",""trial"",""time""
""fullscreenenter"",""1"",""33834""
","
","","656.8999999985099","","","","real_trial","2021-07-22 22:48:42.707","img/card_backs/set1/green.gif","2","-200","1","",""
"casino-fixation","96","389790","0.0-25.0-0.13","A1406","true","img/card_backs/set1/red.gif","img/card_backs/set1/green.gif","img/card_backs/set1/purple.gif","img/card_backs/set1/yellow.gif","img/card_backs/set2/pink.gif","img/card_backs/set2/orange.gif","img/card_backs/set2/gray.gif","img/card_backs/set2/blue.gif","""event"",""trial"",""time""
""blur"",""0"",""0""
""focus"",""1"",""32876""
""fullscreenenter"",""1"",""33834""
","""event"",""trial"",""time""
""blur"",""0"",""0""
","""event"",""trial"",""time""
""focus"",""1"",""32876""
","""event"",""trial"",""time""
""fullscreenenter"",""1"",""33834""
","
","","null","","null","","fixation","2021-07-22 22:48:43.208","","","","","",""
"card-selection-trial","97","392392","0.0-25.0-1.13","A1406","true","img/card_backs/set1/red.gif","img/card_backs/set1/green.gif","img/card_backs/set1/purple.gif","img/card_backs/set1/yellow.gif","img/card_backs/set2/pink.gif","img/card_backs/set2/orange.gif","img/card_backs/set2/gray.gif","img/card_backs/set2/blue.gif","""event"",""trial"",""time""
""blur"",""0"",""0""
""focus"",""1"",""32876""
""fullscreenenter"",""1"",""33834""
","""event"",""trial"",""time""
""blur"",""0"",""0""
","""event"",""trial"",""time""
""focus"",""1"",""32876""
","""event"",""trial"",""time""
""fullscreenenter"",""1"",""33834""
","
","","598.7000000029802","","","","real_trial","2021-07-22 22:48:45.810","img/card_backs/set1/green.gif","1","-190","1","",""
"casino-fixation","98","392893","0.0-25.0-0.14","A1406","true","img/card_backs/set1/red.gif","img/card_backs/set1/green.gif","img/card_backs/set1/purple.gif","img/card_backs/set1/yellow.gif","img/card_backs/set2/pink.gif","img/card_backs/set2/orange.gif","img/card_backs/set2/gray.gif","img/card_backs/set2/blue.gif","""event"",""trial"",""time""
""blur"",""0"",""0""
""focus"",""1"",""32876""
""fullscreenenter"",""1"",""33834""
","""event"",""trial"",""time""
""blur"",""0"",""0""
","""event"",""trial"",""time""
""focus"",""1"",""32876""
","""event"",""trial"",""time""
""fullscreenenter"",""1"",""33834""
","
","","null","","null","","fixation","2021-07-22 22:48:46.311","","","","","",""
"card-selection-trial","99","396426","0.0-25.0-1.14","A1406","true","img/card_backs/set1/red.gif","img/card_backs/set1/green.gif","img/card_backs/set1/purple.gif","img/card_backs/set1/yellow.gif","img/card_backs/set2/pink.gif","img/card_backs/set2/orange.gif","img/card_backs/set2/gray.gif","img/card_backs/set2/blue.gif","""event"",""trial"",""time""
""blur"",""0"",""0""
""focus"",""1"",""32876""
""fullscreenenter"",""1"",""33834""
","""event"",""trial"",""time""
""blur"",""0"",""0""
","""event"",""trial"",""time""
""focus"",""1"",""32876""
","""event"",""trial"",""time""
""fullscreenenter"",""1"",""33834""
","
","","1530","","","","real_trial","2021-07-22 22:48:49.844","img/card_backs/set1/purple.gif","3","-90","1","",""
"casino-fixation","100","396927","0.0-25.0-0.15","A1406","true","img/card_backs/set1/red.gif","img/card_backs/set1/green.gif","img/card_backs/set1/purple.gif","img/card_backs/set1/yellow.gif","img/card_backs/set2/pink.gif","img/card_backs/set2/orange.gif","img/card_backs/set2/gray.gif","img/card_backs/set2/blue.gif","""event"",""trial"",""time""
""blur"",""0"",""0""
""focus"",""1"",""32876""
""fullscreenenter"",""1"",""33834""
","""event"",""trial"",""time""
""blur"",""0"",""0""
","""event"",""trial"",""time""
""focus"",""1"",""32876""
","""event"",""trial"",""time""
""fullscreenenter"",""1"",""33834""
","
","","null","","null","","fixation","2021-07-22 22:48:50.345","","","","","",""
"card-selection-trial","101","400854","0.0-25.0-1.15","A1406","true","img/card_backs/set1/red.gif","img/card_backs/set1/green.gif","img/card_backs/set1/purple.gif","img/card_backs/set1/yellow.gif","img/card_backs/set2/pink.gif","img/card_backs/set2/orange.gif","img/card_backs/set2/gray.gif","img/card_backs/set2/blue.gif","""event"",""trial"",""time""
""blur"",""0"",""0""
""focus"",""1"",""32876""
""fullscreenenter"",""1"",""33834""
","""event"",""trial"",""time""
""blur"",""0"",""0""
","""event"",""trial"",""time""
""focus"",""1"",""32876""
","""event"",""trial"",""time""
""fullscreenenter"",""1"",""33834""
","
","","1922.7999999970198","","","","real_trial","2021-07-22 22:48:54.272","img/card_backs/set1/yellow.gif","2","-100","1","",""
"casino-fixation","102","401355","0.0-25.0-0.16","A1406","true","img/card_backs/set1/red.gif","img/card_backs/set1/green.gif","img/card_backs/set1/purple.gif","img/card_backs/set1/yellow.gif","img/card_backs/set2/pink.gif","img/card_backs/set2/orange.gif","img/card_backs/set2/gray.gif","img/card_backs/set2/blue.gif","""event"",""trial"",""time""
""blur"",""0"",""0""
""focus"",""1"",""32876""
""fullscreenenter"",""1"",""33834""
","""event"",""trial"",""time""
""blur"",""0"",""0""
","""event"",""trial"",""time""
""focus"",""1"",""32876""
","""event"",""trial"",""time""
""fullscreenenter"",""1"",""33834""
","
","","null","","null","","fixation","2021-07-22 22:48:54.773","","","","","",""
"card-selection-trial","103","404734","0.0-25.0-1.16","A1406","true","img/card_backs/set1/red.gif","img/card_backs/set1/green.gif","img/card_backs/set1/purple.gif","img/card_backs/set1/yellow.gif","img/card_backs/set2/pink.gif","img/card_backs/set2/orange.gif","img/card_backs/set2/gray.gif","img/card_backs/set2/blue.gif","""event"",""trial"",""time""
""blur"",""0"",""0""
""focus"",""1"",""32876""
""fullscreenenter"",""1"",""33834""
","""event"",""trial"",""time""
""blur"",""0"",""0""
","""event"",""trial"",""time""
""focus"",""1"",""32876""
","""event"",""trial"",""time""
""fullscreenenter"",""1"",""33834""
","
","","1375.8999999985099","","","","real_trial","2021-07-22 22:48:58.152","img/card_backs/set1/green.gif","3","240","1","",""
"casino-fixation","104","405236","0.0-25.0-0.17","A1406","true","img/card_backs/set1/red.gif","img/card_backs/set1/green.gif","img/card_backs/set1/purple.gif","img/card_backs/set1/yellow.gif","img/card_backs/set2/pink.gif","img/card_backs/set2/orange.gif","img/card_backs/set2/gray.gif","img/card_backs/set2/blue.gif","""event"",""trial"",""time""
""blur"",""0"",""0""
""focus"",""1"",""32876""
""fullscreenenter"",""1"",""33834""
","""event"",""trial"",""time""
""blur"",""0"",""0""
","""event"",""trial"",""time""
""focus"",""1"",""32876""
","""event"",""trial"",""time""
""fullscreenenter"",""1"",""33834""
","
","","null","","null","","fixation","2021-07-22 22:48:58.654","","","","","",""
"card-selection-trial","105","407851","0.0-25.0-1.17","A1406","true","img/card_backs/set1/red.gif","img/card_backs/set1/green.gif","img/card_backs/set1/purple.gif","img/card_backs/set1/yellow.gif","img/card_backs/set2/pink.gif","img/card_backs/set2/orange.gif","img/card_backs/set2/gray.gif","img/card_backs/set2/blue.gif","""event"",""trial"",""time""
""blur"",""0"",""0""
""focus"",""1"",""32876""
""fullscreenenter"",""1"",""33834""
","""event"",""trial"",""time""
""blur"",""0"",""0""
","""event"",""trial"",""time""
""focus"",""1"",""32876""
","""event"",""trial"",""time""
""fullscreenenter"",""1"",""33834""
","
","","613","","","","real_trial","2021-07-22 22:49:01.269","img/card_backs/set1/red.gif","2","-210","1","",""
"casino-fixation","106","408352","0.0-25.0-0.18","A1406","true","img/card_backs/set1/red.gif","img/card_backs/set1/green.gif","img/card_backs/set1/purple.gif","img/card_backs/set1/yellow.gif","img/card_backs/set2/pink.gif","img/card_backs/set2/orange.gif","img/card_backs/set2/gray.gif","img/card_backs/set2/blue.gif","""event"",""trial"",""time""
""blur"",""0"",""0""
""focus"",""1"",""32876""
""fullscreenenter"",""1"",""33834""
","""event"",""trial"",""time""
""blur"",""0"",""0""
","""event"",""trial"",""time""
""focus"",""1"",""32876""
","""event"",""trial"",""time""
""fullscreenenter"",""1"",""33834""
","
","","null","","null","","fixation","2021-07-22 22:49:01.770","","","","","",""
"card-selection-trial","107","411245","0.0-25.0-1.18","A1406","true","img/card_backs/set1/red.gif","img/card_backs/set1/green.gif","img/card_backs/set1/purple.gif","img/card_backs/set1/yellow.gif","img/card_backs/set2/pink.gif","img/card_backs/set2/orange.gif","img/card_backs/set2/gray.gif","img/card_backs/set2/blue.gif","""event"",""trial"",""time""
""blur"",""0"",""0""
""focus"",""1"",""32876""
""fullscreenenter"",""1"",""33834""
","""event"",""trial"",""time""
""blur"",""0"",""0""
","""event"",""trial"",""time""
""focus"",""1"",""32876""
","""event"",""trial"",""time""
""fullscreenenter"",""1"",""33834""
","
","","890.6000000014901","","","","real_trial","2021-07-22 22:49:04.663","img/card_backs/set1/purple.gif","1","-100","1","",""
"casino-fixation","108","411746","0.0-25.0-0.19","A1406","true","img/card_backs/set1/red.gif","img/card_backs/set1/green.gif","img/card_backs/set1/purple.gif","img/card_backs/set1/yellow.gif","img/card_backs/set2/pink.gif","img/card_backs/set2/orange.gif","img/card_backs/set2/gray.gif","img/card_backs/set2/blue.gif","""event"",""trial"",""time""
""blur"",""0"",""0""
""focus"",""1"",""32876""
""fullscreenenter"",""1"",""33834""
","""event"",""trial"",""time""
""blur"",""0"",""0""
","""event"",""trial"",""time""
""focus"",""1"",""32876""
","""event"",""trial"",""time""
""fullscreenenter"",""1"",""33834""
","
","","null","","null","","fixation","2021-07-22 22:49:05.165","","","","","",""
"card-selection-trial","109","414318","0.0-25.0-1.19","A1406","true","img/card_backs/set1/red.gif","img/card_backs/set1/green.gif","img/card_backs/set1/purple.gif","img/card_backs/set1/yellow.gif","img/card_backs/set2/pink.gif","img/card_backs/set2/orange.gif","img/card_backs/set2/gray.gif","img/card_backs/set2/blue.gif","""event"",""trial"",""time""
""blur"",""0"",""0""
""focus"",""1"",""32876""
""fullscreenenter"",""1"",""33834""
","""event"",""trial"",""time""
""blur"",""0"",""0""
","""event"",""trial"",""time""
""focus"",""1"",""32876""
","""event"",""trial"",""time""
""fullscreenenter"",""1"",""33834""
","
","","568.2000000029802","","","","real_trial","2021-07-22 22:49:07.736","img/card_backs/set1/yellow.gif","0","40","1","",""
"casino-fixation","110","414818","0.0-25.0-0.20","A1406","true","img/card_backs/set1/red.gif","img/card_backs/set1/green.gif","img/card_backs/set1/purple.gif","img/card_backs/set1/yellow.gif","img/card_backs/set2/pink.gif","img/card_backs/set2/orange.gif","img/card_backs/set2/gray.gif","img/card_backs/set2/blue.gif","""event"",""trial"",""time""
""blur"",""0"",""0""
""focus"",""1"",""32876""
""fullscreenenter"",""1"",""33834""
","""event"",""trial"",""time""
""blur"",""0"",""0""
","""event"",""trial"",""time""
""focus"",""1"",""32876""
","""event"",""trial"",""time""
""fullscreenenter"",""1"",""33834""
","
","","null","","null","","fixation","2021-07-22 22:49:08.236","","","","","",""
"card-selection-trial","111","417862","0.0-25.0-1.20","A1406","true","img/card_backs/set1/red.gif","img/card_backs/set1/green.gif","img/card_backs/set1/purple.gif","img/card_backs/set1/yellow.gif","img/card_backs/set2/pink.gif","img/card_backs/set2/orange.gif","img/card_backs/set2/gray.gif","img/card_backs/set2/blue.gif","""event"",""trial"",""time""
""blur"",""0"",""0""
""focus"",""1"",""32876""
""fullscreenenter"",""1"",""33834""
","""event"",""trial"",""time""
""blur"",""0"",""0""
","""event"",""trial"",""time""
""focus"",""1"",""32876""
","""event"",""trial"",""time""
""fullscreenenter"",""1"",""33834""
","
","","1040.3999999985099","","","","real_trial","2021-07-22 22:49:11.280","img/card_backs/set1/green.gif","2","250","1","",""
"casino-fixation","112","418363","0.0-25.0-0.21","A1406","true","img/card_backs/set1/red.gif","img/card_backs/set1/green.gif","img/card_backs/set1/purple.gif","img/card_backs/set1/yellow.gif","img/card_backs/set2/pink.gif","img/card_backs/set2/orange.gif","img/card_backs/set2/gray.gif","img/card_backs/set2/blue.gif","""event"",""trial"",""time""
""blur"",""0"",""0""
""focus"",""1"",""32876""
""fullscreenenter"",""1"",""33834""
","""event"",""trial"",""time""
""blur"",""0"",""0""
","""event"",""trial"",""time""
""focus"",""1"",""32876""
","""event"",""trial"",""time""
""fullscreenenter"",""1"",""33834""
","
","","null","","null","","fixation","2021-07-22 22:49:11.781","","","","","",""
"card-selection-trial","113","421165","0.0-25.0-1.21","A1406","true","img/card_backs/set1/red.gif","img/card_backs/set1/green.gif","img/card_backs/set1/purple.gif","img/card_backs/set1/yellow.gif","img/card_backs/set2/pink.gif","img/card_backs/set2/orange.gif","img/card_backs/set2/gray.gif","img/card_backs/set2/blue.gif","""event"",""trial"",""time""
""blur"",""0"",""0""
""focus"",""1"",""32876""
""fullscreenenter"",""1"",""33834""
","""event"",""trial"",""time""
""blur"",""0"",""0""
","""event"",""trial"",""time""
""focus"",""1"",""32876""
","""event"",""trial"",""time""
""fullscreenenter"",""1"",""33834""
","
","","800.1000000014901","","","","real_trial","2021-07-22 22:49:14.583","img/card_backs/set1/green.gif","1","250","1","",""
"casino-fixation","114","421668","0.0-25.0-0.22","A1406","true","img/card_backs/set1/red.gif","img/card_backs/set1/green.gif","img/card_backs/set1/purple.gif","img/card_backs/set1/yellow.gif","img/card_backs/set2/pink.gif","img/card_backs/set2/orange.gif","img/card_backs/set2/gray.gif","img/card_backs/set2/blue.gif","""event"",""trial"",""time""
""blur"",""0"",""0""
""focus"",""1"",""32876""
""fullscreenenter"",""1"",""33834""
","""event"",""trial"",""time""
""blur"",""0"",""0""
","""event"",""trial"",""time""
""focus"",""1"",""32876""
","""event"",""trial"",""time""
""fullscreenenter"",""1"",""33834""
","
","","null","","null","","fixation","2021-07-22 22:49:15.086","","","","","",""
"card-selection-trial","115","425064","0.0-25.0-1.22","A1406","true","img/card_backs/set1/red.gif","img/card_backs/set1/green.gif","img/card_backs/set1/purple.gif","img/card_backs/set1/yellow.gif","img/card_backs/set2/pink.gif","img/card_backs/set2/orange.gif","img/card_backs/set2/gray.gif","img/card_backs/set2/blue.gif","""event"",""trial"",""time""
""blur"",""0"",""0""
""focus"",""1"",""32876""
""fullscreenenter"",""1"",""33834""
","""event"",""trial"",""time""
""blur"",""0"",""0""
","""event"",""trial"",""time""
""focus"",""1"",""32876""
","""event"",""trial"",""time""
""fullscreenenter"",""1"",""33834""
","
","","1392.8999999985099","","","","real_trial","2021-07-22 22:49:18.482","img/card_backs/set1/yellow.gif","2","-100","1","",""
"casino-fixation","116","425565","0.0-25.0-0.23","A1406","true","img/card_backs/set1/red.gif","img/card_backs/set1/green.gif","img/card_backs/set1/purple.gif","img/card_backs/set1/yellow.gif","img/card_backs/set2/pink.gif","img/card_backs/set2/orange.gif","img/card_backs/set2/gray.gif","img/card_backs/set2/blue.gif","""event"",""trial"",""time""
""blur"",""0"",""0""
""focus"",""1"",""32876""
""fullscreenenter"",""1"",""33834""
","""event"",""trial"",""time""
""blur"",""0"",""0""
","""event"",""trial"",""time""
""focus"",""1"",""32876""
","""event"",""trial"",""time""
""fullscreenenter"",""1"",""33834""
","
","","null","","null","","fixation","2021-07-22 22:49:18.983","","","","","",""
"card-selection-trial","117","428189","0.0-25.0-1.23","A1406","true","img/card_backs/set1/red.gif","img/card_backs/set1/green.gif","img/card_backs/set1/purple.gif","img/card_backs/set1/yellow.gif","img/card_backs/set2/pink.gif","img/card_backs/set2/orange.gif","img/card_backs/set2/gray.gif","img/card_backs/set2/blue.gif","""event"",""trial"",""time""
""blur"",""0"",""0""
""focus"",""1"",""32876""
""fullscreenenter"",""1"",""33834""
","""event"",""trial"",""time""
""blur"",""0"",""0""
","""event"",""trial"",""time""
""focus"",""1"",""32876""
","""event"",""trial"",""time""
""fullscreenenter"",""1"",""33834""
","
","","621.7000000029802","","","","real_trial","2021-07-22 22:49:21.608","img/card_backs/set1/green.gif","3","260","1","",""
"casino-fixation","118","428691","0.0-25.0-0.24","A1406","true","img/card_backs/set1/red.gif","img/card_backs/set1/green.gif","img/card_backs/set1/purple.gif","img/card_backs/set1/yellow.gif","img/card_backs/set2/pink.gif","img/card_backs/set2/orange.gif","img/card_backs/set2/gray.gif","img/card_backs/set2/blue.gif","""event"",""trial"",""time""
""blur"",""0"",""0""
""focus"",""1"",""32876""
""fullscreenenter"",""1"",""33834""
","""event"",""trial"",""time""
""blur"",""0"",""0""
","""event"",""trial"",""time""
""focus"",""1"",""32876""
","""event"",""trial"",""time""
""fullscreenenter"",""1"",""33834""
","
","","null","","null","","fixation","2021-07-22 22:49:22.109","","","","","",""
"card-selection-trial","119","431478","0.0-25.0-1.24","A1406","true","img/card_backs/set1/red.gif","img/card_backs/set1/green.gif","img/card_backs/set1/purple.gif","img/card_backs/set1/yellow.gif","img/card_backs/set2/pink.gif","img/card_backs/set2/orange.gif","img/card_backs/set2/gray.gif","img/card_backs/set2/blue.gif","""event"",""trial"",""time""
""blur"",""0"",""0""
""focus"",""1"",""32876""
""fullscreenenter"",""1"",""33834""
","""event"",""trial"",""time""
""blur"",""0"",""0""
","""event"",""trial"",""time""
""focus"",""1"",""32876""
","""event"",""trial"",""time""
""fullscreenenter"",""1"",""33834""
","
","","775.8999999985099","","","","real_trial","2021-07-22 22:49:24.897","img/card_backs/set1/green.gif","0","250","1","",""
"casino-fixation","120","431980","0.0-25.0-0.25","A1406","true","img/card_backs/set1/red.gif","img/card_backs/set1/green.gif","img/card_backs/set1/purple.gif","img/card_backs/set1/yellow.gif","img/card_backs/set2/pink.gif","img/card_backs/set2/orange.gif","img/card_backs/set2/gray.gif","img/card_backs/set2/blue.gif","""event"",""trial"",""time""
""blur"",""0"",""0""
""focus"",""1"",""32876""
""fullscreenenter"",""1"",""33834""
","""event"",""trial"",""time""
""blur"",""0"",""0""
","""event"",""trial"",""time""
""focus"",""1"",""32876""
","""event"",""trial"",""time""
""fullscreenenter"",""1"",""33834""
","
","","null","","null","","fixation","2021-07-22 22:49:25.398","","","","","",""
"card-selection-trial","121","435382","0.0-25.0-1.25","A1406","true","img/card_backs/set1/red.gif","img/card_backs/set1/green.gif","img/card_backs/set1/purple.gif","img/card_backs/set1/yellow.gif","img/card_backs/set2/pink.gif","img/card_backs/set2/orange.gif","img/card_backs/set2/gray.gif","img/card_backs/set2/blue.gif","""event"",""trial"",""time""
""blur"",""0"",""0""
""focus"",""1"",""32876""
""fullscreenenter"",""1"",""33834""
","""event"",""trial"",""time""
""blur"",""0"",""0""
","""event"",""trial"",""time""
""focus"",""1"",""32876""
","""event"",""trial"",""time""
""fullscreenenter"",""1"",""33834""
","
","","1399.2000000029802","","","","real_trial","2021-07-22 22:49:28.800","img/card_backs/set1/yellow.gif","1","50","1","",""
"casino-fixation","122","435883","0.0-25.0-0.26","A1406","true","img/card_backs/set1/red.gif","img/card_backs/set1/green.gif","img/card_backs/set1/purple.gif","img/card_backs/set1/yellow.gif","img/card_backs/set2/pink.gif","img/card_backs/set2/orange.gif","img/card_backs/set2/gray.gif","img/card_backs/set2/blue.gif","""event"",""trial"",""time""
""blur"",""0"",""0""
""focus"",""1"",""32876""
""fullscreenenter"",""1"",""33834""
","""event"",""trial"",""time""
""blur"",""0"",""0""
","""event"",""trial"",""time""
""focus"",""1"",""32876""
","""event"",""trial"",""time""
""fullscreenenter"",""1"",""33834""
","
","","null","","null","","fixation","2021-07-22 22:49:29.301","","","","","",""
"card-selection-trial","123","438579","0.0-25.0-1.26","A1406","true","img/card_backs/set1/red.gif","img/card_backs/set1/green.gif","img/card_backs/set1/purple.gif","img/card_backs/set1/yellow.gif","img/card_backs/set2/pink.gif","img/card_backs/set2/orange.gif","img/card_backs/set2/gray.gif","img/card_backs/set2/blue.gif","""event"",""trial"",""time""
""blur"",""0"",""0""
""focus"",""1"",""32876""
""fullscreenenter"",""1"",""33834""
","""event"",""trial"",""time""
""blur"",""0"",""0""
","""event"",""trial"",""time""
""focus"",""1"",""32876""
","""event"",""trial"",""time""
""fullscreenenter"",""1"",""33834""
","
","","694.3000000044703","","","","real_trial","2021-07-22 22:49:31.998","img/card_backs/set1/green.gif","2","-190","1","",""
"casino-fixation","124","439080","0.0-25.0-0.27","A1406","true","img/card_backs/set1/red.gif","img/card_backs/set1/green.gif","img/card_backs/set1/purple.gif","img/card_backs/set1/yellow.gif","img/card_backs/set2/pink.gif","img/card_backs/set2/orange.gif","img/card_backs/set2/gray.gif","img/card_backs/set2/blue.gif","""event"",""trial"",""time""
""blur"",""0"",""0""
""focus"",""1"",""32876""
""fullscreenenter"",""1"",""33834""
","""event"",""trial"",""time""
""blur"",""0"",""0""
","""event"",""trial"",""time""
""focus"",""1"",""32876""
","""event"",""trial"",""time""
""fullscreenenter"",""1"",""33834""
","
","","null","","null","","fixation","2021-07-22 22:49:32.498","","","","","",""
"card-selection-trial","125","441408","0.0-25.0-1.27","A1406","true","img/card_backs/set1/red.gif","img/card_backs/set1/green.gif","img/card_backs/set1/purple.gif","img/card_backs/set1/yellow.gif","img/card_backs/set2/pink.gif","img/card_backs/set2/orange.gif","img/card_backs/set2/gray.gif","img/card_backs/set2/blue.gif","""event"",""trial"",""time""
""blur"",""0"",""0""
""focus"",""1"",""32876""
""fullscreenenter"",""1"",""33834""
","""event"",""trial"",""time""
""blur"",""0"",""0""
","""event"",""trial"",""time""
""focus"",""1"",""32876""
","""event"",""trial"",""time""
""fullscreenenter"",""1"",""33834""
","
","","324.3999999985099","","","","real_trial","2021-07-22 22:49:34.826","img/card_backs/set1/yellow.gif","1","50","1","",""
"casino-fixation","126","441908","0.0-25.0-0.28","A1406","true","img/card_backs/set1/red.gif","img/card_backs/set1/green.gif","img/card_backs/set1/purple.gif","img/card_backs/set1/yellow.gif","img/card_backs/set2/pink.gif","img/card_backs/set2/orange.gif","img/card_backs/set2/gray.gif","img/card_backs/set2/blue.gif","""event"",""trial"",""time""
""blur"",""0"",""0""
""focus"",""1"",""32876""
""fullscreenenter"",""1"",""33834""
","""event"",""trial"",""time""
""blur"",""0"",""0""
","""event"",""trial"",""time""
""focus"",""1"",""32876""
","""event"",""trial"",""time""
""fullscreenenter"",""1"",""33834""
","
","","null","","null","","fixation","2021-07-22 22:49:35.326","","","","","",""
"card-selection-trial","127","444418","0.0-25.0-1.28","A1406","true","img/card_backs/set1/red.gif","img/card_backs/set1/green.gif","img/card_backs/set1/purple.gif","img/card_backs/set1/yellow.gif","img/card_backs/set2/pink.gif","img/card_backs/set2/orange.gif","img/card_backs/set2/gray.gif","img/card_backs/set2/blue.gif","""event"",""trial"",""time""
""blur"",""0"",""0""
""focus"",""1"",""32876""
""fullscreenenter"",""1"",""33834""
","""event"",""trial"",""time""
""blur"",""0"",""0""
","""event"",""trial"",""time""
""focus"",""1"",""32876""
","""event"",""trial"",""time""
""fullscreenenter"",""1"",""33834""
","
","","506.29999999701977","","","","real_trial","2021-07-22 22:49:37.836","img/card_backs/set1/yellow.gif","0","50","1","",""
"casino-fixation","128","444918","0.0-25.0-0.29","A1406","true","img/card_backs/set1/red.gif","img/card_backs/set1/green.gif","img/card_backs/set1/purple.gif","img/card_backs/set1/yellow.gif","img/card_backs/set2/pink.gif","img/card_backs/set2/orange.gif","img/card_backs/set2/gray.gif","img/card_backs/set2/blue.gif","""event"",""trial"",""time""
""blur"",""0"",""0""
""focus"",""1"",""32876""
""fullscreenenter"",""1"",""33834""
","""event"",""trial"",""time""
""blur"",""0"",""0""
","""event"",""trial"",""time""
""focus"",""1"",""32876""
","""event"",""trial"",""time""
""fullscreenenter"",""1"",""33834""
","
","","null","","null","","fixation","2021-07-22 22:49:38.337","","","","","",""
"card-selection-trial","129","447495","0.0-25.0-1.29","A1406","true","img/card_backs/set1/red.gif","img/card_backs/set1/green.gif","img/card_backs/set1/purple.gif","img/card_backs/set1/yellow.gif","img/card_backs/set2/pink.gif","img/card_backs/set2/orange.gif","img/card_backs/set2/gray.gif","img/card_backs/set2/blue.gif","""event"",""trial"",""time""
""blur"",""0"",""0""
""focus"",""1"",""32876""
""fullscreenenter"",""1"",""33834""
","""event"",""trial"",""time""
""blur"",""0"",""0""
","""event"",""trial"",""time""
""focus"",""1"",""32876""
","""event"",""trial"",""time""
""fullscreenenter"",""1"",""33834""
","
","","574.3999999985099","","","","real_trial","2021-07-22 22:49:40.913","img/card_backs/set1/green.gif","2","250","1","",""
"casino-fixation","130","447996","0.0-25.0-0.30","A1406","true","img/card_backs/set1/red.gif","img/card_backs/set1/green.gif","img/card_backs/set1/purple.gif","img/card_backs/set1/yellow.gif","img/card_backs/set2/pink.gif","img/card_backs/set2/orange.gif","img/card_backs/set2/gray.gif","img/card_backs/set2/blue.gif","""event"",""trial"",""time""
""blur"",""0"",""0""
""focus"",""1"",""32876""
""fullscreenenter"",""1"",""33834""
","""event"",""trial"",""time""
""blur"",""0"",""0""
","""event"",""trial"",""time""
""focus"",""1"",""32876""
","""event"",""trial"",""time""
""fullscreenenter"",""1"",""33834""
","
","","null","","null","","fixation","2021-07-22 22:49:41.414","","","","","",""
"card-selection-trial","131","451513","0.0-25.0-1.30","A1406","true","img/card_backs/set1/red.gif","img/card_backs/set1/green.gif","img/card_backs/set1/purple.gif","img/card_backs/set1/yellow.gif","img/card_backs/set2/pink.gif","img/card_backs/set2/orange.gif","img/card_backs/set2/gray.gif","img/card_backs/set2/blue.gif","""event"",""trial"",""time""
""blur"",""0"",""0""
""focus"",""1"",""32876""
""fullscreenenter"",""1"",""33834""
","""event"",""trial"",""time""
""blur"",""0"",""0""
","""event"",""trial"",""time""
""focus"",""1"",""32876""
