"trial_type","trial_index","time_elapsed","internal_node_id","sub_id","risk_good_first","block1_A","block1_B","block1_C","block1_D","block2_A","block2_B","block2_C","block2_D","interactions","blur_events","focus_events","fullscreenenter_events","fullscreenexit_events","success","rt","stimulus","key_press","button_pressed","task_part","timestamp","card_choice","choice_position","points_earned","block","correct","response"
"pavlovia","0","3","0.0-0.0","A480","false","img/card_backs/set1/red.gif","img/card_backs/set1/yellow.gif","img/card_backs/set1/purple.gif","img/card_backs/set1/green.gif","img/card_backs/set2/pink.gif","img/card_backs/set2/blue.gif","img/card_backs/set2/gray.gif","img/card_backs/set2/orange.gif","""event"",""trial"",""time""
""fullscreenenter"",""1"",""2132""
","
","
","""event"",""trial"",""time""
""fullscreenenter"",""1"",""2132""
","
","","","","","","","","","","","","",""
"fullscreen","1","3092","0.0-1.0","A480","false","img/card_backs/set1/red.gif","img/card_backs/set1/yellow.gif","img/card_backs/set1/purple.gif","img/card_backs/set1/green.gif","img/card_backs/set2/pink.gif","img/card_backs/set2/blue.gif","img/card_backs/set2/gray.gif","img/card_backs/set2/orange.gif","""event"",""trial"",""time""
""fullscreenenter"",""1"",""2132""
","
","
","""event"",""trial"",""time""
""fullscreenenter"",""1"",""2132""
","
","true","","","","","","","","","","","",""
"audio-keyboard-response","2","4101","0.0-2.0","A480","false","img/card_backs/set1/red.gif","img/card_backs/set1/yellow.gif","img/card_backs/set1/purple.gif","img/card_backs/set1/green.gif","img/card_backs/set2/pink.gif","img/card_backs/set2/blue.gif","img/card_backs/set2/gray.gif","img/card_backs/set2/orange.gif","""event"",""trial"",""time""
""fullscreenenter"",""1"",""2132""
","
","
","""event"",""trial"",""time""
""fullscreenenter"",""1"",""2132""
","
","","688","audio/beep_loop.wav","32","","","","","","","","",""
"audio-button-response","3","5874","0.0-3.0","A480","false","img/card_backs/set1/red.gif","img/card_backs/set1/yellow.gif","img/card_backs/set1/purple.gif","img/card_backs/set1/green.gif","img/card_backs/set2/pink.gif","img/card_backs/set2/blue.gif","img/card_backs/set2/gray.gif","img/card_backs/set2/orange.gif","""event"",""trial"",""time""
""fullscreenenter"",""1"",""2132""
","
","
","""event"",""trial"",""time""
""fullscreenenter"",""1"",""2132""
","
","","NaN","audio/turtle.mp3","","3","","","","","","","",""
"audio-button-response","4","8137","0.0-4.0","A480","false","img/card_backs/set1/red.gif","img/card_backs/set1/yellow.gif","img/card_backs/set1/purple.gif","img/card_backs/set1/green.gif","img/card_backs/set2/pink.gif","img/card_backs/set2/blue.gif","img/card_backs/set2/gray.gif","img/card_backs/set2/orange.gif","""event"",""trial"",""time""
""fullscreenenter"",""1"",""2132""
","
","
","""event"",""trial"",""time""
""fullscreenenter"",""1"",""2132""
","
","","NaN","audio/shark.mp3","","2","","","","","","","",""
"fullscreen","5","11922","0.0-5.0","A480","false","img/card_backs/set1/red.gif","img/card_backs/set1/yellow.gif","img/card_backs/set1/purple.gif","img/card_backs/set1/green.gif","img/card_backs/set2/pink.gif","img/card_backs/set2/blue.gif","img/card_backs/set2/gray.gif","img/card_backs/set2/orange.gif","""event"",""trial"",""time""
""fullscreenenter"",""1"",""2132""
","
","
","""event"",""trial"",""time""
""fullscreenenter"",""1"",""2132""
","
","true","","","","","","","","","","","",""
"casino-keyboard-response","6","14702","0.0-6.0-0.0","A480","false","img/card_backs/set1/red.gif","img/card_backs/set1/yellow.gif","img/card_backs/set1/purple.gif","img/card_backs/set1/green.gif","img/card_backs/set2/pink.gif","img/card_backs/set2/blue.gif","img/card_backs/set2/gray.gif","img/card_backs/set2/orange.gif","""event"",""trial"",""time""
""fullscreenenter"",""1"",""2132""
","
","
","""event"",""trial"",""time""
""fullscreenenter"",""1"",""2132""
","
","","2776.3000000044703","Welcome to the casino!","71","","instructions","2021-08-04 16:58:44.629","","","","","",""
"casino-keyboard-response","7","23902","0.0-6.0-0.1","A480","false","img/card_backs/set1/red.gif","img/card_backs/set1/yellow.gif","img/card_backs/set1/purple.gif","img/card_backs/set1/green.gif","img/card_backs/set2/pink.gif","img/card_backs/set2/blue.gif","img/card_backs/set2/gray.gif","img/card_backs/set2/orange.gif","""event"",""trial"",""time""
""fullscreenenter"",""1"",""2132""
","
","
","""event"",""trial"",""time""
""fullscreenenter"",""1"",""2132""
","
","","9199.39999999851","Today you will be playing a game to earn tokens. </br> At the end of the experiment, you will be paid a bonus based on how many tokens you win. ","69","","instructions","2021-08-04 16:58:53.829","","","","","",""
"casino-keyboard-response","8","30967","0.0-6.0-0.2","A480","false","img/card_backs/set1/red.gif","img/card_backs/set1/yellow.gif","img/card_backs/set1/purple.gif","img/card_backs/set1/green.gif","img/card_backs/set2/pink.gif","img/card_backs/set2/blue.gif","img/card_backs/set2/gray.gif","img/card_backs/set2/orange.gif","""event"",""trial"",""time""
""fullscreenenter"",""1"",""2132""
","
","
","""event"",""trial"",""time""
""fullscreenenter"",""1"",""2132""
","
","","7063.10000000149","On every turn, you will be shown four different decks of cards. </br> You need to select a card from one of the four decks.  ","75","","instructions","2021-08-04 16:59:00.894","","","","","",""
"casino-keyboard-response","9","35368","0.0-6.0-0.3","A480","false","img/card_backs/set1/red.gif","img/card_backs/set1/yellow.gif","img/card_backs/set1/purple.gif","img/card_backs/set1/green.gif","img/card_backs/set2/pink.gif","img/card_backs/set2/blue.gif","img/card_backs/set2/gray.gif","img/card_backs/set2/orange.gif","""event"",""trial"",""time""
""fullscreenenter"",""1"",""2132""
","
","
","""event"",""trial"",""time""
""fullscreenenter"",""1"",""2132""
","
","","4399.39999999851","On the next screen, you will see what the decks will look like. ","66","","instructions","2021-08-04 16:59:05.295","","","","","",""
"card-selection-trial","10","39374","0.0-7.0-0.0","A480","false","img/card_backs/set1/red.gif","img/card_backs/set1/yellow.gif","img/card_backs/set1/purple.gif","img/card_backs/set1/green.gif","img/card_backs/set2/pink.gif","img/card_backs/set2/blue.gif","img/card_backs/set2/gray.gif","img/card_backs/set2/orange.gif","""event"",""trial"",""time""
""fullscreenenter"",""1"",""2132""
","
","
","""event"",""trial"",""time""
""fullscreenenter"",""1"",""2132""
","
","","null","","","","practice","2021-08-04 16:59:09.301","null","null","null","0","",""
"casino-keyboard-response","11","48776","0.0-8.0-0.0","A480","false","img/card_backs/set1/red.gif","img/card_backs/set1/yellow.gif","img/card_backs/set1/purple.gif","img/card_backs/set1/green.gif","img/card_backs/set2/pink.gif","img/card_backs/set2/blue.gif","img/card_backs/set2/gray.gif","img/card_backs/set2/orange.gif","""event"",""trial"",""time""
""fullscreenenter"",""1"",""2132""
","
","
","""event"",""trial"",""time""
""fullscreenenter"",""1"",""2132""
","
","","9399.5","You should pick a card from a deck using the '2', '4', '6', and '8' keys at the top of the keyboard.","85","","instructions","2021-08-04 16:59:18.703","","","","","",""
"casino-keyboard-response","12","53804","0.0-8.0-0.1","A480","false","img/card_backs/set1/red.gif","img/card_backs/set1/yellow.gif","img/card_backs/set1/purple.gif","img/card_backs/set1/green.gif","img/card_backs/set2/pink.gif","img/card_backs/set2/blue.gif","img/card_backs/set2/gray.gif","img/card_backs/set2/orange.gif","""event"",""trial"",""time""
""fullscreenenter"",""1"",""2132""
","
","
","""event"",""trial"",""time""
""fullscreenenter"",""1"",""2132""
","
","","5026.30000000447","Once you select a card, it will turn over and you will see how many tokens you earned.","83","","instructions","2021-08-04 16:59:23.731","","","","","",""
"casino-keyboard-response","13","67384","0.0-8.0-0.2","A480","false","img/card_backs/set1/red.gif","img/card_backs/set1/yellow.gif","img/card_backs/set1/purple.gif","img/card_backs/set1/green.gif","img/card_backs/set2/pink.gif","img/card_backs/set2/blue.gif","img/card_backs/set2/gray.gif","img/card_backs/set2/orange.gif","""event"",""trial"",""time""
""fullscreenenter"",""1"",""2132""
","
","
","""event"",""trial"",""time""
""fullscreenenter"",""1"",""2132""
","
","","13579","Let's try practicing that! </br> First, try to put your fingers over the '2', '4', '6', and '8' keys. </br>  You can use whatever fingers are most comfortable for you. Try to find a comfortable position now. ","50","","instructions","2021-08-04 16:59:37.311","","","","","",""
"casino-keyboard-response","14","72825","0.0-8.0-0.3","A480","false","img/card_backs/set1/red.gif","img/card_backs/set1/yellow.gif","img/card_backs/set1/purple.gif","img/card_backs/set1/green.gif","img/card_backs/set2/pink.gif","img/card_backs/set2/blue.gif","img/card_backs/set2/gray.gif","img/card_backs/set2/orange.gif","""event"",""trial"",""time""
""fullscreenenter"",""1"",""2132""
","
","
","""event"",""trial"",""time""
""fullscreenenter"",""1"",""2132""
","
","","5438.89999999851","Okay ready? </br> On the next screen, press '2' to select the left deck. ","50","","instructions","2021-08-04 16:59:42.752","","","","","",""
"card-selection-trial","15","75844","0.0-9.0-0.0","A480","false","img/card_backs/set1/red.gif","img/card_backs/set1/yellow.gif","img/card_backs/set1/purple.gif","img/card_backs/set1/green.gif","img/card_backs/set2/pink.gif","img/card_backs/set2/blue.gif","img/card_backs/set2/gray.gif","img/card_backs/set2/orange.gif","""event"",""trial"",""time""
""fullscreenenter"",""1"",""2132""
","
","
","""event"",""trial"",""time""
""fullscreenenter"",""1"",""2132""
","
","","1008.1999999955297","","","","practice_card_selection","2021-08-04 16:59:45.771","img/practice_cards/backs/black.gif","0","100","","",""
"casino-keyboard-response","16","81429","0.0-10.0-0.0","A480","false","img/card_backs/set1/red.gif","img/card_backs/set1/yellow.gif","img/card_backs/set1/purple.gif","img/card_backs/set1/green.gif","img/card_backs/set2/pink.gif","img/card_backs/set2/blue.gif","img/card_backs/set2/gray.gif","img/card_backs/set2/orange.gif","""event"",""trial"",""time""
""fullscreenenter"",""1"",""2132""
","
","
","""event"",""trial"",""time""
""fullscreenenter"",""1"",""2132""
","
","","5583.4000000059605","Great! Now on the next screen, try pressing '6' to select the third deck.","54","","instructions","2021-08-04 16:59:51.356","","","","","",""
"card-selection-trial","17","83876","0.0-11.0-0.0","A480","false","img/card_backs/set1/red.gif","img/card_backs/set1/yellow.gif","img/card_backs/set1/purple.gif","img/card_backs/set1/green.gif","img/card_backs/set2/pink.gif","img/card_backs/set2/blue.gif","img/card_backs/set2/gray.gif","img/card_backs/set2/orange.gif","""event"",""trial"",""time""
""fullscreenenter"",""1"",""2132""
","
","
","""event"",""trial"",""time""
""fullscreenenter"",""1"",""2132""
","
","","439.30000000447035","","","","practice_card_selection","2021-08-04 16:59:53.803","img/practice_cards/backs/brown.gif","2","100","","",""
"casino-keyboard-response","18","88488","0.0-12.0-0.0","A480","false","img/card_backs/set1/red.gif","img/card_backs/set1/yellow.gif","img/card_backs/set1/purple.gif","img/card_backs/set1/green.gif","img/card_backs/set2/pink.gif","img/card_backs/set2/blue.gif","img/card_backs/set2/gray.gif","img/card_backs/set2/orange.gif","""event"",""trial"",""time""
""fullscreenenter"",""1"",""2132""
","
","
","""event"",""trial"",""time""
""fullscreenenter"",""1"",""2132""
","
","","4610.60000000149","Now on the next screen, try pressing '4' to select the second deck.","52","","instructions","2021-08-04 16:59:58.415","","","","","",""
"card-selection-trial","19","90788","0.0-13.0-0.0","A480","false","img/card_backs/set1/red.gif","img/card_backs/set1/yellow.gif","img/card_backs/set1/purple.gif","img/card_backs/set1/green.gif","img/card_backs/set2/pink.gif","img/card_backs/set2/blue.gif","img/card_backs/set2/gray.gif","img/card_backs/set2/orange.gif","""event"",""trial"",""time""
""fullscreenenter"",""1"",""2132""
","
","
","""event"",""trial"",""time""
""fullscreenenter"",""1"",""2132""
","
","","290.1000000014901","","","","practice_card_selection","2021-08-04 17:00:00.715","img/practice_cards/backs/dark_blue.gif","1","-200","","",""
"casino-keyboard-response","20","91389","0.0-14.0-0.0","A480","false","img/card_backs/set1/red.gif","img/card_backs/set1/yellow.gif","img/card_backs/set1/purple.gif","img/card_backs/set1/green.gif","img/card_backs/set2/pink.gif","img/card_backs/set2/blue.gif","img/card_backs/set2/gray.gif","img/card_backs/set2/orange.gif","""event"",""trial"",""time""
""fullscreenenter"",""1"",""2132""
","
","
","""event"",""trial"",""time""
""fullscreenenter"",""1"",""2132""
","
","","600","Finally, try pressing '8' to select the deck all the way on the right.","56","","instructions","2021-08-04 17:00:01.316","","","","","",""
"card-selection-trial","21","94127","0.0-15.0-0.0","A480","false","img/card_backs/set1/red.gif","img/card_backs/set1/yellow.gif","img/card_backs/set1/purple.gif","img/card_backs/set1/green.gif","img/card_backs/set2/pink.gif","img/card_backs/set2/blue.gif","img/card_backs/set2/gray.gif","img/card_backs/set2/orange.gif","""event"",""trial"",""time""
""fullscreenenter"",""1"",""2132""
","
","
","""event"",""trial"",""time""
""fullscreenenter"",""1"",""2132""
","
","","730.1000000014901","","","","practice_card_selection","2021-08-04 17:00:04.054","img/practice_cards/backs/black.gif","3","100","","",""
"casino-keyboard-response","22","97762","0.0-16.0-0.0","A480","false","img/card_backs/set1/red.gif","img/card_backs/set1/yellow.gif","img/card_backs/set1/purple.gif","img/card_backs/set1/green.gif","img/card_backs/set2/pink.gif","img/card_backs/set2/blue.gif","img/card_backs/set2/gray.gif","img/card_backs/set2/orange.gif","""event"",""trial"",""time""
""fullscreenenter"",""1"",""2132""
","
","
","""event"",""trial"",""time""
""fullscreenenter"",""1"",""2132""
","
","","3632.89999999851","Great! It seems like you are getting the hang of this.","80","","instructions","2021-08-04 17:00:07.689","","","","","",""
"casino-keyboard-response","23","104939","0.0-16.0-0.1","A480","false","img/card_backs/set1/red.gif","img/card_backs/set1/yellow.gif","img/card_backs/set1/purple.gif","img/card_backs/set1/green.gif","img/card_backs/set2/pink.gif","img/card_backs/set2/blue.gif","img/card_backs/set2/gray.gif","img/card_backs/set2/orange.gif","""event"",""trial"",""time""
""fullscreenenter"",""1"",""2132""
","
","
","""event"",""trial"",""time""
""fullscreenenter"",""1"",""2132""
","
","","7176.5","You may have noticed that some cards will cause you to <b> win </b> tokens while other cards will cause you to <b> lose </b>  tokens.","70","","instructions","2021-08-04 17:00:14.867","","","","","",""
"casino-keyboard-response","24","112971","0.0-16.0-0.2","A480","false","img/card_backs/set1/red.gif","img/card_backs/set1/yellow.gif","img/card_backs/set1/purple.gif","img/card_backs/set1/green.gif","img/card_backs/set2/pink.gif","img/card_backs/set2/blue.gif","img/card_backs/set2/gray.gif","img/card_backs/set2/orange.gif","""event"",""trial"",""time""
""fullscreenenter"",""1"",""2132""
","
","
","""event"",""trial"",""time""
""fullscreenenter"",""1"",""2132""
","
","","8029.79999999702","Each deck has a mix of cards that will cause you to win and lose tokens. </br> However, the cards in each colored deck are different.","73","","instructions","2021-08-04 17:00:22.898","","","","","",""
"casino-keyboard-response","25","121321","0.0-16.0-0.3","A480","false","img/card_backs/set1/red.gif","img/card_backs/set1/yellow.gif","img/card_backs/set1/purple.gif","img/card_backs/set1/green.gif","img/card_backs/set2/pink.gif","img/card_backs/set2/blue.gif","img/card_backs/set2/gray.gif","img/card_backs/set2/orange.gif","""event"",""trial"",""time""
""fullscreenenter"",""1"",""2132""
","
","
","""event"",""trial"",""time""
""fullscreenenter"",""1"",""2132""
","
","","8348.69999999553","Some colored decks are luckier than others. </br> If you choose the lucky decks, you will earn more tokens than if you choose the unlucky decks.","69","","instructions","2021-08-04 17:00:31.248","","","","","",""
"casino-keyboard-response","26","128231","0.0-16.0-0.4","A480","false","img/card_backs/set1/red.gif","img/card_backs/set1/yellow.gif","img/card_backs/set1/purple.gif","img/card_backs/set1/green.gif","img/card_backs/set2/pink.gif","img/card_backs/set2/blue.gif","img/card_backs/set2/gray.gif","img/card_backs/set2/orange.gif","""event"",""trial"",""time""
""fullscreenenter"",""1"",""2132""
","
","
","""event"",""trial"",""time""
""fullscreenenter"",""1"",""2132""
","
","","6908.69999999553","You should try to figure out which decks are lucky. </br> Then, try to choose the lucky decks so you can win the most tokens.","87","","instructions","2021-08-04 17:00:38.158","","","","","",""
"casino-keyboard-response","27","141512","0.0-16.0-0.5","A480","false","img/card_backs/set1/red.gif","img/card_backs/set1/yellow.gif","img/card_backs/set1/purple.gif","img/card_backs/set1/green.gif","img/card_backs/set2/pink.gif","img/card_backs/set2/blue.gif","img/card_backs/set2/gray.gif","img/card_backs/set2/orange.gif","""event"",""trial"",""time""
""fullscreenenter"",""1"",""2132""
","
","
","""event"",""trial"",""time""
""fullscreenenter"",""1"",""2132""
","
","","13278.60000000149","To make it trickier, the casino dealer will switch the locations of the decks on every turn. </br> The color of the deck determines how lucky it is. The location does not matter.","88","","instructions","2021-08-04 17:00:51.439","","","","","",""
"casino-keyboard-response","28","150735","0.0-16.0-0.6","A480","false","img/card_backs/set1/red.gif","img/card_backs/set1/yellow.gif","img/card_backs/set1/purple.gif","img/card_backs/set1/green.gif","img/card_backs/set2/pink.gif","img/card_backs/set2/blue.gif","img/card_backs/set2/gray.gif","img/card_backs/set2/orange.gif","""event"",""trial"",""time""
""fullscreenenter"",""1"",""2132""
","
","
","""event"",""trial"",""time""
""fullscreenenter"",""1"",""2132""
","
","","9221.29999999702","The mix of cards in each colored deck will stay the same throughout the game. </br> That means that a deck that is lucky early on will stay lucky.","79","","instructions","2021-08-04 17:01:00.662","","","","","",""
"casino-keyboard-response","29","158545","0.0-16.0-0.7","A480","false","img/card_backs/set1/red.gif","img/card_backs/set1/yellow.gif","img/card_backs/set1/purple.gif","img/card_backs/set1/green.gif","img/card_backs/set2/pink.gif","img/card_backs/set2/blue.gif","img/card_backs/set2/gray.gif","img/card_backs/set2/orange.gif","""event"",""trial"",""time""
""fullscreenenter"",""1"",""2132""
","
","
","""event"",""trial"",""time""
""fullscreenenter"",""1"",""2132""
","
","","7808.60000000149","Remember though, all the decks have a <b> mix </b> of both <b> good </b> and <b> bad </b> cards so it may take a couple of turns to figure out if a deck is lucky.","69","","instructions","2021-08-04 17:01:08.472","","","","","",""
"casino-keyboard-response","30","166350","0.0-16.0-0.8","A480","false","img/card_backs/set1/red.gif","img/card_backs/set1/yellow.gif","img/card_backs/set1/purple.gif","img/card_backs/set1/green.gif","img/card_backs/set2/pink.gif","img/card_backs/set2/blue.gif","img/card_backs/set2/gray.gif","img/card_backs/set2/orange.gif","""event"",""trial"",""time""
""fullscreenenter"",""1"",""2132""
","
","
","""event"",""trial"",""time""
""fullscreenenter"",""1"",""2132""
","
","","7804","At the end of the game, you will be paid bonus money based on how many tokens you win. </br> If you win more tokens, you will earn more money!","72","","instructions","2021-08-04 17:01:16.277","","","","","",""
"casino-keyboard-response","31","176651","0.0-16.0-0.9","A480","false","img/card_backs/set1/red.gif","img/card_backs/set1/yellow.gif","img/card_backs/set1/purple.gif","img/card_backs/set1/green.gif","img/card_backs/set2/pink.gif","img/card_backs/set2/blue.gif","img/card_backs/set2/gray.gif","img/card_backs/set2/orange.gif","""event"",""trial"",""time""
""fullscreenenter"",""1"",""2132""
","
","
","""event"",""trial"",""time""
""fullscreenenter"",""1"",""2132""
","
","","10298.89999999851","You will never <b> lose </b> money. </br> If you end up with fewer than 0 tokens, you will earn $0 of bonus money, but you will still be paid for playing the game.","83","","instructions","2021-08-04 17:01:26.578","","","","","",""
"casino-keyboard-response","32","180568","0.0-16.0-0.10","A480","false","img/card_backs/set1/red.gif","img/card_backs/set1/yellow.gif","img/card_backs/set1/purple.gif","img/card_backs/set1/green.gif","img/card_backs/set2/pink.gif","img/card_backs/set2/blue.gif","img/card_backs/set2/gray.gif","img/card_backs/set2/orange.gif","""event"",""trial"",""time""
""fullscreenenter"",""1"",""2132""
","
","
","""event"",""trial"",""time""
""fullscreenenter"",""1"",""2132""
","
","","3915.60000000149","You will have 10 seconds to make each choice.","82","","instructions","2021-08-04 17:01:30.495","","","","","",""
"casino-keyboard-response","33","188886","0.0-16.0-0.11","A480","false","img/card_backs/set1/red.gif","img/card_backs/set1/yellow.gif","img/card_backs/set1/purple.gif","img/card_backs/set1/green.gif","img/card_backs/set2/pink.gif","img/card_backs/set2/blue.gif","img/card_backs/set2/gray.gif","img/card_backs/set2/orange.gif","""event"",""trial"",""time""
""fullscreenenter"",""1"",""2132""
","
","
","""event"",""trial"",""time""
""fullscreenenter"",""1"",""2132""
","
","","8317.39999999851","Before you play the game for real, you will play with practice decks. </br> The tokens you earn during practice won't count toward your total.","86","","instructions","2021-08-04 17:01:38.813","","","","","",""
"casino-keyboard-response","34","190902","0.0-16.0-0.12","A480","false","img/card_backs/set1/red.gif","img/card_backs/set1/yellow.gif","img/card_backs/set1/purple.gif","img/card_backs/set1/green.gif","img/card_backs/set2/pink.gif","img/card_backs/set2/blue.gif","img/card_backs/set2/gray.gif","img/card_backs/set2/orange.gif","""event"",""trial"",""time""
""fullscreenenter"",""1"",""2132""
","
","
","""event"",""trial"",""time""
""fullscreenenter"",""1"",""2132""
","
","","2014","Ready? Remember, use the '2', '4', '6', and '8' keys to select the decks. </br> Put your fingers on those keys now and then press '2' to begin.","50","","instructions","2021-08-04 17:01:40.829","","","","","",""
"casino-fixation","35","191406","0.0-17.0-0.0","A480","false","img/card_backs/set1/red.gif","img/card_backs/set1/yellow.gif","img/card_backs/set1/purple.gif","img/card_backs/set1/green.gif","img/card_backs/set2/pink.gif","img/card_backs/set2/blue.gif","img/card_backs/set2/gray.gif","img/card_backs/set2/orange.gif","""event"",""trial"",""time""
""fullscreenenter"",""1"",""2132""
","
","
","""event"",""trial"",""time""
""fullscreenenter"",""1"",""2132""
","
","","null","","null","","fixation","2021-08-04 17:01:41.334","","","","","",""
"card-selection-trial","36","193833","0.0-17.0-1.0","A480","false","img/card_backs/set1/red.gif","img/card_backs/set1/yellow.gif","img/card_backs/set1/purple.gif","img/card_backs/set1/green.gif","img/card_backs/set2/pink.gif","img/card_backs/set2/blue.gif","img/card_backs/set2/gray.gif","img/card_backs/set2/orange.gif","""event"",""trial"",""time""
""fullscreenenter"",""1"",""2132""
","
","
","""event"",""trial"",""time""
""fullscreenenter"",""1"",""2132""
","
","","416.3999999985099","","","","practice","2021-08-04 17:01:43.760","img/practice_cards/backs/dark_blue.gif","0","-200","0","",""
"casino-fixation","37","194338","0.0-17.0-0.1","A480","false","img/card_backs/set1/red.gif","img/card_backs/set1/yellow.gif","img/card_backs/set1/purple.gif","img/card_backs/set1/green.gif","img/card_backs/set2/pink.gif","img/card_backs/set2/blue.gif","img/card_backs/set2/gray.gif","img/card_backs/set2/orange.gif","""event"",""trial"",""time""
""fullscreenenter"",""1"",""2132""
","
","
","""event"",""trial"",""time""
""fullscreenenter"",""1"",""2132""
","
","","null","","null","","fixation","2021-08-04 17:01:44.266","","","","","",""
"card-selection-trial","38","198086","0.0-17.0-1.1","A480","false","img/card_backs/set1/red.gif","img/card_backs/set1/yellow.gif","img/card_backs/set1/purple.gif","img/card_backs/set1/green.gif","img/card_backs/set2/pink.gif","img/card_backs/set2/blue.gif","img/card_backs/set2/gray.gif","img/card_backs/set2/orange.gif","""event"",""trial"",""time""
""fullscreenenter"",""1"",""2132""
","
","
","""event"",""trial"",""time""
""fullscreenenter"",""1"",""2132""
","
","","1742.2000000029802","","","","practice","2021-08-04 17:01:48.013","img/practice_cards/backs/dark_green.gif","0","200","0","",""
"casino-fixation","39","198590","0.0-17.0-0.2","A480","false","img/card_backs/set1/red.gif","img/card_backs/set1/yellow.gif","img/card_backs/set1/purple.gif","img/card_backs/set1/green.gif","img/card_backs/set2/pink.gif","img/card_backs/set2/blue.gif","img/card_backs/set2/gray.gif","img/card_backs/set2/orange.gif","""event"",""trial"",""time""
""fullscreenenter"",""1"",""2132""
","
","
","""event"",""trial"",""time""
""fullscreenenter"",""1"",""2132""
","
","","null","","null","","fixation","2021-08-04 17:01:48.517","","","","","",""
"card-selection-trial","40","201127","0.0-17.0-1.2","A480","false","img/card_backs/set1/red.gif","img/card_backs/set1/yellow.gif","img/card_backs/set1/purple.gif","img/card_backs/set1/green.gif","img/card_backs/set2/pink.gif","img/card_backs/set2/blue.gif","img/card_backs/set2/gray.gif","img/card_backs/set2/orange.gif","""event"",""trial"",""time""
""fullscreenenter"",""1"",""2132""
","
","
","""event"",""trial"",""time""
""fullscreenenter"",""1"",""2132""
","
","","530.5","","","","practice","2021-08-04 17:01:51.054","img/practice_cards/backs/dark_green.gif","1","200","0","",""
"casino-fixation","41","201632","0.0-17.0-0.3","A480","false","img/card_backs/set1/red.gif","img/card_backs/set1/yellow.gif","img/card_backs/set1/purple.gif","img/card_backs/set1/green.gif","img/card_backs/set2/pink.gif","img/card_backs/set2/blue.gif","img/card_backs/set2/gray.gif","img/card_backs/set2/orange.gif","""event"",""trial"",""time""
""fullscreenenter"",""1"",""2132""
","
","
","""event"",""trial"",""time""
""fullscreenenter"",""1"",""2132""
","
","","null","","null","","fixation","2021-08-04 17:01:51.559","","","","","",""
"card-selection-trial","42","204174","0.0-17.0-1.3","A480","false","img/card_backs/set1/red.gif","img/card_backs/set1/yellow.gif","img/card_backs/set1/purple.gif","img/card_backs/set1/green.gif","img/card_backs/set2/pink.gif","img/card_backs/set2/blue.gif","img/card_backs/set2/gray.gif","img/card_backs/set2/orange.gif","""event"",""trial"",""time""
""fullscreenenter"",""1"",""2132""
","
","
","""event"",""trial"",""time""
""fullscreenenter"",""1"",""2132""
","
","","536.2000000029802","","","","practice","2021-08-04 17:01:54.101","img/practice_cards/backs/dark_green.gif","0","200","0","",""
"casino-fixation","43","204676","0.0-17.0-0.4","A480","false","img/card_backs/set1/red.gif","img/card_backs/set1/yellow.gif","img/card_backs/set1/purple.gif","img/card_backs/set1/green.gif","img/card_backs/set2/pink.gif","img/card_backs/set2/blue.gif","img/card_backs/set2/gray.gif","img/card_backs/set2/orange.gif","""event"",""trial"",""time""
""fullscreenenter"",""1"",""2132""
","
","
","""event"",""trial"",""time""
""fullscreenenter"",""1"",""2132""
","
","","null","","null","","fixation","2021-08-04 17:01:54.603","","","","","",""
"card-selection-trial","44","207169","0.0-17.0-1.4","A480","false","img/card_backs/set1/red.gif","img/card_backs/set1/yellow.gif","img/card_backs/set1/purple.gif","img/card_backs/set1/green.gif","img/card_backs/set2/pink.gif","img/card_backs/set2/blue.gif","img/card_backs/set2/gray.gif","img/card_backs/set2/orange.gif","""event"",""trial"",""time""
""fullscreenenter"",""1"",""2132""
","
","
","""event"",""trial"",""time""
""fullscreenenter"",""1"",""2132""
","
","","487.8999999985099","","","","practice","2021-08-04 17:01:57.096","img/practice_cards/backs/dark_green.gif","1","200","0","",""
"casino-fixation","45","207671","0.0-17.0-0.5","A480","false","img/card_backs/set1/red.gif","img/card_backs/set1/yellow.gif","img/card_backs/set1/purple.gif","img/card_backs/set1/green.gif","img/card_backs/set2/pink.gif","img/card_backs/set2/blue.gif","img/card_backs/set2/gray.gif","img/card_backs/set2/orange.gif","""event"",""trial"",""time""
""fullscreenenter"",""1"",""2132""
","
","
","""event"",""trial"",""time""
""fullscreenenter"",""1"",""2132""
","
","","null","","null","","fixation","2021-08-04 17:01:57.598","","","","","",""
"card-selection-trial","46","210468","0.0-17.0-1.5","A480","false","img/card_backs/set1/red.gif","img/card_backs/set1/yellow.gif","img/card_backs/set1/purple.gif","img/card_backs/set1/green.gif","img/card_backs/set2/pink.gif","img/card_backs/set2/blue.gif","img/card_backs/set2/gray.gif","img/card_backs/set2/orange.gif","""event"",""trial"",""time""
""fullscreenenter"",""1"",""2132""
","
","
","""event"",""trial"",""time""
""fullscreenenter"",""1"",""2132""
","
","","790.6000000014901","","","","practice","2021-08-04 17:02:00.395","img/practice_cards/backs/dark_green.gif","2","200","0","",""
"casino-fixation","47","210971","0.0-17.0-0.6","A480","false","img/card_backs/set1/red.gif","img/card_backs/set1/yellow.gif","img/card_backs/set1/purple.gif","img/card_backs/set1/green.gif","img/card_backs/set2/pink.gif","img/card_backs/set2/blue.gif","img/card_backs/set2/gray.gif","img/card_backs/set2/orange.gif","""event"",""trial"",""time""
""fullscreenenter"",""1"",""2132""
","
","
","""event"",""trial"",""time""
""fullscreenenter"",""1"",""2132""
","
","","null","","null","","fixation","2021-08-04 17:02:00.898","","","","","",""
"card-selection-trial","48","213451","0.0-17.0-1.6","A480","false","img/card_backs/set1/red.gif","img/card_backs/set1/yellow.gif","img/card_backs/set1/purple.gif","img/card_backs/set1/green.gif","img/card_backs/set2/pink.gif","img/card_backs/set2/blue.gif","img/card_backs/set2/gray.gif","img/card_backs/set2/orange.gif","""event"",""trial"",""time""
""fullscreenenter"",""1"",""2132""
","
","
","""event"",""trial"",""time""
""fullscreenenter"",""1"",""2132""
","
","","474.6000000014901","","","","practice","2021-08-04 17:02:03.378","img/practice_cards/backs/dark_green.gif","2","-200","0","",""
"casino-fixation","49","213956","0.0-17.0-0.7","A480","false","img/card_backs/set1/red.gif","img/card_backs/set1/yellow.gif","img/card_backs/set1/purple.gif","img/card_backs/set1/green.gif","img/card_backs/set2/pink.gif","img/card_backs/set2/blue.gif","img/card_backs/set2/gray.gif","img/card_backs/set2/orange.gif","""event"",""trial"",""time""
""fullscreenenter"",""1"",""2132""
","
","
","""event"",""trial"",""time""
""fullscreenenter"",""1"",""2132""
","
","","null","","null","","fixation","2021-08-04 17:02:03.883","","","","","",""
"card-selection-trial","50","216448","0.0-17.0-1.7","A480","false","img/card_backs/set1/red.gif","img/card_backs/set1/yellow.gif","img/card_backs/set1/purple.gif","img/card_backs/set1/green.gif","img/card_backs/set2/pink.gif","img/card_backs/set2/blue.gif","img/card_backs/set2/gray.gif","img/card_backs/set2/orange.gif","""event"",""trial"",""time""
""fullscreenenter"",""1"",""2132""
","
","
","""event"",""trial"",""time""
""fullscreenenter"",""1"",""2132""
","
","","487.29999999701977","","","","practice","2021-08-04 17:02:06.375","img/practice_cards/backs/dark_green.gif","1","-200","0","",""
"casino-fixation","51","216953","0.0-17.0-0.8","A480","false","img/card_backs/set1/red.gif","img/card_backs/set1/yellow.gif","img/card_backs/set1/purple.gif","img/card_backs/set1/green.gif","img/card_backs/set2/pink.gif","img/card_backs/set2/blue.gif","img/card_backs/set2/gray.gif","img/card_backs/set2/orange.gif","""event"",""trial"",""time""
""fullscreenenter"",""1"",""2132""
","
","
","""event"",""trial"",""time""
""fullscreenenter"",""1"",""2132""
","
","","null","","null","","fixation","2021-08-04 17:02:06.880","","","","","",""
"card-selection-trial","52","219644","0.0-17.0-1.8","A480","false","img/card_backs/set1/red.gif","img/card_backs/set1/yellow.gif","img/card_backs/set1/purple.gif","img/card_backs/set1/green.gif","img/card_backs/set2/pink.gif","img/card_backs/set2/blue.gif","img/card_backs/set2/gray.gif","img/card_backs/set2/orange.gif","""event"",""trial"",""time""
""fullscreenenter"",""1"",""2132""
","
","
","""event"",""trial"",""time""
""fullscreenenter"",""1"",""2132""
","
","","681.2999999970198","","","","practice","2021-08-04 17:02:09.571","img/practice_cards/backs/dark_green.gif","3","-200","0","",""
"casino-fixation","53","220147","0.0-17.0-0.9","A480","false","img/card_backs/set1/red.gif","img/card_backs/set1/yellow.gif","img/card_backs/set1/purple.gif","img/card_backs/set1/green.gif","img/card_backs/set2/pink.gif","img/card_backs/set2/blue.gif","img/card_backs/set2/gray.gif","img/card_backs/set2/orange.gif","""event"",""trial"",""time""
""fullscreenenter"",""1"",""2132""
","
","
","""event"",""trial"",""time""
""fullscreenenter"",""1"",""2132""
","
","","null","","null","","fixation","2021-08-04 17:02:10.074","","","","","",""
"card-selection-trial","54","222725","0.0-17.0-1.9","A480","false","img/card_backs/set1/red.gif","img/card_backs/set1/yellow.gif","img/card_backs/set1/purple.gif","img/card_backs/set1/green.gif","img/card_backs/set2/pink.gif","img/card_backs/set2/blue.gif","img/card_backs/set2/gray.gif","img/card_backs/set2/orange.gif","""event"",""trial"",""time""
""fullscreenenter"",""1"",""2132""
","
","
","""event"",""trial"",""time""
""fullscreenenter"",""1"",""2132""
","
","","567.6999999955297","","","","practice","2021-08-04 17:02:12.652","img/practice_cards/backs/dark_green.gif","1","200","0","",""
"casino-keyboard-response","55","225339","0.0-18.0","A480","false","img/card_backs/set1/red.gif","img/card_backs/set1/yellow.gif","img/card_backs/set1/purple.gif","img/card_backs/set1/green.gif","img/card_backs/set2/pink.gif","img/card_backs/set2/blue.gif","img/card_backs/set2/gray.gif","img/card_backs/set2/orange.gif","""event"",""trial"",""time""
""fullscreenenter"",""1"",""2132""
","
","
","""event"",""trial"",""time""
""fullscreenenter"",""1"",""2132""
","
","","2613.4000000059605","You earned 400 tokens during the practice round!","82","","","2021-08-04 17:02:15.267","","","","","",""
"casino-keyboard-response","56","229400","0.0-19.0-0.0","A480","false","img/card_backs/set1/red.gif","img/card_backs/set1/yellow.gif","img/card_backs/set1/purple.gif","img/card_backs/set1/green.gif","img/card_backs/set2/pink.gif","img/card_backs/set2/blue.gif","img/card_backs/set2/gray.gif","img/card_backs/set2/orange.gif","""event"",""trial"",""time""
""fullscreenenter"",""1"",""2132""
","
","
","""event"",""trial"",""time""
""fullscreenenter"",""1"",""2132""
","
","","4059.2999999970198","Nice job! You are almost ready to play the real game.","86","","instructions","2021-08-04 17:02:19.327","","","","","",""
"casino-keyboard-response","57","235797","0.0-19.0-0.1","A480","false","img/card_backs/set1/red.gif","img/card_backs/set1/yellow.gif","img/card_backs/set1/purple.gif","img/card_backs/set1/green.gif","img/card_backs/set2/pink.gif","img/card_backs/set2/blue.gif","img/card_backs/set2/gray.gif","img/card_backs/set2/orange.gif","""event"",""trial"",""time""
""fullscreenenter"",""1"",""2132""
","
","
","""event"",""trial"",""time""
""fullscreenenter"",""1"",""2132""
","
","","6394.89999999851","You will play two rounds of the real game. In each round, you will pick 100 cards in total.","73","","instructions","2021-08-04 17:02:25.724","","","","","",""
"casino-keyboard-response","58","239579","0.0-19.0-0.2","A480","false","img/card_backs/set1/red.gif","img/card_backs/set1/yellow.gif","img/card_backs/set1/purple.gif","img/card_backs/set1/green.gif","img/card_backs/set2/pink.gif","img/card_backs/set2/blue.gif","img/card_backs/set2/gray.gif","img/card_backs/set2/orange.gif","""event"",""trial"",""time""
""fullscreenenter"",""1"",""2132""
","
","
","""event"",""trial"",""time""
""fullscreenenter"",""1"",""2132""
","
","","3781.10000000149","We are now going to ask you some questions about how the game works.","66","","instructions","2021-08-04 17:02:29.506","","","","","",""
"casino-keyboard-response","59","245432","0.0-19.0-0.3","A480","false","img/card_backs/set1/red.gif","img/card_backs/set1/yellow.gif","img/card_backs/set1/purple.gif","img/card_backs/set1/green.gif","img/card_backs/set2/pink.gif","img/card_backs/set2/blue.gif","img/card_backs/set2/gray.gif","img/card_backs/set2/orange.gif","""event"",""trial"",""time""
""fullscreenenter"",""1"",""2132""
","
","
","""event"",""trial"",""time""
""fullscreenenter"",""1"",""2132""
","
","","5851.19999999553","Answer carefully. You will not be able to begin the game until you answer them correctly.","67","","instructions","2021-08-04 17:02:35.359","","","","","",""
"casino-comp_q","60","248623","0.0-20.0-0.0","A480","false","img/card_backs/set1/red.gif","img/card_backs/set1/yellow.gif","img/card_backs/set1/purple.gif","img/card_backs/set1/green.gif","img/card_backs/set2/pink.gif","img/card_backs/set2/blue.gif","img/card_backs/set2/gray.gif","img/card_backs/set2/orange.gif","""event"",""trial"",""time""
""fullscreenenter"",""1"",""2132""
","
","
","""event"",""trial"",""time""
""fullscreenenter"",""1"",""2132""
","
","","3189.5","True or False: All the decks have some cards that cause you to win tokens and some cards that cause you to lose tokens.","84","","","2021-08-04 17:02:38.550","","","","","",""
"casino-keyboard-response","61","251170","0.0-20.0-1.0","A480","false","img/card_backs/set1/red.gif","img/card_backs/set1/yellow.gif","img/card_backs/set1/purple.gif","img/card_backs/set1/green.gif","img/card_backs/set2/pink.gif","img/card_backs/set2/blue.gif","img/card_backs/set2/gray.gif","img/card_backs/set2/orange.gif","""event"",""trial"",""time""
""fullscreenenter"",""1"",""2132""
","
","
","""event"",""trial"",""time""
""fullscreenenter"",""1"",""2132""
","
","","2545.39999999851","True is correct! All the decks have a mix of winning and losing cards.","77","","","2021-08-04 17:02:41.097","","","","","true",""
"casino-comp_q","62","256011","0.0-21.0-0.0","A480","false","img/card_backs/set1/red.gif","img/card_backs/set1/yellow.gif","img/card_backs/set1/purple.gif","img/card_backs/set1/green.gif","img/card_backs/set2/pink.gif","img/card_backs/set2/blue.gif","img/card_backs/set2/gray.gif","img/card_backs/set2/orange.gif","""event"",""trial"",""time""
""fullscreenenter"",""1"",""2132""
","
","
","""event"",""trial"",""time""
""fullscreenenter"",""1"",""2132""
","
","","4839","True or False: You will have as much time as you want to make your response.","84","","","2021-08-04 17:02:45.938","","","","","",""
"casino-keyboard-response","63","258497","0.0-21.0-1.0","A480","false","img/card_backs/set1/red.gif","img/card_backs/set1/yellow.gif","img/card_backs/set1/purple.gif","img/card_backs/set1/green.gif","img/card_backs/set2/pink.gif","img/card_backs/set2/blue.gif","img/card_backs/set2/gray.gif","img/card_backs/set2/orange.gif","""event"",""trial"",""time""
""fullscreenenter"",""1"",""2132""
","
","
","""event"",""trial"",""time""
""fullscreenenter"",""1"",""2132""
","
","","2483.7999999970198","True is incorrect. You will only have 10 seconds to make each choice.","75","","","2021-08-04 17:02:48.424","","","","","false",""
"casino-comp_q","64","261087","0.0-21.1-0.1","A480","false","img/card_backs/set1/red.gif","img/card_backs/set1/yellow.gif","img/card_backs/set1/purple.gif","img/card_backs/set1/green.gif","img/card_backs/set2/pink.gif","img/card_backs/set2/blue.gif","img/card_backs/set2/gray.gif","img/card_backs/set2/orange.gif","""event"",""trial"",""time""
""fullscreenenter"",""1"",""2132""
","
","
","""event"",""trial"",""time""
""fullscreenenter"",""1"",""2132""
","
","","2588.5","True or False: You will have as much time as you want to make your response.","70","","","2021-08-04 17:02:51.014","","","","","",""
"casino-keyboard-response","65","263317","0.0-21.1-1.1","A480","false","img/card_backs/set1/red.gif","img/card_backs/set1/yellow.gif","img/card_backs/set1/purple.gif","img/card_backs/set1/green.gif","img/card_backs/set2/pink.gif","img/card_backs/set2/blue.gif","img/card_backs/set2/gray.gif","img/card_backs/set2/orange.gif","""event"",""trial"",""time""
""fullscreenenter"",""1"",""2132""
","
","
","""event"",""trial"",""time""
""fullscreenenter"",""1"",""2132""
","
","","2228.5","False is correct! You will only have 10 seconds to make each choice.","75","","","2021-08-04 17:02:53.244","","","","","true",""
"casino-comp_q","66","265519","0.0-22.0-0.0","A480","false","img/card_backs/set1/red.gif","img/card_backs/set1/yellow.gif","img/card_backs/set1/purple.gif","img/card_backs/set1/green.gif","img/card_backs/set2/pink.gif","img/card_backs/set2/blue.gif","img/card_backs/set2/gray.gif","img/card_backs/set2/orange.gif","""event"",""trial"",""time""
""fullscreenenter"",""1"",""2132""
","
","
","""event"",""trial"",""time""
""fullscreenenter"",""1"",""2132""
","
","","2200.60000000149","True or False: The location of the deck determines how lucky it is.","70","","","2021-08-04 17:02:55.446","","","","","",""
"casino-keyboard-response","67","268120","0.0-22.0-1.0","A480","false","img/card_backs/set1/red.gif","img/card_backs/set1/yellow.gif","img/card_backs/set1/purple.gif","img/card_backs/set1/green.gif","img/card_backs/set2/pink.gif","img/card_backs/set2/blue.gif","img/card_backs/set2/gray.gif","img/card_backs/set2/orange.gif","""event"",""trial"",""time""
""fullscreenenter"",""1"",""2132""
","
","
","""event"",""trial"",""time""
""fullscreenenter"",""1"",""2132""
","
","","2599.39999999851","False is correct! The <i>color</i>  of the deck determines how lucky or unlucky it is.","68","","","2021-08-04 17:02:58.047","","","","","true",""
"casino-keyboard-response","68","272078","0.0-23.0-0.0","A480","false","img/card_backs/set1/red.gif","img/card_backs/set1/yellow.gif","img/card_backs/set1/purple.gif","img/card_backs/set1/green.gif","img/card_backs/set2/pink.gif","img/card_backs/set2/blue.gif","img/card_backs/set2/gray.gif","img/card_backs/set2/orange.gif","""event"",""trial"",""time""
""fullscreenenter"",""1"",""2132""
","
","
","""event"",""trial"",""time""
""fullscreenenter"",""1"",""2132""
","
","","3957.39999999851","Great job! Now it's time to start the real game.","82","","instructions","2021-08-04 17:03:02.005","","","","","",""
"casino-keyboard-response","69","277014","0.0-23.0-0.1","A480","false","img/card_backs/set1/red.gif","img/card_backs/set1/yellow.gif","img/card_backs/set1/purple.gif","img/card_backs/set1/green.gif","img/card_backs/set2/pink.gif","img/card_backs/set2/blue.gif","img/card_backs/set2/gray.gif","img/card_backs/set2/orange.gif","""event"",""trial"",""time""
""fullscreenenter"",""1"",""2132""
","
","
","""event"",""trial"",""time""
""fullscreenenter"",""1"",""2132""
","
","","4934.39999999851","Before we start, we're going to head into a new room of the casino.","86","","instructions","2021-08-04 17:03:06.941","","","","","",""
"casino-keyboard-response","70","282819","0.0-24.0-0.0","A480","false","img/card_backs/set1/red.gif","img/card_backs/set1/yellow.gif","img/card_backs/set1/purple.gif","img/card_backs/set1/green.gif","img/card_backs/set2/pink.gif","img/card_backs/set2/blue.gif","img/card_backs/set2/gray.gif","img/card_backs/set2/orange.gif","""event"",""trial"",""time""
""fullscreenenter"",""1"",""2132""
","
","
","""event"",""trial"",""time""
""fullscreenenter"",""1"",""2132""
","
","","5803.89999999851","Here we are! The real game will use different cards, but the rules will be the same.","71","","instructions","2021-08-04 17:03:12.746","","","","","",""
"casino-keyboard-response","71","284881","0.0-24.0-0.1","A480","false","img/card_backs/set1/red.gif","img/card_backs/set1/yellow.gif","img/card_backs/set1/purple.gif","img/card_backs/set1/green.gif","img/card_backs/set2/pink.gif","img/card_backs/set2/blue.gif","img/card_backs/set2/gray.gif","img/card_backs/set2/orange.gif","""event"",""trial"",""time""
""fullscreenenter"",""1"",""2132""
","
","
","""event"",""trial"",""time""
""fullscreenenter"",""1"",""2132""
","
","","2060.10000000149","Ready? Put your fingers over the '2', '4', 6', and '8' keys so you are ready to play the game. </br> Then press 2 to start.","50","","instructions","2021-08-04 17:03:14.808","","","","","",""
"casino-fixation","72","285382","0.0-25.0-0.0","A480","false","img/card_backs/set1/red.gif","img/card_backs/set1/yellow.gif","img/card_backs/set1/purple.gif","img/card_backs/set1/green.gif","img/card_backs/set2/pink.gif","img/card_backs/set2/blue.gif","img/card_backs/set2/gray.gif","img/card_backs/set2/orange.gif","""event"",""trial"",""time""
""fullscreenenter"",""1"",""2132""
","
","
","""event"",""trial"",""time""
""fullscreenenter"",""1"",""2132""
","
","","null","","null","","fixation","2021-08-04 17:03:15.309","","","","","",""
"card-selection-trial","73","288290","0.0-25.0-1.0","A480","false","img/card_backs/set1/red.gif","img/card_backs/set1/yellow.gif","img/card_backs/set1/purple.gif","img/card_backs/set1/green.gif","img/card_backs/set2/pink.gif","img/card_backs/set2/blue.gif","img/card_backs/set2/gray.gif","img/card_backs/set2/orange.gif","""event"",""trial"",""time""
""fullscreenenter"",""1"",""2132""
","
","
","""event"",""trial"",""time""
""fullscreenenter"",""1"",""2132""
","
","","897.5","","","","real_trial","2021-08-04 17:03:18.217","img/card_backs/set1/green.gif","3","-70","1","",""
"casino-fixation","74","288792","0.0-25.0-0.1","A480","false","img/card_backs/set1/red.gif","img/card_backs/set1/yellow.gif","img/card_backs/set1/purple.gif","img/card_backs/set1/green.gif","img/card_backs/set2/pink.gif","img/card_backs/set2/blue.gif","img/card_backs/set2/gray.gif","img/card_backs/set2/orange.gif","""event"",""trial"",""time""
""fullscreenenter"",""1"",""2132""
","
","
","""event"",""trial"",""time""
""fullscreenenter"",""1"",""2132""
","
","","null","","null","","fixation","2021-08-04 17:03:18.719","","","","","",""
"card-selection-trial","75","291509","0.0-25.0-1.1","A480","false","img/card_backs/set1/red.gif","img/card_backs/set1/yellow.gif","img/card_backs/set1/purple.gif","img/card_backs/set1/green.gif","img/card_backs/set2/pink.gif","img/card_backs/set2/blue.gif","img/card_backs/set2/gray.gif","img/card_backs/set2/orange.gif","""event"",""trial"",""time""
""fullscreenenter"",""1"",""2132""
","
","
","""event"",""trial"",""time""
""fullscreenenter"",""1"",""2132""
","
","","711.3000000044703","","","","real_trial","2021-08-04 17:03:21.436","img/card_backs/set1/purple.gif","2","-70","1","",""
"casino-fixation","76","292015","0.0-25.0-0.2","A480","false","img/card_backs/set1/red.gif","img/card_backs/set1/yellow.gif","img/card_backs/set1/purple.gif","img/card_backs/set1/green.gif","img/card_backs/set2/pink.gif","img/card_backs/set2/blue.gif","img/card_backs/set2/gray.gif","img/card_backs/set2/orange.gif","""event"",""trial"",""time""
""fullscreenenter"",""1"",""2132""
","
","
","""event"",""trial"",""time""
""fullscreenenter"",""1"",""2132""
","
","","null","","null","","fixation","2021-08-04 17:03:21.942","","","","","",""
"card-selection-trial","77","294432","0.0-25.0-1.2","A480","false","img/card_backs/set1/red.gif","img/card_backs/set1/yellow.gif","img/card_backs/set1/purple.gif","img/card_backs/set1/green.gif","img/card_backs/set2/pink.gif","img/card_backs/set2/blue.gif","img/card_backs/set2/gray.gif","img/card_backs/set2/orange.gif","""event"",""trial"",""time""
""fullscreenenter"",""1"",""2132""
","
","
","""event"",""trial"",""time""
""fullscreenenter"",""1"",""2132""
","
","","411.80000000447035","","","","real_trial","2021-08-04 17:03:24.359","img/card_backs/set1/yellow.gif","1","190","1","",""
"casino-fixation","78","294939","0.0-25.0-0.3","A480","false","img/card_backs/set1/red.gif","img/card_backs/set1/yellow.gif","img/card_backs/set1/purple.gif","img/card_backs/set1/green.gif","img/card_backs/set2/pink.gif","img/card_backs/set2/blue.gif","img/card_backs/set2/gray.gif","img/card_backs/set2/orange.gif","""event"",""trial"",""time""
""fullscreenenter"",""1"",""2132""
","
","
","""event"",""trial"",""time""
""fullscreenenter"",""1"",""2132""
","
","","null","","null","","fixation","2021-08-04 17:03:24.866","","","","","",""
"card-selection-trial","79","297600","0.0-25.0-1.3","A480","false","img/card_backs/set1/red.gif","img/card_backs/set1/yellow.gif","img/card_backs/set1/purple.gif","img/card_backs/set1/green.gif","img/card_backs/set2/pink.gif","img/card_backs/set2/blue.gif","img/card_backs/set2/gray.gif","img/card_backs/set2/orange.gif","""event"",""trial"",""time""
""fullscreenenter"",""1"",""2132""
","
","
","""event"",""trial"",""time""
""fullscreenenter"",""1"",""2132""
","
","","651.6000000014901","","","","real_trial","2021-08-04 17:03:27.527","img/card_backs/set1/yellow.gif","3","180","1","",""
"casino-fixation","80","298106","0.0-25.0-0.4","A480","false","img/card_backs/set1/red.gif","img/card_backs/set1/yellow.gif","img/card_backs/set1/purple.gif","img/card_backs/set1/green.gif","img/card_backs/set2/pink.gif","img/card_backs/set2/blue.gif","img/card_backs/set2/gray.gif","img/card_backs/set2/orange.gif","""event"",""trial"",""time""
""fullscreenenter"",""1"",""2132""
","
","
","""event"",""trial"",""time""
""fullscreenenter"",""1"",""2132""
","
","","null","","null","","fixation","2021-08-04 17:03:28.033","","","","","",""
"card-selection-trial","81","300608","0.0-25.0-1.4","A480","false","img/card_backs/set1/red.gif","img/card_backs/set1/yellow.gif","img/card_backs/set1/purple.gif","img/card_backs/set1/green.gif","img/card_backs/set2/pink.gif","img/card_backs/set2/blue.gif","img/card_backs/set2/gray.gif","img/card_backs/set2/orange.gif","""event"",""trial"",""time""
""fullscreenenter"",""1"",""2132""
","
","
","""event"",""trial"",""time""
""fullscreenenter"",""1"",""2132""
","
","","496.20000000298023","","","","real_trial","2021-08-04 17:03:30.535","img/card_backs/set1/yellow.gif","3","190","1","",""
"casino-fixation","82","301112","0.0-25.0-0.5","A480","false","img/card_backs/set1/red.gif","img/card_backs/set1/yellow.gif","img/card_backs/set1/purple.gif","img/card_backs/set1/green.gif","img/card_backs/set2/pink.gif","img/card_backs/set2/blue.gif","img/card_backs/set2/gray.gif","img/card_backs/set2/orange.gif","""event"",""trial"",""time""
""fullscreenenter"",""1"",""2132""
","
","
","""event"",""trial"",""time""
""fullscreenenter"",""1"",""2132""
","
","","null","","null","","fixation","2021-08-04 17:03:31.039","","","","","",""
"card-selection-trial","83","303616","0.0-25.0-1.5","A480","false","img/card_backs/set1/red.gif","img/card_backs/set1/yellow.gif","img/card_backs/set1/purple.gif","img/card_backs/set1/green.gif","img/card_backs/set2/pink.gif","img/card_backs/set2/blue.gif","img/card_backs/set2/gray.gif","img/card_backs/set2/orange.gif","""event"",""trial"",""time""
""fullscreenenter"",""1"",""2132""
","
","
","""event"",""trial"",""time""
""fullscreenenter"",""1"",""2132""
","
","","495.20000000298023","","","","real_trial","2021-08-04 17:03:33.543","img/card_backs/set1/yellow.gif","0","-230","1","",""
"casino-fixation","84","304122","0.0-25.0-0.6","A480","false","img/card_backs/set1/red.gif","img/card_backs/set1/yellow.gif","img/card_backs/set1/purple.gif","img/card_backs/set1/green.gif","img/card_backs/set2/pink.gif","img/card_backs/set2/blue.gif","img/card_backs/set2/gray.gif","img/card_backs/set2/orange.gif","""event"",""trial"",""time""
""fullscreenenter"",""1"",""2132""
","
","
","""event"",""trial"",""time""
""fullscreenenter"",""1"",""2132""
","
","","null","","null","","fixation","2021-08-04 17:03:34.049","","","","","",""
"card-selection-trial","85","307140","0.0-25.0-1.6","A480","false","img/card_backs/set1/red.gif","img/card_backs/set1/yellow.gif","img/card_backs/set1/purple.gif","img/card_backs/set1/green.gif","img/card_backs/set2/pink.gif","img/card_backs/set2/blue.gif","img/card_backs/set2/gray.gif","img/card_backs/set2/orange.gif","""event"",""trial"",""time""
""fullscreenenter"",""1"",""2132""
","
","
","""event"",""trial"",""time""
""fullscreenenter"",""1"",""2132""
","
","","1007.7999999970198","","","","real_trial","2021-08-04 17:03:37.067","img/card_backs/set1/red.gif","0","190","1","",""
"casino-fixation","86","307645","0.0-25.0-0.7","A480","false","img/card_backs/set1/red.gif","img/card_backs/set1/yellow.gif","img/card_backs/set1/purple.gif","img/card_backs/set1/green.gif","img/card_backs/set2/pink.gif","img/card_backs/set2/blue.gif","img/card_backs/set2/gray.gif","img/card_backs/set2/orange.gif","""event"",""trial"",""time""
""fullscreenenter"",""1"",""2132""
","
","
","""event"",""trial"",""time""
""fullscreenenter"",""1"",""2132""
","
","","null","","null","","fixation","2021-08-04 17:03:37.572","","","","","",""
"card-selection-trial","87","310645","0.0-25.0-1.7","A480","false","img/card_backs/set1/red.gif","img/card_backs/set1/yellow.gif","img/card_backs/set1/purple.gif","img/card_backs/set1/green.gif","img/card_backs/set2/pink.gif","img/card_backs/set2/blue.gif","img/card_backs/set2/gray.gif","img/card_backs/set2/orange.gif","""event"",""trial"",""time""
""fullscreenenter"",""1"",""2132""
","
","
","""event"",""trial"",""time""
""fullscreenenter"",""1"",""2132""
","
","","990","","","","real_trial","2021-08-04 17:03:40.572","img/card_backs/set1/yellow.gif","0","-250","1","",""
"casino-fixation","88","311147","0.0-25.0-0.8","A480","false","img/card_backs/set1/red.gif","img/card_backs/set1/yellow.gif","img/card_backs/set1/purple.gif","img/card_backs/set1/green.gif","img/card_backs/set2/pink.gif","img/card_backs/set2/blue.gif","img/card_backs/set2/gray.gif","img/card_backs/set2/orange.gif","""event"",""trial"",""time""
""fullscreenenter"",""1"",""2132""
","
","
","""event"",""trial"",""time""
""fullscreenenter"",""1"",""2132""
","
","","null","","null","","fixation","2021-08-04 17:03:41.074","","","","","",""
"card-selection-trial","89","313573","0.0-25.0-1.8","A480","false","img/card_backs/set1/red.gif","img/card_backs/set1/yellow.gif","img/card_backs/set1/purple.gif","img/card_backs/set1/green.gif","img/card_backs/set2/pink.gif","img/card_backs/set2/blue.gif","img/card_backs/set2/gray.gif","img/card_backs/set2/orange.gif","""event"",""trial"",""time""
""fullscreenenter"",""1"",""2132""
","
","
","""event"",""trial"",""time""
""fullscreenenter"",""1"",""2132""
","
","","420.6000000014901","","","","real_trial","2021-08-04 17:03:43.500","img/card_backs/set1/red.gif","1","200","1","",""
"casino-fixation","90","314078","0.0-25.0-0.9","A480","false","img/card_backs/set1/red.gif","img/card_backs/set1/yellow.gif","img/card_backs/set1/purple.gif","img/card_backs/set1/green.gif","img/card_backs/set2/pink.gif","img/card_backs/set2/blue.gif","img/card_backs/set2/gray.gif","img/card_backs/set2/orange.gif","""event"",""trial"",""time""
""fullscreenenter"",""1"",""2132""
","
","
","""event"",""trial"",""time""
""fullscreenenter"",""1"",""2132""
","
","","null","","null","","fixation","2021-08-04 17:03:44.005","","","","","",""
"card-selection-trial","91","316513","0.0-25.0-1.9","A480","false","img/card_backs/set1/red.gif","img/card_backs/set1/yellow.gif","img/card_backs/set1/purple.gif","img/card_backs/set1/green.gif","img/card_backs/set2/pink.gif","img/card_backs/set2/blue.gif","img/card_backs/set2/gray.gif","img/card_backs/set2/orange.gif","""event"",""trial"",""time""
""fullscreenenter"",""1"",""2132""
","
","
","""event"",""trial"",""time""
""fullscreenenter"",""1"",""2132""
","
","","427.5","","","","real_trial","2021-08-04 17:03:46.440","img/card_backs/set1/red.gif","1","-250","1","",""
"casino-fixation","92","317015","0.0-25.0-0.10","A480","false","img/card_backs/set1/red.gif","img/card_backs/set1/yellow.gif","img/card_backs/set1/purple.gif","img/card_backs/set1/green.gif","img/card_backs/set2/pink.gif","img/card_backs/set2/blue.gif","img/card_backs/set2/gray.gif","img/card_backs/set2/orange.gif","""event"",""trial"",""time""
""fullscreenenter"",""1"",""2132""
","
","
","""event"",""trial"",""time""
""fullscreenenter"",""1"",""2132""
","
","","null","","null","","fixation","2021-08-04 17:03:46.942","","","","","",""
"card-selection-trial","93","319477","0.0-25.0-1.10","A480","false","img/card_backs/set1/red.gif","img/card_backs/set1/yellow.gif","img/card_backs/set1/purple.gif","img/card_backs/set1/green.gif","img/card_backs/set2/pink.gif","img/card_backs/set2/blue.gif","img/card_backs/set2/gray.gif","img/card_backs/set2/orange.gif","""event"",""trial"",""time""
""fullscreenenter"",""1"",""2132""
","
","
","""event"",""trial"",""time""
""fullscreenenter"",""1"",""2132""
","
","","454.90000000596046","","","","real_trial","2021-08-04 17:03:49.404","img/card_backs/set1/yellow.gif","2","180","1","",""
"casino-fixation","94","319980","0.0-25.0-0.11","A480","false","img/card_backs/set1/red.gif","img/card_backs/set1/yellow.gif","img/card_backs/set1/purple.gif","img/card_backs/set1/green.gif","img/card_backs/set2/pink.gif","img/card_backs/set2/blue.gif","img/card_backs/set2/gray.gif","img/card_backs/set2/orange.gif","""event"",""trial"",""time""
""fullscreenenter"",""1"",""2132""
","
","
","""event"",""trial"",""time""
""fullscreenenter"",""1"",""2132""
","
","","null","","null","","fixation","2021-08-04 17:03:49.907","","","","","",""
"card-selection-trial","95","323900","0.0-25.0-1.11","A480","false","img/card_backs/set1/red.gif","img/card_backs/set1/yellow.gif","img/card_backs/set1/purple.gif","img/card_backs/set1/green.gif","img/card_backs/set2/pink.gif","img/card_backs/set2/blue.gif","img/card_backs/set2/gray.gif","img/card_backs/set2/orange.gif","""event"",""trial"",""time""
""fullscreenenter"",""1"",""2132""
","
","
","""event"",""trial"",""time""
""fullscreenenter"",""1"",""2132""
","
","","1913.7999999970198","","","","real_trial","2021-08-04 17:03:53.827","img/card_backs/set1/yellow.gif","3","180","1","",""
"casino-fixation","96","324406","0.0-25.0-0.12","A480","false","img/card_backs/set1/red.gif","img/card_backs/set1/yellow.gif","img/card_backs/set1/purple.gif","img/card_backs/set1/green.gif","img/card_backs/set2/pink.gif","img/card_backs/set2/blue.gif","img/card_backs/set2/gray.gif","img/card_backs/set2/orange.gif","""event"",""trial"",""time""
""fullscreenenter"",""1"",""2132""
","
","
","""event"",""trial"",""time""
""fullscreenenter"",""1"",""2132""
","
","","null","","null","","fixation","2021-08-04 17:03:54.333","","","","","",""
"card-selection-trial","97","327259","0.0-25.0-1.12","A480","false","img/card_backs/set1/red.gif","img/card_backs/set1/yellow.gif","img/card_backs/set1/purple.gif","img/card_backs/set1/green.gif","img/card_backs/set2/pink.gif","img/card_backs/set2/blue.gif","img/card_backs/set2/gray.gif","img/card_backs/set2/orange.gif","""event"",""trial"",""time""
""fullscreenenter"",""1"",""2132""
","
","
","""event"",""trial"",""time""
""fullscreenenter"",""1"",""2132""
","
","","845.5999999940395","","","","real_trial","2021-08-04 17:03:57.186","img/card_backs/set1/red.gif","3","180","1","",""
"casino-fixation","98","327763","0.0-25.0-0.13","A480","false","img/card_backs/set1/red.gif","img/card_backs/set1/yellow.gif","img/card_backs/set1/purple.gif","img/card_backs/set1/green.gif","img/card_backs/set2/pink.gif","img/card_backs/set2/blue.gif","img/card_backs/set2/gray.gif","img/card_backs/set2/orange.gif","""event"",""trial"",""time""
""fullscreenenter"",""1"",""2132""
","
","
","""event"",""trial"",""time""
""fullscreenenter"",""1"",""2132""
","
","","null","","null","","fixation","2021-08-04 17:03:57.691","","","","","",""
"card-selection-trial","99","330241","0.0-25.0-1.13","A480","false","img/card_backs/set1/red.gif","img/card_backs/set1/yellow.gif","img/card_backs/set1/purple.gif","img/card_backs/set1/green.gif","img/card_backs/set2/pink.gif","img/card_backs/set2/blue.gif","img/card_backs/set2/gray.gif","img/card_backs/set2/orange.gif","""event"",""trial"",""time""
""fullscreenenter"",""1"",""2132""
","
","
","""event"",""trial"",""time""
""fullscreenenter"",""1"",""2132""
","
","","469.19999999552965","","","","real_trial","2021-08-04 17:04:00.168","img/card_backs/set1/yellow.gif","0","-250","1","",""
"casino-fixation","100","330748","0.0-25.0-0.14","A480","false","img/card_backs/set1/red.gif","img/card_backs/set1/yellow.gif","img/card_backs/set1/purple.gif","img/card_backs/set1/green.gif","img/card_backs/set2/pink.gif","img/card_backs/set2/blue.gif","img/card_backs/set2/gray.gif","img/card_backs/set2/orange.gif","""event"",""trial"",""time""
""fullscreenenter"",""1"",""2132""
","
","
","""event"",""trial"",""time""
""fullscreenenter"",""1"",""2132""
","
","","null","","null","","fixation","2021-08-04 17:04:00.675","","","","","",""
"card-selection-trial","101","333281","0.0-25.0-1.14","A480","false","img/card_backs/set1/red.gif","img/card_backs/set1/yellow.gif","img/card_backs/set1/purple.gif","img/card_backs/set1/green.gif","img/card_backs/set2/pink.gif","img/card_backs/set2/blue.gif","img/card_backs/set2/gray.gif","img/card_backs/set2/orange.gif","""event"",""trial"",""time""
""fullscreenenter"",""1"",""2132""
","
","
","""event"",""trial"",""time""
""fullscreenenter"",""1"",""2132""
","
","","525.1000000014901","","","","real_trial","2021-08-04 17:04:03.208","img/card_backs/set1/yellow.gif","0","200","1","",""
"casino-fixation","102","333785","0.0-25.0-0.15","A480","false","img/card_backs/set1/red.gif","img/card_backs/set1/yellow.gif","img/card_backs/set1/purple.gif","img/card_backs/set1/green.gif","img/card_backs/set2/pink.gif","img/card_backs/set2/blue.gif","img/card_backs/set2/gray.gif","img/card_backs/set2/orange.gif","""event"",""trial"",""time""
""fullscreenenter"",""1"",""2132""
","
","
","""event"",""trial"",""time""
""fullscreenenter"",""1"",""2132""
","
","","null","","null","","fixation","2021-08-04 17:04:03.712","","","","","",""
"card-selection-trial","103","336524","0.0-25.0-1.15","A480","false","img/card_backs/set1/red.gif","img/card_backs/set1/yellow.gif","img/card_backs/set1/purple.gif","img/card_backs/set1/green.gif","img/card_backs/set2/pink.gif","img/card_backs/set2/blue.gif","img/card_backs/set2/gray.gif","img/card_backs/set2/orange.gif","""event"",""trial"",""time""
""fullscreenenter"",""1"",""2132""
","
","
","""event"",""trial"",""time""
""fullscreenenter"",""1"",""2132""
","
","","730.6000000014901","","","","real_trial","2021-08-04 17:04:06.451","img/card_backs/set1/yellow.gif","3","-240","1","",""
"casino-fixation","104","337030","0.0-25.0-0.16","A480","false","img/card_backs/set1/red.gif","img/card_backs/set1/yellow.gif","img/card_backs/set1/purple.gif","img/card_backs/set1/green.gif","img/card_backs/set2/pink.gif","img/card_backs/set2/blue.gif","img/card_backs/set2/gray.gif","img/card_backs/set2/orange.gif","""event"",""trial"",""time""
""fullscreenenter"",""1"",""2132""
","
","
","""event"",""trial"",""time""
""fullscreenenter"",""1"",""2132""
","
","","null","","null","","fixation","2021-08-04 17:04:06.957","","","","","",""
"card-selection-trial","105","339708","0.0-25.0-1.16","A480","false","img/card_backs/set1/red.gif","img/card_backs/set1/yellow.gif","img/card_backs/set1/purple.gif","img/card_backs/set1/green.gif","img/card_backs/set2/pink.gif","img/card_backs/set2/blue.gif","img/card_backs/set2/gray.gif","img/card_backs/set2/orange.gif","""event"",""trial"",""time""
""fullscreenenter"",""1"",""2132""
","
","
","""event"",""trial"",""time""
""fullscreenenter"",""1"",""2132""
","
","","668.1000000014901","","","","real_trial","2021-08-04 17:04:09.635","img/card_backs/set1/red.gif","1","-230","1","",""
"casino-fixation","106","340214","0.0-25.0-0.17","A480","false","img/card_backs/set1/red.gif","img/card_backs/set1/yellow.gif","img/card_backs/set1/purple.gif","img/card_backs/set1/green.gif","img/card_backs/set2/pink.gif","img/card_backs/set2/blue.gif","img/card_backs/set2/gray.gif","img/card_backs/set2/orange.gif","""event"",""trial"",""time""
""fullscreenenter"",""1"",""2132""
","
","
","""event"",""trial"",""time""
""fullscreenenter"",""1"",""2132""
","
","","null","","null","","fixation","2021-08-04 17:04:10.141","","","","","",""
"card-selection-trial","107","342753","0.0-25.0-1.17","A480","false","img/card_backs/set1/red.gif","img/card_backs/set1/yellow.gif","img/card_backs/set1/purple.gif","img/card_backs/set1/green.gif","img/card_backs/set2/pink.gif","img/card_backs/set2/blue.gif","img/card_backs/set2/gray.gif","img/card_backs/set2/orange.gif","""event"",""trial"",""time""
""fullscreenenter"",""1"",""2132""
","
","
","""event"",""trial"",""time""
""fullscreenenter"",""1"",""2132""
","
","","531.8999999985099","","","","real_trial","2021-08-04 17:04:12.680","img/card_backs/set1/yellow.gif","3","-240","1","",""
"casino-fixation","108","343254","0.0-25.0-0.18","A480","false","img/card_backs/set1/red.gif","img/card_backs/set1/yellow.gif","img/card_backs/set1/purple.gif","img/card_backs/set1/green.gif","img/card_backs/set2/pink.gif","img/card_backs/set2/blue.gif","img/card_backs/set2/gray.gif","img/card_backs/set2/orange.gif","""event"",""trial"",""time""
""fullscreenenter"",""1"",""2132""
","
","
","""event"",""trial"",""time""
""fullscreenenter"",""1"",""2132""
","
","","null","","null","","fixation","2021-08-04 17:04:13.181","","","","","",""
"card-selection-trial","109","346019","0.0-25.0-1.18","A480","false","img/card_backs/set1/red.gif","img/card_backs/set1/yellow.gif","img/card_backs/set1/purple.gif","img/card_backs/set1/green.gif","img/card_backs/set2/pink.gif","img/card_backs/set2/blue.gif","img/card_backs/set2/gray.gif","img/card_backs/set2/orange.gif","""event"",""trial"",""time""
""fullscreenenter"",""1"",""2132""
","
","
","""event"",""trial"",""time""
""fullscreenenter"",""1"",""2132""
","
","","758","","","","real_trial","2021-08-04 17:04:15.946","img/card_backs/set1/yellow.gif","2","200","1","",""
"casino-fixation","110","346523","0.0-25.0-0.19","A480","false","img/card_backs/set1/red.gif","img/card_backs/set1/yellow.gif","img/card_backs/set1/purple.gif","img/card_backs/set1/green.gif","img/card_backs/set2/pink.gif","img/card_backs/set2/blue.gif","img/card_backs/set2/gray.gif","img/card_backs/set2/orange.gif","""event"",""trial"",""time""
""fullscreenenter"",""1"",""2132""
","
","
","""event"",""trial"",""time""
""fullscreenenter"",""1"",""2132""
","
","","null","","null","","fixation","2021-08-04 17:04:16.451","","","","","",""
"card-selection-trial","111","349084","0.0-25.0-1.19","A480","false","img/card_backs/set1/red.gif","img/card_backs/set1/yellow.gif","img/card_backs/set1/purple.gif","img/card_backs/set1/green.gif","img/card_backs/set2/pink.gif","img/card_backs/set2/blue.gif","img/card_backs/set2/gray.gif","img/card_backs/set2/orange.gif","""event"",""trial"",""time""
""fullscreenenter"",""1"",""2132""
","
","
","""event"",""trial"",""time""
""fullscreenenter"",""1"",""2132""
","
","","552.3999999985099","","","","real_trial","2021-08-04 17:04:19.011","img/card_backs/set1/red.gif","3","200","1","",""
"casino-fixation","112","349585","0.0-25.0-0.20","A480","false","img/card_backs/set1/red.gif","img/card_backs/set1/yellow.gif","img/card_backs/set1/purple.gif","img/card_backs/set1/green.gif","img/card_backs/set2/pink.gif","img/card_backs/set2/blue.gif","img/card_backs/set2/gray.gif","img/card_backs/set2/orange.gif","""event"",""trial"",""time""
""fullscreenenter"",""1"",""2132""
","
","
","""event"",""trial"",""time""
""fullscreenenter"",""1"",""2132""
","
","","null","","null","","fixation","2021-08-04 17:04:19.513","","","","","",""
"card-selection-trial","113","352043","0.0-25.0-1.20","A480","false","img/card_backs/set1/red.gif","img/card_backs/set1/yellow.gif","img/card_backs/set1/purple.gif","img/card_backs/set1/green.gif","img/card_backs/set2/pink.gif","img/card_backs/set2/blue.gif","img/card_backs/set2/gray.gif","img/card_backs/set2/orange.gif","""event"",""trial"",""time""
""fullscreenenter"",""1"",""2132""
","
","
","""event"",""trial"",""time""
""fullscreenenter"",""1"",""2132""
","
","","451","","","","real_trial","2021-08-04 17:04:21.971","img/card_backs/set1/yellow.gif","1","200","1","",""
"casino-fixation","114","352545","0.0-25.0-0.21","A480","false","img/card_backs/set1/red.gif","img/card_backs/set1/yellow.gif","img/card_backs/set1/purple.gif","img/card_backs/set1/green.gif","img/card_backs/set2/pink.gif","img/card_backs/set2/blue.gif","img/card_backs/set2/gray.gif","img/card_backs/set2/orange.gif","""event"",""trial"",""time""
""fullscreenenter"",""1"",""2132""
","
","
","""event"",""trial"",""time""
""fullscreenenter"",""1"",""2132""
","
","","null","","null","","fixation","2021-08-04 17:04:22.472","","","","","",""
"card-selection-trial","115","355196","0.0-25.0-1.21","A480","false","img/card_backs/set1/red.gif","img/card_backs/set1/yellow.gif","img/card_backs/set1/purple.gif","img/card_backs/set1/green.gif","img/card_backs/set2/pink.gif","img/card_backs/set2/blue.gif","img/card_backs/set2/gray.gif","img/card_backs/set2/orange.gif","""event"",""trial"",""time""
""fullscreenenter"",""1"",""2132""
","
","
","""event"",""trial"",""time""
""fullscreenenter"",""1"",""2132""
","
","","643.9000000059605","","","","real_trial","2021-08-04 17:04:25.123","img/card_backs/set1/red.gif","1","180","1","",""
"casino-fixation","116","355702","0.0-25.0-0.22","A480","false","img/card_backs/set1/red.gif","img/card_backs/set1/yellow.gif","img/card_backs/set1/purple.gif","img/card_backs/set1/green.gif","img/card_backs/set2/pink.gif","img/card_backs/set2/blue.gif","img/card_backs/set2/gray.gif","img/card_backs/set2/orange.gif","""event"",""trial"",""time""
""fullscreenenter"",""1"",""2132""
","
","
","""event"",""trial"",""time""
""fullscreenenter"",""1"",""2132""
","
","","null","","null","","fixation","2021-08-04 17:04:25.629","","","","","",""
"card-selection-trial","117","358422","0.0-25.0-1.22","A480","false","img/card_backs/set1/red.gif","img/card_backs/set1/yellow.gif","img/card_backs/set1/purple.gif","img/card_backs/set1/green.gif","img/card_backs/set2/pink.gif","img/card_backs/set2/blue.gif","img/card_backs/set2/gray.gif","img/card_backs/set2/orange.gif","""event"",""trial"",""time""
""fullscreenenter"",""1"",""2132""
","
","
","""event"",""trial"",""time""
""fullscreenenter"",""1"",""2132""
","
","","713.7000000029802","","","","real_trial","2021-08-04 17:04:28.350","img/card_backs/set1/yellow.gif","2","200","1","",""
"casino-fixation","118","358925","0.0-25.0-0.23","A480","false","img/card_backs/set1/red.gif","img/card_backs/set1/yellow.gif","img/card_backs/set1/purple.gif","img/card_backs/set1/green.gif","img/card_backs/set2/pink.gif","img/card_backs/set2/blue.gif","img/card_backs/set2/gray.gif","img/card_backs/set2/orange.gif","""event"",""trial"",""time""
""fullscreenenter"",""1"",""2132""
","
","
","""event"",""trial"",""time""
""fullscreenenter"",""1"",""2132""
","
","","null","","null","","fixation","2021-08-04 17:04:28.853","","","","","",""
"card-selection-trial","119","361456","0.0-25.0-1.23","A480","false","img/card_backs/set1/red.gif","img/card_backs/set1/yellow.gif","img/card_backs/set1/purple.gif","img/card_backs/set1/green.gif","img/card_backs/set2/pink.gif","img/card_backs/set2/blue.gif","img/card_backs/set2/gray.gif","img/card_backs/set2/orange.gif","""event"",""trial"",""time""
""fullscreenenter"",""1"",""2132""
","
","
","""event"",""trial"",""time""
""fullscreenenter"",""1"",""2132""
","
","","523.8999999985099","","","","real_trial","2021-08-04 17:04:31.384","img/card_backs/set1/red.gif","2","-250","1","",""
"casino-fixation","120","361963","0.0-25.0-0.24","A480","false","img/card_backs/set1/red.gif","img/card_backs/set1/yellow.gif","img/card_backs/set1/purple.gif","img/card_backs/set1/green.gif","img/card_backs/set2/pink.gif","img/card_backs/set2/blue.gif","img/card_backs/set2/gray.gif","img/card_backs/set2/orange.gif","""event"",""trial"",""time""
""fullscreenenter"",""1"",""2132""
","
","
","""event"",""trial"",""time""
""fullscreenenter"",""1"",""2132""
","
","","null","","null","","fixation","2021-08-04 17:04:31.890","","","","","",""
"card-selection-trial","121","364471","0.0-25.0-1.24","A480","false","img/card_backs/set1/red.gif","img/card_backs/set1/yellow.gif","img/card_backs/set1/purple.gif","img/card_backs/set1/green.gif","img/card_backs/set2/pink.gif","img/card_backs/set2/blue.gif","img/card_backs/set2/gray.gif","img/card_backs/set2/orange.gif","""event"",""trial"",""time""
""fullscreenenter"",""1"",""2132""
","
","
","""event"",""trial"",""time""
""fullscreenenter"",""1"",""2132""
","
","","501.5","","","","real_trial","2021-08-04 17:04:34.398","img/card_backs/set1/red.gif","1","-250","1","",""
"casino-fixation","122","364972","0.0-25.0-0.25","A480","false","img/card_backs/set1/red.gif","img/card_backs/set1/yellow.gif","img/card_backs/set1/purple.gif","img/card_backs/set1/green.gif","img/card_backs/set2/pink.gif","img/card_backs/set2/blue.gif","img/card_backs/set2/gray.gif","img/card_backs/set2/orange.gif","""event"",""trial"",""time""
""fullscreenenter"",""1"",""2132""
","
","
","""event"",""trial"",""time""
""fullscreenenter"",""1"",""2132""
","
","","null","","null","","fixation","2021-08-04 17:04:34.899","","","","","",""
"card-selection-trial","123","367477","0.0-25.0-1.25","A480","false","img/card_backs/set1/red.gif","img/card_backs/set1/yellow.gif","img/card_backs/set1/purple.gif","img/card_backs/set1/green.gif","img/card_backs/set2/pink.gif","img/card_backs/set2/blue.gif","img/card_backs/set2/gray.gif","img/card_backs/set2/orange.gif","""event"",""trial"",""time""
""fullscreenenter"",""1"",""2132""
","
","
","""event"",""trial"",""time""
""fullscreenenter"",""1"",""2132""
","
","","497.3999999985099","","","","real_trial","2021-08-04 17:04:37.404","img/card_backs/set1/red.gif","1","-240","1","",""
"casino-fixation","124","367979","0.0-25.0-0.26","A480","false","img/card_backs/set1/red.gif","img/card_backs/set1/yellow.gif","img/card_backs/set1/purple.gif","img/card_backs/set1/green.gif","img/card_backs/set2/pink.gif","img/card_backs/set2/blue.gif","img/card_backs/set2/gray.gif","img/card_backs/set2/orange.gif","""event"",""trial"",""time""
""fullscreenenter"",""1"",""2132""
","
","
","""event"",""trial"",""time""
""fullscreenenter"",""1"",""2132""
","
","","null","","null","","fixation","2021-08-04 17:04:37.907","","","","","",""
"card-selection-trial","125","370428","0.0-25.0-1.26","A480","false","img/card_backs/set1/red.gif","img/card_backs/set1/yellow.gif","img/card_backs/set1/purple.gif","img/card_backs/set1/green.gif","img/card_backs/set2/pink.gif","img/card_backs/set2/blue.gif","img/card_backs/set2/gray.gif","img/card_backs/set2/orange.gif","""event"",""trial"",""time""
""fullscreenenter"",""1"",""2132""
","
","
","""event"",""trial"",""time""
""fullscreenenter"",""1"",""2132""
","
","","442.5","","","","real_trial","2021-08-04 17:04:40.355","img/card_backs/set1/red.gif","0","180","1","",""
"casino-fixation","126","370931","0.0-25.0-0.27","A480","false","img/card_backs/set1/red.gif","img/card_backs/set1/yellow.gif","img/card_backs/set1/purple.gif","img/card_backs/set1/green.gif","img/card_backs/set2/pink.gif","img/card_backs/set2/blue.gif","img/card_backs/set2/gray.gif","img/card_backs/set2/orange.gif","""event"",""trial"",""time""
""fullscreenenter"",""1"",""2132""
","
","
","""event"",""trial"",""time""
""fullscreenenter"",""1"",""2132""
","
","","null","","null","","fixation","2021-08-04 17:04:40.858","","","","","",""
"card-selection-trial","127","373366","0.0-25.0-1.27","A480","false","img/card_backs/set1/red.gif","img/card_backs/set1/yellow.gif","img/card_backs/set1/purple.gif","img/card_backs/set1/green.gif","img/card_backs/set2/pink.gif","img/card_backs/set2/blue.gif","img/card_backs/set2/gray.gif","img/card_backs/set2/orange.gif","""event"",""trial"",""time""
""fullscreenenter"",""1"",""2132""
","
","
","""event"",""trial"",""time""
""fullscreenenter"",""1"",""2132""
","
","","430.19999999552965","","","","real_trial","2021-08-04 17:04:43.293","img/card_backs/set1/yellow.gif","1","190","1","",""
"casino-fixation","128","373872","0.0-25.0-0.28","A480","false","img/card_backs/set1/red.gif","img/card_backs/set1/yellow.gif","img/card_backs/set1/purple.gif","img/card_backs/set1/green.gif","img/card_backs/set2/pink.gif","img/card_backs/set2/blue.gif","img/card_backs/set2/gray.gif","img/card_backs/set2/orange.gif","""event"",""trial"",""time""
""fullscreenenter"",""1"",""2132""
","
","
","""event"",""trial"",""time""
""fullscreenenter"",""1"",""2132""
","
","","null","","null","","fixation","2021-08-04 17:04:43.799","","","","","",""
"card-selection-trial","129","376411","0.0-25.0-1.28","A480","false","img/card_backs/set1/red.gif","img/card_backs/set1/yellow.gif","img/card_backs/set1/purple.gif","img/card_backs/set1/green.gif","img/card_backs/set2/pink.gif","img/card_backs/set2/blue.gif","img/card_backs/set2/gray.gif","img/card_backs/set2/orange.gif","""event"",""trial"",""time""
""fullscreenenter"",""1"",""2132""
","
","
","""event"",""trial"",""time""
""fullscreenenter"",""1"",""2132""
","
","","532.5","","","","real_trial","2021-08-04 17:04:46.338","img/card_backs/set1/red.gif","2","190","1","",""
"casino-fixation","130","376913","0.0-25.0-0.29","A480","false","img/card_backs/set1/red.gif","img/card_backs/set1/yellow.gif","img/card_backs/set1/purple.gif","img/card_backs/set1/green.gif","img/card_backs/set2/pink.gif","img/card_backs/set2/blue.gif","img/card_backs/set2/gray.gif","img/card_backs/set2/orange.gif","""event"",""trial"",""time""
""fullscreenenter"",""1"",""2132""
","
","
","""event"",""trial"",""time""
""fullscreenenter"",""1"",""2132""
","
","","null","","null","","fixation","2021-08-04 17:04:46.840","","","","","",""
"card-selection-trial","131","379313","0.0-25.0-1.29","A480","false","img/card_backs/set1/red.gif","img/card_backs/set1/yellow.gif","img/card_backs/set1/purple.gif","img/card_backs/set1/green.gif","img/card_backs/set2/pink.gif","img/card_backs/set2/blue.gif","img/card_backs/set2/gray.gif","img/card_backs/set2/orange.gif","""event"",""trial"",""time""
""fullscreenenter"",""1"",""2132""
","
","
","""event"",""trial"",""time""
""fullscreenenter"",""1"",""2132""
","
","","391.79999999701977","","","","real_trial","2021-08-04 17:04:49.240","img/card_backs/set1/red.gif","2","200","1","",""
"casino-fixation","132","379820","0.0-25.0-0.30","A480","false","img/card_backs/set1/red.gif","img/card_backs/set1/yellow.gif","img/card_backs/set1/purple.gif","img/card_backs/set1/green.gif","img/card_backs/set2/pink.gif","img/card_backs/set2/blue.gif","img/card_backs/set2/gray.gif","img/card_backs/set2/orange.gif","""event"",""trial"",""time""
""fullscreenenter"",""1"",""2132""
","
","
","""event"",""trial"",""time""
""fullscreenenter"",""1"",""2132""
","
","","null","","null","","fixation","2021-08-04 17:04:49.747","","","","","",""
"card-selection-trial","133","382444","0.0-25.0-1.30","A480","false","img/card_backs/set1/red.gif","img/card_backs/set1/yellow.gif","img/card_backs/set1/purple.gif","img/card_backs/set1/green.gif","img/card_backs/set2/pink.gif","img/card_backs/set2/blue.gif","img/card_backs/set2/gray.gif","img/card_backs/set2/orange.gif","""event"",""trial"",""time""
""fullscreenenter"",""1"",""2132""
","
","
","""event"",""trial"",""time""
""fullscreenenter"",""1"",""2132""
","
","","617.8999999985099","","","","real_trial","2021-08-04 17:04:52.371","img/card_backs/set1/yellow.gif","2","190","1","",""
"casino-fixation","134","382950","0.0-25.0-0.31","A480","false","img/card_backs/set1/red.gif","img/card_backs/set1/yellow.gif","img/card_backs/set1/purple.gif","img/card_backs/set1/green.gif","img/card_backs/set2/pink.gif","img/card_backs/set2/blue.gif","img/card_backs/set2/gray.gif","img/card_backs/set2/orange.gif","""event"",""trial"",""time""
""fullscreenenter"",""1"",""2132""
","
","
","""event"",""trial"",""time""
""fullscreenenter"",""1"",""2132""
","
","","null","","null","","fixation","2021-08-04 17:04:52.877","","","","","",""
"card-selection-trial","135","385452","0.0-25.0-1.31","A480","false","img/card_backs/set1/red.gif","img/card_backs/set1/yellow.gif","img/card_backs/set1/purple.gif","img/card_backs/set1/green.gif","img/card_backs/set2/pink.gif","img/card_backs/set2/blue.gif","img/card_backs/set2/gray.gif","img/card_backs/set2/orange.gif","""event"",""trial"",""time""
""fullscreenenter"",""1"",""2132""
","
","
","""event"",""trial"",""time""
""fullscreenenter"",""1"",""2132""
","
","","496.30000000447035","","","","real_trial","2021-08-04 17:04:55.379","img/card_backs/set1/red.gif","3","200","1","",""
"casino-fixation","136","385958","0.0-25.0-0.32","A480","false","img/card_backs/set1/red.gif","img/card_backs/set1/yellow.gif","img/card_backs/set1/purple.gif","img/card_backs/set1/green.gif","img/card_backs/set2/pink.gif","img/card_backs/set2/blue.gif","img/card_backs/set2/gray.gif","img/card_backs/set2/orange.gif","""event"",""trial"",""time""
""fullscreenenter"",""1"",""2132""
","
","
","""event"",""trial"",""time""
""fullscreenenter"",""1"",""2132""
","
","","null","","null","","fixation","2021-08-04 17:04:55.886","","","","","",""
"card-selection-trial","137","388300","0.0-25.0-1.32","A480","false","img/card_backs/set1/red.gif","img/card_backs/set1/yellow.gif","img/card_backs/set1/purple.gif","img/card_backs/set1/green.gif","img/card_backs/set2/pink.gif","img/card_backs/set2/blue.gif","img/card_backs/set2/gray.gif","img/card_backs/set2/orange.gif","""event"",""trial"",""time""
""fullscreenenter"",""1"",""2132""
","
","
","""event"",""trial"",""time""
""fullscreenenter"",""1"",""2132""
","
","","335.1000000014901","","","","real_trial","2021-08-04 17:04:58.227","img/card_backs/set1/yellow.gif","0","200","1","",""
"casino-fixation","138","388806","0.0-25.0-0.33","A480","false","img/card_backs/set1/red.gif","img/card_backs/set1/yellow.gif","img/card_backs/set1/purple.gif","img/card_backs/set1/green.gif","img/card_backs/set2/pink.gif","img/card_backs/set2/blue.gif","img/card_backs/set2/gray.gif","img/card_backs/set2/orange.gif","""event"",""trial"",""time""
""fullscreenenter"",""1"",""2132""
","
","
","""event"",""trial"",""time""
""fullscreenenter"",""1"",""2132""
","
","","null","","null","","fixation","2021-08-04 17:04:58.733","","","","","",""
"card-selection-trial","139","391319","0.0-25.0-1.33","A480","false","img/card_backs/set1/red.gif","img/card_backs/set1/yellow.gif","img/card_backs/set1/purple.gif","img/card_backs/set1/green.gif","img/card_backs/set2/pink.gif","img/card_backs/set2/blue.gif","img/card_backs/set2/gray.gif","img/card_backs/set2/orange.gif","""event"",""trial"",""time""
""fullscreenenter"",""1"",""2132""
","
","
","""event"",""trial"",""time""
""fullscreenenter"",""1"",""2132""
","
","","505.1000000014901","","","","real_trial","2021-08-04 17:05:01.246","img/card_backs/set1/yellow.gif","3","200","1","",""
"casino-fixation","140","391825","0.0-25.0-0.34","A480","false","img/card_backs/set1/red.gif","img/card_backs/set1/yellow.gif","img/card_backs/set1/purple.gif","img/card_backs/set1/green.gif","img/card_backs/set2/pink.gif","img/card_backs/set2/blue.gif","img/card_backs/set2/gray.gif","img/card_backs/set2/orange.gif","""event"",""trial"",""time""
""fullscreenenter"",""1"",""2132""
","
","
","""event"",""trial"",""time""
""fullscreenenter"",""1"",""2132""
","
","","null","","null","","fixation","2021-08-04 17:05:01.752","","","","","",""
"card-selection-trial","141","394311","0.0-25.0-1.34","A480","false","img/card_backs/set1/red.gif","img/card_backs/set1/yellow.gif","img/card_backs/set1/purple.gif","img/card_backs/set1/green.gif","img/card_backs/set2/pink.gif","img/card_backs/set2/blue.gif","img/card_backs/set2/gray.gif","img/card_backs/set2/orange.gif","""event"",""trial"",""time""
""fullscreenenter"",""1"",""2132""
","
","
","""event"",""trial"",""time""
""fullscreenenter"",""1"",""2132""
","
","","480.09999999403954","","","","real_trial","2021-08-04 17:05:04.238","img/card_backs/set1/red.gif","1","190","1","",""
"casino-fixation","142","394817","0.0-25.0-0.35","A480","false","img/card_backs/set1/red.gif","img/card_backs/set1/yellow.gif","img/card_backs/set1/purple.gif","img/card_backs/set1/green.gif","img/card_backs/set2/pink.gif","img/card_backs/set2/blue.gif","img/card_backs/set2/gray.gif","img/card_backs/set2/orange.gif","""event"",""trial"",""time""
""fullscreenenter"",""1"",""2132""
","
","
","""event"",""trial"",""time""
""fullscreenenter"",""1"",""2132""
","
","","null","","null","","fixation","2021-08-04 17:05:04.744","","","","","",""
"card-selection-trial","143","397335","0.0-25.0-1.35","A480","false","img/card_backs/set1/red.gif","img/card_backs/set1/yellow.gif","img/card_backs/set1/purple.gif","img/card_backs/set1/green.gif","img/card_backs/set2/pink.gif","img/card_backs/set2/blue.gif","img/card_backs/set2/gray.gif","img/card_backs/set2/orange.gif","""event"",""trial"",""time""
""fullscreenenter"",""1"",""2132""
","
","
","""event"",""trial"",""time""
""fullscreenenter"",""1"",""2132""
","
","","510.19999999552965","","","","real_trial","2021-08-04 17:05:07.262","img/card_backs/set1/yellow.gif","2","180","1","",""
"casino-fixation","144","397841","0.0-25.0-0.36","A480","false","img/card_backs/set1/red.gif","img/card_backs/set1/yellow.gif","img/card_backs/set1/purple.gif","img/card_backs/set1/green.gif","img/card_backs/set2/pink.gif","img/card_backs/set2/blue.gif","img/card_backs/set2/gray.gif","img/card_backs/set2/orange.gif","""event"",""trial"",""time""
""fullscreenenter"",""1"",""2132""
","
","
","""event"",""trial"",""time""
""fullscreenenter"",""1"",""2132""
","
","","null","","null","","fixation","2021-08-04 17:05:07.768","","","","","",""
"card-selection-trial","145","400373","0.0-25.0-1.36","A480","false","img/card_backs/set1/red.gif","img/card_backs/set1/yellow.gif","img/card_backs/set1/purple.gif","img/card_backs/set1/green.gif","img/card_backs/set2/pink.gif","img/card_backs/set2/blue.gif","img/card_backs/set2/gray.gif","img/card_backs/set2/orange.gif","""event"",""trial"",""time""
""fullscreenenter"",""1"",""2132""
","
","
","""event"",""trial"",""time""
""fullscreenenter"",""1"",""2132""
","
","","521.8999999985099","","","","real_trial","2021-08-04 17:05:10.300","img/card_backs/set1/yellow.gif","2","180","1","",""
"casino-fixation","146","400876","0.0-25.0-0.37","A480","false","img/card_backs/set1/red.gif","img/card_backs/set1/yellow.gif","img/card_backs/set1/purple.gif","img/card_backs/set1/green.gif","img/card_backs/set2/pink.gif","img/card_backs/set2/blue.gif","img/card_backs/set2/gray.gif","img/card_backs/set2/orange.gif","""event"",""trial"",""time""
""fullscreenenter"",""1"",""2132""
","
","
","""event"",""trial"",""time""
""fullscreenenter"",""1"",""2132""
","
","","null","","null","","fixation","2021-08-04 17:05:10.803","","","","","",""
"card-selection-trial","147","403329","0.0-25.0-1.37","A480","false","img/card_backs/set1/red.gif","img/card_backs/set1/yellow.gif","img/card_backs/set1/purple.gif","img/card_backs/set1/green.gif","img/card_backs/set2/pink.gif","img/card_backs/set2/blue.gif","img/card_backs/set2/gray.gif","img/card_backs/set2/orange.gif","""event"",""trial"",""time""
""fullscreenenter"",""1"",""2132""
","
","
","""event"",""trial"",""time""
""fullscreenenter"",""1"",""2132""
","
","","446.3999999985099","","","","real_trial","2021-08-04 17:05:13.256","img/card_backs/set1/red.gif","3","-240","1","",""
"casino-fixation","148","403836","0.0-25.0-0.38","A480","false","img/card_backs/set1/red.gif","img/card_backs/set1/yellow.gif","img/card_backs/set1/purple.gif","img/card_backs/set1/green.gif","img/card_backs/set2/pink.gif","img/card_backs/set2/blue.gif","img/card_backs/set2/gray.gif","img/card_backs/set2/orange.gif","""event"",""trial"",""time""
""fullscreenenter"",""1"",""2132""
","
","
","""event"",""trial"",""time""
""fullscreenenter"",""1"",""2132""
","
","","null","","null","","fixation","2021-08-04 17:05:13.763","","","","","",""
"card-selection-trial","149","406267","0.0-25.0-1.38","A480","false","img/card_backs/set1/red.gif","img/card_backs/set1/yellow.gif","img/card_backs/set1/purple.gif","img/card_backs/set1/green.gif","img/card_backs/set2/pink.gif","img/card_backs/set2/blue.gif","img/card_backs/set2/gray.gif","img/card_backs/set2/orange.gif","""event"",""trial"",""time""
""fullscreenenter"",""1"",""2132""
","
","
","""event"",""trial"",""time""
""fullscreenenter"",""1"",""2132""
","
","","423.70000000298023","","","","real_trial","2021-08-04 17:05:16.194","img/card_backs/set1/yellow.gif","0","180","1","",""
"casino-fixation","150","406769","0.0-25.0-0.39","A480","false","img/card_backs/set1/red.gif","img/card_backs/set1/yellow.gif","img/card_backs/set1/purple.gif","img/card_backs/set1/green.gif","img/card_backs/set2/pink.gif","img/card_backs/set2/blue.gif","img/card_backs/set2/gray.gif","img/card_backs/set2/orange.gif","""event"",""trial"",""time""
""fullscreenenter"",""1"",""2132""
","
","
","""event"",""trial"",""time""
""fullscreenenter"",""1"",""2132""
","
","","null","","null","","fixation","2021-08-04 17:05:16.696","","","","","",""
"card-selection-trial","151","409345","0.0-25.0-1.39","A480","false","img/card_backs/set1/red.gif","img/card_backs/set1/yellow.gif","img/card_backs/set1/purple.gif","img/card_backs/set1/green.gif","img/card_backs/set2/pink.gif","img/card_backs/set2/blue.gif","img/card_backs/set2/gray.gif","img/card_backs/set2/orange.gif","""event"",""trial"",""time""
""fullscreenenter"",""1"",""2132""
","
","
","""event"",""trial"",""time""
""fullscreenenter"",""1"",""2132""
","
","","569.6000000014901","","","","real_trial","2021-08-04 17:05:19.272","img/card_backs/set1/yellow.gif","2","-240","1","",""
"casino-fixation","152","409847","0.0-25.0-0.40","A480","false","img/card_backs/set1/red.gif","img/card_backs/set1/yellow.gif","img/card_backs/set1/purple.gif","img/card_backs/set1/green.gif","img/card_backs/set2/pink.gif","img/card_backs/set2/blue.gif","img/card_backs/set2/gray.gif","img/card_backs/set2/orange.gif","""event"",""trial"",""time""
""fullscreenenter"",""1"",""2132""
","
","
","""event"",""trial"",""time""
""fullscreenenter"",""1"",""2132""
","
","","null","","null","","fixation","2021-08-04 17:05:19.774","","","","","",""
"card-selection-trial","153","412807","0.0-25.0-1.40","A480","false","img/card_backs/set1/red.gif","img/card_backs/set1/yellow.gif","img/card_backs/set1/purple.gif","img/card_backs/set1/green.gif","img/card_backs/set2/pink.gif","img/card_backs/set2/blue.gif","img/card_backs/set2/gray.gif","img/card_backs/set2/orange.gif","""event"",""trial"",""time""
""fullscreenenter"",""1"",""2132""
","
","
","""event"",""trial"",""time""
""fullscreenenter"",""1"",""2132""
","
","","950.2999999970198","","","","real_trial","2021-08-04 17:05:22.734","img/card_backs/set1/red.gif","2","-240","1","",""
"casino-fixation","154","413313","0.0-25.0-0.41","A480","false","img/card_backs/set1/red.gif","img/card_backs/set1/yellow.gif","img/card_backs/set1/purple.gif","img/card_backs/set1/green.gif","img/card_backs/set2/pink.gif","img/card_backs/set2/blue.gif","img/card_backs/set2/gray.gif","img/card_backs/set2/orange.gif","""event"",""trial"",""time""
""fullscreenenter"",""1"",""2132""
","
","
","""event"",""trial"",""time""
""fullscreenenter"",""1"",""2132""
","
","","null","","null","","fixation","2021-08-04 17:05:23.240","","","","","",""
"card-selection-trial","155","415686","0.0-25.0-1.41","A480","false","img/card_backs/set1/red.gif","img/card_backs/set1/yellow.gif","img/card_backs/set1/purple.gif","img/card_backs/set1/green.gif","img/card_backs/set2/pink.gif","img/card_backs/set2/blue.gif","img/card_backs/set2/gray.gif","img/card_backs/set2/orange.gif","""event"",""trial"",""time""
""fullscreenenter"",""1"",""2132""
","
","
","""event"",""trial"",""time""
""fullscreenenter"",""1"",""2132""
","
","","365.3999999985099","","","","real_trial","2021-08-04 17:05:25.614","img/card_backs/set1/red.gif","3","-240","1","",""
"casino-fixation","156","416193","0.0-25.0-0.42","A480","false","img/card_backs/set1/red.gif","img/card_backs/set1/yellow.gif","img/card_backs/set1/purple.gif","img/card_backs/set1/green.gif","img/card_backs/set2/pink.gif","img/card_backs/set2/blue.gif","img/card_backs/set2/gray.gif","img/card_backs/set2/orange.gif","""event"",""trial"",""time""
""fullscreenenter"",""1"",""2132""
","
","
","""event"",""trial"",""time""
""fullscreenenter"",""1"",""2132""
","
","","null","","null","","fixation","2021-08-04 17:05:26.120","","","","","",""
"card-selection-trial","157","418711","0.0-25.0-1.42","A480","false","img/card_backs/set1/red.gif","img/card_backs/set1/yellow.gif","img/card_backs/set1/purple.gif","img/card_backs/set1/green.gif","img/card_backs/set2/pink.gif","img/card_backs/set2/blue.gif","img/card_backs/set2/gray.gif","img/card_backs/set2/orange.gif","""event"",""trial"",""time""
""fullscreenenter"",""1"",""2132""
","
","
","""event"",""trial"",""time""
""fullscreenenter"",""1"",""2132""
","
","","513.1000000014901","","","","real_trial","2021-08-04 17:05:28.638","img/card_backs/set1/yellow.gif","3","200","1","",""
"casino-fixation","158","419217","0.0-25.0-0.43","A480","false","img/card_backs/set1/red.gif","img/card_backs/set1/yellow.gif","img/card_backs/set1/purple.gif","img/card_backs/set1/green.gif","img/card_backs/set2/pink.gif","img/card_backs/set2/blue.gif","img/card_backs/set2/gray.gif","img/card_backs/set2/orange.gif","""event"",""trial"",""time""
""fullscreenenter"",""1"",""2132""
","
","
","""event"",""trial"",""time""
""fullscreenenter"",""1"",""2132""
","
","","null","","null","","fixation","2021-08-04 17:05:29.144","","","","","",""
"card-selection-trial","159","421857","0.0-25.0-1.43","A480","false","img/card_backs/set1/red.gif","img/card_backs/set1/yellow.gif","img/card_backs/set1/purple.gif","img/card_backs/set1/green.gif","img/card_backs/set2/pink.gif","img/card_backs/set2/blue.gif","img/card_backs/set2/gray.gif","img/card_backs/set2/orange.gif","""event"",""trial"",""time""
""fullscreenenter"",""1"",""2132""
","
","
","""event"",""trial"",""time""
""fullscreenenter"",""1"",""2132""
","
","","633.7000000029802","","","","real_trial","2021-08-04 17:05:31.784","img/card_backs/set1/yellow.gif","0","-250","1","",""
"casino-fixation","160","422364","0.0-25.0-0.44","A480","false","img/card_backs/set1/red.gif","img/card_backs/set1/yellow.gif","img/card_backs/set1/purple.gif","img/card_backs/set1/green.gif","img/card_backs/set2/pink.gif","img/card_backs/set2/blue.gif","img/card_backs/set2/gray.gif","img/card_backs/set2/orange.gif","""event"",""trial"",""time""
""fullscreenenter"",""1"",""2132""
","
","
","""event"",""trial"",""time""
""fullscreenenter"",""1"",""2132""
","
","","null","","null","","fixation","2021-08-04 17:05:32.291","","","","","",""
"card-selection-trial","161","425489","0.0-25.0-1.44","A480","false","img/card_backs/set1/red.gif","img/card_backs/set1/yellow.gif","img/card_backs/set1/purple.gif","img/card_backs/set1/green.gif","img/card_backs/set2/pink.gif","img/card_backs/set2/blue.gif","img/card_backs/set2/gray.gif","img/card_backs/set2/orange.gif","""event"",""trial"",""time""
""fullscreenenter"",""1"",""2132""
","
","
","""event"",""trial"",""time""
""fullscreenenter"",""1"",""2132""
","
","","1120.2000000029802","","","","real_trial","2021-08-04 17:05:35.416","img/card_backs/set1/yellow.gif","1","180","1","",""
"casino-fixation","162","425996","0.0-25.0-0.45","A480","false","img/card_backs/set1/red.gif","img/card_backs/set1/yellow.gif","img/card_backs/set1/purple.gif","img/card_backs/set1/green.gif","img/card_backs/set2/pink.gif","img/card_backs/set2/blue.gif","img/card_backs/set2/gray.gif","img/card_backs/set2/orange.gif","""event"",""trial"",""time""
""fullscreenenter"",""1"",""2132""
","
","
","""event"",""trial"",""time""
""fullscreenenter"",""1"",""2132""
","
","","null","","null","","fixation","2021-08-04 17:05:35.923","","","","","",""
"card-selection-trial","163","428556","0.0-25.0-1.45","A480","false","img/card_backs/set1/red.gif","img/card_backs/set1/yellow.gif","img/card_backs/set1/purple.gif","img/card_backs/set1/green.gif","img/card_backs/set2/pink.gif","img/card_backs/set2/blue.gif","img/card_backs/set2/gray.gif","img/card_backs/set2/orange.gif","""event"",""trial"",""time""
""fullscreenenter"",""1"",""2132""
","
","
","""event"",""trial"",""time""
""fullscreenenter"",""1"",""2132""
","
","","554.5","","","","real_trial","2021-08-04 17:05:38.483","img/card_backs/set1/red.gif","2","-230","1","",""
"casino-fixation","164","429060","0.0-25.0-0.46","A480","false","img/card_backs/set1/red.gif","img/card_backs/set1/yellow.gif","img/card_backs/set1/purple.gif","img/card_backs/set1/green.gif","img/card_backs/set2/pink.gif","img/card_backs/set2/blue.gif","img/card_backs/set2/gray.gif","img/card_backs/set2/orange.gif","""event"",""trial"",""time""
""fullscreenenter"",""1"",""2132""
","
","
","""event"",""trial"",""time""
""fullscreenenter"",""1"",""2132""
","
","","null","","null","","fixation","2021-08-04 17:05:38.987","","","","","",""
"card-selection-trial","165","431527","0.0-25.0-1.46","A480","false","img/card_backs/set1/red.gif","img/card_backs/set1/yellow.gif","img/card_backs/set1/purple.gif","img/card_backs/set1/green.gif","img/card_backs/set2/pink.gif","img/card_backs/set2/blue.gif","img/card_backs/set2/gray.gif","img/card_backs/set2/orange.gif","""event"",""trial"",""time""
""fullscreenenter"",""1"",""2132""
","
","
","""event"",""trial"",""time""
""fullscreenenter"",""1"",""2132""
","
","","456.70000000298023","","","","real_trial","2021-08-04 17:05:41.454","img/card_backs/set1/yellow.gif","2","180","1","",""
"casino-fixation","166","432033","0.0-25.0-0.47","A480","false","img/card_backs/set1/red.gif","img/card_backs/set1/yellow.gif","img/card_backs/set1/purple.gif","img/card_backs/set1/green.gif","img/card_backs/set2/pink.gif","img/card_backs/set2/blue.gif","img/card_backs/set2/gray.gif","img/card_backs/set2/orange.gif","""event"",""trial"",""time""
""fullscreenenter"",""1"",""2132""
","
","
","""event"",""trial"",""time""
""fullscreenenter"",""1"",""2132""
","
","","null","","null","","fixation","2021-08-04 17:05:41.960","","","","","",""
