"trial_type","trial_index","time_elapsed","internal_node_id","sub_id","risk_good_first","block1_A","block1_B","block1_C","block1_D","block2_A","block2_B","block2_C","block2_D","interactions","blur_events","focus_events","fullscreenenter_events","fullscreenexit_events","success","rt","stimulus","key_press","button_pressed","task_part","timestamp","card_choice","choice_position","points_earned","block","correct","response"
"pavlovia","0","3","0.0-0.0","A1411","false","img/card_backs/set1/yellow.gif","img/card_backs/set1/purple.gif","img/card_backs/set1/red.gif","img/card_backs/set1/green.gif","img/card_backs/set2/pink.gif","img/card_backs/set2/orange.gif","img/card_backs/set2/blue.gif","img/card_backs/set2/gray.gif","""event"",""trial"",""time""
""fullscreenenter"",""1"",""8188""
","
","
","""event"",""trial"",""time""
""fullscreenenter"",""1"",""8188""
","
","","","","","","","","","","","","",""
"fullscreen","1","9172","0.0-1.0","A1411","false","img/card_backs/set1/yellow.gif","img/card_backs/set1/purple.gif","img/card_backs/set1/red.gif","img/card_backs/set1/green.gif","img/card_backs/set2/pink.gif","img/card_backs/set2/orange.gif","img/card_backs/set2/blue.gif","img/card_backs/set2/gray.gif","""event"",""trial"",""time""
""fullscreenenter"",""1"",""8188""
","
","
","""event"",""trial"",""time""
""fullscreenenter"",""1"",""8188""
","
","true","","","","","","","","","","","",""
"audio-keyboard-response","2","11263","0.0-2.0","A1411","false","img/card_backs/set1/yellow.gif","img/card_backs/set1/purple.gif","img/card_backs/set1/red.gif","img/card_backs/set1/green.gif","img/card_backs/set2/pink.gif","img/card_backs/set2/orange.gif","img/card_backs/set2/blue.gif","img/card_backs/set2/gray.gif","""event"",""trial"",""time""
""fullscreenenter"",""1"",""8188""
","
","
","""event"",""trial"",""time""
""fullscreenenter"",""1"",""8188""
","
","","2059","audio/beep_loop.wav","32","","","","","","","","",""
"audio-button-response","3","12753","0.0-3.0","A1411","false","img/card_backs/set1/yellow.gif","img/card_backs/set1/purple.gif","img/card_backs/set1/red.gif","img/card_backs/set1/green.gif","img/card_backs/set2/pink.gif","img/card_backs/set2/orange.gif","img/card_backs/set2/blue.gif","img/card_backs/set2/gray.gif","""event"",""trial"",""time""
""fullscreenenter"",""1"",""8188""
","
","
","""event"",""trial"",""time""
""fullscreenenter"",""1"",""8188""
","
","","NaN","audio/turtle.mp3","","3","","","","","","","",""
"audio-button-response","4","14928","0.0-4.0","A1411","false","img/card_backs/set1/yellow.gif","img/card_backs/set1/purple.gif","img/card_backs/set1/red.gif","img/card_backs/set1/green.gif","img/card_backs/set2/pink.gif","img/card_backs/set2/orange.gif","img/card_backs/set2/blue.gif","img/card_backs/set2/gray.gif","""event"",""trial"",""time""
""fullscreenenter"",""1"",""8188""
","
","
","""event"",""trial"",""time""
""fullscreenenter"",""1"",""8188""
","
","","NaN","audio/shark.mp3","","2","","","","","","","",""
"fullscreen","5","18804","0.0-5.0","A1411","false","img/card_backs/set1/yellow.gif","img/card_backs/set1/purple.gif","img/card_backs/set1/red.gif","img/card_backs/set1/green.gif","img/card_backs/set2/pink.gif","img/card_backs/set2/orange.gif","img/card_backs/set2/blue.gif","img/card_backs/set2/gray.gif","""event"",""trial"",""time""
""fullscreenenter"",""1"",""8188""
","
","
","""event"",""trial"",""time""
""fullscreenenter"",""1"",""8188""
","
","true","","","","","","","","","","","",""
"casino-keyboard-response","6","22585","0.0-6.0-0.0","A1411","false","img/card_backs/set1/yellow.gif","img/card_backs/set1/purple.gif","img/card_backs/set1/red.gif","img/card_backs/set1/green.gif","img/card_backs/set2/pink.gif","img/card_backs/set2/orange.gif","img/card_backs/set2/blue.gif","img/card_backs/set2/gray.gif","""event"",""trial"",""time""
""fullscreenenter"",""1"",""8188""
","
","
","""event"",""trial"",""time""
""fullscreenenter"",""1"",""8188""
","
","","3778.7000000178814","Welcome to the casino!","71","","instructions","2021-08-01 04:27:57.552","","","","","",""
"casino-keyboard-response","7","32180","0.0-6.0-0.1","A1411","false","img/card_backs/set1/yellow.gif","img/card_backs/set1/purple.gif","img/card_backs/set1/red.gif","img/card_backs/set1/green.gif","img/card_backs/set2/pink.gif","img/card_backs/set2/orange.gif","img/card_backs/set2/blue.gif","img/card_backs/set2/gray.gif","""event"",""trial"",""time""
""fullscreenenter"",""1"",""8188""
","
","
","""event"",""trial"",""time""
""fullscreenenter"",""1"",""8188""
","
","","9593.59999999404","Today you will be playing a game to earn tokens. </br> At the end of the experiment, you will be paid a bonus based on how many tokens you win. ","69","","instructions","2021-08-01 04:28:07.147","","","","","",""
"casino-keyboard-response","8","39776","0.0-6.0-0.2","A1411","false","img/card_backs/set1/yellow.gif","img/card_backs/set1/purple.gif","img/card_backs/set1/red.gif","img/card_backs/set1/green.gif","img/card_backs/set2/pink.gif","img/card_backs/set2/orange.gif","img/card_backs/set2/blue.gif","img/card_backs/set2/gray.gif","""event"",""trial"",""time""
""fullscreenenter"",""1"",""8188""
","
","
","""event"",""trial"",""time""
""fullscreenenter"",""1"",""8188""
","
","","7594.5999999940395","On every turn, you will be shown four different decks of cards. </br> You need to select a card from one of the four decks.  ","75","","instructions","2021-08-01 04:28:14.743","","","","","",""
"casino-keyboard-response","9","44713","0.0-6.0-0.3","A1411","false","img/card_backs/set1/yellow.gif","img/card_backs/set1/purple.gif","img/card_backs/set1/red.gif","img/card_backs/set1/green.gif","img/card_backs/set2/pink.gif","img/card_backs/set2/orange.gif","img/card_backs/set2/blue.gif","img/card_backs/set2/gray.gif","""event"",""trial"",""time""
""fullscreenenter"",""1"",""8188""
","
","
","""event"",""trial"",""time""
""fullscreenenter"",""1"",""8188""
","
","","4936.700000017881","On the next screen, you will see what the decks will look like. ","66","","instructions","2021-08-01 04:28:19.680","","","","","",""
"card-selection-trial","10","48719","0.0-7.0-0.0","A1411","false","img/card_backs/set1/yellow.gif","img/card_backs/set1/purple.gif","img/card_backs/set1/red.gif","img/card_backs/set1/green.gif","img/card_backs/set2/pink.gif","img/card_backs/set2/orange.gif","img/card_backs/set2/blue.gif","img/card_backs/set2/gray.gif","""event"",""trial"",""time""
""fullscreenenter"",""1"",""8188""
","
","
","""event"",""trial"",""time""
""fullscreenenter"",""1"",""8188""
","
","","null","","","","practice","2021-08-01 04:28:23.686","null","null","null","0","",""
"casino-keyboard-response","11","56443","0.0-8.0-0.0","A1411","false","img/card_backs/set1/yellow.gif","img/card_backs/set1/purple.gif","img/card_backs/set1/red.gif","img/card_backs/set1/green.gif","img/card_backs/set2/pink.gif","img/card_backs/set2/orange.gif","img/card_backs/set2/blue.gif","img/card_backs/set2/gray.gif","""event"",""trial"",""time""
""fullscreenenter"",""1"",""8188""
","
","
","""event"",""trial"",""time""
""fullscreenenter"",""1"",""8188""
","
","","7723","You should pick a card from a deck using the '2', '4', '6', and '8' keys at the top of the keyboard.","85","","instructions","2021-08-01 04:28:31.410","","","","","",""
"casino-keyboard-response","12","61726","0.0-8.0-0.1","A1411","false","img/card_backs/set1/yellow.gif","img/card_backs/set1/purple.gif","img/card_backs/set1/red.gif","img/card_backs/set1/green.gif","img/card_backs/set2/pink.gif","img/card_backs/set2/orange.gif","img/card_backs/set2/blue.gif","img/card_backs/set2/gray.gif","""event"",""trial"",""time""
""fullscreenenter"",""1"",""8188""
","
","
","""event"",""trial"",""time""
""fullscreenenter"",""1"",""8188""
","
","","5282.299999982119","Once you select a card, it will turn over and you will see how many tokens you earned.","83","","instructions","2021-08-01 04:28:36.693","","","","","",""
"casino-keyboard-response","13","75849","0.0-8.0-0.2","A1411","false","img/card_backs/set1/yellow.gif","img/card_backs/set1/purple.gif","img/card_backs/set1/red.gif","img/card_backs/set1/green.gif","img/card_backs/set2/pink.gif","img/card_backs/set2/orange.gif","img/card_backs/set2/blue.gif","img/card_backs/set2/gray.gif","""event"",""trial"",""time""
""fullscreenenter"",""1"",""8188""
","
","
","""event"",""trial"",""time""
""fullscreenenter"",""1"",""8188""
","
","","14121.90000000596","Let's try practicing that! </br> First, try to put your fingers over the '2', '4', '6', and '8' keys. </br>  You can use whatever fingers are most comfortable for you. Try to find a comfortable position now. ","50","","instructions","2021-08-01 04:28:50.816","","","","","",""
"casino-keyboard-response","14","81691","0.0-8.0-0.3","A1411","false","img/card_backs/set1/yellow.gif","img/card_backs/set1/purple.gif","img/card_backs/set1/red.gif","img/card_backs/set1/green.gif","img/card_backs/set2/pink.gif","img/card_backs/set2/orange.gif","img/card_backs/set2/blue.gif","img/card_backs/set2/gray.gif","""event"",""trial"",""time""
""fullscreenenter"",""1"",""8188""
","
","
","""event"",""trial"",""time""
""fullscreenenter"",""1"",""8188""
","
","","5841.299999982119","Okay ready? </br> On the next screen, press '2' to select the left deck. ","50","","instructions","2021-08-01 04:28:56.658","","","","","",""
"card-selection-trial","15","85161","0.0-9.0-0.0","A1411","false","img/card_backs/set1/yellow.gif","img/card_backs/set1/purple.gif","img/card_backs/set1/red.gif","img/card_backs/set1/green.gif","img/card_backs/set2/pink.gif","img/card_backs/set2/orange.gif","img/card_backs/set2/blue.gif","img/card_backs/set2/gray.gif","""event"",""trial"",""time""
""fullscreenenter"",""1"",""8188""
","
","
","""event"",""trial"",""time""
""fullscreenenter"",""1"",""8188""
","
","","1458.5999999940395","","","","practice_card_selection","2021-08-01 04:29:00.128","img/practice_cards/backs/black.gif","0","-100","","",""
"casino-keyboard-response","16","90831","0.0-10.0-0.0","A1411","false","img/card_backs/set1/yellow.gif","img/card_backs/set1/purple.gif","img/card_backs/set1/red.gif","img/card_backs/set1/green.gif","img/card_backs/set2/pink.gif","img/card_backs/set2/orange.gif","img/card_backs/set2/blue.gif","img/card_backs/set2/gray.gif","""event"",""trial"",""time""
""fullscreenenter"",""1"",""8188""
","
","
","""event"",""trial"",""time""
""fullscreenenter"",""1"",""8188""
","
","","5669.300000011921","Great! Now on the next screen, try pressing '6' to select the third deck.","54","","instructions","2021-08-01 04:29:05.798","","","","","",""
"card-selection-trial","17","94570","0.0-11.0-0.0","A1411","false","img/card_backs/set1/yellow.gif","img/card_backs/set1/purple.gif","img/card_backs/set1/red.gif","img/card_backs/set1/green.gif","img/card_backs/set2/pink.gif","img/card_backs/set2/orange.gif","img/card_backs/set2/blue.gif","img/card_backs/set2/gray.gif","""event"",""trial"",""time""
""fullscreenenter"",""1"",""8188""
","
","
","""event"",""trial"",""time""
""fullscreenenter"",""1"",""8188""
","
","","1731.0999999940395","","","","practice_card_selection","2021-08-01 04:29:09.537","img/practice_cards/backs/dark_green.gif","2","-200","","",""
"casino-keyboard-response","18","99470","0.0-12.0-0.0","A1411","false","img/card_backs/set1/yellow.gif","img/card_backs/set1/purple.gif","img/card_backs/set1/red.gif","img/card_backs/set1/green.gif","img/card_backs/set2/pink.gif","img/card_backs/set2/orange.gif","img/card_backs/set2/blue.gif","img/card_backs/set2/gray.gif","""event"",""trial"",""time""
""fullscreenenter"",""1"",""8188""
","
","
","""event"",""trial"",""time""
""fullscreenenter"",""1"",""8188""
","
","","4898.700000017881","Now on the next screen, try pressing '4' to select the second deck.","52","","instructions","2021-08-01 04:29:14.437","","","","","",""
"card-selection-trial","19","102563","0.0-13.0-0.0","A1411","false","img/card_backs/set1/yellow.gif","img/card_backs/set1/purple.gif","img/card_backs/set1/red.gif","img/card_backs/set1/green.gif","img/card_backs/set2/pink.gif","img/card_backs/set2/orange.gif","img/card_backs/set2/blue.gif","img/card_backs/set2/gray.gif","""event"",""trial"",""time""
""fullscreenenter"",""1"",""8188""
","
","
","""event"",""trial"",""time""
""fullscreenenter"",""1"",""8188""
","
","","1084","","","","practice_card_selection","2021-08-01 04:29:17.530","img/practice_cards/backs/dark_green.gif","1","200","","",""
"casino-keyboard-response","20","107166","0.0-14.0-0.0","A1411","false","img/card_backs/set1/yellow.gif","img/card_backs/set1/purple.gif","img/card_backs/set1/red.gif","img/card_backs/set1/green.gif","img/card_backs/set2/pink.gif","img/card_backs/set2/orange.gif","img/card_backs/set2/blue.gif","img/card_backs/set2/gray.gif","""event"",""trial"",""time""
""fullscreenenter"",""1"",""8188""
","
","
","""event"",""trial"",""time""
""fullscreenenter"",""1"",""8188""
","
","","4601.5","Finally, try pressing '8' to select the deck all the way on the right.","56","","instructions","2021-08-01 04:29:22.133","","","","","",""
"card-selection-trial","21","110019","0.0-15.0-0.0","A1411","false","img/card_backs/set1/yellow.gif","img/card_backs/set1/purple.gif","img/card_backs/set1/red.gif","img/card_backs/set1/green.gif","img/card_backs/set2/pink.gif","img/card_backs/set2/orange.gif","img/card_backs/set2/blue.gif","img/card_backs/set2/gray.gif","""event"",""trial"",""time""
""fullscreenenter"",""1"",""8188""
","
","
","""event"",""trial"",""time""
""fullscreenenter"",""1"",""8188""
","
","","849.0999999940395","","","","practice_card_selection","2021-08-01 04:29:24.986","img/practice_cards/backs/dark_green.gif","3","200","","",""
"casino-keyboard-response","22","115173","0.0-16.0-0.0","A1411","false","img/card_backs/set1/yellow.gif","img/card_backs/set1/purple.gif","img/card_backs/set1/red.gif","img/card_backs/set1/green.gif","img/card_backs/set2/pink.gif","img/card_backs/set2/orange.gif","img/card_backs/set2/blue.gif","img/card_backs/set2/gray.gif","""event"",""trial"",""time""
""fullscreenenter"",""1"",""8188""
","
","
","""event"",""trial"",""time""
""fullscreenenter"",""1"",""8188""
","
","","5152.699999988079","Great! It seems like you are getting the hang of this.","80","","instructions","2021-08-01 04:29:30.140","","","","","",""
"casino-keyboard-response","23","123162","0.0-16.0-0.1","A1411","false","img/card_backs/set1/yellow.gif","img/card_backs/set1/purple.gif","img/card_backs/set1/red.gif","img/card_backs/set1/green.gif","img/card_backs/set2/pink.gif","img/card_backs/set2/orange.gif","img/card_backs/set2/blue.gif","img/card_backs/set2/gray.gif","""event"",""trial"",""time""
""fullscreenenter"",""1"",""8188""
","
","
","""event"",""trial"",""time""
""fullscreenenter"",""1"",""8188""
","
","","7988.199999988079","You may have noticed that some cards will cause you to <b> win </b> tokens while other cards will cause you to <b> lose </b>  tokens.","70","","instructions","2021-08-01 04:29:38.129","","","","","",""
"casino-keyboard-response","24","132890","0.0-16.0-0.2","A1411","false","img/card_backs/set1/yellow.gif","img/card_backs/set1/purple.gif","img/card_backs/set1/red.gif","img/card_backs/set1/green.gif","img/card_backs/set2/pink.gif","img/card_backs/set2/orange.gif","img/card_backs/set2/blue.gif","img/card_backs/set2/gray.gif","""event"",""trial"",""time""
""fullscreenenter"",""1"",""8188""
","
","
","""event"",""trial"",""time""
""fullscreenenter"",""1"",""8188""
","
","","9727.300000011921","Each deck has a mix of cards that will cause you to win and lose tokens. </br> However, the cards in each colored deck are different.","73","","instructions","2021-08-01 04:29:47.857","","","","","",""
"casino-keyboard-response","25","141991","0.0-16.0-0.3","A1411","false","img/card_backs/set1/yellow.gif","img/card_backs/set1/purple.gif","img/card_backs/set1/red.gif","img/card_backs/set1/green.gif","img/card_backs/set2/pink.gif","img/card_backs/set2/orange.gif","img/card_backs/set2/blue.gif","img/card_backs/set2/gray.gif","""event"",""trial"",""time""
""fullscreenenter"",""1"",""8188""
","
","
","""event"",""trial"",""time""
""fullscreenenter"",""1"",""8188""
","
","","9099.699999988079","Some colored decks are luckier than others. </br> If you choose the lucky decks, you will earn more tokens than if you choose the unlucky decks.","69","","instructions","2021-08-01 04:29:56.958","","","","","",""
"casino-keyboard-response","26","149528","0.0-16.0-0.4","A1411","false","img/card_backs/set1/yellow.gif","img/card_backs/set1/purple.gif","img/card_backs/set1/red.gif","img/card_backs/set1/green.gif","img/card_backs/set2/pink.gif","img/card_backs/set2/orange.gif","img/card_backs/set2/blue.gif","img/card_backs/set2/gray.gif","""event"",""trial"",""time""
""fullscreenenter"",""1"",""8188""
","
","
","""event"",""trial"",""time""
""fullscreenenter"",""1"",""8188""
","
","","7536.5","You should try to figure out which decks are lucky. </br> Then, try to choose the lucky decks so you can win the most tokens.","87","","instructions","2021-08-01 04:30:04.495","","","","","",""
"casino-keyboard-response","27","161127","0.0-16.0-0.5","A1411","false","img/card_backs/set1/yellow.gif","img/card_backs/set1/purple.gif","img/card_backs/set1/red.gif","img/card_backs/set1/green.gif","img/card_backs/set2/pink.gif","img/card_backs/set2/orange.gif","img/card_backs/set2/blue.gif","img/card_backs/set2/gray.gif","""event"",""trial"",""time""
""fullscreenenter"",""1"",""8188""
","
","
","""event"",""trial"",""time""
""fullscreenenter"",""1"",""8188""
","
","","11598.199999988079","To make it trickier, the casino dealer will switch the locations of the decks on every turn. </br> The color of the deck determines how lucky it is. The location does not matter.","88","","instructions","2021-08-01 04:30:16.094","","","","","",""
"casino-keyboard-response","28","171865","0.0-16.0-0.6","A1411","false","img/card_backs/set1/yellow.gif","img/card_backs/set1/purple.gif","img/card_backs/set1/red.gif","img/card_backs/set1/green.gif","img/card_backs/set2/pink.gif","img/card_backs/set2/orange.gif","img/card_backs/set2/blue.gif","img/card_backs/set2/gray.gif","""event"",""trial"",""time""
""fullscreenenter"",""1"",""8188""
","
","
","""event"",""trial"",""time""
""fullscreenenter"",""1"",""8188""
","
","","10736.699999988079","The mix of cards in each colored deck will stay the same throughout the game. </br> That means that a deck that is lucky early on will stay lucky.","79","","instructions","2021-08-01 04:30:26.832","","","","","",""
"casino-keyboard-response","29","180836","0.0-16.0-0.7","A1411","false","img/card_backs/set1/yellow.gif","img/card_backs/set1/purple.gif","img/card_backs/set1/red.gif","img/card_backs/set1/green.gif","img/card_backs/set2/pink.gif","img/card_backs/set2/orange.gif","img/card_backs/set2/blue.gif","img/card_backs/set2/gray.gif","""event"",""trial"",""time""
""fullscreenenter"",""1"",""8188""
","
","
","""event"",""trial"",""time""
""fullscreenenter"",""1"",""8188""
","
","","8970.100000023842","Remember though, all the decks have a <b> mix </b> of both <b> good </b> and <b> bad </b> cards so it may take a couple of turns to figure out if a deck is lucky.","69","","instructions","2021-08-01 04:30:35.803","","","","","",""
"casino-keyboard-response","30","189207","0.0-16.0-0.8","A1411","false","img/card_backs/set1/yellow.gif","img/card_backs/set1/purple.gif","img/card_backs/set1/red.gif","img/card_backs/set1/green.gif","img/card_backs/set2/pink.gif","img/card_backs/set2/orange.gif","img/card_backs/set2/blue.gif","img/card_backs/set2/gray.gif","""event"",""trial"",""time""
""fullscreenenter"",""1"",""8188""
","
","
","""event"",""trial"",""time""
""fullscreenenter"",""1"",""8188""
","
","","8370","At the end of the game, you will be paid bonus money based on how many tokens you win. </br> If you win more tokens, you will earn more money!","72","","instructions","2021-08-01 04:30:44.174","","","","","",""
"casino-keyboard-response","31","199710","0.0-16.0-0.9","A1411","false","img/card_backs/set1/yellow.gif","img/card_backs/set1/purple.gif","img/card_backs/set1/red.gif","img/card_backs/set1/green.gif","img/card_backs/set2/pink.gif","img/card_backs/set2/orange.gif","img/card_backs/set2/blue.gif","img/card_backs/set2/gray.gif","""event"",""trial"",""time""
""fullscreenenter"",""1"",""8188""
","
","
","""event"",""trial"",""time""
""fullscreenenter"",""1"",""8188""
","
","","10502.09999999404","You will never <b> lose </b> money. </br> If you end up with fewer than 0 tokens, you will earn $0 of bonus money, but you will still be paid for playing the game.","83","","instructions","2021-08-01 04:30:54.677","","","","","",""
"casino-keyboard-response","32","204935","0.0-16.0-0.10","A1411","false","img/card_backs/set1/yellow.gif","img/card_backs/set1/purple.gif","img/card_backs/set1/red.gif","img/card_backs/set1/green.gif","img/card_backs/set2/pink.gif","img/card_backs/set2/orange.gif","img/card_backs/set2/blue.gif","img/card_backs/set2/gray.gif","""event"",""trial"",""time""
""fullscreenenter"",""1"",""8188""
","
","
","""event"",""trial"",""time""
""fullscreenenter"",""1"",""8188""
","
","","5223.5999999940395","You will have 10 seconds to make each choice.","82","","instructions","2021-08-01 04:30:59.902","","","","","",""
"casino-keyboard-response","33","213090","0.0-16.0-0.11","A1411","false","img/card_backs/set1/yellow.gif","img/card_backs/set1/purple.gif","img/card_backs/set1/red.gif","img/card_backs/set1/green.gif","img/card_backs/set2/pink.gif","img/card_backs/set2/orange.gif","img/card_backs/set2/blue.gif","img/card_backs/set2/gray.gif","""event"",""trial"",""time""
""fullscreenenter"",""1"",""8188""
","
","
","""event"",""trial"",""time""
""fullscreenenter"",""1"",""8188""
","
","","8153.300000011921","Before you play the game for real, you will play with practice decks. </br> The tokens you earn during practice won't count toward your total.","86","","instructions","2021-08-01 04:31:08.057","","","","","",""
"casino-keyboard-response","34","218033","0.0-16.0-0.12","A1411","false","img/card_backs/set1/yellow.gif","img/card_backs/set1/purple.gif","img/card_backs/set1/red.gif","img/card_backs/set1/green.gif","img/card_backs/set2/pink.gif","img/card_backs/set2/orange.gif","img/card_backs/set2/blue.gif","img/card_backs/set2/gray.gif","""event"",""trial"",""time""
""fullscreenenter"",""1"",""8188""
","
","
","""event"",""trial"",""time""
""fullscreenenter"",""1"",""8188""
","
","","4942.0999999940395","Ready? Remember, use the '2', '4', '6', and '8' keys to select the decks. </br> Put your fingers on those keys now and then press '2' to begin.","50","","instructions","2021-08-01 04:31:13.000","","","","","",""
"casino-fixation","35","218536","0.0-17.0-0.0","A1411","false","img/card_backs/set1/yellow.gif","img/card_backs/set1/purple.gif","img/card_backs/set1/red.gif","img/card_backs/set1/green.gif","img/card_backs/set2/pink.gif","img/card_backs/set2/orange.gif","img/card_backs/set2/blue.gif","img/card_backs/set2/gray.gif","""event"",""trial"",""time""
""fullscreenenter"",""1"",""8188""
","
","
","""event"",""trial"",""time""
""fullscreenenter"",""1"",""8188""
","
","","null","","null","","fixation","2021-08-01 04:31:13.503","","","","","",""
"card-selection-trial","36","224156","0.0-17.0-1.0","A1411","false","img/card_backs/set1/yellow.gif","img/card_backs/set1/purple.gif","img/card_backs/set1/red.gif","img/card_backs/set1/green.gif","img/card_backs/set2/pink.gif","img/card_backs/set2/orange.gif","img/card_backs/set2/blue.gif","img/card_backs/set2/gray.gif","""event"",""trial"",""time""
""fullscreenenter"",""1"",""8188""
","
","
","""event"",""trial"",""time""
""fullscreenenter"",""1"",""8188""
","
","","3614.300000011921","","","","practice","2021-08-01 04:31:19.123","img/practice_cards/backs/dark_blue.gif","0","-200","0","",""
"casino-fixation","37","224661","0.0-17.0-0.1","A1411","false","img/card_backs/set1/yellow.gif","img/card_backs/set1/purple.gif","img/card_backs/set1/red.gif","img/card_backs/set1/green.gif","img/card_backs/set2/pink.gif","img/card_backs/set2/orange.gif","img/card_backs/set2/blue.gif","img/card_backs/set2/gray.gif","""event"",""trial"",""time""
""fullscreenenter"",""1"",""8188""
","
","
","""event"",""trial"",""time""
""fullscreenenter"",""1"",""8188""
","
","","null","","null","","fixation","2021-08-01 04:31:19.628","","","","","",""
"card-selection-trial","38","227813","0.0-17.0-1.1","A1411","false","img/card_backs/set1/yellow.gif","img/card_backs/set1/purple.gif","img/card_backs/set1/red.gif","img/card_backs/set1/green.gif","img/card_backs/set2/pink.gif","img/card_backs/set2/orange.gif","img/card_backs/set2/blue.gif","img/card_backs/set2/gray.gif","""event"",""trial"",""time""
""fullscreenenter"",""1"",""8188""
","
","
","""event"",""trial"",""time""
""fullscreenenter"",""1"",""8188""
","
","","1147.2000000178814","","","","practice","2021-08-01 04:31:22.780","img/practice_cards/backs/dark_green.gif","2","200","0","",""
"casino-fixation","39","228318","0.0-17.0-0.2","A1411","false","img/card_backs/set1/yellow.gif","img/card_backs/set1/purple.gif","img/card_backs/set1/red.gif","img/card_backs/set1/green.gif","img/card_backs/set2/pink.gif","img/card_backs/set2/orange.gif","img/card_backs/set2/blue.gif","img/card_backs/set2/gray.gif","""event"",""trial"",""time""
""fullscreenenter"",""1"",""8188""
","
","
","""event"",""trial"",""time""
""fullscreenenter"",""1"",""8188""
","
","","null","","null","","fixation","2021-08-01 04:31:23.285","","","","","",""
"card-selection-trial","40","232000","0.0-17.0-1.2","A1411","false","img/card_backs/set1/yellow.gif","img/card_backs/set1/purple.gif","img/card_backs/set1/red.gif","img/card_backs/set1/green.gif","img/card_backs/set2/pink.gif","img/card_backs/set2/orange.gif","img/card_backs/set2/blue.gif","img/card_backs/set2/gray.gif","""event"",""trial"",""time""
""fullscreenenter"",""1"",""8188""
","
","
","""event"",""trial"",""time""
""fullscreenenter"",""1"",""8188""
","
","","1678.7999999821186","","","","practice","2021-08-01 04:31:26.968","img/practice_cards/backs/dark_green.gif","1","-200","0","",""
"casino-fixation","41","232504","0.0-17.0-0.3","A1411","false","img/card_backs/set1/yellow.gif","img/card_backs/set1/purple.gif","img/card_backs/set1/red.gif","img/card_backs/set1/green.gif","img/card_backs/set2/pink.gif","img/card_backs/set2/orange.gif","img/card_backs/set2/blue.gif","img/card_backs/set2/gray.gif","""event"",""trial"",""time""
""fullscreenenter"",""1"",""8188""
","
","
","""event"",""trial"",""time""
""fullscreenenter"",""1"",""8188""
","
","","null","","null","","fixation","2021-08-01 04:31:27.471","","","","","",""
"card-selection-trial","42","237008","0.0-17.0-1.3","A1411","false","img/card_backs/set1/yellow.gif","img/card_backs/set1/purple.gif","img/card_backs/set1/red.gif","img/card_backs/set1/green.gif","img/card_backs/set2/pink.gif","img/card_backs/set2/orange.gif","img/card_backs/set2/blue.gif","img/card_backs/set2/gray.gif","""event"",""trial"",""time""
""fullscreenenter"",""1"",""8188""
","
","
","""event"",""trial"",""time""
""fullscreenenter"",""1"",""8188""
","
","","2498.0999999940395","","","","practice","2021-08-01 04:31:31.975","img/practice_cards/backs/dark_blue.gif","3","-200","0","",""
"casino-fixation","43","237510","0.0-17.0-0.4","A1411","false","img/card_backs/set1/yellow.gif","img/card_backs/set1/purple.gif","img/card_backs/set1/red.gif","img/card_backs/set1/green.gif","img/card_backs/set2/pink.gif","img/card_backs/set2/orange.gif","img/card_backs/set2/blue.gif","img/card_backs/set2/gray.gif","""event"",""trial"",""time""
""fullscreenenter"",""1"",""8188""
","
","
","""event"",""trial"",""time""
""fullscreenenter"",""1"",""8188""
","
","","null","","null","","fixation","2021-08-01 04:31:32.477","","","","","",""
"card-selection-trial","44","240449","0.0-17.0-1.4","A1411","false","img/card_backs/set1/yellow.gif","img/card_backs/set1/purple.gif","img/card_backs/set1/red.gif","img/card_backs/set1/green.gif","img/card_backs/set2/pink.gif","img/card_backs/set2/orange.gif","img/card_backs/set2/blue.gif","img/card_backs/set2/gray.gif","""event"",""trial"",""time""
""fullscreenenter"",""1"",""8188""
","
","
","""event"",""trial"",""time""
""fullscreenenter"",""1"",""8188""
","
","","931.3000000119209","","","","practice","2021-08-01 04:31:35.416","img/practice_cards/backs/black.gif","2","-100","0","",""
"casino-fixation","45","240953","0.0-17.0-0.5","A1411","false","img/card_backs/set1/yellow.gif","img/card_backs/set1/purple.gif","img/card_backs/set1/red.gif","img/card_backs/set1/green.gif","img/card_backs/set2/pink.gif","img/card_backs/set2/orange.gif","img/card_backs/set2/blue.gif","img/card_backs/set2/gray.gif","""event"",""trial"",""time""
""fullscreenenter"",""1"",""8188""
","
","
","""event"",""trial"",""time""
""fullscreenenter"",""1"",""8188""
","
","","null","","null","","fixation","2021-08-01 04:31:35.920","","","","","",""
"card-selection-trial","46","243725","0.0-17.0-1.5","A1411","false","img/card_backs/set1/yellow.gif","img/card_backs/set1/purple.gif","img/card_backs/set1/red.gif","img/card_backs/set1/green.gif","img/card_backs/set2/pink.gif","img/card_backs/set2/orange.gif","img/card_backs/set2/blue.gif","img/card_backs/set2/gray.gif","""event"",""trial"",""time""
""fullscreenenter"",""1"",""8188""
","
","
","""event"",""trial"",""time""
""fullscreenenter"",""1"",""8188""
","
","","763.5","","","","practice","2021-08-01 04:31:38.692","img/practice_cards/backs/black.gif","0","-100","0","",""
"casino-fixation","47","244230","0.0-17.0-0.6","A1411","false","img/card_backs/set1/yellow.gif","img/card_backs/set1/purple.gif","img/card_backs/set1/red.gif","img/card_backs/set1/green.gif","img/card_backs/set2/pink.gif","img/card_backs/set2/orange.gif","img/card_backs/set2/blue.gif","img/card_backs/set2/gray.gif","""event"",""trial"",""time""
""fullscreenenter"",""1"",""8188""
","
","
","""event"",""trial"",""time""
""fullscreenenter"",""1"",""8188""
","
","","null","","null","","fixation","2021-08-01 04:31:39.197","","","","","",""
"card-selection-trial","48","250353","0.0-17.0-1.6","A1411","false","img/card_backs/set1/yellow.gif","img/card_backs/set1/purple.gif","img/card_backs/set1/red.gif","img/card_backs/set1/green.gif","img/card_backs/set2/pink.gif","img/card_backs/set2/orange.gif","img/card_backs/set2/blue.gif","img/card_backs/set2/gray.gif","""event"",""trial"",""time""
""fullscreenenter"",""1"",""8188""
","
","
","""event"",""trial"",""time""
""fullscreenenter"",""1"",""8188""
","
","","4114.4000000059605","","","","practice","2021-08-01 04:31:45.321","img/practice_cards/backs/dark_green.gif","1","200","0","",""
"casino-fixation","49","250860","0.0-17.0-0.7","A1411","false","img/card_backs/set1/yellow.gif","img/card_backs/set1/purple.gif","img/card_backs/set1/red.gif","img/card_backs/set1/green.gif","img/card_backs/set2/pink.gif","img/card_backs/set2/orange.gif","img/card_backs/set2/blue.gif","img/card_backs/set2/gray.gif","""event"",""trial"",""time""
""fullscreenenter"",""1"",""8188""
","
","
","""event"",""trial"",""time""
""fullscreenenter"",""1"",""8188""
","
","","null","","null","","fixation","2021-08-01 04:31:45.828","","","","","",""
"card-selection-trial","50","253981","0.0-17.0-1.7","A1411","false","img/card_backs/set1/yellow.gif","img/card_backs/set1/purple.gif","img/card_backs/set1/red.gif","img/card_backs/set1/green.gif","img/card_backs/set2/pink.gif","img/card_backs/set2/orange.gif","img/card_backs/set2/blue.gif","img/card_backs/set2/gray.gif","""event"",""trial"",""time""
""fullscreenenter"",""1"",""8188""
","
","
","""event"",""trial"",""time""
""fullscreenenter"",""1"",""8188""
","
","","1112.5","","","","practice","2021-08-01 04:31:48.948","img/practice_cards/backs/dark_green.gif","2","200","0","",""
"casino-fixation","51","254487","0.0-17.0-0.8","A1411","false","img/card_backs/set1/yellow.gif","img/card_backs/set1/purple.gif","img/card_backs/set1/red.gif","img/card_backs/set1/green.gif","img/card_backs/set2/pink.gif","img/card_backs/set2/orange.gif","img/card_backs/set2/blue.gif","img/card_backs/set2/gray.gif","""event"",""trial"",""time""
""fullscreenenter"",""1"",""8188""
","
","
","""event"",""trial"",""time""
""fullscreenenter"",""1"",""8188""
","
","","null","","null","","fixation","2021-08-01 04:31:49.454","","","","","",""
"card-selection-trial","52","258039","0.0-17.0-1.8","A1411","false","img/card_backs/set1/yellow.gif","img/card_backs/set1/purple.gif","img/card_backs/set1/red.gif","img/card_backs/set1/green.gif","img/card_backs/set2/pink.gif","img/card_backs/set2/orange.gif","img/card_backs/set2/blue.gif","img/card_backs/set2/gray.gif","""event"",""trial"",""time""
""fullscreenenter"",""1"",""8188""
","
","
","""event"",""trial"",""time""
""fullscreenenter"",""1"",""8188""
","
","","1541.4000000059605","","","","practice","2021-08-01 04:31:53.006","img/practice_cards/backs/dark_green.gif","1","-200","0","",""
"casino-fixation","53","258546","0.0-17.0-0.9","A1411","false","img/card_backs/set1/yellow.gif","img/card_backs/set1/purple.gif","img/card_backs/set1/red.gif","img/card_backs/set1/green.gif","img/card_backs/set2/pink.gif","img/card_backs/set2/orange.gif","img/card_backs/set2/blue.gif","img/card_backs/set2/gray.gif","""event"",""trial"",""time""
""fullscreenenter"",""1"",""8188""
","
","
","""event"",""trial"",""time""
""fullscreenenter"",""1"",""8188""
","
","","null","","null","","fixation","2021-08-01 04:31:53.513","","","","","",""
"card-selection-trial","54","262098","0.0-17.0-1.9","A1411","false","img/card_backs/set1/yellow.gif","img/card_backs/set1/purple.gif","img/card_backs/set1/red.gif","img/card_backs/set1/green.gif","img/card_backs/set2/pink.gif","img/card_backs/set2/orange.gif","img/card_backs/set2/blue.gif","img/card_backs/set2/gray.gif","""event"",""trial"",""time""
""fullscreenenter"",""1"",""8188""
","
","
","""event"",""trial"",""time""
""fullscreenenter"",""1"",""8188""
","
","","1546.0999999940395","","","","practice","2021-08-01 04:31:57.065","img/practice_cards/backs/brown.gif","3","-100","0","",""
"casino-keyboard-response","55","265482","0.0-18.0","A1411","false","img/card_backs/set1/yellow.gif","img/card_backs/set1/purple.gif","img/card_backs/set1/red.gif","img/card_backs/set1/green.gif","img/card_backs/set2/pink.gif","img/card_backs/set2/orange.gif","img/card_backs/set2/blue.gif","img/card_backs/set2/gray.gif","""event"",""trial"",""time""
""fullscreenenter"",""1"",""8188""
","
","
","""event"",""trial"",""time""
""fullscreenenter"",""1"",""8188""
","
","","3382.399999976158","You earned -500 tokens during the practice round!","82","","","2021-08-01 04:32:00.449","","","","","",""
"casino-keyboard-response","56","269828","0.0-19.0-0.0","A1411","false","img/card_backs/set1/yellow.gif","img/card_backs/set1/purple.gif","img/card_backs/set1/red.gif","img/card_backs/set1/green.gif","img/card_backs/set2/pink.gif","img/card_backs/set2/orange.gif","img/card_backs/set2/blue.gif","img/card_backs/set2/gray.gif","""event"",""trial"",""time""
""fullscreenenter"",""1"",""8188""
","
","
","""event"",""trial"",""time""
""fullscreenenter"",""1"",""8188""
","
","","4344.4000000059605","Nice job! You are almost ready to play the real game.","86","","instructions","2021-08-01 04:32:04.795","","","","","",""
"casino-keyboard-response","57","276827","0.0-19.0-0.1","A1411","false","img/card_backs/set1/yellow.gif","img/card_backs/set1/purple.gif","img/card_backs/set1/red.gif","img/card_backs/set1/green.gif","img/card_backs/set2/pink.gif","img/card_backs/set2/orange.gif","img/card_backs/set2/blue.gif","img/card_backs/set2/gray.gif","""event"",""trial"",""time""
""fullscreenenter"",""1"",""8188""
","
","
","""event"",""trial"",""time""
""fullscreenenter"",""1"",""8188""
","
","","6998.0999999940395","You will play two rounds of the real game. In each round, you will pick 100 cards in total.","73","","instructions","2021-08-01 04:32:11.794","","","","","",""
"casino-keyboard-response","58","281158","0.0-19.0-0.2","A1411","false","img/card_backs/set1/yellow.gif","img/card_backs/set1/purple.gif","img/card_backs/set1/red.gif","img/card_backs/set1/green.gif","img/card_backs/set2/pink.gif","img/card_backs/set2/orange.gif","img/card_backs/set2/blue.gif","img/card_backs/set2/gray.gif","""event"",""trial"",""time""
""fullscreenenter"",""1"",""8188""
","
","
","""event"",""trial"",""time""
""fullscreenenter"",""1"",""8188""
","
","","4329.699999988079","We are now going to ask you some questions about how the game works.","66","","instructions","2021-08-01 04:32:16.125","","","","","",""
"casino-keyboard-response","59","287468","0.0-19.0-0.3","A1411","false","img/card_backs/set1/yellow.gif","img/card_backs/set1/purple.gif","img/card_backs/set1/red.gif","img/card_backs/set1/green.gif","img/card_backs/set2/pink.gif","img/card_backs/set2/orange.gif","img/card_backs/set2/blue.gif","img/card_backs/set2/gray.gif","""event"",""trial"",""time""
""fullscreenenter"",""1"",""8188""
","
","
","""event"",""trial"",""time""
""fullscreenenter"",""1"",""8188""
","
","","6309.5","Answer carefully. You will not be able to begin the game until you answer them correctly.","67","","instructions","2021-08-01 04:32:22.435","","","","","",""
"casino-comp_q","60","294838","0.0-20.0-0.0","A1411","false","img/card_backs/set1/yellow.gif","img/card_backs/set1/purple.gif","img/card_backs/set1/red.gif","img/card_backs/set1/green.gif","img/card_backs/set2/pink.gif","img/card_backs/set2/orange.gif","img/card_backs/set2/blue.gif","img/card_backs/set2/gray.gif","""event"",""trial"",""time""
""fullscreenenter"",""1"",""8188""
","
","
","""event"",""trial"",""time""
""fullscreenenter"",""1"",""8188""
","
","","7368.9000000059605","True or False: All the decks have some cards that cause you to win tokens and some cards that cause you to lose tokens.","84","","","2021-08-01 04:32:29.806","","","","","",""
"casino-keyboard-response","61","298504","0.0-20.0-1.0","A1411","false","img/card_backs/set1/yellow.gif","img/card_backs/set1/purple.gif","img/card_backs/set1/red.gif","img/card_backs/set1/green.gif","img/card_backs/set2/pink.gif","img/card_backs/set2/orange.gif","img/card_backs/set2/blue.gif","img/card_backs/set2/gray.gif","""event"",""trial"",""time""
""fullscreenenter"",""1"",""8188""
","
","
","""event"",""trial"",""time""
""fullscreenenter"",""1"",""8188""
","
","","3664.199999988079","True is correct! All the decks have a mix of winning and losing cards.","77","","","2021-08-01 04:32:33.471","","","","","true",""
"casino-comp_q","62","301575","0.0-21.0-0.0","A1411","false","img/card_backs/set1/yellow.gif","img/card_backs/set1/purple.gif","img/card_backs/set1/red.gif","img/card_backs/set1/green.gif","img/card_backs/set2/pink.gif","img/card_backs/set2/orange.gif","img/card_backs/set2/blue.gif","img/card_backs/set2/gray.gif","""event"",""trial"",""time""
""fullscreenenter"",""1"",""8188""
","
","
","""event"",""trial"",""time""
""fullscreenenter"",""1"",""8188""
","
","","3069.2000000178814","True or False: You will have as much time as you want to make your response.","70","","","2021-08-01 04:32:36.542","","","","","",""
"casino-keyboard-response","63","304155","0.0-21.0-1.0","A1411","false","img/card_backs/set1/yellow.gif","img/card_backs/set1/purple.gif","img/card_backs/set1/red.gif","img/card_backs/set1/green.gif","img/card_backs/set2/pink.gif","img/card_backs/set2/orange.gif","img/card_backs/set2/blue.gif","img/card_backs/set2/gray.gif","""event"",""trial"",""time""
""fullscreenenter"",""1"",""8188""
","
","
","""event"",""trial"",""time""
""fullscreenenter"",""1"",""8188""
","
","","2577.5","False is correct! You will only have 10 seconds to make each choice.","75","","","2021-08-01 04:32:39.122","","","","","true",""
"casino-comp_q","64","307525","0.0-22.0-0.0","A1411","false","img/card_backs/set1/yellow.gif","img/card_backs/set1/purple.gif","img/card_backs/set1/red.gif","img/card_backs/set1/green.gif","img/card_backs/set2/pink.gif","img/card_backs/set2/orange.gif","img/card_backs/set2/blue.gif","img/card_backs/set2/gray.gif","""event"",""trial"",""time""
""fullscreenenter"",""1"",""8188""
","
","
","""event"",""trial"",""time""
""fullscreenenter"",""1"",""8188""
","
","","3369.9000000059605","True or False: The location of the deck determines how lucky it is.","70","","","2021-08-01 04:32:42.492","","","","","",""
"casino-keyboard-response","65","313421","0.0-22.0-1.0","A1411","false","img/card_backs/set1/yellow.gif","img/card_backs/set1/purple.gif","img/card_backs/set1/red.gif","img/card_backs/set1/green.gif","img/card_backs/set2/pink.gif","img/card_backs/set2/orange.gif","img/card_backs/set2/blue.gif","img/card_backs/set2/gray.gif","""event"",""trial"",""time""
""fullscreenenter"",""1"",""8188""
","
","
","""event"",""trial"",""time""
""fullscreenenter"",""1"",""8188""
","
","","5894.4000000059605","False is correct! The <i>color</i>  of the deck determines how lucky or unlucky it is.","68","","","2021-08-01 04:32:48.388","","","","","true",""
"casino-keyboard-response","66","317900","0.0-23.0-0.0","A1411","false","img/card_backs/set1/yellow.gif","img/card_backs/set1/purple.gif","img/card_backs/set1/red.gif","img/card_backs/set1/green.gif","img/card_backs/set2/pink.gif","img/card_backs/set2/orange.gif","img/card_backs/set2/blue.gif","img/card_backs/set2/gray.gif","""event"",""trial"",""time""
""fullscreenenter"",""1"",""8188""
","
","
","""event"",""trial"",""time""
""fullscreenenter"",""1"",""8188""
","
","","4478.199999988079","Great job! Now it's time to start the real game.","82","","instructions","2021-08-01 04:32:52.867","","","","","",""
"casino-keyboard-response","67","323012","0.0-23.0-0.1","A1411","false","img/card_backs/set1/yellow.gif","img/card_backs/set1/purple.gif","img/card_backs/set1/red.gif","img/card_backs/set1/green.gif","img/card_backs/set2/pink.gif","img/card_backs/set2/orange.gif","img/card_backs/set2/blue.gif","img/card_backs/set2/gray.gif","""event"",""trial"",""time""
""fullscreenenter"",""1"",""8188""
","
","
","""event"",""trial"",""time""
""fullscreenenter"",""1"",""8188""
","
","","5110.5999999940395","Before we start, we're going to head into a new room of the casino.","86","","instructions","2021-08-01 04:32:57.979","","","","","",""
"casino-keyboard-response","68","329284","0.0-24.0-0.0","A1411","false","img/card_backs/set1/yellow.gif","img/card_backs/set1/purple.gif","img/card_backs/set1/red.gif","img/card_backs/set1/green.gif","img/card_backs/set2/pink.gif","img/card_backs/set2/orange.gif","img/card_backs/set2/blue.gif","img/card_backs/set2/gray.gif","""event"",""trial"",""time""
""fullscreenenter"",""1"",""8188""
","
","
","""event"",""trial"",""time""
""fullscreenenter"",""1"",""8188""
","
","","6270.899999976158","Here we are! The real game will use different cards, but the rules will be the same.","71","","instructions","2021-08-01 04:33:04.251","","","","","",""
"casino-keyboard-response","69","331669","0.0-24.0-0.1","A1411","false","img/card_backs/set1/yellow.gif","img/card_backs/set1/purple.gif","img/card_backs/set1/red.gif","img/card_backs/set1/green.gif","img/card_backs/set2/pink.gif","img/card_backs/set2/orange.gif","img/card_backs/set2/blue.gif","img/card_backs/set2/gray.gif","""event"",""trial"",""time""
""fullscreenenter"",""1"",""8188""
","
","
","""event"",""trial"",""time""
""fullscreenenter"",""1"",""8188""
","
","","2383.5","Ready? Put your fingers over the '2', '4', 6', and '8' keys so you are ready to play the game. </br> Then press 2 to start.","50","","instructions","2021-08-01 04:33:06.636","","","","","",""
"casino-fixation","70","332170","0.0-25.0-0.0","A1411","false","img/card_backs/set1/yellow.gif","img/card_backs/set1/purple.gif","img/card_backs/set1/red.gif","img/card_backs/set1/green.gif","img/card_backs/set2/pink.gif","img/card_backs/set2/orange.gif","img/card_backs/set2/blue.gif","img/card_backs/set2/gray.gif","""event"",""trial"",""time""
""fullscreenenter"",""1"",""8188""
","
","
","""event"",""trial"",""time""
""fullscreenenter"",""1"",""8188""
","
","","null","","null","","fixation","2021-08-01 04:33:07.137","","","","","",""
"card-selection-trial","71","336582","0.0-25.0-1.0","A1411","false","img/card_backs/set1/yellow.gif","img/card_backs/set1/purple.gif","img/card_backs/set1/red.gif","img/card_backs/set1/green.gif","img/card_backs/set2/pink.gif","img/card_backs/set2/orange.gif","img/card_backs/set2/blue.gif","img/card_backs/set2/gray.gif","""event"",""trial"",""time""
""fullscreenenter"",""1"",""8188""
","
","
","""event"",""trial"",""time""
""fullscreenenter"",""1"",""8188""
","
","","2404.0999999940395","","","","real_trial","2021-08-01 04:33:11.549","img/card_backs/set1/yellow.gif","1","190","1","",""
"casino-fixation","72","337085","0.0-25.0-0.1","A1411","false","img/card_backs/set1/yellow.gif","img/card_backs/set1/purple.gif","img/card_backs/set1/red.gif","img/card_backs/set1/green.gif","img/card_backs/set2/pink.gif","img/card_backs/set2/orange.gif","img/card_backs/set2/blue.gif","img/card_backs/set2/gray.gif","""event"",""trial"",""time""
""fullscreenenter"",""1"",""8188""
","
","
","""event"",""trial"",""time""
""fullscreenenter"",""1"",""8188""
","
","","null","","null","","fixation","2021-08-01 04:33:12.052","","","","","",""
"card-selection-trial","73","340257","0.0-25.0-1.1","A1411","false","img/card_backs/set1/yellow.gif","img/card_backs/set1/purple.gif","img/card_backs/set1/red.gif","img/card_backs/set1/green.gif","img/card_backs/set2/pink.gif","img/card_backs/set2/orange.gif","img/card_backs/set2/blue.gif","img/card_backs/set2/gray.gif","""event"",""trial"",""time""
""fullscreenenter"",""1"",""8188""
","
","
","""event"",""trial"",""time""
""fullscreenenter"",""1"",""8188""
","
","","1164.699999988079","","","","real_trial","2021-08-01 04:33:15.224","img/card_backs/set1/yellow.gif","1","-240","1","",""
"casino-fixation","74","340758","0.0-25.0-0.2","A1411","false","img/card_backs/set1/yellow.gif","img/card_backs/set1/purple.gif","img/card_backs/set1/red.gif","img/card_backs/set1/green.gif","img/card_backs/set2/pink.gif","img/card_backs/set2/orange.gif","img/card_backs/set2/blue.gif","img/card_backs/set2/gray.gif","""event"",""trial"",""time""
""fullscreenenter"",""1"",""8188""
","
","
","""event"",""trial"",""time""
""fullscreenenter"",""1"",""8188""
","
","","null","","null","","fixation","2021-08-01 04:33:15.725","","","","","",""
"card-selection-trial","75","343884","0.0-25.0-1.2","A1411","false","img/card_backs/set1/yellow.gif","img/card_backs/set1/purple.gif","img/card_backs/set1/red.gif","img/card_backs/set1/green.gif","img/card_backs/set2/pink.gif","img/card_backs/set2/orange.gif","img/card_backs/set2/blue.gif","img/card_backs/set2/gray.gif","""event"",""trial"",""time""
""fullscreenenter"",""1"",""8188""
","
","
","""event"",""trial"",""time""
""fullscreenenter"",""1"",""8188""
","
","","1117.7999999821186","","","","real_trial","2021-08-01 04:33:18.851","img/card_backs/set1/yellow.gif","0","190","1","",""
"casino-fixation","76","344390","0.0-25.0-0.3","A1411","false","img/card_backs/set1/yellow.gif","img/card_backs/set1/purple.gif","img/card_backs/set1/red.gif","img/card_backs/set1/green.gif","img/card_backs/set2/pink.gif","img/card_backs/set2/orange.gif","img/card_backs/set2/blue.gif","img/card_backs/set2/gray.gif","""event"",""trial"",""time""
""fullscreenenter"",""1"",""8188""
","
","
","""event"",""trial"",""time""
""fullscreenenter"",""1"",""8188""
","
","","null","","null","","fixation","2021-08-01 04:33:19.357","","","","","",""
"card-selection-trial","77","347373","0.0-25.0-1.3","A1411","false","img/card_backs/set1/yellow.gif","img/card_backs/set1/purple.gif","img/card_backs/set1/red.gif","img/card_backs/set1/green.gif","img/card_backs/set2/pink.gif","img/card_backs/set2/orange.gif","img/card_backs/set2/blue.gif","img/card_backs/set2/gray.gif","""event"",""trial"",""time""
""fullscreenenter"",""1"",""8188""
","
","
","""event"",""trial"",""time""
""fullscreenenter"",""1"",""8188""
","
","","978.3000000119209","","","","real_trial","2021-08-01 04:33:22.340","img/card_backs/set1/yellow.gif","3","200","1","",""
"casino-fixation","78","347876","0.0-25.0-0.4","A1411","false","img/card_backs/set1/yellow.gif","img/card_backs/set1/purple.gif","img/card_backs/set1/red.gif","img/card_backs/set1/green.gif","img/card_backs/set2/pink.gif","img/card_backs/set2/orange.gif","img/card_backs/set2/blue.gif","img/card_backs/set2/gray.gif","""event"",""trial"",""time""
""fullscreenenter"",""1"",""8188""
","
","
","""event"",""trial"",""time""
""fullscreenenter"",""1"",""8188""
","
","","null","","null","","fixation","2021-08-01 04:33:22.843","","","","","",""
"card-selection-trial","79","351035","0.0-25.0-1.4","A1411","false","img/card_backs/set1/yellow.gif","img/card_backs/set1/purple.gif","img/card_backs/set1/red.gif","img/card_backs/set1/green.gif","img/card_backs/set2/pink.gif","img/card_backs/set2/orange.gif","img/card_backs/set2/blue.gif","img/card_backs/set2/gray.gif","""event"",""trial"",""time""
""fullscreenenter"",""1"",""8188""
","
","
","""event"",""trial"",""time""
""fullscreenenter"",""1"",""8188""
","
","","1151.199999988079","","","","real_trial","2021-08-01 04:33:26.002","img/card_backs/set1/yellow.gif","1","-240","1","",""
"casino-fixation","80","351540","0.0-25.0-0.5","A1411","false","img/card_backs/set1/yellow.gif","img/card_backs/set1/purple.gif","img/card_backs/set1/red.gif","img/card_backs/set1/green.gif","img/card_backs/set2/pink.gif","img/card_backs/set2/orange.gif","img/card_backs/set2/blue.gif","img/card_backs/set2/gray.gif","""event"",""trial"",""time""
""fullscreenenter"",""1"",""8188""
","
","
","""event"",""trial"",""time""
""fullscreenenter"",""1"",""8188""
","
","","null","","null","","fixation","2021-08-01 04:33:26.507","","","","","",""
"card-selection-trial","81","354734","0.0-25.0-1.5","A1411","false","img/card_backs/set1/yellow.gif","img/card_backs/set1/purple.gif","img/card_backs/set1/red.gif","img/card_backs/set1/green.gif","img/card_backs/set2/pink.gif","img/card_backs/set2/orange.gif","img/card_backs/set2/blue.gif","img/card_backs/set2/gray.gif","""event"",""trial"",""time""
""fullscreenenter"",""1"",""8188""
","
","
","""event"",""trial"",""time""
""fullscreenenter"",""1"",""8188""
","
","","1189.4000000059605","","","","real_trial","2021-08-01 04:33:29.701","img/card_backs/set1/yellow.gif","2","180","1","",""
"casino-fixation","82","355238","0.0-25.0-0.6","A1411","false","img/card_backs/set1/yellow.gif","img/card_backs/set1/purple.gif","img/card_backs/set1/red.gif","img/card_backs/set1/green.gif","img/card_backs/set2/pink.gif","img/card_backs/set2/orange.gif","img/card_backs/set2/blue.gif","img/card_backs/set2/gray.gif","""event"",""trial"",""time""
""fullscreenenter"",""1"",""8188""
","
","
","""event"",""trial"",""time""
""fullscreenenter"",""1"",""8188""
","
","","null","","null","","fixation","2021-08-01 04:33:30.205","","","","","",""
"card-selection-trial","83","358845","0.0-25.0-1.6","A1411","false","img/card_backs/set1/yellow.gif","img/card_backs/set1/purple.gif","img/card_backs/set1/red.gif","img/card_backs/set1/green.gif","img/card_backs/set2/pink.gif","img/card_backs/set2/orange.gif","img/card_backs/set2/blue.gif","img/card_backs/set2/gray.gif","""event"",""trial"",""time""
""fullscreenenter"",""1"",""8188""
","
","
","""event"",""trial"",""time""
""fullscreenenter"",""1"",""8188""
","
","","1599.9000000059605","","","","real_trial","2021-08-01 04:33:33.812","img/card_backs/set1/yellow.gif","2","-230","1","",""
"casino-fixation","84","359347","0.0-25.0-0.7","A1411","false","img/card_backs/set1/yellow.gif","img/card_backs/set1/purple.gif","img/card_backs/set1/red.gif","img/card_backs/set1/green.gif","img/card_backs/set2/pink.gif","img/card_backs/set2/orange.gif","img/card_backs/set2/blue.gif","img/card_backs/set2/gray.gif","""event"",""trial"",""time""
""fullscreenenter"",""1"",""8188""
","
","
","""event"",""trial"",""time""
""fullscreenenter"",""1"",""8188""
","
","","null","","null","","fixation","2021-08-01 04:33:34.314","","","","","",""
"card-selection-trial","85","362215","0.0-25.0-1.7","A1411","false","img/card_backs/set1/yellow.gif","img/card_backs/set1/purple.gif","img/card_backs/set1/red.gif","img/card_backs/set1/green.gif","img/card_backs/set2/pink.gif","img/card_backs/set2/orange.gif","img/card_backs/set2/blue.gif","img/card_backs/set2/gray.gif","""event"",""trial"",""time""
""fullscreenenter"",""1"",""8188""
","
","
","""event"",""trial"",""time""
""fullscreenenter"",""1"",""8188""
","
","","859.6999999880791","","","","real_trial","2021-08-01 04:33:37.182","img/card_backs/set1/yellow.gif","1","180","1","",""
"casino-fixation","86","362721","0.0-25.0-0.8","A1411","false","img/card_backs/set1/yellow.gif","img/card_backs/set1/purple.gif","img/card_backs/set1/red.gif","img/card_backs/set1/green.gif","img/card_backs/set2/pink.gif","img/card_backs/set2/orange.gif","img/card_backs/set2/blue.gif","img/card_backs/set2/gray.gif","""event"",""trial"",""time""
""fullscreenenter"",""1"",""8188""
","
","
","""event"",""trial"",""time""
""fullscreenenter"",""1"",""8188""
","
","","null","","null","","fixation","2021-08-01 04:33:37.688","","","","","",""
"card-selection-trial","87","366252","0.0-25.0-1.8","A1411","false","img/card_backs/set1/yellow.gif","img/card_backs/set1/purple.gif","img/card_backs/set1/red.gif","img/card_backs/set1/green.gif","img/card_backs/set2/pink.gif","img/card_backs/set2/orange.gif","img/card_backs/set2/blue.gif","img/card_backs/set2/gray.gif","""event"",""trial"",""time""
""fullscreenenter"",""1"",""8188""
","
","
","""event"",""trial"",""time""
""fullscreenenter"",""1"",""8188""
","
","","1521.0999999940395","","","","real_trial","2021-08-01 04:33:41.219","img/card_backs/set1/yellow.gif","2","-250","1","",""
"casino-fixation","88","366759","0.0-25.0-0.9","A1411","false","img/card_backs/set1/yellow.gif","img/card_backs/set1/purple.gif","img/card_backs/set1/red.gif","img/card_backs/set1/green.gif","img/card_backs/set2/pink.gif","img/card_backs/set2/orange.gif","img/card_backs/set2/blue.gif","img/card_backs/set2/gray.gif","""event"",""trial"",""time""
""fullscreenenter"",""1"",""8188""
","
","
","""event"",""trial"",""time""
""fullscreenenter"",""1"",""8188""
","
","","null","","null","","fixation","2021-08-01 04:33:41.726","","","","","",""
"card-selection-trial","89","370092","0.0-25.0-1.9","A1411","false","img/card_backs/set1/yellow.gif","img/card_backs/set1/purple.gif","img/card_backs/set1/red.gif","img/card_backs/set1/green.gif","img/card_backs/set2/pink.gif","img/card_backs/set2/orange.gif","img/card_backs/set2/blue.gif","img/card_backs/set2/gray.gif","""event"",""trial"",""time""
""fullscreenenter"",""1"",""8188""
","
","
","""event"",""trial"",""time""
""fullscreenenter"",""1"",""8188""
","
","","1325.9000000059605","","","","real_trial","2021-08-01 04:33:45.059","img/card_backs/set1/yellow.gif","2","-250","1","",""
"casino-fixation","90","370594","0.0-25.0-0.10","A1411","false","img/card_backs/set1/yellow.gif","img/card_backs/set1/purple.gif","img/card_backs/set1/red.gif","img/card_backs/set1/green.gif","img/card_backs/set2/pink.gif","img/card_backs/set2/orange.gif","img/card_backs/set2/blue.gif","img/card_backs/set2/gray.gif","""event"",""trial"",""time""
""fullscreenenter"",""1"",""8188""
","
","
","""event"",""trial"",""time""
""fullscreenenter"",""1"",""8188""
","
","","null","","null","","fixation","2021-08-01 04:33:45.561","","","","","",""
"card-selection-trial","91","374786","0.0-25.0-1.10","A1411","false","img/card_backs/set1/yellow.gif","img/card_backs/set1/purple.gif","img/card_backs/set1/red.gif","img/card_backs/set1/green.gif","img/card_backs/set2/pink.gif","img/card_backs/set2/orange.gif","img/card_backs/set2/blue.gif","img/card_backs/set2/gray.gif","""event"",""trial"",""time""
""fullscreenenter"",""1"",""8188""
","
","
","""event"",""trial"",""time""
""fullscreenenter"",""1"",""8188""
","
","","2184.2000000178814","","","","real_trial","2021-08-01 04:33:49.753","img/card_backs/set1/green.gif","0","110","1","",""
"casino-fixation","92","375292","0.0-25.0-0.11","A1411","false","img/card_backs/set1/yellow.gif","img/card_backs/set1/purple.gif","img/card_backs/set1/red.gif","img/card_backs/set1/green.gif","img/card_backs/set2/pink.gif","img/card_backs/set2/orange.gif","img/card_backs/set2/blue.gif","img/card_backs/set2/gray.gif","""event"",""trial"",""time""
""fullscreenenter"",""1"",""8188""
","
","
","""event"",""trial"",""time""
""fullscreenenter"",""1"",""8188""
","
","","null","","null","","fixation","2021-08-01 04:33:50.259","","","","","",""
"card-selection-trial","93","379906","0.0-25.0-1.11","A1411","false","img/card_backs/set1/yellow.gif","img/card_backs/set1/purple.gif","img/card_backs/set1/red.gif","img/card_backs/set1/green.gif","img/card_backs/set2/pink.gif","img/card_backs/set2/orange.gif","img/card_backs/set2/blue.gif","img/card_backs/set2/gray.gif","""event"",""trial"",""time""
""fullscreenenter"",""1"",""8188""
","
","
","""event"",""trial"",""time""
""fullscreenenter"",""1"",""8188""
","
","","2604.399999976158","","","","real_trial","2021-08-01 04:33:54.873","img/card_backs/set1/yellow.gif","1","180","1","",""
"casino-fixation","94","380412","0.0-25.0-0.12","A1411","false","img/card_backs/set1/yellow.gif","img/card_backs/set1/purple.gif","img/card_backs/set1/red.gif","img/card_backs/set1/green.gif","img/card_backs/set2/pink.gif","img/card_backs/set2/orange.gif","img/card_backs/set2/blue.gif","img/card_backs/set2/gray.gif","""event"",""trial"",""time""
""fullscreenenter"",""1"",""8188""
","
","
","""event"",""trial"",""time""
""fullscreenenter"",""1"",""8188""
","
","","null","","null","","fixation","2021-08-01 04:33:55.379","","","","","",""
"card-selection-trial","95","384044","0.0-25.0-1.12","A1411","false","img/card_backs/set1/yellow.gif","img/card_backs/set1/purple.gif","img/card_backs/set1/red.gif","img/card_backs/set1/green.gif","img/card_backs/set2/pink.gif","img/card_backs/set2/orange.gif","img/card_backs/set2/blue.gif","img/card_backs/set2/gray.gif","""event"",""trial"",""time""
""fullscreenenter"",""1"",""8188""
","
","
","""event"",""trial"",""time""
""fullscreenenter"",""1"",""8188""
","
","","1623.0999999940395","","","","real_trial","2021-08-01 04:33:59.011","img/card_backs/set1/purple.gif","1","190","1","",""
"casino-fixation","96","384551","0.0-25.0-0.13","A1411","false","img/card_backs/set1/yellow.gif","img/card_backs/set1/purple.gif","img/card_backs/set1/red.gif","img/card_backs/set1/green.gif","img/card_backs/set2/pink.gif","img/card_backs/set2/orange.gif","img/card_backs/set2/blue.gif","img/card_backs/set2/gray.gif","""event"",""trial"",""time""
""fullscreenenter"",""1"",""8188""
","
","
","""event"",""trial"",""time""
""fullscreenenter"",""1"",""8188""
","
","","null","","null","","fixation","2021-08-01 04:33:59.518","","","","","",""
"card-selection-trial","97","387506","0.0-25.0-1.13","A1411","false","img/card_backs/set1/yellow.gif","img/card_backs/set1/purple.gif","img/card_backs/set1/red.gif","img/card_backs/set1/green.gif","img/card_backs/set2/pink.gif","img/card_backs/set2/orange.gif","img/card_backs/set2/blue.gif","img/card_backs/set2/gray.gif","""event"",""trial"",""time""
""fullscreenenter"",""1"",""8188""
","
","
","""event"",""trial"",""time""
""fullscreenenter"",""1"",""8188""
","
","","944.1999999880791","","","","real_trial","2021-08-01 04:34:02.473","img/card_backs/set1/yellow.gif","0","180","1","",""
"casino-fixation","98","388012","0.0-25.0-0.14","A1411","false","img/card_backs/set1/yellow.gif","img/card_backs/set1/purple.gif","img/card_backs/set1/red.gif","img/card_backs/set1/green.gif","img/card_backs/set2/pink.gif","img/card_backs/set2/orange.gif","img/card_backs/set2/blue.gif","img/card_backs/set2/gray.gif","""event"",""trial"",""time""
""fullscreenenter"",""1"",""8188""
","
","
","""event"",""trial"",""time""
""fullscreenenter"",""1"",""8188""
","
","","null","","null","","fixation","2021-08-01 04:34:02.979","","","","","",""
"card-selection-trial","99","391537","0.0-25.0-1.14","A1411","false","img/card_backs/set1/yellow.gif","img/card_backs/set1/purple.gif","img/card_backs/set1/red.gif","img/card_backs/set1/green.gif","img/card_backs/set2/pink.gif","img/card_backs/set2/orange.gif","img/card_backs/set2/blue.gif","img/card_backs/set2/gray.gif","""event"",""trial"",""time""
""fullscreenenter"",""1"",""8188""
","
","
","""event"",""trial"",""time""
""fullscreenenter"",""1"",""8188""
","
","","1519","","","","real_trial","2021-08-01 04:34:06.504","img/card_backs/set1/green.gif","1","-60","1","",""
"casino-fixation","100","392041","0.0-25.0-0.15","A1411","false","img/card_backs/set1/yellow.gif","img/card_backs/set1/purple.gif","img/card_backs/set1/red.gif","img/card_backs/set1/green.gif","img/card_backs/set2/pink.gif","img/card_backs/set2/orange.gif","img/card_backs/set2/blue.gif","img/card_backs/set2/gray.gif","""event"",""trial"",""time""
""fullscreenenter"",""1"",""8188""
","
","
","""event"",""trial"",""time""
""fullscreenenter"",""1"",""8188""
","
","","null","","null","","fixation","2021-08-01 04:34:07.008","","","","","",""
"card-selection-trial","101","395287","0.0-25.0-1.15","A1411","false","img/card_backs/set1/yellow.gif","img/card_backs/set1/purple.gif","img/card_backs/set1/red.gif","img/card_backs/set1/green.gif","img/card_backs/set2/pink.gif","img/card_backs/set2/orange.gif","img/card_backs/set2/blue.gif","img/card_backs/set2/gray.gif","""event"",""trial"",""time""
""fullscreenenter"",""1"",""8188""
","
","
","""event"",""trial"",""time""
""fullscreenenter"",""1"",""8188""
","
","","1238","","","","real_trial","2021-08-01 04:34:10.254","img/card_backs/set1/purple.gif","2","-230","1","",""
"casino-fixation","102","395788","0.0-25.0-0.16","A1411","false","img/card_backs/set1/yellow.gif","img/card_backs/set1/purple.gif","img/card_backs/set1/red.gif","img/card_backs/set1/green.gif","img/card_backs/set2/pink.gif","img/card_backs/set2/orange.gif","img/card_backs/set2/blue.gif","img/card_backs/set2/gray.gif","""event"",""trial"",""time""
""fullscreenenter"",""1"",""8188""
","
","
","""event"",""trial"",""time""
""fullscreenenter"",""1"",""8188""
","
","","null","","null","","fixation","2021-08-01 04:34:10.755","","","","","",""
"card-selection-trial","103","398306","0.0-25.0-1.16","A1411","false","img/card_backs/set1/yellow.gif","img/card_backs/set1/purple.gif","img/card_backs/set1/red.gif","img/card_backs/set1/green.gif","img/card_backs/set2/pink.gif","img/card_backs/set2/orange.gif","img/card_backs/set2/blue.gif","img/card_backs/set2/gray.gif","""event"",""trial"",""time""
""fullscreenenter"",""1"",""8188""
","
","
","""event"",""trial"",""time""
""fullscreenenter"",""1"",""8188""
","
","","506.39999997615814","","","","real_trial","2021-08-01 04:34:13.273","img/card_backs/set1/green.gif","0","120","1","",""
"casino-fixation","104","398812","0.0-25.0-0.17","A1411","false","img/card_backs/set1/yellow.gif","img/card_backs/set1/purple.gif","img/card_backs/set1/red.gif","img/card_backs/set1/green.gif","img/card_backs/set2/pink.gif","img/card_backs/set2/orange.gif","img/card_backs/set2/blue.gif","img/card_backs/set2/gray.gif","""event"",""trial"",""time""
""fullscreenenter"",""1"",""8188""
","
","
","""event"",""trial"",""time""
""fullscreenenter"",""1"",""8188""
","
","","null","","null","","fixation","2021-08-01 04:34:13.779","","","","","",""
"card-selection-trial","105","402156","0.0-25.0-1.17","A1411","false","img/card_backs/set1/yellow.gif","img/card_backs/set1/purple.gif","img/card_backs/set1/red.gif","img/card_backs/set1/green.gif","img/card_backs/set2/pink.gif","img/card_backs/set2/orange.gif","img/card_backs/set2/blue.gif","img/card_backs/set2/gray.gif","""event"",""trial"",""time""
""fullscreenenter"",""1"",""8188""
","
","
","""event"",""trial"",""time""
""fullscreenenter"",""1"",""8188""
","
","","1336","","","","real_trial","2021-08-01 04:34:17.123","img/card_backs/set1/yellow.gif","1","190","1","",""
"casino-fixation","106","402663","0.0-25.0-0.18","A1411","false","img/card_backs/set1/yellow.gif","img/card_backs/set1/purple.gif","img/card_backs/set1/red.gif","img/card_backs/set1/green.gif","img/card_backs/set2/pink.gif","img/card_backs/set2/orange.gif","img/card_backs/set2/blue.gif","img/card_backs/set2/gray.gif","""event"",""trial"",""time""
""fullscreenenter"",""1"",""8188""
","
","
","""event"",""trial"",""time""
""fullscreenenter"",""1"",""8188""
","
","","null","","null","","fixation","2021-08-01 04:34:17.630","","","","","",""
"card-selection-trial","107","405895","0.0-25.0-1.18","A1411","false","img/card_backs/set1/yellow.gif","img/card_backs/set1/purple.gif","img/card_backs/set1/red.gif","img/card_backs/set1/green.gif","img/card_backs/set2/pink.gif","img/card_backs/set2/orange.gif","img/card_backs/set2/blue.gif","img/card_backs/set2/gray.gif","""event"",""trial"",""time""
""fullscreenenter"",""1"",""8188""
","
","
","""event"",""trial"",""time""
""fullscreenenter"",""1"",""8188""
","
","","1225.2999999821186","","","","real_trial","2021-08-01 04:34:20.862","img/card_backs/set1/yellow.gif","1","-250","1","",""
"casino-fixation","108","406401","0.0-25.0-0.19","A1411","false","img/card_backs/set1/yellow.gif","img/card_backs/set1/purple.gif","img/card_backs/set1/red.gif","img/card_backs/set1/green.gif","img/card_backs/set2/pink.gif","img/card_backs/set2/orange.gif","img/card_backs/set2/blue.gif","img/card_backs/set2/gray.gif","""event"",""trial"",""time""
""fullscreenenter"",""1"",""8188""
","
","
","""event"",""trial"",""time""
""fullscreenenter"",""1"",""8188""
","
","","null","","null","","fixation","2021-08-01 04:34:21.368","","","","","",""
"card-selection-trial","109","409388","0.0-25.0-1.19","A1411","false","img/card_backs/set1/yellow.gif","img/card_backs/set1/purple.gif","img/card_backs/set1/red.gif","img/card_backs/set1/green.gif","img/card_backs/set2/pink.gif","img/card_backs/set2/orange.gif","img/card_backs/set2/blue.gif","img/card_backs/set2/gray.gif","""event"",""trial"",""time""
""fullscreenenter"",""1"",""8188""
","
","
","""event"",""trial"",""time""
""fullscreenenter"",""1"",""8188""
","
","","975.8000000119209","","","","real_trial","2021-08-01 04:34:24.355","img/card_backs/set1/yellow.gif","2","200","1","",""
"casino-fixation","110","409895","0.0-25.0-0.20","A1411","false","img/card_backs/set1/yellow.gif","img/card_backs/set1/purple.gif","img/card_backs/set1/red.gif","img/card_backs/set1/green.gif","img/card_backs/set2/pink.gif","img/card_backs/set2/orange.gif","img/card_backs/set2/blue.gif","img/card_backs/set2/gray.gif","""event"",""trial"",""time""
""fullscreenenter"",""1"",""8188""
","
","
","""event"",""trial"",""time""
""fullscreenenter"",""1"",""8188""
","
","","null","","null","","fixation","2021-08-01 04:34:24.862","","","","","",""
"card-selection-trial","111","412951","0.0-25.0-1.20","A1411","false","img/card_backs/set1/yellow.gif","img/card_backs/set1/purple.gif","img/card_backs/set1/red.gif","img/card_backs/set1/green.gif","img/card_backs/set2/pink.gif","img/card_backs/set2/orange.gif","img/card_backs/set2/blue.gif","img/card_backs/set2/gray.gif","""event"",""trial"",""time""
""fullscreenenter"",""1"",""8188""
","
","
","""event"",""trial"",""time""
""fullscreenenter"",""1"",""8188""
","
","","1049.5","","","","real_trial","2021-08-01 04:34:27.918","img/card_backs/set1/purple.gif","0","-230","1","",""
"casino-fixation","112","413457","0.0-25.0-0.21","A1411","false","img/card_backs/set1/yellow.gif","img/card_backs/set1/purple.gif","img/card_backs/set1/red.gif","img/card_backs/set1/green.gif","img/card_backs/set2/pink.gif","img/card_backs/set2/orange.gif","img/card_backs/set2/blue.gif","img/card_backs/set2/gray.gif","""event"",""trial"",""time""
""fullscreenenter"",""1"",""8188""
","
","
","""event"",""trial"",""time""
""fullscreenenter"",""1"",""8188""
","
","","null","","null","","fixation","2021-08-01 04:34:28.425","","","","","",""
"card-selection-trial","113","416231","0.0-25.0-1.21","A1411","false","img/card_backs/set1/yellow.gif","img/card_backs/set1/purple.gif","img/card_backs/set1/red.gif","img/card_backs/set1/green.gif","img/card_backs/set2/pink.gif","img/card_backs/set2/orange.gif","img/card_backs/set2/blue.gif","img/card_backs/set2/gray.gif","""event"",""trial"",""time""
""fullscreenenter"",""1"",""8188""
","
","
","""event"",""trial"",""time""
""fullscreenenter"",""1"",""8188""
","
","","767.5","","","","real_trial","2021-08-01 04:34:31.198","img/card_backs/set1/purple.gif","3","200","1","",""
"casino-fixation","114","416737","0.0-25.0-0.22","A1411","false","img/card_backs/set1/yellow.gif","img/card_backs/set1/purple.gif","img/card_backs/set1/red.gif","img/card_backs/set1/green.gif","img/card_backs/set2/pink.gif","img/card_backs/set2/orange.gif","img/card_backs/set2/blue.gif","img/card_backs/set2/gray.gif","""event"",""trial"",""time""
""fullscreenenter"",""1"",""8188""
","
","
","""event"",""trial"",""time""
""fullscreenenter"",""1"",""8188""
","
","","null","","null","","fixation","2021-08-01 04:34:31.705","","","","","",""
"card-selection-trial","115","419810","0.0-25.0-1.22","A1411","false","img/card_backs/set1/yellow.gif","img/card_backs/set1/purple.gif","img/card_backs/set1/red.gif","img/card_backs/set1/green.gif","img/card_backs/set2/pink.gif","img/card_backs/set2/orange.gif","img/card_backs/set2/blue.gif","img/card_backs/set2/gray.gif","""event"",""trial"",""time""
""fullscreenenter"",""1"",""8188""
","
","
","""event"",""trial"",""time""
""fullscreenenter"",""1"",""8188""
","
","","1062.2000000178814","","","","real_trial","2021-08-01 04:34:34.777","img/card_backs/set1/yellow.gif","1","190","1","",""
"casino-fixation","116","420316","0.0-25.0-0.23","A1411","false","img/card_backs/set1/yellow.gif","img/card_backs/set1/purple.gif","img/card_backs/set1/red.gif","img/card_backs/set1/green.gif","img/card_backs/set2/pink.gif","img/card_backs/set2/orange.gif","img/card_backs/set2/blue.gif","img/card_backs/set2/gray.gif","""event"",""trial"",""time""
""fullscreenenter"",""1"",""8188""
","
","
","""event"",""trial"",""time""
""fullscreenenter"",""1"",""8188""
","
","","null","","null","","fixation","2021-08-01 04:34:35.283","","","","","",""
"card-selection-trial","117","422866","0.0-25.0-1.23","A1411","false","img/card_backs/set1/yellow.gif","img/card_backs/set1/purple.gif","img/card_backs/set1/red.gif","img/card_backs/set1/green.gif","img/card_backs/set2/pink.gif","img/card_backs/set2/orange.gif","img/card_backs/set2/blue.gif","img/card_backs/set2/gray.gif","""event"",""trial"",""time""
""fullscreenenter"",""1"",""8188""
","
","
","""event"",""trial"",""time""
""fullscreenenter"",""1"",""8188""
","
","","541.5","","","","real_trial","2021-08-01 04:34:37.833","img/card_backs/set1/purple.gif","0","180","1","",""
"casino-fixation","118","423372","0.0-25.0-0.24","A1411","false","img/card_backs/set1/yellow.gif","img/card_backs/set1/purple.gif","img/card_backs/set1/red.gif","img/card_backs/set1/green.gif","img/card_backs/set2/pink.gif","img/card_backs/set2/orange.gif","img/card_backs/set2/blue.gif","img/card_backs/set2/gray.gif","""event"",""trial"",""time""
""fullscreenenter"",""1"",""8188""
","
","
","""event"",""trial"",""time""
""fullscreenenter"",""1"",""8188""
","
","","null","","null","","fixation","2021-08-01 04:34:38.339","","","","","",""
"card-selection-trial","119","426690","0.0-25.0-1.24","A1411","false","img/card_backs/set1/yellow.gif","img/card_backs/set1/purple.gif","img/card_backs/set1/red.gif","img/card_backs/set1/green.gif","img/card_backs/set2/pink.gif","img/card_backs/set2/orange.gif","img/card_backs/set2/blue.gif","img/card_backs/set2/gray.gif","""event"",""trial"",""time""
""fullscreenenter"",""1"",""8188""
","
","
","""event"",""trial"",""time""
""fullscreenenter"",""1"",""8188""
","
","","1309.800000011921","","","","real_trial","2021-08-01 04:34:41.657","img/card_backs/set1/yellow.gif","2","200","1","",""
"casino-fixation","120","427196","0.0-25.0-0.25","A1411","false","img/card_backs/set1/yellow.gif","img/card_backs/set1/purple.gif","img/card_backs/set1/red.gif","img/card_backs/set1/green.gif","img/card_backs/set2/pink.gif","img/card_backs/set2/orange.gif","img/card_backs/set2/blue.gif","img/card_backs/set2/gray.gif","""event"",""trial"",""time""
""fullscreenenter"",""1"",""8188""
","
","
","""event"",""trial"",""time""
""fullscreenenter"",""1"",""8188""
","
","","null","","null","","fixation","2021-08-01 04:34:42.163","","","","","",""
"card-selection-trial","121","429847","0.0-25.0-1.25","A1411","false","img/card_backs/set1/yellow.gif","img/card_backs/set1/purple.gif","img/card_backs/set1/red.gif","img/card_backs/set1/green.gif","img/card_backs/set2/pink.gif","img/card_backs/set2/orange.gif","img/card_backs/set2/blue.gif","img/card_backs/set2/gray.gif","""event"",""trial"",""time""
""fullscreenenter"",""1"",""8188""
","
","
","""event"",""trial"",""time""
""fullscreenenter"",""1"",""8188""
","
","","641.3000000119209","","","","real_trial","2021-08-01 04:34:44.814","img/card_backs/set1/purple.gif","0","-250","1","",""
"casino-fixation","122","430353","0.0-25.0-0.26","A1411","false","img/card_backs/set1/yellow.gif","img/card_backs/set1/purple.gif","img/card_backs/set1/red.gif","img/card_backs/set1/green.gif","img/card_backs/set2/pink.gif","img/card_backs/set2/orange.gif","img/card_backs/set2/blue.gif","img/card_backs/set2/gray.gif","""event"",""trial"",""time""
""fullscreenenter"",""1"",""8188""
","
","
","""event"",""trial"",""time""
""fullscreenenter"",""1"",""8188""
","
","","null","","null","","fixation","2021-08-01 04:34:45.321","","","","","",""
"card-selection-trial","123","433170","0.0-25.0-1.26","A1411","false","img/card_backs/set1/yellow.gif","img/card_backs/set1/purple.gif","img/card_backs/set1/red.gif","img/card_backs/set1/green.gif","img/card_backs/set2/pink.gif","img/card_backs/set2/orange.gif","img/card_backs/set2/blue.gif","img/card_backs/set2/gray.gif","""event"",""trial"",""time""
""fullscreenenter"",""1"",""8188""
","
","
","""event"",""trial"",""time""
""fullscreenenter"",""1"",""8188""
","
","","808.8000000119209","","","","real_trial","2021-08-01 04:34:48.137","img/card_backs/set1/green.gif","2","110","1","",""
"casino-fixation","124","433676","0.0-25.0-0.27","A1411","false","img/card_backs/set1/yellow.gif","img/card_backs/set1/purple.gif","img/card_backs/set1/red.gif","img/card_backs/set1/green.gif","img/card_backs/set2/pink.gif","img/card_backs/set2/orange.gif","img/card_backs/set2/blue.gif","img/card_backs/set2/gray.gif","""event"",""trial"",""time""
""fullscreenenter"",""1"",""8188""
","
","
","""event"",""trial"",""time""
""fullscreenenter"",""1"",""8188""
","
","","null","","null","","fixation","2021-08-01 04:34:48.643","","","","","",""
"card-selection-trial","125","436225","0.0-25.0-1.27","A1411","false","img/card_backs/set1/yellow.gif","img/card_backs/set1/purple.gif","img/card_backs/set1/red.gif","img/card_backs/set1/green.gif","img/card_backs/set2/pink.gif","img/card_backs/set2/orange.gif","img/card_backs/set2/blue.gif","img/card_backs/set2/gray.gif","""event"",""trial"",""time""
""fullscreenenter"",""1"",""8188""
","
","
","""event"",""trial"",""time""
""fullscreenenter"",""1"",""8188""
","
","","541.7999999821186","","","","real_trial","2021-08-01 04:34:51.192","img/card_backs/set1/yellow.gif","0","180","1","",""
"casino-fixation","126","436727","0.0-25.0-0.28","A1411","false","img/card_backs/set1/yellow.gif","img/card_backs/set1/purple.gif","img/card_backs/set1/red.gif","img/card_backs/set1/green.gif","img/card_backs/set2/pink.gif","img/card_backs/set2/orange.gif","img/card_backs/set2/blue.gif","img/card_backs/set2/gray.gif","""event"",""trial"",""time""
""fullscreenenter"",""1"",""8188""
","
","
","""event"",""trial"",""time""
""fullscreenenter"",""1"",""8188""
","
","","null","","null","","fixation","2021-08-01 04:34:51.694","","","","","",""
"card-selection-trial","127","439372","0.0-25.0-1.28","A1411","false","img/card_backs/set1/yellow.gif","img/card_backs/set1/purple.gif","img/card_backs/set1/red.gif","img/card_backs/set1/green.gif","img/card_backs/set2/pink.gif","img/card_backs/set2/orange.gif","img/card_backs/set2/blue.gif","img/card_backs/set2/gray.gif","""event"",""trial"",""time""
""fullscreenenter"",""1"",""8188""
","
","
","""event"",""trial"",""time""
""fullscreenenter"",""1"",""8188""
","
","","635.1999999880791","","","","real_trial","2021-08-01 04:34:54.339","img/card_backs/set1/purple.gif","0","-230","1","",""
"casino-fixation","128","439879","0.0-25.0-0.29","A1411","false","img/card_backs/set1/yellow.gif","img/card_backs/set1/purple.gif","img/card_backs/set1/red.gif","img/card_backs/set1/green.gif","img/card_backs/set2/pink.gif","img/card_backs/set2/orange.gif","img/card_backs/set2/blue.gif","img/card_backs/set2/gray.gif","""event"",""trial"",""time""
""fullscreenenter"",""1"",""8188""
","
","
","""event"",""trial"",""time""
""fullscreenenter"",""1"",""8188""
","
","","null","","null","","fixation","2021-08-01 04:34:54.846","","","","","",""
"card-selection-trial","129","442871","0.0-25.0-1.29","A1411","false","img/card_backs/set1/yellow.gif","img/card_backs/set1/purple.gif","img/card_backs/set1/red.gif","img/card_backs/set1/green.gif","img/card_backs/set2/pink.gif","img/card_backs/set2/orange.gif","img/card_backs/set2/blue.gif","img/card_backs/set2/gray.gif","""event"",""trial"",""time""
""fullscreenenter"",""1"",""8188""
","
","
","""event"",""trial"",""time""
""fullscreenenter"",""1"",""8188""
","
","","985.0999999940395","","","","real_trial","2021-08-01 04:34:57.838","img/card_backs/set1/yellow.gif","2","200","1","",""
"casino-fixation","130","443374","0.0-25.0-0.30","A1411","false","img/card_backs/set1/yellow.gif","img/card_backs/set1/purple.gif","img/card_backs/set1/red.gif","img/card_backs/set1/green.gif","img/card_backs/set2/pink.gif","img/card_backs/set2/orange.gif","img/card_backs/set2/blue.gif","img/card_backs/set2/gray.gif","""event"",""trial"",""time""
""fullscreenenter"",""1"",""8188""
","
","
","""event"",""trial"",""time""
""fullscreenenter"",""1"",""8188""
","
","","null","","null","","fixation","2021-08-01 04:34:58.341","","","","","",""
"card-selection-trial","131","446076","0.0-25.0-1.30","A1411","false","img/card_backs/set1/yellow.gif","img/card_backs/set1/purple.gif","img/card_backs/set1/red.gif","img/card_backs/set1/green.gif","img/card_backs/set2/pink.gif","img/card_backs/set2/orange.gif","img/card_backs/set2/blue.gif","img/card_backs/set2/gray.gif","""event"",""trial"",""time""
""fullscreenenter"",""1"",""8188""
","
","
","""event"",""trial"",""time""
""fullscreenenter"",""1"",""8188""
","
","","690.9000000059605","","","","real_trial","2021-08-01 04:35:01.043","img/card_backs/set1/green.gif","1","110","1","",""
"casino-fixation","132","446583","0.0-25.0-0.31","A1411","false","img/card_backs/set1/yellow.gif","img/card_backs/set1/purple.gif","img/card_backs/set1/red.gif","img/card_backs/set1/green.gif","img/card_backs/set2/pink.gif","img/card_backs/set2/orange.gif","img/card_backs/set2/blue.gif","img/card_backs/set2/gray.gif","""event"",""trial"",""time""
""fullscreenenter"",""1"",""8188""
","
","
","""event"",""trial"",""time""
""fullscreenenter"",""1"",""8188""
","
","","null","","null","","fixation","2021-08-01 04:35:01.550","","","","","",""
"card-selection-trial","133","449239","0.0-25.0-1.31","A1411","false","img/card_backs/set1/yellow.gif","img/card_backs/set1/purple.gif","img/card_backs/set1/red.gif","img/card_backs/set1/green.gif","img/card_backs/set2/pink.gif","img/card_backs/set2/orange.gif","img/card_backs/set2/blue.gif","img/card_backs/set2/gray.gif","""event"",""trial"",""time""
""fullscreenenter"",""1"",""8188""
","
","
","""event"",""trial"",""time""
""fullscreenenter"",""1"",""8188""
","
","","647.8000000119209","","","","real_trial","2021-08-01 04:35:04.206","img/card_backs/set1/yellow.gif","0","-250","1","",""
"casino-fixation","134","449745","0.0-25.0-0.32","A1411","false","img/card_backs/set1/yellow.gif","img/card_backs/set1/purple.gif","img/card_backs/set1/red.gif","img/card_backs/set1/green.gif","img/card_backs/set2/pink.gif","img/card_backs/set2/orange.gif","img/card_backs/set2/blue.gif","img/card_backs/set2/gray.gif","""event"",""trial"",""time""
""fullscreenenter"",""1"",""8188""
","
","
","""event"",""trial"",""time""
""fullscreenenter"",""1"",""8188""
","
","","null","","null","","fixation","2021-08-01 04:35:04.713","","","","","",""
"card-selection-trial","135","452588","0.0-25.0-1.32","A1411","false","img/card_backs/set1/yellow.gif","img/card_backs/set1/purple.gif","img/card_backs/set1/red.gif","img/card_backs/set1/green.gif","img/card_backs/set2/pink.gif","img/card_backs/set2/orange.gif","img/card_backs/set2/blue.gif","img/card_backs/set2/gray.gif","""event"",""trial"",""time""
""fullscreenenter"",""1"",""8188""
","
","
","""event"",""trial"",""time""
""fullscreenenter"",""1"",""8188""
","
","","833.2000000178814","","","","real_trial","2021-08-01 04:35:07.555","img/card_backs/set1/purple.gif","2","200","1","",""
"casino-fixation","136","453095","0.0-25.0-0.33","A1411","false","img/card_backs/set1/yellow.gif","img/card_backs/set1/purple.gif","img/card_backs/set1/red.gif","img/card_backs/set1/green.gif","img/card_backs/set2/pink.gif","img/card_backs/set2/orange.gif","img/card_backs/set2/blue.gif","img/card_backs/set2/gray.gif","""event"",""trial"",""time""
""fullscreenenter"",""1"",""8188""
","
","
","""event"",""trial"",""time""
""fullscreenenter"",""1"",""8188""
","
","","null","","null","","fixation","2021-08-01 04:35:08.062","","","","","",""
"card-selection-trial","137","456114","0.0-25.0-1.33","A1411","false","img/card_backs/set1/yellow.gif","img/card_backs/set1/purple.gif","img/card_backs/set1/red.gif","img/card_backs/set1/green.gif","img/card_backs/set2/pink.gif","img/card_backs/set2/orange.gif","img/card_backs/set2/blue.gif","img/card_backs/set2/gray.gif","""event"",""trial"",""time""
""fullscreenenter"",""1"",""8188""
","
","
","""event"",""trial"",""time""
""fullscreenenter"",""1"",""8188""
","
","","1008.5999999940395","","","","real_trial","2021-08-01 04:35:11.081","img/card_backs/set1/yellow.gif","3","-240","1","",""
"casino-fixation","138","456620","0.0-25.0-0.34","A1411","false","img/card_backs/set1/yellow.gif","img/card_backs/set1/purple.gif","img/card_backs/set1/red.gif","img/card_backs/set1/green.gif","img/card_backs/set2/pink.gif","img/card_backs/set2/orange.gif","img/card_backs/set2/blue.gif","img/card_backs/set2/gray.gif","""event"",""trial"",""time""
""fullscreenenter"",""1"",""8188""
","
","
","""event"",""trial"",""time""
""fullscreenenter"",""1"",""8188""
","
","","null","","null","","fixation","2021-08-01 04:35:11.587","","","","","",""
"card-selection-trial","139","459340","0.0-25.0-1.34","A1411","false","img/card_backs/set1/yellow.gif","img/card_backs/set1/purple.gif","img/card_backs/set1/red.gif","img/card_backs/set1/green.gif","img/card_backs/set2/pink.gif","img/card_backs/set2/orange.gif","img/card_backs/set2/blue.gif","img/card_backs/set2/gray.gif","""event"",""trial"",""time""
""fullscreenenter"",""1"",""8188""
","
","
","""event"",""trial"",""time""
""fullscreenenter"",""1"",""8188""
","
","","711.1000000238419","","","","real_trial","2021-08-01 04:35:14.307","img/card_backs/set1/purple.gif","0","-230","1","",""
"casino-fixation","140","459847","0.0-25.0-0.35","A1411","false","img/card_backs/set1/yellow.gif","img/card_backs/set1/purple.gif","img/card_backs/set1/red.gif","img/card_backs/set1/green.gif","img/card_backs/set2/pink.gif","img/card_backs/set2/orange.gif","img/card_backs/set2/blue.gif","img/card_backs/set2/gray.gif","""event"",""trial"",""time""
""fullscreenenter"",""1"",""8188""
","
","
","""event"",""trial"",""time""
""fullscreenenter"",""1"",""8188""
","
","","null","","null","","fixation","2021-08-01 04:35:14.814","","","","","",""
"card-selection-trial","141","462935","0.0-25.0-1.35","A1411","false","img/card_backs/set1/yellow.gif","img/card_backs/set1/purple.gif","img/card_backs/set1/red.gif","img/card_backs/set1/green.gif","img/card_backs/set2/pink.gif","img/card_backs/set2/orange.gif","img/card_backs/set2/blue.gif","img/card_backs/set2/gray.gif","""event"",""trial"",""time""
""fullscreenenter"",""1"",""8188""
","
","
","""event"",""trial"",""time""
""fullscreenenter"",""1"",""8188""
","
","","1077.5","","","","real_trial","2021-08-01 04:35:17.902","img/card_backs/set1/yellow.gif","2","180","1","",""
"casino-fixation","142","463441","0.0-25.0-0.36","A1411","false","img/card_backs/set1/yellow.gif","img/card_backs/set1/purple.gif","img/card_backs/set1/red.gif","img/card_backs/set1/green.gif","img/card_backs/set2/pink.gif","img/card_backs/set2/orange.gif","img/card_backs/set2/blue.gif","img/card_backs/set2/gray.gif","""event"",""trial"",""time""
""fullscreenenter"",""1"",""8188""
","
","
","""event"",""trial"",""time""
""fullscreenenter"",""1"",""8188""
","
","","null","","null","","fixation","2021-08-01 04:35:18.409","","","","","",""
"card-selection-trial","143","466177","0.0-25.0-1.36","A1411","false","img/card_backs/set1/yellow.gif","img/card_backs/set1/purple.gif","img/card_backs/set1/red.gif","img/card_backs/set1/green.gif","img/card_backs/set2/pink.gif","img/card_backs/set2/orange.gif","img/card_backs/set2/blue.gif","img/card_backs/set2/gray.gif","""event"",""trial"",""time""
""fullscreenenter"",""1"",""8188""
","
","
","""event"",""trial"",""time""
""fullscreenenter"",""1"",""8188""
","
","","727.1999999880791","","","","real_trial","2021-08-01 04:35:21.144","img/card_backs/set1/green.gif","0","-60","1","",""
"casino-fixation","144","466684","0.0-25.0-0.37","A1411","false","img/card_backs/set1/yellow.gif","img/card_backs/set1/purple.gif","img/card_backs/set1/red.gif","img/card_backs/set1/green.gif","img/card_backs/set2/pink.gif","img/card_backs/set2/orange.gif","img/card_backs/set2/blue.gif","img/card_backs/set2/gray.gif","""event"",""trial"",""time""
""fullscreenenter"",""1"",""8188""
","
","
","""event"",""trial"",""time""
""fullscreenenter"",""1"",""8188""
","
","","null","","null","","fixation","2021-08-01 04:35:21.651","","","","","",""
"card-selection-trial","145","469346","0.0-25.0-1.37","A1411","false","img/card_backs/set1/yellow.gif","img/card_backs/set1/purple.gif","img/card_backs/set1/red.gif","img/card_backs/set1/green.gif","img/card_backs/set2/pink.gif","img/card_backs/set2/orange.gif","img/card_backs/set2/blue.gif","img/card_backs/set2/gray.gif","""event"",""trial"",""time""
""fullscreenenter"",""1"",""8188""
","
","
","""event"",""trial"",""time""
""fullscreenenter"",""1"",""8188""
","
","","650.4000000059605","","","","real_trial","2021-08-01 04:35:24.313","img/card_backs/set1/red.gif","0","-50","1","",""
"casino-fixation","146","469852","0.0-25.0-0.38","A1411","false","img/card_backs/set1/yellow.gif","img/card_backs/set1/purple.gif","img/card_backs/set1/red.gif","img/card_backs/set1/green.gif","img/card_backs/set2/pink.gif","img/card_backs/set2/orange.gif","img/card_backs/set2/blue.gif","img/card_backs/set2/gray.gif","""event"",""trial"",""time""
""fullscreenenter"",""1"",""8188""
","
","
","""event"",""trial"",""time""
""fullscreenenter"",""1"",""8188""
","
","","null","","null","","fixation","2021-08-01 04:35:24.819","","","","","",""
"card-selection-trial","147","472809","0.0-25.0-1.38","A1411","false","img/card_backs/set1/yellow.gif","img/card_backs/set1/purple.gif","img/card_backs/set1/red.gif","img/card_backs/set1/green.gif","img/card_backs/set2/pink.gif","img/card_backs/set2/orange.gif","img/card_backs/set2/blue.gif","img/card_backs/set2/gray.gif","""event"",""trial"",""time""
""fullscreenenter"",""1"",""8188""
","
","
","""event"",""trial"",""time""
""fullscreenenter"",""1"",""8188""
","
","","949.2999999821186","","","","real_trial","2021-08-01 04:35:27.776","img/card_backs/set1/red.gif","3","-50","1","",""
"casino-fixation","148","473313","0.0-25.0-0.39","A1411","false","img/card_backs/set1/yellow.gif","img/card_backs/set1/purple.gif","img/card_backs/set1/red.gif","img/card_backs/set1/green.gif","img/card_backs/set2/pink.gif","img/card_backs/set2/orange.gif","img/card_backs/set2/blue.gif","img/card_backs/set2/gray.gif","""event"",""trial"",""time""
""fullscreenenter"",""1"",""8188""
","
","
","""event"",""trial"",""time""
""fullscreenenter"",""1"",""8188""
","
","","null","","null","","fixation","2021-08-01 04:35:28.281","","","","","",""
"card-selection-trial","149","476380","0.0-25.0-1.39","A1411","false","img/card_backs/set1/yellow.gif","img/card_backs/set1/purple.gif","img/card_backs/set1/red.gif","img/card_backs/set1/green.gif","img/card_backs/set2/pink.gif","img/card_backs/set2/orange.gif","img/card_backs/set2/blue.gif","img/card_backs/set2/gray.gif","""event"",""trial"",""time""
""fullscreenenter"",""1"",""8188""
","
","
","""event"",""trial"",""time""
""fullscreenenter"",""1"",""8188""
","
","","1059.300000011921","","","","real_trial","2021-08-01 04:35:31.347","img/card_backs/set1/yellow.gif","0","200","1","",""
"casino-fixation","150","476886","0.0-25.0-0.40","A1411","false","img/card_backs/set1/yellow.gif","img/card_backs/set1/purple.gif","img/card_backs/set1/red.gif","img/card_backs/set1/green.gif","img/card_backs/set2/pink.gif","img/card_backs/set2/orange.gif","img/card_backs/set2/blue.gif","img/card_backs/set2/gray.gif","""event"",""trial"",""time""
""fullscreenenter"",""1"",""8188""
","
","
","""event"",""trial"",""time""
""fullscreenenter"",""1"",""8188""
","
","","null","","null","","fixation","2021-08-01 04:35:31.853","","","","","",""
"card-selection-trial","151","479879","0.0-25.0-1.40","A1411","false","img/card_backs/set1/yellow.gif","img/card_backs/set1/purple.gif","img/card_backs/set1/red.gif","img/card_backs/set1/green.gif","img/card_backs/set2/pink.gif","img/card_backs/set2/orange.gif","img/card_backs/set2/blue.gif","img/card_backs/set2/gray.gif","""event"",""trial"",""time""
""fullscreenenter"",""1"",""8188""
","
","
","""event"",""trial"",""time""
""fullscreenenter"",""1"",""8188""
","
","","984","","","","real_trial","2021-08-01 04:35:34.846","img/card_backs/set1/yellow.gif","0","-250","1","",""
"casino-fixation","152","480385","0.0-25.0-0.41","A1411","false","img/card_backs/set1/yellow.gif","img/card_backs/set1/purple.gif","img/card_backs/set1/red.gif","img/card_backs/set1/green.gif","img/card_backs/set2/pink.gif","img/card_backs/set2/orange.gif","img/card_backs/set2/blue.gif","img/card_backs/set2/gray.gif","""event"",""trial"",""time""
""fullscreenenter"",""1"",""8188""
","
","
","""event"",""trial"",""time""
""fullscreenenter"",""1"",""8188""
","
","","null","","null","","fixation","2021-08-01 04:35:35.353","","","","","",""
"card-selection-trial","153","483475","0.0-25.0-1.41","A1411","false","img/card_backs/set1/yellow.gif","img/card_backs/set1/purple.gif","img/card_backs/set1/red.gif","img/card_backs/set1/green.gif","img/card_backs/set2/pink.gif","img/card_backs/set2/orange.gif","img/card_backs/set2/blue.gif","img/card_backs/set2/gray.gif","""event"",""trial"",""time""
""fullscreenenter"",""1"",""8188""
","
","
","""event"",""trial"",""time""
""fullscreenenter"",""1"",""8188""
","
","","1079.9000000059605","","","","real_trial","2021-08-01 04:35:38.442","img/card_backs/set1/yellow.gif","2","-230","1","",""
"casino-fixation","154","483980","0.0-25.0-0.42","A1411","false","img/card_backs/set1/yellow.gif","img/card_backs/set1/purple.gif","img/card_backs/set1/red.gif","img/card_backs/set1/green.gif","img/card_backs/set2/pink.gif","img/card_backs/set2/orange.gif","img/card_backs/set2/blue.gif","img/card_backs/set2/gray.gif","""event"",""trial"",""time""
""fullscreenenter"",""1"",""8188""
","
","
","""event"",""trial"",""time""
""fullscreenenter"",""1"",""8188""
","
","","null","","null","","fixation","2021-08-01 04:35:38.947","","","","","",""
"card-selection-trial","155","486498","0.0-25.0-1.42","A1411","false","img/card_backs/set1/yellow.gif","img/card_backs/set1/purple.gif","img/card_backs/set1/red.gif","img/card_backs/set1/green.gif","img/card_backs/set2/pink.gif","img/card_backs/set2/orange.gif","img/card_backs/set2/blue.gif","img/card_backs/set2/gray.gif","""event"",""trial"",""time""
""fullscreenenter"",""1"",""8188""
","
","
","""event"",""trial"",""time""
""fullscreenenter"",""1"",""8188""
","
","","506.90000000596046","","","","real_trial","2021-08-01 04:35:41.465","img/card_backs/set1/yellow.gif","0","-230","1","",""
"casino-fixation","156","487004","0.0-25.0-0.43","A1411","false","img/card_backs/set1/yellow.gif","img/card_backs/set1/purple.gif","img/card_backs/set1/red.gif","img/card_backs/set1/green.gif","img/card_backs/set2/pink.gif","img/card_backs/set2/orange.gif","img/card_backs/set2/blue.gif","img/card_backs/set2/gray.gif","""event"",""trial"",""time""
""fullscreenenter"",""1"",""8188""
","
","
","""event"",""trial"",""time""
""fullscreenenter"",""1"",""8188""
","
","","null","","null","","fixation","2021-08-01 04:35:41.971","","","","","",""
"card-selection-trial","157","489986","0.0-25.0-1.43","A1411","false","img/card_backs/set1/yellow.gif","img/card_backs/set1/purple.gif","img/card_backs/set1/red.gif","img/card_backs/set1/green.gif","img/card_backs/set2/pink.gif","img/card_backs/set2/orange.gif","img/card_backs/set2/blue.gif","img/card_backs/set2/gray.gif","""event"",""trial"",""time""
""fullscreenenter"",""1"",""8188""
","
","
","""event"",""trial"",""time""
""fullscreenenter"",""1"",""8188""
","
","","972.5","","","","real_trial","2021-08-01 04:35:44.953","img/card_backs/set1/green.gif","0","-50","1","",""
"casino-fixation","158","490492","0.0-25.0-0.44","A1411","false","img/card_backs/set1/yellow.gif","img/card_backs/set1/purple.gif","img/card_backs/set1/red.gif","img/card_backs/set1/green.gif","img/card_backs/set2/pink.gif","img/card_backs/set2/orange.gif","img/card_backs/set2/blue.gif","img/card_backs/set2/gray.gif","""event"",""trial"",""time""
""fullscreenenter"",""1"",""8188""
","
","
","""event"",""trial"",""time""
""fullscreenenter"",""1"",""8188""
","
","","null","","null","","fixation","2021-08-01 04:35:45.459","","","","","",""
"card-selection-trial","159","493239","0.0-25.0-1.44","A1411","false","img/card_backs/set1/yellow.gif","img/card_backs/set1/purple.gif","img/card_backs/set1/red.gif","img/card_backs/set1/green.gif","img/card_backs/set2/pink.gif","img/card_backs/set2/orange.gif","img/card_backs/set2/blue.gif","img/card_backs/set2/gray.gif","""event"",""trial"",""time""
""fullscreenenter"",""1"",""8188""
","
","
","""event"",""trial"",""time""
""fullscreenenter"",""1"",""8188""
","
","","739.6999999880791","","","","real_trial","2021-08-01 04:35:48.206","img/card_backs/set1/purple.gif","1","-250","1","",""
"casino-fixation","160","493745","0.0-25.0-0.45","A1411","false","img/card_backs/set1/yellow.gif","img/card_backs/set1/purple.gif","img/card_backs/set1/red.gif","img/card_backs/set1/green.gif","img/card_backs/set2/pink.gif","img/card_backs/set2/orange.gif","img/card_backs/set2/blue.gif","img/card_backs/set2/gray.gif","""event"",""trial"",""time""
""fullscreenenter"",""1"",""8188""
","
","
","""event"",""trial"",""time""
""fullscreenenter"",""1"",""8188""
","
","","null","","null","","fixation","2021-08-01 04:35:48.713","","","","","",""
"card-selection-trial","161","496535","0.0-25.0-1.45","A1411","false","img/card_backs/set1/yellow.gif","img/card_backs/set1/purple.gif","img/card_backs/set1/red.gif","img/card_backs/set1/green.gif","img/card_backs/set2/pink.gif","img/card_backs/set2/orange.gif","img/card_backs/set2/blue.gif","img/card_backs/set2/gray.gif","""event"",""trial"",""time""
""fullscreenenter"",""1"",""8188""
","
","
","""event"",""trial"",""time""
""fullscreenenter"",""1"",""8188""
","
","","780.5","","","","real_trial","2021-08-01 04:35:51.502","img/card_backs/set1/yellow.gif","1","-230","1","",""
"casino-fixation","162","497041","0.0-25.0-0.46","A1411","false","img/card_backs/set1/yellow.gif","img/card_backs/set1/purple.gif","img/card_backs/set1/red.gif","img/card_backs/set1/green.gif","img/card_backs/set2/pink.gif","img/card_backs/set2/orange.gif","img/card_backs/set2/blue.gif","img/card_backs/set2/gray.gif","""event"",""trial"",""time""
""fullscreenenter"",""1"",""8188""
","
","
","""event"",""trial"",""time""
""fullscreenenter"",""1"",""8188""
","
","","null","","null","","fixation","2021-08-01 04:35:52.009","","","","","",""
"card-selection-trial","163","500172","0.0-25.0-1.46","A1411","false","img/card_backs/set1/yellow.gif","img/card_backs/set1/purple.gif","img/card_backs/set1/red.gif","img/card_backs/set1/green.gif","img/card_backs/set2/pink.gif","img/card_backs/set2/orange.gif","img/card_backs/set2/blue.gif","img/card_backs/set2/gray.gif","""event"",""trial"",""time""
""fullscreenenter"",""1"",""8188""
","
","
","""event"",""trial"",""time""
""fullscreenenter"",""1"",""8188""
","
","","1120.0999999940395","","","","real_trial","2021-08-01 04:35:55.140","img/card_backs/set1/yellow.gif","1","180","1","",""
"casino-fixation","164","500679","0.0-25.0-0.47","A1411","false","img/card_backs/set1/yellow.gif","img/card_backs/set1/purple.gif","img/card_backs/set1/red.gif","img/card_backs/set1/green.gif","img/card_backs/set2/pink.gif","img/card_backs/set2/orange.gif","img/card_backs/set2/blue.gif","img/card_backs/set2/gray.gif","""event"",""trial"",""time""
""fullscreenenter"",""1"",""8188""
","
","
","""event"",""trial"",""time""
""fullscreenenter"",""1"",""8188""
","
","","null","","null","","fixation","2021-08-01 04:35:55.646","","","","","",""
"card-selection-trial","165","503411","0.0-25.0-1.47","A1411","false","img/card_backs/set1/yellow.gif","img/card_backs/set1/purple.gif","img/card_backs/set1/red.gif","img/card_backs/set1/green.gif","img/card_backs/set2/pink.gif","img/card_backs/set2/orange.gif","img/card_backs/set2/blue.gif","img/card_backs/set2/gray.gif","""event"",""trial"",""time""
""fullscreenenter"",""1"",""8188""
","
","
","""event"",""trial"",""time""
""fullscreenenter"",""1"",""8188""
","
","","724.4000000059605","","","","real_trial","2021-08-01 04:35:58.378","img/card_backs/set1/green.gif","0","120","1","",""
"casino-fixation","166","503918","0.0-25.0-0.48","A1411","false","img/card_backs/set1/yellow.gif","img/card_backs/set1/purple.gif","img/card_backs/set1/red.gif","img/card_backs/set1/green.gif","img/card_backs/set2/pink.gif","img/card_backs/set2/orange.gif","img/card_backs/set2/blue.gif","img/card_backs/set2/gray.gif","""event"",""trial"",""time""
""fullscreenenter"",""1"",""8188""
","
","
","""event"",""trial"",""time""
""fullscreenenter"",""1"",""8188""
","
","","null","","null","","fixation","2021-08-01 04:35:58.885","","","","","",""
