"trial_type","trial_index","time_elapsed","internal_node_id","sub_id","risk_good_first","block1_A","block1_B","block1_C","block1_D","block2_A","block2_B","block2_C","block2_D","interactions","blur_events","focus_events","fullscreenenter_events","fullscreenexit_events","success","rt","stimulus","key_press","button_pressed","task_part","timestamp","card_choice","choice_position","points_earned","block","correct","response"
"pavlovia","0","5","0.0-0.0","1089","false","img/card_backs/set1/purple.gif","img/card_backs/set1/green.gif","img/card_backs/set1/red.gif","img/card_backs/set1/yellow.gif","img/card_backs/set2/orange.gif","img/card_backs/set2/pink.gif","img/card_backs/set2/gray.gif","img/card_backs/set2/blue.gif","""event"",""trial"",""time""
""blur"",""0"",""0""
""focus"",""1"",""3615""
""fullscreenenter"",""1"",""3766""
","""event"",""trial"",""time""
""blur"",""0"",""0""
","""event"",""trial"",""time""
""focus"",""1"",""3615""
","""event"",""trial"",""time""
""fullscreenenter"",""1"",""3766""
","
","","","","","","","","","","","","",""
"fullscreen","1","4689","0.0-1.0","1089","false","img/card_backs/set1/purple.gif","img/card_backs/set1/green.gif","img/card_backs/set1/red.gif","img/card_backs/set1/yellow.gif","img/card_backs/set2/orange.gif","img/card_backs/set2/pink.gif","img/card_backs/set2/gray.gif","img/card_backs/set2/blue.gif","""event"",""trial"",""time""
""blur"",""0"",""0""
""focus"",""1"",""3615""
""fullscreenenter"",""1"",""3766""
","""event"",""trial"",""time""
""blur"",""0"",""0""
","""event"",""trial"",""time""
""focus"",""1"",""3615""
","""event"",""trial"",""time""
""fullscreenenter"",""1"",""3766""
","
","true","","","","","","","","","","","",""
"audio-keyboard-response","2","7103","0.0-2.0","1089","false","img/card_backs/set1/purple.gif","img/card_backs/set1/green.gif","img/card_backs/set1/red.gif","img/card_backs/set1/yellow.gif","img/card_backs/set2/orange.gif","img/card_backs/set2/pink.gif","img/card_backs/set2/gray.gif","img/card_backs/set2/blue.gif","""event"",""trial"",""time""
""blur"",""0"",""0""
""focus"",""1"",""3615""
""fullscreenenter"",""1"",""3766""
","""event"",""trial"",""time""
""blur"",""0"",""0""
","""event"",""trial"",""time""
""focus"",""1"",""3615""
","""event"",""trial"",""time""
""fullscreenenter"",""1"",""3766""
","
","","2360","audio/beep_loop.wav","32","","","","","","","","",""
"audio-button-response","3","8804","0.0-3.0","1089","false","img/card_backs/set1/purple.gif","img/card_backs/set1/green.gif","img/card_backs/set1/red.gif","img/card_backs/set1/yellow.gif","img/card_backs/set2/orange.gif","img/card_backs/set2/pink.gif","img/card_backs/set2/gray.gif","img/card_backs/set2/blue.gif","""event"",""trial"",""time""
""blur"",""0"",""0""
""focus"",""1"",""3615""
""fullscreenenter"",""1"",""3766""
","""event"",""trial"",""time""
""blur"",""0"",""0""
","""event"",""trial"",""time""
""focus"",""1"",""3615""
","""event"",""trial"",""time""
""fullscreenenter"",""1"",""3766""
","
","","NaN","audio/turtle.mp3","","3","","","","","","","",""
"audio-button-response","4","11366","0.0-4.0","1089","false","img/card_backs/set1/purple.gif","img/card_backs/set1/green.gif","img/card_backs/set1/red.gif","img/card_backs/set1/yellow.gif","img/card_backs/set2/orange.gif","img/card_backs/set2/pink.gif","img/card_backs/set2/gray.gif","img/card_backs/set2/blue.gif","""event"",""trial"",""time""
""blur"",""0"",""0""
""focus"",""1"",""3615""
""fullscreenenter"",""1"",""3766""
","""event"",""trial"",""time""
""blur"",""0"",""0""
","""event"",""trial"",""time""
""focus"",""1"",""3615""
","""event"",""trial"",""time""
""fullscreenenter"",""1"",""3766""
","
","","NaN","audio/shark.mp3","","2","","","","","","","",""
"fullscreen","5","15403","0.0-5.0","1089","false","img/card_backs/set1/purple.gif","img/card_backs/set1/green.gif","img/card_backs/set1/red.gif","img/card_backs/set1/yellow.gif","img/card_backs/set2/orange.gif","img/card_backs/set2/pink.gif","img/card_backs/set2/gray.gif","img/card_backs/set2/blue.gif","""event"",""trial"",""time""
""blur"",""0"",""0""
""focus"",""1"",""3615""
""fullscreenenter"",""1"",""3766""
","""event"",""trial"",""time""
""blur"",""0"",""0""
","""event"",""trial"",""time""
""focus"",""1"",""3615""
","""event"",""trial"",""time""
""fullscreenenter"",""1"",""3766""
","
","true","","","","","","","","","","","",""
"casino-keyboard-response","6","18717","0.0-6.0-0.0","1089","false","img/card_backs/set1/purple.gif","img/card_backs/set1/green.gif","img/card_backs/set1/red.gif","img/card_backs/set1/yellow.gif","img/card_backs/set2/orange.gif","img/card_backs/set2/pink.gif","img/card_backs/set2/gray.gif","img/card_backs/set2/blue.gif","""event"",""trial"",""time""
""blur"",""0"",""0""
""focus"",""1"",""3615""
""fullscreenenter"",""1"",""3766""
","""event"",""trial"",""time""
""blur"",""0"",""0""
","""event"",""trial"",""time""
""focus"",""1"",""3615""
","""event"",""trial"",""time""
""fullscreenenter"",""1"",""3766""
","
","","3306.199999809265","Welcome to the casino!","71","","instructions","2021-08-11 20:14:05.267","","","","","",""
"casino-keyboard-response","7","28133","0.0-6.0-0.1","1089","false","img/card_backs/set1/purple.gif","img/card_backs/set1/green.gif","img/card_backs/set1/red.gif","img/card_backs/set1/yellow.gif","img/card_backs/set2/orange.gif","img/card_backs/set2/pink.gif","img/card_backs/set2/gray.gif","img/card_backs/set2/blue.gif","""event"",""trial"",""time""
""blur"",""0"",""0""
""focus"",""1"",""3615""
""fullscreenenter"",""1"",""3766""
","""event"",""trial"",""time""
""blur"",""0"",""0""
","""event"",""trial"",""time""
""focus"",""1"",""3615""
","""event"",""trial"",""time""
""fullscreenenter"",""1"",""3766""
","
","","9411.200000286102","Today you will be playing a game to earn tokens. </br> At the end of the experiment, you will be paid a bonus based on how many tokens you win. ","69","","instructions","2021-08-11 20:14:14.682","","","","","",""
"casino-keyboard-response","8","35564","0.0-6.0-0.2","1089","false","img/card_backs/set1/purple.gif","img/card_backs/set1/green.gif","img/card_backs/set1/red.gif","img/card_backs/set1/yellow.gif","img/card_backs/set2/orange.gif","img/card_backs/set2/pink.gif","img/card_backs/set2/gray.gif","img/card_backs/set2/blue.gif","""event"",""trial"",""time""
""blur"",""0"",""0""
""focus"",""1"",""3615""
""fullscreenenter"",""1"",""3766""
","""event"",""trial"",""time""
""blur"",""0"",""0""
","""event"",""trial"",""time""
""focus"",""1"",""3615""
","""event"",""trial"",""time""
""fullscreenenter"",""1"",""3766""
","
","","7426.099999904633","On every turn, you will be shown four different decks of cards. </br> You need to select a card from one of the four decks.  ","75","","instructions","2021-08-11 20:14:22.113","","","","","",""
"casino-keyboard-response","9","40405","0.0-6.0-0.3","1089","false","img/card_backs/set1/purple.gif","img/card_backs/set1/green.gif","img/card_backs/set1/red.gif","img/card_backs/set1/yellow.gif","img/card_backs/set2/orange.gif","img/card_backs/set2/pink.gif","img/card_backs/set2/gray.gif","img/card_backs/set2/blue.gif","""event"",""trial"",""time""
""blur"",""0"",""0""
""focus"",""1"",""3615""
""fullscreenenter"",""1"",""3766""
","""event"",""trial"",""time""
""blur"",""0"",""0""
","""event"",""trial"",""time""
""focus"",""1"",""3615""
","""event"",""trial"",""time""
""fullscreenenter"",""1"",""3766""
","
","","4837.599999904633","On the next screen, you will see what the decks will look like. ","66","","instructions","2021-08-11 20:14:26.954","","","","","",""
"card-selection-trial","10","44415","0.0-7.0-0.0","1089","false","img/card_backs/set1/purple.gif","img/card_backs/set1/green.gif","img/card_backs/set1/red.gif","img/card_backs/set1/yellow.gif","img/card_backs/set2/orange.gif","img/card_backs/set2/pink.gif","img/card_backs/set2/gray.gif","img/card_backs/set2/blue.gif","""event"",""trial"",""time""
""blur"",""0"",""0""
""focus"",""1"",""3615""
""fullscreenenter"",""1"",""3766""
","""event"",""trial"",""time""
""blur"",""0"",""0""
","""event"",""trial"",""time""
""focus"",""1"",""3615""
","""event"",""trial"",""time""
""fullscreenenter"",""1"",""3766""
","
","","null","","","","practice","2021-08-11 20:14:30.965","null","null","null","0","",""
"casino-keyboard-response","11","52100","0.0-8.0-0.0","1089","false","img/card_backs/set1/purple.gif","img/card_backs/set1/green.gif","img/card_backs/set1/red.gif","img/card_backs/set1/yellow.gif","img/card_backs/set2/orange.gif","img/card_backs/set2/pink.gif","img/card_backs/set2/gray.gif","img/card_backs/set2/blue.gif","""event"",""trial"",""time""
""blur"",""0"",""0""
""focus"",""1"",""3615""
""fullscreenenter"",""1"",""3766""
","""event"",""trial"",""time""
""blur"",""0"",""0""
","""event"",""trial"",""time""
""focus"",""1"",""3615""
","""event"",""trial"",""time""
""fullscreenenter"",""1"",""3766""
","
","","7682.800000190735","You should pick a card from a deck using the '2', '4', '6', and '8' keys at the top of the keyboard.","85","","instructions","2021-08-11 20:14:38.649","","","","","",""
"casino-keyboard-response","12","57523","0.0-8.0-0.1","1089","false","img/card_backs/set1/purple.gif","img/card_backs/set1/green.gif","img/card_backs/set1/red.gif","img/card_backs/set1/yellow.gif","img/card_backs/set2/orange.gif","img/card_backs/set2/pink.gif","img/card_backs/set2/gray.gif","img/card_backs/set2/blue.gif","""event"",""trial"",""time""
""blur"",""0"",""0""
""focus"",""1"",""3615""
""fullscreenenter"",""1"",""3766""
","""event"",""trial"",""time""
""blur"",""0"",""0""
","""event"",""trial"",""time""
""focus"",""1"",""3615""
","""event"",""trial"",""time""
""fullscreenenter"",""1"",""3766""
","
","","5419.400000095367","Once you select a card, it will turn over and you will see how many tokens you earned.","83","","instructions","2021-08-11 20:14:44.072","","","","","",""
"casino-keyboard-response","13","71707","0.0-8.0-0.2","1089","false","img/card_backs/set1/purple.gif","img/card_backs/set1/green.gif","img/card_backs/set1/red.gif","img/card_backs/set1/yellow.gif","img/card_backs/set2/orange.gif","img/card_backs/set2/pink.gif","img/card_backs/set2/gray.gif","img/card_backs/set2/blue.gif","""event"",""trial"",""time""
""blur"",""0"",""0""
""focus"",""1"",""3615""
""fullscreenenter"",""1"",""3766""
","""event"",""trial"",""time""
""blur"",""0"",""0""
","""event"",""trial"",""time""
""focus"",""1"",""3615""
","""event"",""trial"",""time""
""fullscreenenter"",""1"",""3766""
","
","","14181.299999713898","Let's try practicing that! </br> First, try to put your fingers over the '2', '4', '6', and '8' keys. </br>  You can use whatever fingers are most comfortable for you. Try to find a comfortable position now. ","50","","instructions","2021-08-11 20:14:58.256","","","","","",""
"casino-keyboard-response","14","77516","0.0-8.0-0.3","1089","false","img/card_backs/set1/purple.gif","img/card_backs/set1/green.gif","img/card_backs/set1/red.gif","img/card_backs/set1/yellow.gif","img/card_backs/set2/orange.gif","img/card_backs/set2/pink.gif","img/card_backs/set2/gray.gif","img/card_backs/set2/blue.gif","""event"",""trial"",""time""
""blur"",""0"",""0""
""focus"",""1"",""3615""
""fullscreenenter"",""1"",""3766""
","""event"",""trial"",""time""
""blur"",""0"",""0""
","""event"",""trial"",""time""
""focus"",""1"",""3615""
","""event"",""trial"",""time""
""fullscreenenter"",""1"",""3766""
","
","","5806.800000190735","Okay ready? </br> On the next screen, press '2' to select the left deck. ","50","","instructions","2021-08-11 20:15:04.065","","","","","",""
"card-selection-trial","15","81216","0.0-9.0-0.0","1089","false","img/card_backs/set1/purple.gif","img/card_backs/set1/green.gif","img/card_backs/set1/red.gif","img/card_backs/set1/yellow.gif","img/card_backs/set2/orange.gif","img/card_backs/set2/pink.gif","img/card_backs/set2/gray.gif","img/card_backs/set2/blue.gif","""event"",""trial"",""time""
""blur"",""0"",""0""
""focus"",""1"",""3615""
""fullscreenenter"",""1"",""3766""
","""event"",""trial"",""time""
""blur"",""0"",""0""
","""event"",""trial"",""time""
""focus"",""1"",""3615""
","""event"",""trial"",""time""
""fullscreenenter"",""1"",""3766""
","
","","1660.1999998092651","","","","practice_card_selection","2021-08-11 20:15:07.765","img/practice_cards/backs/dark_blue.gif","0","200","","",""
"casino-keyboard-response","16","87219","0.0-10.0-0.0","1089","false","img/card_backs/set1/purple.gif","img/card_backs/set1/green.gif","img/card_backs/set1/red.gif","img/card_backs/set1/yellow.gif","img/card_backs/set2/orange.gif","img/card_backs/set2/pink.gif","img/card_backs/set2/gray.gif","img/card_backs/set2/blue.gif","""event"",""trial"",""time""
""blur"",""0"",""0""
""focus"",""1"",""3615""
""fullscreenenter"",""1"",""3766""
","""event"",""trial"",""time""
""blur"",""0"",""0""
","""event"",""trial"",""time""
""focus"",""1"",""3615""
","""event"",""trial"",""time""
""fullscreenenter"",""1"",""3766""
","
","","6001.199999809265","Great! Now on the next screen, try pressing '6' to select the third deck.","54","","instructions","2021-08-11 20:15:13.768","","","","","",""
"card-selection-trial","17","90371","0.0-11.0-0.0","1089","false","img/card_backs/set1/purple.gif","img/card_backs/set1/green.gif","img/card_backs/set1/red.gif","img/card_backs/set1/yellow.gif","img/card_backs/set2/orange.gif","img/card_backs/set2/pink.gif","img/card_backs/set2/gray.gif","img/card_backs/set2/blue.gif","""event"",""trial"",""time""
""blur"",""0"",""0""
""focus"",""1"",""3615""
""fullscreenenter"",""1"",""3766""
","""event"",""trial"",""time""
""blur"",""0"",""0""
","""event"",""trial"",""time""
""focus"",""1"",""3615""
","""event"",""trial"",""time""
""fullscreenenter"",""1"",""3766""
","
","","1143.5999999046326","","","","practice_card_selection","2021-08-11 20:15:16.920","img/practice_cards/backs/black.gif","2","-100","","",""
"casino-keyboard-response","18","95250","0.0-12.0-0.0","1089","false","img/card_backs/set1/purple.gif","img/card_backs/set1/green.gif","img/card_backs/set1/red.gif","img/card_backs/set1/yellow.gif","img/card_backs/set2/orange.gif","img/card_backs/set2/pink.gif","img/card_backs/set2/gray.gif","img/card_backs/set2/blue.gif","""event"",""trial"",""time""
""blur"",""0"",""0""
""focus"",""1"",""3615""
""fullscreenenter"",""1"",""3766""
","""event"",""trial"",""time""
""blur"",""0"",""0""
","""event"",""trial"",""time""
""focus"",""1"",""3615""
","""event"",""trial"",""time""
""fullscreenenter"",""1"",""3766""
","
","","4877.400000095367","Now on the next screen, try pressing '4' to select the second deck.","52","","instructions","2021-08-11 20:15:21.799","","","","","",""
"card-selection-trial","19","99203","0.0-13.0-0.0","1089","false","img/card_backs/set1/purple.gif","img/card_backs/set1/green.gif","img/card_backs/set1/red.gif","img/card_backs/set1/yellow.gif","img/card_backs/set2/orange.gif","img/card_backs/set2/pink.gif","img/card_backs/set2/gray.gif","img/card_backs/set2/blue.gif","""event"",""trial"",""time""
""blur"",""0"",""0""
""focus"",""1"",""3615""
""fullscreenenter"",""1"",""3766""
","""event"",""trial"",""time""
""blur"",""0"",""0""
","""event"",""trial"",""time""
""focus"",""1"",""3615""
","""event"",""trial"",""time""
""fullscreenenter"",""1"",""3766""
","
","","1946.7000002861023","","","","practice_card_selection","2021-08-11 20:15:25.753","img/practice_cards/backs/black.gif","1","100","","",""
"casino-keyboard-response","20","104026","0.0-14.0-0.0","1089","false","img/card_backs/set1/purple.gif","img/card_backs/set1/green.gif","img/card_backs/set1/red.gif","img/card_backs/set1/yellow.gif","img/card_backs/set2/orange.gif","img/card_backs/set2/pink.gif","img/card_backs/set2/gray.gif","img/card_backs/set2/blue.gif","""event"",""trial"",""time""
""blur"",""0"",""0""
""focus"",""1"",""3615""
""fullscreenenter"",""1"",""3766""
","""event"",""trial"",""time""
""blur"",""0"",""0""
","""event"",""trial"",""time""
""focus"",""1"",""3615""
","""event"",""trial"",""time""
""fullscreenenter"",""1"",""3766""
","
","","4821.10000038147","Finally, try pressing '8' to select the deck all the way on the right.","56","","instructions","2021-08-11 20:15:30.575","","","","","",""
"card-selection-trial","21","106803","0.0-15.0-0.0","1089","false","img/card_backs/set1/purple.gif","img/card_backs/set1/green.gif","img/card_backs/set1/red.gif","img/card_backs/set1/yellow.gif","img/card_backs/set2/orange.gif","img/card_backs/set2/pink.gif","img/card_backs/set2/gray.gif","img/card_backs/set2/blue.gif","""event"",""trial"",""time""
""blur"",""0"",""0""
""focus"",""1"",""3615""
""fullscreenenter"",""1"",""3766""
","""event"",""trial"",""time""
""blur"",""0"",""0""
","""event"",""trial"",""time""
""focus"",""1"",""3615""
","""event"",""trial"",""time""
""fullscreenenter"",""1"",""3766""
","
","","769.5","","","","practice_card_selection","2021-08-11 20:15:33.352","img/practice_cards/backs/black.gif","3","100","","",""
"casino-keyboard-response","22","111034","0.0-16.0-0.0","1089","false","img/card_backs/set1/purple.gif","img/card_backs/set1/green.gif","img/card_backs/set1/red.gif","img/card_backs/set1/yellow.gif","img/card_backs/set2/orange.gif","img/card_backs/set2/pink.gif","img/card_backs/set2/gray.gif","img/card_backs/set2/blue.gif","""event"",""trial"",""time""
""blur"",""0"",""0""
""focus"",""1"",""3615""
""fullscreenenter"",""1"",""3766""
","""event"",""trial"",""time""
""blur"",""0"",""0""
","""event"",""trial"",""time""
""focus"",""1"",""3615""
","""event"",""trial"",""time""
""fullscreenenter"",""1"",""3766""
","
","","4228.700000286102","Great! It seems like you are getting the hang of this.","80","","instructions","2021-08-11 20:15:37.583","","","","","",""
"casino-keyboard-response","23","118482","0.0-16.0-0.1","1089","false","img/card_backs/set1/purple.gif","img/card_backs/set1/green.gif","img/card_backs/set1/red.gif","img/card_backs/set1/yellow.gif","img/card_backs/set2/orange.gif","img/card_backs/set2/pink.gif","img/card_backs/set2/gray.gif","img/card_backs/set2/blue.gif","""event"",""trial"",""time""
""blur"",""0"",""0""
""focus"",""1"",""3615""
""fullscreenenter"",""1"",""3766""
","""event"",""trial"",""time""
""blur"",""0"",""0""
","""event"",""trial"",""time""
""focus"",""1"",""3615""
","""event"",""trial"",""time""
""fullscreenenter"",""1"",""3766""
","
","","7446.5","You may have noticed that some cards will cause you to <b> win </b> tokens while other cards will cause you to <b> lose </b>  tokens.","70","","instructions","2021-08-11 20:15:45.031","","","","","",""
"casino-keyboard-response","24","126834","0.0-16.0-0.2","1089","false","img/card_backs/set1/purple.gif","img/card_backs/set1/green.gif","img/card_backs/set1/red.gif","img/card_backs/set1/yellow.gif","img/card_backs/set2/orange.gif","img/card_backs/set2/pink.gif","img/card_backs/set2/gray.gif","img/card_backs/set2/blue.gif","""event"",""trial"",""time""
""blur"",""0"",""0""
""focus"",""1"",""3615""
""fullscreenenter"",""1"",""3766""
","""event"",""trial"",""time""
""blur"",""0"",""0""
","""event"",""trial"",""time""
""focus"",""1"",""3615""
","""event"",""trial"",""time""
""fullscreenenter"",""1"",""3766""
","
","","8350.299999713898","Each deck has a mix of cards that will cause you to win and lose tokens. </br> However, the cards in each colored deck are different.","73","","instructions","2021-08-11 20:15:53.383","","","","","",""
"casino-keyboard-response","25","135234","0.0-16.0-0.3","1089","false","img/card_backs/set1/purple.gif","img/card_backs/set1/green.gif","img/card_backs/set1/red.gif","img/card_backs/set1/yellow.gif","img/card_backs/set2/orange.gif","img/card_backs/set2/pink.gif","img/card_backs/set2/gray.gif","img/card_backs/set2/blue.gif","""event"",""trial"",""time""
""blur"",""0"",""0""
""focus"",""1"",""3615""
""fullscreenenter"",""1"",""3766""
","""event"",""trial"",""time""
""blur"",""0"",""0""
","""event"",""trial"",""time""
""focus"",""1"",""3615""
","""event"",""trial"",""time""
""fullscreenenter"",""1"",""3766""
","
","","8399","Some colored decks are luckier than others. </br> If you choose the lucky decks, you will earn more tokens than if you choose the unlucky decks.","69","","instructions","2021-08-11 20:16:01.783","","","","","",""
"casino-keyboard-response","26","142193","0.0-16.0-0.4","1089","false","img/card_backs/set1/purple.gif","img/card_backs/set1/green.gif","img/card_backs/set1/red.gif","img/card_backs/set1/yellow.gif","img/card_backs/set2/orange.gif","img/card_backs/set2/pink.gif","img/card_backs/set2/gray.gif","img/card_backs/set2/blue.gif","""event"",""trial"",""time""
""blur"",""0"",""0""
""focus"",""1"",""3615""
""fullscreenenter"",""1"",""3766""
","""event"",""trial"",""time""
""blur"",""0"",""0""
","""event"",""trial"",""time""
""focus"",""1"",""3615""
","""event"",""trial"",""time""
""fullscreenenter"",""1"",""3766""
","
","","6957.700000286102","You should try to figure out which decks are lucky. </br> Then, try to choose the lucky decks so you can win the most tokens.","87","","instructions","2021-08-11 20:16:08.742","","","","","",""
"casino-keyboard-response","27","153977","0.0-16.0-0.5","1089","false","img/card_backs/set1/purple.gif","img/card_backs/set1/green.gif","img/card_backs/set1/red.gif","img/card_backs/set1/yellow.gif","img/card_backs/set2/orange.gif","img/card_backs/set2/pink.gif","img/card_backs/set2/gray.gif","img/card_backs/set2/blue.gif","""event"",""trial"",""time""
""blur"",""0"",""0""
""focus"",""1"",""3615""
""fullscreenenter"",""1"",""3766""
","""event"",""trial"",""time""
""blur"",""0"",""0""
","""event"",""trial"",""time""
""focus"",""1"",""3615""
","""event"",""trial"",""time""
""fullscreenenter"",""1"",""3766""
","
","","11782.400000095367","To make it trickier, the casino dealer will switch the locations of the decks on every turn. </br> The color of the deck determines how lucky it is. The location does not matter.","88","","instructions","2021-08-11 20:16:20.526","","","","","",""
"casino-keyboard-response","28","163449","0.0-16.0-0.6","1089","false","img/card_backs/set1/purple.gif","img/card_backs/set1/green.gif","img/card_backs/set1/red.gif","img/card_backs/set1/yellow.gif","img/card_backs/set2/orange.gif","img/card_backs/set2/pink.gif","img/card_backs/set2/gray.gif","img/card_backs/set2/blue.gif","""event"",""trial"",""time""
""blur"",""0"",""0""
""focus"",""1"",""3615""
""fullscreenenter"",""1"",""3766""
","""event"",""trial"",""time""
""blur"",""0"",""0""
","""event"",""trial"",""time""
""focus"",""1"",""3615""
","""event"",""trial"",""time""
""fullscreenenter"",""1"",""3766""
","
","","9470.700000286102","The mix of cards in each colored deck will stay the same throughout the game. </br> That means that a deck that is lucky early on will stay lucky.","79","","instructions","2021-08-11 20:16:29.998","","","","","",""
"casino-keyboard-response","29","171889","0.0-16.0-0.7","1089","false","img/card_backs/set1/purple.gif","img/card_backs/set1/green.gif","img/card_backs/set1/red.gif","img/card_backs/set1/yellow.gif","img/card_backs/set2/orange.gif","img/card_backs/set2/pink.gif","img/card_backs/set2/gray.gif","img/card_backs/set2/blue.gif","""event"",""trial"",""time""
""blur"",""0"",""0""
""focus"",""1"",""3615""
""fullscreenenter"",""1"",""3766""
","""event"",""trial"",""time""
""blur"",""0"",""0""
","""event"",""trial"",""time""
""focus"",""1"",""3615""
","""event"",""trial"",""time""
""fullscreenenter"",""1"",""3766""
","
","","8438.900000095367","Remember though, all the decks have a <b> mix </b> of both <b> good </b> and <b> bad </b> cards so it may take a couple of turns to figure out if a deck is lucky.","69","","instructions","2021-08-11 20:16:38.438","","","","","",""
"casino-keyboard-response","30","179971","0.0-16.0-0.8","1089","false","img/card_backs/set1/purple.gif","img/card_backs/set1/green.gif","img/card_backs/set1/red.gif","img/card_backs/set1/yellow.gif","img/card_backs/set2/orange.gif","img/card_backs/set2/pink.gif","img/card_backs/set2/gray.gif","img/card_backs/set2/blue.gif","""event"",""trial"",""time""
""blur"",""0"",""0""
""focus"",""1"",""3615""
""fullscreenenter"",""1"",""3766""
","""event"",""trial"",""time""
""blur"",""0"",""0""
","""event"",""trial"",""time""
""focus"",""1"",""3615""
","""event"",""trial"",""time""
""fullscreenenter"",""1"",""3766""
","
","","8080.200000286102","At the end of the game, you will be paid bonus money based on how many tokens you win. </br> If you win more tokens, you will earn more money!","72","","instructions","2021-08-11 20:16:46.520","","","","","",""
"casino-keyboard-response","31","190490","0.0-16.0-0.9","1089","false","img/card_backs/set1/purple.gif","img/card_backs/set1/green.gif","img/card_backs/set1/red.gif","img/card_backs/set1/yellow.gif","img/card_backs/set2/orange.gif","img/card_backs/set2/pink.gif","img/card_backs/set2/gray.gif","img/card_backs/set2/blue.gif","""event"",""trial"",""time""
""blur"",""0"",""0""
""focus"",""1"",""3615""
""fullscreenenter"",""1"",""3766""
","""event"",""trial"",""time""
""blur"",""0"",""0""
","""event"",""trial"",""time""
""focus"",""1"",""3615""
","""event"",""trial"",""time""
""fullscreenenter"",""1"",""3766""
","
","","10514.700000286102","You will never <b> lose </b> money. </br> If you end up with fewer than 0 tokens, you will earn $0 of bonus money, but you will still be paid for playing the game.","83","","instructions","2021-08-11 20:16:57.039","","","","","",""
"casino-keyboard-response","32","194859","0.0-16.0-0.10","1089","false","img/card_backs/set1/purple.gif","img/card_backs/set1/green.gif","img/card_backs/set1/red.gif","img/card_backs/set1/yellow.gif","img/card_backs/set2/orange.gif","img/card_backs/set2/pink.gif","img/card_backs/set2/gray.gif","img/card_backs/set2/blue.gif","""event"",""trial"",""time""
""blur"",""0"",""0""
""focus"",""1"",""3615""
""fullscreenenter"",""1"",""3766""
","""event"",""trial"",""time""
""blur"",""0"",""0""
","""event"",""trial"",""time""
""focus"",""1"",""3615""
","""event"",""trial"",""time""
""fullscreenenter"",""1"",""3766""
","
","","4367.099999904633","You will have 10 seconds to make each choice.","82","","instructions","2021-08-11 20:17:01.408","","","","","",""
"casino-keyboard-response","33","202883","0.0-16.0-0.11","1089","false","img/card_backs/set1/purple.gif","img/card_backs/set1/green.gif","img/card_backs/set1/red.gif","img/card_backs/set1/yellow.gif","img/card_backs/set2/orange.gif","img/card_backs/set2/pink.gif","img/card_backs/set2/gray.gif","img/card_backs/set2/blue.gif","""event"",""trial"",""time""
""blur"",""0"",""0""
""focus"",""1"",""3615""
""fullscreenenter"",""1"",""3766""
","""event"",""trial"",""time""
""blur"",""0"",""0""
","""event"",""trial"",""time""
""focus"",""1"",""3615""
","""event"",""trial"",""time""
""fullscreenenter"",""1"",""3766""
","
","","8019.39999961853","Before you play the game for real, you will play with practice decks. </br> The tokens you earn during practice won't count toward your total.","86","","instructions","2021-08-11 20:17:09.432","","","","","",""
"casino-keyboard-response","34","214266","0.0-16.0-0.12","1089","false","img/card_backs/set1/purple.gif","img/card_backs/set1/green.gif","img/card_backs/set1/red.gif","img/card_backs/set1/yellow.gif","img/card_backs/set2/orange.gif","img/card_backs/set2/pink.gif","img/card_backs/set2/gray.gif","img/card_backs/set2/blue.gif","""event"",""trial"",""time""
""blur"",""0"",""0""
""focus"",""1"",""3615""
""fullscreenenter"",""1"",""3766""
","""event"",""trial"",""time""
""blur"",""0"",""0""
","""event"",""trial"",""time""
""focus"",""1"",""3615""
","""event"",""trial"",""time""
""fullscreenenter"",""1"",""3766""
","
","","11380","Ready? Remember, use the '2', '4', '6', and '8' keys to select the decks. </br> Put your fingers on those keys now and then press '2' to begin.","50","","instructions","2021-08-11 20:17:20.815","","","","","",""
"casino-fixation","35","214767","0.0-17.0-0.0","1089","false","img/card_backs/set1/purple.gif","img/card_backs/set1/green.gif","img/card_backs/set1/red.gif","img/card_backs/set1/yellow.gif","img/card_backs/set2/orange.gif","img/card_backs/set2/pink.gif","img/card_backs/set2/gray.gif","img/card_backs/set2/blue.gif","""event"",""trial"",""time""
""blur"",""0"",""0""
""focus"",""1"",""3615""
""fullscreenenter"",""1"",""3766""
","""event"",""trial"",""time""
""blur"",""0"",""0""
","""event"",""trial"",""time""
""focus"",""1"",""3615""
","""event"",""trial"",""time""
""fullscreenenter"",""1"",""3766""
","
","","null","","null","","fixation","2021-08-11 20:17:21.317","","","","","",""
"card-selection-trial","36","217883","0.0-17.0-1.0","1089","false","img/card_backs/set1/purple.gif","img/card_backs/set1/green.gif","img/card_backs/set1/red.gif","img/card_backs/set1/yellow.gif","img/card_backs/set2/orange.gif","img/card_backs/set2/pink.gif","img/card_backs/set2/gray.gif","img/card_backs/set2/blue.gif","""event"",""trial"",""time""
""blur"",""0"",""0""
""focus"",""1"",""3615""
""fullscreenenter"",""1"",""3766""
","""event"",""trial"",""time""
""blur"",""0"",""0""
","""event"",""trial"",""time""
""focus"",""1"",""3615""
","""event"",""trial"",""time""
""fullscreenenter"",""1"",""3766""
","
","","1109.1999998092651","","","","practice","2021-08-11 20:17:24.432","img/practice_cards/backs/black.gif","0","100","0","",""
"casino-fixation","37","218385","0.0-17.0-0.1","1089","false","img/card_backs/set1/purple.gif","img/card_backs/set1/green.gif","img/card_backs/set1/red.gif","img/card_backs/set1/yellow.gif","img/card_backs/set2/orange.gif","img/card_backs/set2/pink.gif","img/card_backs/set2/gray.gif","img/card_backs/set2/blue.gif","""event"",""trial"",""time""
""blur"",""0"",""0""
""focus"",""1"",""3615""
""fullscreenenter"",""1"",""3766""
","""event"",""trial"",""time""
""blur"",""0"",""0""
","""event"",""trial"",""time""
""focus"",""1"",""3615""
","""event"",""trial"",""time""
""fullscreenenter"",""1"",""3766""
","
","","null","","null","","fixation","2021-08-11 20:17:24.934","","","","","",""
"card-selection-trial","38","223308","0.0-17.0-1.1","1089","false","img/card_backs/set1/purple.gif","img/card_backs/set1/green.gif","img/card_backs/set1/red.gif","img/card_backs/set1/yellow.gif","img/card_backs/set2/orange.gif","img/card_backs/set2/pink.gif","img/card_backs/set2/gray.gif","img/card_backs/set2/blue.gif","""event"",""trial"",""time""
""blur"",""0"",""0""
""focus"",""1"",""3615""
""fullscreenenter"",""1"",""3766""
","""event"",""trial"",""time""
""blur"",""0"",""0""
","""event"",""trial"",""time""
""focus"",""1"",""3615""
","""event"",""trial"",""time""
""fullscreenenter"",""1"",""3766""
","
","","2918.699999809265","","","","practice","2021-08-11 20:17:29.857","img/practice_cards/backs/dark_green.gif","3","-200","0","",""
"casino-fixation","39","223811","0.0-17.0-0.2","1089","false","img/card_backs/set1/purple.gif","img/card_backs/set1/green.gif","img/card_backs/set1/red.gif","img/card_backs/set1/yellow.gif","img/card_backs/set2/orange.gif","img/card_backs/set2/pink.gif","img/card_backs/set2/gray.gif","img/card_backs/set2/blue.gif","""event"",""trial"",""time""
""blur"",""0"",""0""
""focus"",""1"",""3615""
""fullscreenenter"",""1"",""3766""
","""event"",""trial"",""time""
""blur"",""0"",""0""
","""event"",""trial"",""time""
""focus"",""1"",""3615""
","""event"",""trial"",""time""
""fullscreenenter"",""1"",""3766""
","
","","null","","null","","fixation","2021-08-11 20:17:30.361","","","","","",""
"card-selection-trial","40","229099","0.0-17.0-1.2","1089","false","img/card_backs/set1/purple.gif","img/card_backs/set1/green.gif","img/card_backs/set1/red.gif","img/card_backs/set1/yellow.gif","img/card_backs/set2/orange.gif","img/card_backs/set2/pink.gif","img/card_backs/set2/gray.gif","img/card_backs/set2/blue.gif","""event"",""trial"",""time""
""blur"",""0"",""0""
""focus"",""1"",""3615""
""fullscreenenter"",""1"",""3766""
","""event"",""trial"",""time""
""blur"",""0"",""0""
","""event"",""trial"",""time""
""focus"",""1"",""3615""
","""event"",""trial"",""time""
""fullscreenenter"",""1"",""3766""
","
","","3279.800000190735","","","","practice","2021-08-11 20:17:35.648","img/practice_cards/backs/dark_blue.gif","2","200","0","",""
"casino-fixation","41","229600","0.0-17.0-0.3","1089","false","img/card_backs/set1/purple.gif","img/card_backs/set1/green.gif","img/card_backs/set1/red.gif","img/card_backs/set1/yellow.gif","img/card_backs/set2/orange.gif","img/card_backs/set2/pink.gif","img/card_backs/set2/gray.gif","img/card_backs/set2/blue.gif","""event"",""trial"",""time""
""blur"",""0"",""0""
""focus"",""1"",""3615""
""fullscreenenter"",""1"",""3766""
","""event"",""trial"",""time""
""blur"",""0"",""0""
","""event"",""trial"",""time""
""focus"",""1"",""3615""
","""event"",""trial"",""time""
""fullscreenenter"",""1"",""3766""
","
","","null","","null","","fixation","2021-08-11 20:17:36.150","","","","","",""
"card-selection-trial","42","233355","0.0-17.0-1.3","1089","false","img/card_backs/set1/purple.gif","img/card_backs/set1/green.gif","img/card_backs/set1/red.gif","img/card_backs/set1/yellow.gif","img/card_backs/set2/orange.gif","img/card_backs/set2/pink.gif","img/card_backs/set2/gray.gif","img/card_backs/set2/blue.gif","""event"",""trial"",""time""
""blur"",""0"",""0""
""focus"",""1"",""3615""
""fullscreenenter"",""1"",""3766""
","""event"",""trial"",""time""
""blur"",""0"",""0""
","""event"",""trial"",""time""
""focus"",""1"",""3615""
","""event"",""trial"",""time""
""fullscreenenter"",""1"",""3766""
","
","","1748.0999999046326","","","","practice","2021-08-11 20:17:39.904","img/practice_cards/backs/dark_blue.gif","3","-200","0","",""
"casino-fixation","43","233856","0.0-17.0-0.4","1089","false","img/card_backs/set1/purple.gif","img/card_backs/set1/green.gif","img/card_backs/set1/red.gif","img/card_backs/set1/yellow.gif","img/card_backs/set2/orange.gif","img/card_backs/set2/pink.gif","img/card_backs/set2/gray.gif","img/card_backs/set2/blue.gif","""event"",""trial"",""time""
""blur"",""0"",""0""
""focus"",""1"",""3615""
""fullscreenenter"",""1"",""3766""
","""event"",""trial"",""time""
""blur"",""0"",""0""
","""event"",""trial"",""time""
""focus"",""1"",""3615""
","""event"",""trial"",""time""
""fullscreenenter"",""1"",""3766""
","
","","null","","null","","fixation","2021-08-11 20:17:40.405","","","","","",""
"card-selection-trial","44","237418","0.0-17.0-1.4","1089","false","img/card_backs/set1/purple.gif","img/card_backs/set1/green.gif","img/card_backs/set1/red.gif","img/card_backs/set1/yellow.gif","img/card_backs/set2/orange.gif","img/card_backs/set2/pink.gif","img/card_backs/set2/gray.gif","img/card_backs/set2/blue.gif","""event"",""trial"",""time""
""blur"",""0"",""0""
""focus"",""1"",""3615""
""fullscreenenter"",""1"",""3766""
","""event"",""trial"",""time""
""blur"",""0"",""0""
","""event"",""trial"",""time""
""focus"",""1"",""3615""
","""event"",""trial"",""time""
""fullscreenenter"",""1"",""3766""
","
","","1557.5999999046326","","","","practice","2021-08-11 20:17:43.967","img/practice_cards/backs/brown.gif","0","-100","0","",""
"casino-fixation","45","237921","0.0-17.0-0.5","1089","false","img/card_backs/set1/purple.gif","img/card_backs/set1/green.gif","img/card_backs/set1/red.gif","img/card_backs/set1/yellow.gif","img/card_backs/set2/orange.gif","img/card_backs/set2/pink.gif","img/card_backs/set2/gray.gif","img/card_backs/set2/blue.gif","""event"",""trial"",""time""
""blur"",""0"",""0""
""focus"",""1"",""3615""
""fullscreenenter"",""1"",""3766""
","""event"",""trial"",""time""
""blur"",""0"",""0""
","""event"",""trial"",""time""
""focus"",""1"",""3615""
","""event"",""trial"",""time""
""fullscreenenter"",""1"",""3766""
","
","","null","","null","","fixation","2021-08-11 20:17:44.470","","","","","",""
"card-selection-trial","46","242267","0.0-17.0-1.5","1089","false","img/card_backs/set1/purple.gif","img/card_backs/set1/green.gif","img/card_backs/set1/red.gif","img/card_backs/set1/yellow.gif","img/card_backs/set2/orange.gif","img/card_backs/set2/pink.gif","img/card_backs/set2/gray.gif","img/card_backs/set2/blue.gif","""event"",""trial"",""time""
""blur"",""0"",""0""
""focus"",""1"",""3615""
""fullscreenenter"",""1"",""3766""
","""event"",""trial"",""time""
""blur"",""0"",""0""
","""event"",""trial"",""time""
""focus"",""1"",""3615""
","""event"",""trial"",""time""
""fullscreenenter"",""1"",""3766""
","
","","2340","","","","practice","2021-08-11 20:17:48.817","img/practice_cards/backs/dark_green.gif","1","200","0","",""
"casino-fixation","47","242770","0.0-17.0-0.6","1089","false","img/card_backs/set1/purple.gif","img/card_backs/set1/green.gif","img/card_backs/set1/red.gif","img/card_backs/set1/yellow.gif","img/card_backs/set2/orange.gif","img/card_backs/set2/pink.gif","img/card_backs/set2/gray.gif","img/card_backs/set2/blue.gif","""event"",""trial"",""time""
""blur"",""0"",""0""
""focus"",""1"",""3615""
""fullscreenenter"",""1"",""3766""
","""event"",""trial"",""time""
""blur"",""0"",""0""
","""event"",""trial"",""time""
""focus"",""1"",""3615""
","""event"",""trial"",""time""
""fullscreenenter"",""1"",""3766""
","
","","null","","null","","fixation","2021-08-11 20:17:49.319","","","","","",""
"card-selection-trial","48","246331","0.0-17.0-1.6","1089","false","img/card_backs/set1/purple.gif","img/card_backs/set1/green.gif","img/card_backs/set1/red.gif","img/card_backs/set1/yellow.gif","img/card_backs/set2/orange.gif","img/card_backs/set2/pink.gif","img/card_backs/set2/gray.gif","img/card_backs/set2/blue.gif","""event"",""trial"",""time""
""blur"",""0"",""0""
""focus"",""1"",""3615""
""fullscreenenter"",""1"",""3766""
","""event"",""trial"",""time""
""blur"",""0"",""0""
","""event"",""trial"",""time""
""focus"",""1"",""3615""
","""event"",""trial"",""time""
""fullscreenenter"",""1"",""3766""
","
","","1555.1999998092651","","","","practice","2021-08-11 20:17:52.880","img/practice_cards/backs/dark_green.gif","3","-200","0","",""
"casino-fixation","49","246833","0.0-17.0-0.7","1089","false","img/card_backs/set1/purple.gif","img/card_backs/set1/green.gif","img/card_backs/set1/red.gif","img/card_backs/set1/yellow.gif","img/card_backs/set2/orange.gif","img/card_backs/set2/pink.gif","img/card_backs/set2/gray.gif","img/card_backs/set2/blue.gif","""event"",""trial"",""time""
""blur"",""0"",""0""
""focus"",""1"",""3615""
""fullscreenenter"",""1"",""3766""
","""event"",""trial"",""time""
""blur"",""0"",""0""
","""event"",""trial"",""time""
""focus"",""1"",""3615""
","""event"",""trial"",""time""
""fullscreenenter"",""1"",""3766""
","
","","null","","null","","fixation","2021-08-11 20:17:53.382","","","","","",""
"card-selection-trial","50","250514","0.0-17.0-1.7","1089","false","img/card_backs/set1/purple.gif","img/card_backs/set1/green.gif","img/card_backs/set1/red.gif","img/card_backs/set1/yellow.gif","img/card_backs/set2/orange.gif","img/card_backs/set2/pink.gif","img/card_backs/set2/gray.gif","img/card_backs/set2/blue.gif","""event"",""trial"",""time""
""blur"",""0"",""0""
""focus"",""1"",""3615""
""fullscreenenter"",""1"",""3766""
","""event"",""trial"",""time""
""blur"",""0"",""0""
","""event"",""trial"",""time""
""focus"",""1"",""3615""
","""event"",""trial"",""time""
""fullscreenenter"",""1"",""3766""
","
","","1675.5999999046326","","","","practice","2021-08-11 20:17:57.063","img/practice_cards/backs/dark_green.gif","1","200","0","",""
"casino-fixation","51","251016","0.0-17.0-0.8","1089","false","img/card_backs/set1/purple.gif","img/card_backs/set1/green.gif","img/card_backs/set1/red.gif","img/card_backs/set1/yellow.gif","img/card_backs/set2/orange.gif","img/card_backs/set2/pink.gif","img/card_backs/set2/gray.gif","img/card_backs/set2/blue.gif","""event"",""trial"",""time""
""blur"",""0"",""0""
""focus"",""1"",""3615""
""fullscreenenter"",""1"",""3766""
","""event"",""trial"",""time""
""blur"",""0"",""0""
","""event"",""trial"",""time""
""focus"",""1"",""3615""
","""event"",""trial"",""time""
""fullscreenenter"",""1"",""3766""
","
","","null","","null","","fixation","2021-08-11 20:17:57.565","","","","","",""
"card-selection-trial","52","255372","0.0-17.0-1.8","1089","false","img/card_backs/set1/purple.gif","img/card_backs/set1/green.gif","img/card_backs/set1/red.gif","img/card_backs/set1/yellow.gif","img/card_backs/set2/orange.gif","img/card_backs/set2/pink.gif","img/card_backs/set2/gray.gif","img/card_backs/set2/blue.gif","""event"",""trial"",""time""
""blur"",""0"",""0""
""focus"",""1"",""3615""
""fullscreenenter"",""1"",""3766""
","""event"",""trial"",""time""
""blur"",""0"",""0""
","""event"",""trial"",""time""
""focus"",""1"",""3615""
","""event"",""trial"",""time""
""fullscreenenter"",""1"",""3766""
","
","","2347.0999999046326","","","","practice","2021-08-11 20:18:01.921","img/practice_cards/backs/brown.gif","1","-100","0","",""
"casino-fixation","53","255875","0.0-17.0-0.9","1089","false","img/card_backs/set1/purple.gif","img/card_backs/set1/green.gif","img/card_backs/set1/red.gif","img/card_backs/set1/yellow.gif","img/card_backs/set2/orange.gif","img/card_backs/set2/pink.gif","img/card_backs/set2/gray.gif","img/card_backs/set2/blue.gif","""event"",""trial"",""time""
""blur"",""0"",""0""
""focus"",""1"",""3615""
""fullscreenenter"",""1"",""3766""
","""event"",""trial"",""time""
""blur"",""0"",""0""
","""event"",""trial"",""time""
""focus"",""1"",""3615""
","""event"",""trial"",""time""
""fullscreenenter"",""1"",""3766""
","
","","null","","null","","fixation","2021-08-11 20:18:02.424","","","","","",""
"card-selection-trial","54","259195","0.0-17.0-1.9","1089","false","img/card_backs/set1/purple.gif","img/card_backs/set1/green.gif","img/card_backs/set1/red.gif","img/card_backs/set1/yellow.gif","img/card_backs/set2/orange.gif","img/card_backs/set2/pink.gif","img/card_backs/set2/gray.gif","img/card_backs/set2/blue.gif","""event"",""trial"",""time""
""blur"",""0"",""0""
""focus"",""1"",""3615""
""fullscreenenter"",""1"",""3766""
","""event"",""trial"",""time""
""blur"",""0"",""0""
","""event"",""trial"",""time""
""focus"",""1"",""3615""
","""event"",""trial"",""time""
""fullscreenenter"",""1"",""3766""
","
","","1314.4000000953674","","","","practice","2021-08-11 20:18:05.744","img/practice_cards/backs/dark_green.gif","0","200","0","",""
"casino-keyboard-response","55","262155","0.0-18.0","1089","false","img/card_backs/set1/purple.gif","img/card_backs/set1/green.gif","img/card_backs/set1/red.gif","img/card_backs/set1/yellow.gif","img/card_backs/set2/orange.gif","img/card_backs/set2/pink.gif","img/card_backs/set2/gray.gif","img/card_backs/set2/blue.gif","""event"",""trial"",""time""
""blur"",""0"",""0""
""focus"",""1"",""3615""
""fullscreenenter"",""1"",""3766""
","""event"",""trial"",""time""
""blur"",""0"",""0""
","""event"",""trial"",""time""
""focus"",""1"",""3615""
","""event"",""trial"",""time""
""fullscreenenter"",""1"",""3766""
","
","","2958","You earned 100 tokens during the practice round!","82","","","2021-08-11 20:18:08.705","","","","","",""
"casino-keyboard-response","56","266652","0.0-19.0-0.0","1089","false","img/card_backs/set1/purple.gif","img/card_backs/set1/green.gif","img/card_backs/set1/red.gif","img/card_backs/set1/yellow.gif","img/card_backs/set2/orange.gif","img/card_backs/set2/pink.gif","img/card_backs/set2/gray.gif","img/card_backs/set2/blue.gif","""event"",""trial"",""time""
""blur"",""0"",""0""
""focus"",""1"",""3615""
""fullscreenenter"",""1"",""3766""
","""event"",""trial"",""time""
""blur"",""0"",""0""
","""event"",""trial"",""time""
""focus"",""1"",""3615""
","""event"",""trial"",""time""
""fullscreenenter"",""1"",""3766""
","
","","4488.699999809265","Nice job! You are almost ready to play the real game.","86","","instructions","2021-08-11 20:18:13.201","","","","","",""
"casino-keyboard-response","57","273019","0.0-19.0-0.1","1089","false","img/card_backs/set1/purple.gif","img/card_backs/set1/green.gif","img/card_backs/set1/red.gif","img/card_backs/set1/yellow.gif","img/card_backs/set2/orange.gif","img/card_backs/set2/pink.gif","img/card_backs/set2/gray.gif","img/card_backs/set2/blue.gif","""event"",""trial"",""time""
""blur"",""0"",""0""
""focus"",""1"",""3615""
""fullscreenenter"",""1"",""3766""
","""event"",""trial"",""time""
""blur"",""0"",""0""
","""event"",""trial"",""time""
""focus"",""1"",""3615""
","""event"",""trial"",""time""
""fullscreenenter"",""1"",""3766""
","
","","6365.300000190735","You will play two rounds of the real game. In each round, you will pick 100 cards in total.","73","","instructions","2021-08-11 20:18:19.568","","","","","",""
"casino-keyboard-response","58","277229","0.0-19.0-0.2","1089","false","img/card_backs/set1/purple.gif","img/card_backs/set1/green.gif","img/card_backs/set1/red.gif","img/card_backs/set1/yellow.gif","img/card_backs/set2/orange.gif","img/card_backs/set2/pink.gif","img/card_backs/set2/gray.gif","img/card_backs/set2/blue.gif","""event"",""trial"",""time""
""blur"",""0"",""0""
""focus"",""1"",""3615""
""fullscreenenter"",""1"",""3766""
","""event"",""trial"",""time""
""blur"",""0"",""0""
","""event"",""trial"",""time""
""focus"",""1"",""3615""
","""event"",""trial"",""time""
""fullscreenenter"",""1"",""3766""
","
","","4206.099999904633","We are now going to ask you some questions about how the game works.","66","","instructions","2021-08-11 20:18:23.778","","","","","",""
"casino-keyboard-response","59","283316","0.0-19.0-0.3","1089","false","img/card_backs/set1/purple.gif","img/card_backs/set1/green.gif","img/card_backs/set1/red.gif","img/card_backs/set1/yellow.gif","img/card_backs/set2/orange.gif","img/card_backs/set2/pink.gif","img/card_backs/set2/gray.gif","img/card_backs/set2/blue.gif","""event"",""trial"",""time""
""blur"",""0"",""0""
""focus"",""1"",""3615""
""fullscreenenter"",""1"",""3766""
","""event"",""trial"",""time""
""blur"",""0"",""0""
","""event"",""trial"",""time""
""focus"",""1"",""3615""
","""event"",""trial"",""time""
""fullscreenenter"",""1"",""3766""
","
","","6083","Answer carefully. You will not be able to begin the game until you answer them correctly.","67","","instructions","2021-08-11 20:18:29.865","","","","","",""
"casino-comp_q","60","290214","0.0-20.0-0.0","1089","false","img/card_backs/set1/purple.gif","img/card_backs/set1/green.gif","img/card_backs/set1/red.gif","img/card_backs/set1/yellow.gif","img/card_backs/set2/orange.gif","img/card_backs/set2/pink.gif","img/card_backs/set2/gray.gif","img/card_backs/set2/blue.gif","""event"",""trial"",""time""
""blur"",""0"",""0""
""focus"",""1"",""3615""
""fullscreenenter"",""1"",""3766""
","""event"",""trial"",""time""
""blur"",""0"",""0""
","""event"",""trial"",""time""
""focus"",""1"",""3615""
","""event"",""trial"",""time""
""fullscreenenter"",""1"",""3766""
","
","","6893.099999904633","True or False: All the decks have some cards that cause you to win tokens and some cards that cause you to lose tokens.","84","","","2021-08-11 20:18:36.763","","","","","",""
"casino-keyboard-response","61","295907","0.0-20.0-1.0","1089","false","img/card_backs/set1/purple.gif","img/card_backs/set1/green.gif","img/card_backs/set1/red.gif","img/card_backs/set1/yellow.gif","img/card_backs/set2/orange.gif","img/card_backs/set2/pink.gif","img/card_backs/set2/gray.gif","img/card_backs/set2/blue.gif","""event"",""trial"",""time""
""blur"",""0"",""0""
""focus"",""1"",""3615""
""fullscreenenter"",""1"",""3766""
","""event"",""trial"",""time""
""blur"",""0"",""0""
","""event"",""trial"",""time""
""focus"",""1"",""3615""
","""event"",""trial"",""time""
""fullscreenenter"",""1"",""3766""
","
","","5688.5","True is correct! All the decks have a mix of winning and losing cards.","77","","","2021-08-11 20:18:42.456","","","","","true",""
"casino-comp_q","62","298972","0.0-21.0-0.0","1089","false","img/card_backs/set1/purple.gif","img/card_backs/set1/green.gif","img/card_backs/set1/red.gif","img/card_backs/set1/yellow.gif","img/card_backs/set2/orange.gif","img/card_backs/set2/pink.gif","img/card_backs/set2/gray.gif","img/card_backs/set2/blue.gif","""event"",""trial"",""time""
""blur"",""0"",""0""
""focus"",""1"",""3615""
""fullscreenenter"",""1"",""3766""
","""event"",""trial"",""time""
""blur"",""0"",""0""
","""event"",""trial"",""time""
""focus"",""1"",""3615""
","""event"",""trial"",""time""
""fullscreenenter"",""1"",""3766""
","
","","3062.4000000953674","True or False: You will have as much time as you want to make your response.","70","","","2021-08-11 20:18:45.522","","","","","",""
"casino-keyboard-response","63","301755","0.0-21.0-1.0","1089","false","img/card_backs/set1/purple.gif","img/card_backs/set1/green.gif","img/card_backs/set1/red.gif","img/card_backs/set1/yellow.gif","img/card_backs/set2/orange.gif","img/card_backs/set2/pink.gif","img/card_backs/set2/gray.gif","img/card_backs/set2/blue.gif","""event"",""trial"",""time""
""blur"",""0"",""0""
""focus"",""1"",""3615""
""fullscreenenter"",""1"",""3766""
","""event"",""trial"",""time""
""blur"",""0"",""0""
","""event"",""trial"",""time""
""focus"",""1"",""3615""
","""event"",""trial"",""time""
""fullscreenenter"",""1"",""3766""
","
","","2777.9000000953674","False is correct! You will only have 10 seconds to make each choice.","75","","","2021-08-11 20:18:48.304","","","","","true",""
"casino-comp_q","64","305130","0.0-22.0-0.0","1089","false","img/card_backs/set1/purple.gif","img/card_backs/set1/green.gif","img/card_backs/set1/red.gif","img/card_backs/set1/yellow.gif","img/card_backs/set2/orange.gif","img/card_backs/set2/pink.gif","img/card_backs/set2/gray.gif","img/card_backs/set2/blue.gif","""event"",""trial"",""time""
""blur"",""0"",""0""
""focus"",""1"",""3615""
""fullscreenenter"",""1"",""3766""
","""event"",""trial"",""time""
""blur"",""0"",""0""
","""event"",""trial"",""time""
""focus"",""1"",""3615""
","""event"",""trial"",""time""
""fullscreenenter"",""1"",""3766""
","
","","3373.4000000953674","True or False: The location of the deck determines how lucky it is.","70","","","2021-08-11 20:18:51.679","","","","","",""
"casino-keyboard-response","65","309996","0.0-22.0-1.0","1089","false","img/card_backs/set1/purple.gif","img/card_backs/set1/green.gif","img/card_backs/set1/red.gif","img/card_backs/set1/yellow.gif","img/card_backs/set2/orange.gif","img/card_backs/set2/pink.gif","img/card_backs/set2/gray.gif","img/card_backs/set2/blue.gif","""event"",""trial"",""time""
""blur"",""0"",""0""
""focus"",""1"",""3615""
""fullscreenenter"",""1"",""3766""
","""event"",""trial"",""time""
""blur"",""0"",""0""
","""event"",""trial"",""time""
""focus"",""1"",""3615""
","""event"",""trial"",""time""
""fullscreenenter"",""1"",""3766""
","
","","4864.800000190735","False is correct! The <i>color</i>  of the deck determines how lucky or unlucky it is.","68","","","2021-08-11 20:18:56.545","","","","","true",""
"casino-keyboard-response","66","314106","0.0-23.0-0.0","1089","false","img/card_backs/set1/purple.gif","img/card_backs/set1/green.gif","img/card_backs/set1/red.gif","img/card_backs/set1/yellow.gif","img/card_backs/set2/orange.gif","img/card_backs/set2/pink.gif","img/card_backs/set2/gray.gif","img/card_backs/set2/blue.gif","""event"",""trial"",""time""
""blur"",""0"",""0""
""focus"",""1"",""3615""
""fullscreenenter"",""1"",""3766""
","""event"",""trial"",""time""
""blur"",""0"",""0""
","""event"",""trial"",""time""
""focus"",""1"",""3615""
","""event"",""trial"",""time""
""fullscreenenter"",""1"",""3766""
","
","","4106.099999904633","Great job! Now it's time to start the real game.","82","","instructions","2021-08-11 20:19:00.655","","","","","",""
"casino-keyboard-response","67","319106","0.0-23.0-0.1","1089","false","img/card_backs/set1/purple.gif","img/card_backs/set1/green.gif","img/card_backs/set1/red.gif","img/card_backs/set1/yellow.gif","img/card_backs/set2/orange.gif","img/card_backs/set2/pink.gif","img/card_backs/set2/gray.gif","img/card_backs/set2/blue.gif","""event"",""trial"",""time""
""blur"",""0"",""0""
""focus"",""1"",""3615""
""fullscreenenter"",""1"",""3766""
","""event"",""trial"",""time""
""blur"",""0"",""0""
","""event"",""trial"",""time""
""focus"",""1"",""3615""
","""event"",""trial"",""time""
""fullscreenenter"",""1"",""3766""
","
","","4998.699999809265","Before we start, we're going to head into a new room of the casino.","86","","instructions","2021-08-11 20:19:05.655","","","","","",""
"casino-keyboard-response","68","325179","0.0-24.0-0.0","1089","false","img/card_backs/set1/purple.gif","img/card_backs/set1/green.gif","img/card_backs/set1/red.gif","img/card_backs/set1/yellow.gif","img/card_backs/set2/orange.gif","img/card_backs/set2/pink.gif","img/card_backs/set2/gray.gif","img/card_backs/set2/blue.gif","""event"",""trial"",""time""
""blur"",""0"",""0""
""focus"",""1"",""3615""
""fullscreenenter"",""1"",""3766""
","""event"",""trial"",""time""
""blur"",""0"",""0""
","""event"",""trial"",""time""
""focus"",""1"",""3615""
","""event"",""trial"",""time""
""fullscreenenter"",""1"",""3766""
","
","","6069.900000095367","Here we are! The real game will use different cards, but the rules will be the same.","71","","instructions","2021-08-11 20:19:11.728","","","","","",""
"casino-keyboard-response","69","330283","0.0-24.0-0.1","1089","false","img/card_backs/set1/purple.gif","img/card_backs/set1/green.gif","img/card_backs/set1/red.gif","img/card_backs/set1/yellow.gif","img/card_backs/set2/orange.gif","img/card_backs/set2/pink.gif","img/card_backs/set2/gray.gif","img/card_backs/set2/blue.gif","""event"",""trial"",""time""
""blur"",""0"",""0""
""focus"",""1"",""3615""
""fullscreenenter"",""1"",""3766""
","""event"",""trial"",""time""
""blur"",""0"",""0""
","""event"",""trial"",""time""
""focus"",""1"",""3615""
","""event"",""trial"",""time""
""fullscreenenter"",""1"",""3766""
","
","","5102.300000190735","Ready? Put your fingers over the '2', '4', 6', and '8' keys so you are ready to play the game. </br> Then press 2 to start.","50","","instructions","2021-08-11 20:19:16.832","","","","","",""
"casino-fixation","70","330786","0.0-25.0-0.0","1089","false","img/card_backs/set1/purple.gif","img/card_backs/set1/green.gif","img/card_backs/set1/red.gif","img/card_backs/set1/yellow.gif","img/card_backs/set2/orange.gif","img/card_backs/set2/pink.gif","img/card_backs/set2/gray.gif","img/card_backs/set2/blue.gif","""event"",""trial"",""time""
""blur"",""0"",""0""
""focus"",""1"",""3615""
""fullscreenenter"",""1"",""3766""
","""event"",""trial"",""time""
""blur"",""0"",""0""
","""event"",""trial"",""time""
""focus"",""1"",""3615""
","""event"",""trial"",""time""
""fullscreenenter"",""1"",""3766""
","
","","null","","null","","fixation","2021-08-11 20:19:17.335","","","","","",""
"card-selection-trial","71","334334","0.0-25.0-1.0","1089","false","img/card_backs/set1/purple.gif","img/card_backs/set1/green.gif","img/card_backs/set1/red.gif","img/card_backs/set1/yellow.gif","img/card_backs/set2/orange.gif","img/card_backs/set2/pink.gif","img/card_backs/set2/gray.gif","img/card_backs/set2/blue.gif","""event"",""trial"",""time""
""blur"",""0"",""0""
""focus"",""1"",""3615""
""fullscreenenter"",""1"",""3766""
","""event"",""trial"",""time""
""blur"",""0"",""0""
","""event"",""trial"",""time""
""focus"",""1"",""3615""
","""event"",""trial"",""time""
""fullscreenenter"",""1"",""3766""
","
","","1532.4000000953674","","","","real_trial","2021-08-11 20:19:20.883","img/card_backs/set1/purple.gif","0","-250","1","",""
"casino-fixation","72","334837","0.0-25.0-0.1","1089","false","img/card_backs/set1/purple.gif","img/card_backs/set1/green.gif","img/card_backs/set1/red.gif","img/card_backs/set1/yellow.gif","img/card_backs/set2/orange.gif","img/card_backs/set2/pink.gif","img/card_backs/set2/gray.gif","img/card_backs/set2/blue.gif","""event"",""trial"",""time""
""blur"",""0"",""0""
""focus"",""1"",""3615""
""fullscreenenter"",""1"",""3766""
","""event"",""trial"",""time""
""blur"",""0"",""0""
","""event"",""trial"",""time""
""focus"",""1"",""3615""
","""event"",""trial"",""time""
""fullscreenenter"",""1"",""3766""
","
","","null","","null","","fixation","2021-08-11 20:19:21.386","","","","","",""
"card-selection-trial","73","338950","0.0-25.0-1.1","1089","false","img/card_backs/set1/purple.gif","img/card_backs/set1/green.gif","img/card_backs/set1/red.gif","img/card_backs/set1/yellow.gif","img/card_backs/set2/orange.gif","img/card_backs/set2/pink.gif","img/card_backs/set2/gray.gif","img/card_backs/set2/blue.gif","""event"",""trial"",""time""
""blur"",""0"",""0""
""focus"",""1"",""3615""
""fullscreenenter"",""1"",""3766""
","""event"",""trial"",""time""
""blur"",""0"",""0""
","""event"",""trial"",""time""
""focus"",""1"",""3615""
","""event"",""trial"",""time""
""fullscreenenter"",""1"",""3766""
","
","","2104.2999997138977","","","","real_trial","2021-08-11 20:19:25.499","img/card_backs/set1/purple.gif","1","-240","1","",""
"casino-fixation","74","339453","0.0-25.0-0.2","1089","false","img/card_backs/set1/purple.gif","img/card_backs/set1/green.gif","img/card_backs/set1/red.gif","img/card_backs/set1/yellow.gif","img/card_backs/set2/orange.gif","img/card_backs/set2/pink.gif","img/card_backs/set2/gray.gif","img/card_backs/set2/blue.gif","""event"",""trial"",""time""
""blur"",""0"",""0""
""focus"",""1"",""3615""
""fullscreenenter"",""1"",""3766""
","""event"",""trial"",""time""
""blur"",""0"",""0""
","""event"",""trial"",""time""
""focus"",""1"",""3615""
","""event"",""trial"",""time""
""fullscreenenter"",""1"",""3766""
","
","","null","","null","","fixation","2021-08-11 20:19:26.002","","","","","",""
"card-selection-trial","75","343902","0.0-25.0-1.2","1089","false","img/card_backs/set1/purple.gif","img/card_backs/set1/green.gif","img/card_backs/set1/red.gif","img/card_backs/set1/yellow.gif","img/card_backs/set2/orange.gif","img/card_backs/set2/pink.gif","img/card_backs/set2/gray.gif","img/card_backs/set2/blue.gif","""event"",""trial"",""time""
""blur"",""0"",""0""
""focus"",""1"",""3615""
""fullscreenenter"",""1"",""3766""
","""event"",""trial"",""time""
""blur"",""0"",""0""
","""event"",""trial"",""time""
""focus"",""1"",""3615""
","""event"",""trial"",""time""
""fullscreenenter"",""1"",""3766""
","
","","2436.4000000953674","","","","real_trial","2021-08-11 20:19:30.451","img/card_backs/set1/green.gif","3","-240","1","",""
"casino-fixation","76","344405","0.0-25.0-0.3","1089","false","img/card_backs/set1/purple.gif","img/card_backs/set1/green.gif","img/card_backs/set1/red.gif","img/card_backs/set1/yellow.gif","img/card_backs/set2/orange.gif","img/card_backs/set2/pink.gif","img/card_backs/set2/gray.gif","img/card_backs/set2/blue.gif","""event"",""trial"",""time""
""blur"",""0"",""0""
""focus"",""1"",""3615""
""fullscreenenter"",""1"",""3766""
","""event"",""trial"",""time""
""blur"",""0"",""0""
","""event"",""trial"",""time""
""focus"",""1"",""3615""
","""event"",""trial"",""time""
""fullscreenenter"",""1"",""3766""
","
","","null","","null","","fixation","2021-08-11 20:19:30.955","","","","","",""
"card-selection-trial","77","348467","0.0-25.0-1.3","1089","false","img/card_backs/set1/purple.gif","img/card_backs/set1/green.gif","img/card_backs/set1/red.gif","img/card_backs/set1/yellow.gif","img/card_backs/set2/orange.gif","img/card_backs/set2/pink.gif","img/card_backs/set2/gray.gif","img/card_backs/set2/blue.gif","""event"",""trial"",""time""
""blur"",""0"",""0""
""focus"",""1"",""3615""
""fullscreenenter"",""1"",""3766""
","""event"",""trial"",""time""
""blur"",""0"",""0""
","""event"",""trial"",""time""
""focus"",""1"",""3615""
","""event"",""trial"",""time""
""fullscreenenter"",""1"",""3766""
","
","","2050.699999809265","","","","real_trial","2021-08-11 20:19:35.016","img/card_backs/set1/green.gif","1","190","1","",""
"casino-fixation","78","348970","0.0-25.0-0.4","1089","false","img/card_backs/set1/purple.gif","img/card_backs/set1/green.gif","img/card_backs/set1/red.gif","img/card_backs/set1/yellow.gif","img/card_backs/set2/orange.gif","img/card_backs/set2/pink.gif","img/card_backs/set2/gray.gif","img/card_backs/set2/blue.gif","""event"",""trial"",""time""
""blur"",""0"",""0""
""focus"",""1"",""3615""
""fullscreenenter"",""1"",""3766""
","""event"",""trial"",""time""
""blur"",""0"",""0""
","""event"",""trial"",""time""
""focus"",""1"",""3615""
","""event"",""trial"",""time""
""fullscreenenter"",""1"",""3766""
","
","","null","","null","","fixation","2021-08-11 20:19:35.519","","","","","",""
"card-selection-trial","79","352606","0.0-25.0-1.4","1089","false","img/card_backs/set1/purple.gif","img/card_backs/set1/green.gif","img/card_backs/set1/red.gif","img/card_backs/set1/yellow.gif","img/card_backs/set2/orange.gif","img/card_backs/set2/pink.gif","img/card_backs/set2/gray.gif","img/card_backs/set2/blue.gif","""event"",""trial"",""time""
""blur"",""0"",""0""
""focus"",""1"",""3615""
""fullscreenenter"",""1"",""3766""
","""event"",""trial"",""time""
""blur"",""0"",""0""
","""event"",""trial"",""time""
""focus"",""1"",""3615""
","""event"",""trial"",""time""
""fullscreenenter"",""1"",""3766""
","
","","1630.4000000953674","","","","real_trial","2021-08-11 20:19:39.155","img/card_backs/set1/yellow.gif","1","-50","1","",""
"casino-fixation","80","353109","0.0-25.0-0.5","1089","false","img/card_backs/set1/purple.gif","img/card_backs/set1/green.gif","img/card_backs/set1/red.gif","img/card_backs/set1/yellow.gif","img/card_backs/set2/orange.gif","img/card_backs/set2/pink.gif","img/card_backs/set2/gray.gif","img/card_backs/set2/blue.gif","""event"",""trial"",""time""
""blur"",""0"",""0""
""focus"",""1"",""3615""
""fullscreenenter"",""1"",""3766""
","""event"",""trial"",""time""
""blur"",""0"",""0""
","""event"",""trial"",""time""
""focus"",""1"",""3615""
","""event"",""trial"",""time""
""fullscreenenter"",""1"",""3766""
","
","","null","","null","","fixation","2021-08-11 20:19:39.658","","","","","",""
"card-selection-trial","81","356542","0.0-25.0-1.5","1089","false","img/card_backs/set1/purple.gif","img/card_backs/set1/green.gif","img/card_backs/set1/red.gif","img/card_backs/set1/yellow.gif","img/card_backs/set2/orange.gif","img/card_backs/set2/pink.gif","img/card_backs/set2/gray.gif","img/card_backs/set2/blue.gif","""event"",""trial"",""time""
""blur"",""0"",""0""
""focus"",""1"",""3615""
""fullscreenenter"",""1"",""3766""
","""event"",""trial"",""time""
""blur"",""0"",""0""
","""event"",""trial"",""time""
""focus"",""1"",""3615""
","""event"",""trial"",""time""
""fullscreenenter"",""1"",""3766""
","
","","1419.9000000953674","","","","real_trial","2021-08-11 20:19:43.092","img/card_backs/set1/yellow.gif","3","120","1","",""
"casino-fixation","82","357048","0.0-25.0-0.6","1089","false","img/card_backs/set1/purple.gif","img/card_backs/set1/green.gif","img/card_backs/set1/red.gif","img/card_backs/set1/yellow.gif","img/card_backs/set2/orange.gif","img/card_backs/set2/pink.gif","img/card_backs/set2/gray.gif","img/card_backs/set2/blue.gif","""event"",""trial"",""time""
""blur"",""0"",""0""
""focus"",""1"",""3615""
""fullscreenenter"",""1"",""3766""
","""event"",""trial"",""time""
""blur"",""0"",""0""
","""event"",""trial"",""time""
""focus"",""1"",""3615""
","""event"",""trial"",""time""
""fullscreenenter"",""1"",""3766""
","
","","null","","null","","fixation","2021-08-11 20:19:43.597","","","","","",""
"card-selection-trial","83","360677","0.0-25.0-1.6","1089","false","img/card_backs/set1/purple.gif","img/card_backs/set1/green.gif","img/card_backs/set1/red.gif","img/card_backs/set1/yellow.gif","img/card_backs/set2/orange.gif","img/card_backs/set2/pink.gif","img/card_backs/set2/gray.gif","img/card_backs/set2/blue.gif","""event"",""trial"",""time""
""blur"",""0"",""0""
""focus"",""1"",""3615""
""fullscreenenter"",""1"",""3766""
","""event"",""trial"",""time""
""blur"",""0"",""0""
","""event"",""trial"",""time""
""focus"",""1"",""3615""
","""event"",""trial"",""time""
""fullscreenenter"",""1"",""3766""
","
","","1618.6999998092651","","","","real_trial","2021-08-11 20:19:47.226","img/card_backs/set1/red.gif","2","100","1","",""
"casino-fixation","84","361180","0.0-25.0-0.7","1089","false","img/card_backs/set1/purple.gif","img/card_backs/set1/green.gif","img/card_backs/set1/red.gif","img/card_backs/set1/yellow.gif","img/card_backs/set2/orange.gif","img/card_backs/set2/pink.gif","img/card_backs/set2/gray.gif","img/card_backs/set2/blue.gif","""event"",""trial"",""time""
""blur"",""0"",""0""
""focus"",""1"",""3615""
""fullscreenenter"",""1"",""3766""
","""event"",""trial"",""time""
""blur"",""0"",""0""
","""event"",""trial"",""time""
""focus"",""1"",""3615""
","""event"",""trial"",""time""
""fullscreenenter"",""1"",""3766""
","
","","null","","null","","fixation","2021-08-11 20:19:47.729","","","","","",""
"card-selection-trial","85","364310","0.0-25.0-1.7","1089","false","img/card_backs/set1/purple.gif","img/card_backs/set1/green.gif","img/card_backs/set1/red.gif","img/card_backs/set1/yellow.gif","img/card_backs/set2/orange.gif","img/card_backs/set2/pink.gif","img/card_backs/set2/gray.gif","img/card_backs/set2/blue.gif","""event"",""trial"",""time""
""blur"",""0"",""0""
""focus"",""1"",""3615""
""fullscreenenter"",""1"",""3766""
","""event"",""trial"",""time""
""blur"",""0"",""0""
","""event"",""trial"",""time""
""focus"",""1"",""3615""
","""event"",""trial"",""time""
""fullscreenenter"",""1"",""3766""
","
","","1119.6000003814697","","","","real_trial","2021-08-11 20:19:50.859","img/card_backs/set1/red.gif","1","100","1","",""
"casino-fixation","86","364813","0.0-25.0-0.8","1089","false","img/card_backs/set1/purple.gif","img/card_backs/set1/green.gif","img/card_backs/set1/red.gif","img/card_backs/set1/yellow.gif","img/card_backs/set2/orange.gif","img/card_backs/set2/pink.gif","img/card_backs/set2/gray.gif","img/card_backs/set2/blue.gif","""event"",""trial"",""time""
""blur"",""0"",""0""
""focus"",""1"",""3615""
""fullscreenenter"",""1"",""3766""
","""event"",""trial"",""time""
""blur"",""0"",""0""
","""event"",""trial"",""time""
""focus"",""1"",""3615""
","""event"",""trial"",""time""
""fullscreenenter"",""1"",""3766""
","
","","null","","null","","fixation","2021-08-11 20:19:51.362","","","","","",""
"card-selection-trial","87","368742","0.0-25.0-1.8","1089","false","img/card_backs/set1/purple.gif","img/card_backs/set1/green.gif","img/card_backs/set1/red.gif","img/card_backs/set1/yellow.gif","img/card_backs/set2/orange.gif","img/card_backs/set2/pink.gif","img/card_backs/set2/gray.gif","img/card_backs/set2/blue.gif","""event"",""trial"",""time""
""blur"",""0"",""0""
""focus"",""1"",""3615""
""fullscreenenter"",""1"",""3766""
","""event"",""trial"",""time""
""blur"",""0"",""0""
","""event"",""trial"",""time""
""focus"",""1"",""3615""
","""event"",""trial"",""time""
""fullscreenenter"",""1"",""3766""
","
","","1919.4000000953674","","","","real_trial","2021-08-11 20:19:55.291","img/card_backs/set1/red.gif","0","-50","1","",""
"casino-fixation","88","369244","0.0-25.0-0.9","1089","false","img/card_backs/set1/purple.gif","img/card_backs/set1/green.gif","img/card_backs/set1/red.gif","img/card_backs/set1/yellow.gif","img/card_backs/set2/orange.gif","img/card_backs/set2/pink.gif","img/card_backs/set2/gray.gif","img/card_backs/set2/blue.gif","""event"",""trial"",""time""
""blur"",""0"",""0""
""focus"",""1"",""3615""
""fullscreenenter"",""1"",""3766""
","""event"",""trial"",""time""
""blur"",""0"",""0""
","""event"",""trial"",""time""
""focus"",""1"",""3615""
","""event"",""trial"",""time""
""fullscreenenter"",""1"",""3766""
","
","","null","","null","","fixation","2021-08-11 20:19:55.793","","","","","",""
"card-selection-trial","89","372262","0.0-25.0-1.9","1089","false","img/card_backs/set1/purple.gif","img/card_backs/set1/green.gif","img/card_backs/set1/red.gif","img/card_backs/set1/yellow.gif","img/card_backs/set2/orange.gif","img/card_backs/set2/pink.gif","img/card_backs/set2/gray.gif","img/card_backs/set2/blue.gif","""event"",""trial"",""time""
""blur"",""0"",""0""
""focus"",""1"",""3615""
""fullscreenenter"",""1"",""3766""
","""event"",""trial"",""time""
""blur"",""0"",""0""
","""event"",""trial"",""time""
""focus"",""1"",""3615""
","""event"",""trial"",""time""
""fullscreenenter"",""1"",""3766""
","
","","1011.2000002861023","","","","real_trial","2021-08-11 20:19:58.811","img/card_backs/set1/red.gif","3","-60","1","",""
"casino-fixation","90","372764","0.0-25.0-0.10","1089","false","img/card_backs/set1/purple.gif","img/card_backs/set1/green.gif","img/card_backs/set1/red.gif","img/card_backs/set1/yellow.gif","img/card_backs/set2/orange.gif","img/card_backs/set2/pink.gif","img/card_backs/set2/gray.gif","img/card_backs/set2/blue.gif","""event"",""trial"",""time""
""blur"",""0"",""0""
""focus"",""1"",""3615""
""fullscreenenter"",""1"",""3766""
","""event"",""trial"",""time""
""blur"",""0"",""0""
","""event"",""trial"",""time""
""focus"",""1"",""3615""
","""event"",""trial"",""time""
""fullscreenenter"",""1"",""3766""
","
","","null","","null","","fixation","2021-08-11 20:19:59.313","","","","","",""
"card-selection-trial","91","376063","0.0-25.0-1.10","1089","false","img/card_backs/set1/purple.gif","img/card_backs/set1/green.gif","img/card_backs/set1/red.gif","img/card_backs/set1/yellow.gif","img/card_backs/set2/orange.gif","img/card_backs/set2/pink.gif","img/card_backs/set2/gray.gif","img/card_backs/set2/blue.gif","""event"",""trial"",""time""
""blur"",""0"",""0""
""focus"",""1"",""3615""
""fullscreenenter"",""1"",""3766""
","""event"",""trial"",""time""
""blur"",""0"",""0""
","""event"",""trial"",""time""
""focus"",""1"",""3615""
","""event"",""trial"",""time""
""fullscreenenter"",""1"",""3766""
","
","","1288.1999998092651","","","","real_trial","2021-08-11 20:20:02.612","img/card_backs/set1/red.gif","0","-60","1","",""
"casino-fixation","92","376564","0.0-25.0-0.11","1089","false","img/card_backs/set1/purple.gif","img/card_backs/set1/green.gif","img/card_backs/set1/red.gif","img/card_backs/set1/yellow.gif","img/card_backs/set2/orange.gif","img/card_backs/set2/pink.gif","img/card_backs/set2/gray.gif","img/card_backs/set2/blue.gif","""event"",""trial"",""time""
""blur"",""0"",""0""
""focus"",""1"",""3615""
""fullscreenenter"",""1"",""3766""
","""event"",""trial"",""time""
""blur"",""0"",""0""
","""event"",""trial"",""time""
""focus"",""1"",""3615""
","""event"",""trial"",""time""
""fullscreenenter"",""1"",""3766""
","
","","null","","null","","fixation","2021-08-11 20:20:03.114","","","","","",""
"card-selection-trial","93","380026","0.0-25.0-1.11","1089","false","img/card_backs/set1/purple.gif","img/card_backs/set1/green.gif","img/card_backs/set1/red.gif","img/card_backs/set1/yellow.gif","img/card_backs/set2/orange.gif","img/card_backs/set2/pink.gif","img/card_backs/set2/gray.gif","img/card_backs/set2/blue.gif","""event"",""trial"",""time""
""blur"",""0"",""0""
""focus"",""1"",""3615""
""fullscreenenter"",""1"",""3766""
","""event"",""trial"",""time""
""blur"",""0"",""0""
","""event"",""trial"",""time""
""focus"",""1"",""3615""
","""event"",""trial"",""time""
""fullscreenenter"",""1"",""3766""
","
","","1452.0999999046326","","","","real_trial","2021-08-11 20:20:06.575","img/card_backs/set1/green.gif","0","-240","1","",""
"casino-fixation","94","380528","0.0-25.0-0.12","1089","false","img/card_backs/set1/purple.gif","img/card_backs/set1/green.gif","img/card_backs/set1/red.gif","img/card_backs/set1/yellow.gif","img/card_backs/set2/orange.gif","img/card_backs/set2/pink.gif","img/card_backs/set2/gray.gif","img/card_backs/set2/blue.gif","""event"",""trial"",""time""
""blur"",""0"",""0""
""focus"",""1"",""3615""
""fullscreenenter"",""1"",""3766""
","""event"",""trial"",""time""
""blur"",""0"",""0""
","""event"",""trial"",""time""
""focus"",""1"",""3615""
","""event"",""trial"",""time""
""fullscreenenter"",""1"",""3766""
","
","","null","","null","","fixation","2021-08-11 20:20:07.077","","","","","",""
"card-selection-trial","95","384466","0.0-25.0-1.12","1089","false","img/card_backs/set1/purple.gif","img/card_backs/set1/green.gif","img/card_backs/set1/red.gif","img/card_backs/set1/yellow.gif","img/card_backs/set2/orange.gif","img/card_backs/set2/pink.gif","img/card_backs/set2/gray.gif","img/card_backs/set2/blue.gif","""event"",""trial"",""time""
""blur"",""0"",""0""
""focus"",""1"",""3615""
""fullscreenenter"",""1"",""3766""
","""event"",""trial"",""time""
""blur"",""0"",""0""
","""event"",""trial"",""time""
""focus"",""1"",""3615""
","""event"",""trial"",""time""
""fullscreenenter"",""1"",""3766""
","
","","1933.3000001907349","","","","real_trial","2021-08-11 20:20:11.015","img/card_backs/set1/yellow.gif","2","-50","1","",""
"casino-fixation","96","384968","0.0-25.0-0.13","1089","false","img/card_backs/set1/purple.gif","img/card_backs/set1/green.gif","img/card_backs/set1/red.gif","img/card_backs/set1/yellow.gif","img/card_backs/set2/orange.gif","img/card_backs/set2/pink.gif","img/card_backs/set2/gray.gif","img/card_backs/set2/blue.gif","""event"",""trial"",""time""
""blur"",""0"",""0""
""focus"",""1"",""3615""
""fullscreenenter"",""1"",""3766""
","""event"",""trial"",""time""
""blur"",""0"",""0""
","""event"",""trial"",""time""
""focus"",""1"",""3615""
","""event"",""trial"",""time""
""fullscreenenter"",""1"",""3766""
","
","","null","","null","","fixation","2021-08-11 20:20:11.517","","","","","",""
"card-selection-trial","97","388490","0.0-25.0-1.13","1089","false","img/card_backs/set1/purple.gif","img/card_backs/set1/green.gif","img/card_backs/set1/red.gif","img/card_backs/set1/yellow.gif","img/card_backs/set2/orange.gif","img/card_backs/set2/pink.gif","img/card_backs/set2/gray.gif","img/card_backs/set2/blue.gif","""event"",""trial"",""time""
""blur"",""0"",""0""
""focus"",""1"",""3615""
""fullscreenenter"",""1"",""3766""
","""event"",""trial"",""time""
""blur"",""0"",""0""
","""event"",""trial"",""time""
""focus"",""1"",""3615""
","""event"",""trial"",""time""
""fullscreenenter"",""1"",""3766""
","
","","1516.5","","","","real_trial","2021-08-11 20:20:15.039","img/card_backs/set1/purple.gif","0","-250","1","",""
"casino-fixation","98","388993","0.0-25.0-0.14","1089","false","img/card_backs/set1/purple.gif","img/card_backs/set1/green.gif","img/card_backs/set1/red.gif","img/card_backs/set1/yellow.gif","img/card_backs/set2/orange.gif","img/card_backs/set2/pink.gif","img/card_backs/set2/gray.gif","img/card_backs/set2/blue.gif","""event"",""trial"",""time""
""blur"",""0"",""0""
""focus"",""1"",""3615""
""fullscreenenter"",""1"",""3766""
","""event"",""trial"",""time""
""blur"",""0"",""0""
","""event"",""trial"",""time""
""focus"",""1"",""3615""
","""event"",""trial"",""time""
""fullscreenenter"",""1"",""3766""
","
","","null","","null","","fixation","2021-08-11 20:20:15.542","","","","","",""
"card-selection-trial","99","392186","0.0-25.0-1.14","1089","false","img/card_backs/set1/purple.gif","img/card_backs/set1/green.gif","img/card_backs/set1/red.gif","img/card_backs/set1/yellow.gif","img/card_backs/set2/orange.gif","img/card_backs/set2/pink.gif","img/card_backs/set2/gray.gif","img/card_backs/set2/blue.gif","""event"",""trial"",""time""
""blur"",""0"",""0""
""focus"",""1"",""3615""
""fullscreenenter"",""1"",""3766""
","""event"",""trial"",""time""
""blur"",""0"",""0""
","""event"",""trial"",""time""
""focus"",""1"",""3615""
","""event"",""trial"",""time""
""fullscreenenter"",""1"",""3766""
","
","","1182.4000000953674","","","","real_trial","2021-08-11 20:20:18.736","img/card_backs/set1/red.gif","1","-60","1","",""
"casino-fixation","100","392688","0.0-25.0-0.15","1089","false","img/card_backs/set1/purple.gif","img/card_backs/set1/green.gif","img/card_backs/set1/red.gif","img/card_backs/set1/yellow.gif","img/card_backs/set2/orange.gif","img/card_backs/set2/pink.gif","img/card_backs/set2/gray.gif","img/card_backs/set2/blue.gif","""event"",""trial"",""time""
""blur"",""0"",""0""
""focus"",""1"",""3615""
""fullscreenenter"",""1"",""3766""
","""event"",""trial"",""time""
""blur"",""0"",""0""
","""event"",""trial"",""time""
""focus"",""1"",""3615""
","""event"",""trial"",""time""
""fullscreenenter"",""1"",""3766""
","
","","null","","null","","fixation","2021-08-11 20:20:19.237","","","","","",""
"card-selection-trial","101","395747","0.0-25.0-1.15","1089","false","img/card_backs/set1/purple.gif","img/card_backs/set1/green.gif","img/card_backs/set1/red.gif","img/card_backs/set1/yellow.gif","img/card_backs/set2/orange.gif","img/card_backs/set2/pink.gif","img/card_backs/set2/gray.gif","img/card_backs/set2/blue.gif","""event"",""trial"",""time""
""blur"",""0"",""0""
""focus"",""1"",""3615""
""fullscreenenter"",""1"",""3766""
","""event"",""trial"",""time""
""blur"",""0"",""0""
","""event"",""trial"",""time""
""focus"",""1"",""3615""
","""event"",""trial"",""time""
""fullscreenenter"",""1"",""3766""
","
","","1053.7999997138977","","","","real_trial","2021-08-11 20:20:22.296","img/card_backs/set1/green.gif","2","190","1","",""
"casino-fixation","102","396249","0.0-25.0-0.16","1089","false","img/card_backs/set1/purple.gif","img/card_backs/set1/green.gif","img/card_backs/set1/red.gif","img/card_backs/set1/yellow.gif","img/card_backs/set2/orange.gif","img/card_backs/set2/pink.gif","img/card_backs/set2/gray.gif","img/card_backs/set2/blue.gif","""event"",""trial"",""time""
""blur"",""0"",""0""
""focus"",""1"",""3615""
""fullscreenenter"",""1"",""3766""
","""event"",""trial"",""time""
""blur"",""0"",""0""
","""event"",""trial"",""time""
""focus"",""1"",""3615""
","""event"",""trial"",""time""
""fullscreenenter"",""1"",""3766""
","
","","null","","null","","fixation","2021-08-11 20:20:22.798","","","","","",""
"card-selection-trial","103","401190","0.0-25.0-1.16","1089","false","img/card_backs/set1/purple.gif","img/card_backs/set1/green.gif","img/card_backs/set1/red.gif","img/card_backs/set1/yellow.gif","img/card_backs/set2/orange.gif","img/card_backs/set2/pink.gif","img/card_backs/set2/gray.gif","img/card_backs/set2/blue.gif","""event"",""trial"",""time""
""blur"",""0"",""0""
""focus"",""1"",""3615""
""fullscreenenter"",""1"",""3766""
","""event"",""trial"",""time""
""blur"",""0"",""0""
","""event"",""trial"",""time""
""focus"",""1"",""3615""
","""event"",""trial"",""time""
""fullscreenenter"",""1"",""3766""
","
","","2935.0999999046326","","","","real_trial","2021-08-11 20:20:27.739","img/card_backs/set1/red.gif","1","100","1","",""
"casino-fixation","104","401693","0.0-25.0-0.17","1089","false","img/card_backs/set1/purple.gif","img/card_backs/set1/green.gif","img/card_backs/set1/red.gif","img/card_backs/set1/yellow.gif","img/card_backs/set2/orange.gif","img/card_backs/set2/pink.gif","img/card_backs/set2/gray.gif","img/card_backs/set2/blue.gif","""event"",""trial"",""time""
""blur"",""0"",""0""
""focus"",""1"",""3615""
""fullscreenenter"",""1"",""3766""
","""event"",""trial"",""time""
""blur"",""0"",""0""
","""event"",""trial"",""time""
""focus"",""1"",""3615""
","""event"",""trial"",""time""
""fullscreenenter"",""1"",""3766""
","
","","null","","null","","fixation","2021-08-11 20:20:28.242","","","","","",""
"card-selection-trial","105","406549","0.0-25.0-1.17","1089","false","img/card_backs/set1/purple.gif","img/card_backs/set1/green.gif","img/card_backs/set1/red.gif","img/card_backs/set1/yellow.gif","img/card_backs/set2/orange.gif","img/card_backs/set2/pink.gif","img/card_backs/set2/gray.gif","img/card_backs/set2/blue.gif","""event"",""trial"",""time""
""blur"",""0"",""0""
""focus"",""1"",""3615""
""fullscreenenter"",""1"",""3766""
","""event"",""trial"",""time""
""blur"",""0"",""0""
","""event"",""trial"",""time""
""focus"",""1"",""3615""
","""event"",""trial"",""time""
""fullscreenenter"",""1"",""3766""
","
","","2846.800000190735","","","","real_trial","2021-08-11 20:20:33.098","img/card_backs/set1/green.gif","1","-230","1","",""
"casino-fixation","106","407054","0.0-25.0-0.18","1089","false","img/card_backs/set1/purple.gif","img/card_backs/set1/green.gif","img/card_backs/set1/red.gif","img/card_backs/set1/yellow.gif","img/card_backs/set2/orange.gif","img/card_backs/set2/pink.gif","img/card_backs/set2/gray.gif","img/card_backs/set2/blue.gif","""event"",""trial"",""time""
""blur"",""0"",""0""
""focus"",""1"",""3615""
""fullscreenenter"",""1"",""3766""
","""event"",""trial"",""time""
""blur"",""0"",""0""
","""event"",""trial"",""time""
""focus"",""1"",""3615""
","""event"",""trial"",""time""
""fullscreenenter"",""1"",""3766""
","
","","null","","null","","fixation","2021-08-11 20:20:33.603","","","","","",""
"card-selection-trial","107","410669","0.0-25.0-1.18","1089","false","img/card_backs/set1/purple.gif","img/card_backs/set1/green.gif","img/card_backs/set1/red.gif","img/card_backs/set1/yellow.gif","img/card_backs/set2/orange.gif","img/card_backs/set2/pink.gif","img/card_backs/set2/gray.gif","img/card_backs/set2/blue.gif","""event"",""trial"",""time""
""blur"",""0"",""0""
""focus"",""1"",""3615""
""fullscreenenter"",""1"",""3766""
","""event"",""trial"",""time""
""blur"",""0"",""0""
","""event"",""trial"",""time""
""focus"",""1"",""3615""
","""event"",""trial"",""time""
""fullscreenenter"",""1"",""3766""
","
","","1603.9000000953674","","","","real_trial","2021-08-11 20:20:37.218","img/card_backs/set1/purple.gif","0","200","1","",""
"casino-fixation","108","411173","0.0-25.0-0.19","1089","false","img/card_backs/set1/purple.gif","img/card_backs/set1/green.gif","img/card_backs/set1/red.gif","img/card_backs/set1/yellow.gif","img/card_backs/set2/orange.gif","img/card_backs/set2/pink.gif","img/card_backs/set2/gray.gif","img/card_backs/set2/blue.gif","""event"",""trial"",""time""
""blur"",""0"",""0""
""focus"",""1"",""3615""
""fullscreenenter"",""1"",""3766""
","""event"",""trial"",""time""
""blur"",""0"",""0""
","""event"",""trial"",""time""
""focus"",""1"",""3615""
","""event"",""trial"",""time""
""fullscreenenter"",""1"",""3766""
","
","","null","","null","","fixation","2021-08-11 20:20:37.722","","","","","",""
"card-selection-trial","109","414358","0.0-25.0-1.19","1089","false","img/card_backs/set1/purple.gif","img/card_backs/set1/green.gif","img/card_backs/set1/red.gif","img/card_backs/set1/yellow.gif","img/card_backs/set2/orange.gif","img/card_backs/set2/pink.gif","img/card_backs/set2/gray.gif","img/card_backs/set2/blue.gif","""event"",""trial"",""time""
""blur"",""0"",""0""
""focus"",""1"",""3615""
""fullscreenenter"",""1"",""3766""
","""event"",""trial"",""time""
""blur"",""0"",""0""
","""event"",""trial"",""time""
""focus"",""1"",""3615""
","""event"",""trial"",""time""
""fullscreenenter"",""1"",""3766""
","
","","1173.5","","","","real_trial","2021-08-11 20:20:40.907","img/card_backs/set1/purple.gif","1","180","1","",""
"casino-fixation","110","414861","0.0-25.0-0.20","1089","false","img/card_backs/set1/purple.gif","img/card_backs/set1/green.gif","img/card_backs/set1/red.gif","img/card_backs/set1/yellow.gif","img/card_backs/set2/orange.gif","img/card_backs/set2/pink.gif","img/card_backs/set2/gray.gif","img/card_backs/set2/blue.gif","""event"",""trial"",""time""
""blur"",""0"",""0""
""focus"",""1"",""3615""
""fullscreenenter"",""1"",""3766""
","""event"",""trial"",""time""
""blur"",""0"",""0""
","""event"",""trial"",""time""
""focus"",""1"",""3615""
","""event"",""trial"",""time""
""fullscreenenter"",""1"",""3766""
","
","","null","","null","","fixation","2021-08-11 20:20:41.410","","","","","",""
"card-selection-trial","111","418108","0.0-25.0-1.20","1089","false","img/card_backs/set1/purple.gif","img/card_backs/set1/green.gif","img/card_backs/set1/red.gif","img/card_backs/set1/yellow.gif","img/card_backs/set2/orange.gif","img/card_backs/set2/pink.gif","img/card_backs/set2/gray.gif","img/card_backs/set2/blue.gif","""event"",""trial"",""time""
""blur"",""0"",""0""
""focus"",""1"",""3615""
""fullscreenenter"",""1"",""3766""
","""event"",""trial"",""time""
""blur"",""0"",""0""
","""event"",""trial"",""time""
""focus"",""1"",""3615""
","""event"",""trial"",""time""
""fullscreenenter"",""1"",""3766""
","
","","1236.5","","","","real_trial","2021-08-11 20:20:44.657","img/card_backs/set1/purple.gif","3","180","1","",""
"casino-fixation","112","418612","0.0-25.0-0.21","1089","false","img/card_backs/set1/purple.gif","img/card_backs/set1/green.gif","img/card_backs/set1/red.gif","img/card_backs/set1/yellow.gif","img/card_backs/set2/orange.gif","img/card_backs/set2/pink.gif","img/card_backs/set2/gray.gif","img/card_backs/set2/blue.gif","""event"",""trial"",""time""
""blur"",""0"",""0""
""focus"",""1"",""3615""
""fullscreenenter"",""1"",""3766""
","""event"",""trial"",""time""
""blur"",""0"",""0""
","""event"",""trial"",""time""
""focus"",""1"",""3615""
","""event"",""trial"",""time""
""fullscreenenter"",""1"",""3766""
","
","","null","","null","","fixation","2021-08-11 20:20:45.161","","","","","",""
"card-selection-trial","113","422284","0.0-25.0-1.21","1089","false","img/card_backs/set1/purple.gif","img/card_backs/set1/green.gif","img/card_backs/set1/red.gif","img/card_backs/set1/yellow.gif","img/card_backs/set2/orange.gif","img/card_backs/set2/pink.gif","img/card_backs/set2/gray.gif","img/card_backs/set2/blue.gif","""event"",""trial"",""time""
""blur"",""0"",""0""
""focus"",""1"",""3615""
""fullscreenenter"",""1"",""3766""
","""event"",""trial"",""time""
""blur"",""0"",""0""
","""event"",""trial"",""time""
""focus"",""1"",""3615""
","""event"",""trial"",""time""
""fullscreenenter"",""1"",""3766""
","
","","1666.5999999046326","","","","real_trial","2021-08-11 20:20:48.833","img/card_backs/set1/purple.gif","1","-240","1","",""
"casino-fixation","114","422787","0.0-25.0-0.22","1089","false","img/card_backs/set1/purple.gif","img/card_backs/set1/green.gif","img/card_backs/set1/red.gif","img/card_backs/set1/yellow.gif","img/card_backs/set2/orange.gif","img/card_backs/set2/pink.gif","img/card_backs/set2/gray.gif","img/card_backs/set2/blue.gif","""event"",""trial"",""time""
""blur"",""0"",""0""
""focus"",""1"",""3615""
""fullscreenenter"",""1"",""3766""
","""event"",""trial"",""time""
""blur"",""0"",""0""
","""event"",""trial"",""time""
""focus"",""1"",""3615""
","""event"",""trial"",""time""
""fullscreenenter"",""1"",""3766""
","
","","null","","null","","fixation","2021-08-11 20:20:49.336","","","","","",""
"card-selection-trial","115","426573","0.0-25.0-1.22","1089","false","img/card_backs/set1/purple.gif","img/card_backs/set1/green.gif","img/card_backs/set1/red.gif","img/card_backs/set1/yellow.gif","img/card_backs/set2/orange.gif","img/card_backs/set2/pink.gif","img/card_backs/set2/gray.gif","img/card_backs/set2/blue.gif","""event"",""trial"",""time""
""blur"",""0"",""0""
""focus"",""1"",""3615""
""fullscreenenter"",""1"",""3766""
","""event"",""trial"",""time""
""blur"",""0"",""0""
","""event"",""trial"",""time""
""focus"",""1"",""3615""
","""event"",""trial"",""time""
""fullscreenenter"",""1"",""3766""
","
","","1776","","","","real_trial","2021-08-11 20:20:53.122","img/card_backs/set1/purple.gif","3","-240","1","",""
"casino-fixation","116","427076","0.0-25.0-0.23","1089","false","img/card_backs/set1/purple.gif","img/card_backs/set1/green.gif","img/card_backs/set1/red.gif","img/card_backs/set1/yellow.gif","img/card_backs/set2/orange.gif","img/card_backs/set2/pink.gif","img/card_backs/set2/gray.gif","img/card_backs/set2/blue.gif","""event"",""trial"",""time""
""blur"",""0"",""0""
""focus"",""1"",""3615""
""fullscreenenter"",""1"",""3766""
","""event"",""trial"",""time""
""blur"",""0"",""0""
","""event"",""trial"",""time""
""focus"",""1"",""3615""
","""event"",""trial"",""time""
""fullscreenenter"",""1"",""3766""
","
","","null","","null","","fixation","2021-08-11 20:20:53.625","","","","","",""
"card-selection-trial","117","429885","0.0-25.0-1.23","1089","false","img/card_backs/set1/purple.gif","img/card_backs/set1/green.gif","img/card_backs/set1/red.gif","img/card_backs/set1/yellow.gif","img/card_backs/set2/orange.gif","img/card_backs/set2/pink.gif","img/card_backs/set2/gray.gif","img/card_backs/set2/blue.gif","""event"",""trial"",""time""
""blur"",""0"",""0""
""focus"",""1"",""3615""
""fullscreenenter"",""1"",""3766""
","""event"",""trial"",""time""
""blur"",""0"",""0""
","""event"",""trial"",""time""
""focus"",""1"",""3615""
","""event"",""trial"",""time""
""fullscreenenter"",""1"",""3766""
","
","","798","","","","real_trial","2021-08-11 20:20:56.434","img/card_backs/set1/purple.gif","3","200","1","",""
"casino-fixation","118","430386","0.0-25.0-0.24","1089","false","img/card_backs/set1/purple.gif","img/card_backs/set1/green.gif","img/card_backs/set1/red.gif","img/card_backs/set1/yellow.gif","img/card_backs/set2/orange.gif","img/card_backs/set2/pink.gif","img/card_backs/set2/gray.gif","img/card_backs/set2/blue.gif","""event"",""trial"",""time""
""blur"",""0"",""0""
""focus"",""1"",""3615""
""fullscreenenter"",""1"",""3766""
","""event"",""trial"",""time""
""blur"",""0"",""0""
","""event"",""trial"",""time""
""focus"",""1"",""3615""
","""event"",""trial"",""time""
""fullscreenenter"",""1"",""3766""
","
","","null","","null","","fixation","2021-08-11 20:20:56.936","","","","","",""
"card-selection-trial","119","433468","0.0-25.0-1.24","1089","false","img/card_backs/set1/purple.gif","img/card_backs/set1/green.gif","img/card_backs/set1/red.gif","img/card_backs/set1/yellow.gif","img/card_backs/set2/orange.gif","img/card_backs/set2/pink.gif","img/card_backs/set2/gray.gif","img/card_backs/set2/blue.gif","""event"",""trial"",""time""
""blur"",""0"",""0""
""focus"",""1"",""3615""
""fullscreenenter"",""1"",""3766""
","""event"",""trial"",""time""
""blur"",""0"",""0""
","""event"",""trial"",""time""
""focus"",""1"",""3615""
","""event"",""trial"",""time""
""fullscreenenter"",""1"",""3766""
","
","","1074.3000001907349","","","","real_trial","2021-08-11 20:21:00.017","img/card_backs/set1/purple.gif","0","-250","1","",""
"casino-fixation","120","433970","0.0-25.0-0.25","1089","false","img/card_backs/set1/purple.gif","img/card_backs/set1/green.gif","img/card_backs/set1/red.gif","img/card_backs/set1/yellow.gif","img/card_backs/set2/orange.gif","img/card_backs/set2/pink.gif","img/card_backs/set2/gray.gif","img/card_backs/set2/blue.gif","""event"",""trial"",""time""
""blur"",""0"",""0""
""focus"",""1"",""3615""
""fullscreenenter"",""1"",""3766""
","""event"",""trial"",""time""
""blur"",""0"",""0""
","""event"",""trial"",""time""
""focus"",""1"",""3615""
","""event"",""trial"",""time""
""fullscreenenter"",""1"",""3766""
","
","","null","","null","","fixation","2021-08-11 20:21:00.519","","","","","",""
"card-selection-trial","121","438124","0.0-25.0-1.25","1089","false","img/card_backs/set1/purple.gif","img/card_backs/set1/green.gif","img/card_backs/set1/red.gif","img/card_backs/set1/yellow.gif","img/card_backs/set2/orange.gif","img/card_backs/set2/pink.gif","img/card_backs/set2/gray.gif","img/card_backs/set2/blue.gif","""event"",""trial"",""time""
""blur"",""0"",""0""
""focus"",""1"",""3615""
""fullscreenenter"",""1"",""3766""
","""event"",""trial"",""time""
""blur"",""0"",""0""
","""event"",""trial"",""time""
""focus"",""1"",""3615""
","""event"",""trial"",""time""
""fullscreenenter"",""1"",""3766""
","
","","2140.9000000953674","","","","real_trial","2021-08-11 20:21:04.673","img/card_backs/set1/green.gif","0","190","1","",""
"casino-fixation","122","438627","0.0-25.0-0.26","1089","false","img/card_backs/set1/purple.gif","img/card_backs/set1/green.gif","img/card_backs/set1/red.gif","img/card_backs/set1/yellow.gif","img/card_backs/set2/orange.gif","img/card_backs/set2/pink.gif","img/card_backs/set2/gray.gif","img/card_backs/set2/blue.gif","""event"",""trial"",""time""
""blur"",""0"",""0""
""focus"",""1"",""3615""
""fullscreenenter"",""1"",""3766""
","""event"",""trial"",""time""
""blur"",""0"",""0""
","""event"",""trial"",""time""
""focus"",""1"",""3615""
","""event"",""trial"",""time""
""fullscreenenter"",""1"",""3766""
","
","","null","","null","","fixation","2021-08-11 20:21:05.176","","","","","",""
"card-selection-trial","123","442062","0.0-25.0-1.26","1089","false","img/card_backs/set1/purple.gif","img/card_backs/set1/green.gif","img/card_backs/set1/red.gif","img/card_backs/set1/yellow.gif","img/card_backs/set2/orange.gif","img/card_backs/set2/pink.gif","img/card_backs/set2/gray.gif","img/card_backs/set2/blue.gif","""event"",""trial"",""time""
""blur"",""0"",""0""
""focus"",""1"",""3615""
""fullscreenenter"",""1"",""3766""
","""event"",""trial"",""time""
""blur"",""0"",""0""
","""event"",""trial"",""time""
""focus"",""1"",""3615""
","""event"",""trial"",""time""
""fullscreenenter"",""1"",""3766""
","
","","1420.4000000953674","","","","real_trial","2021-08-11 20:21:08.611","img/card_backs/set1/purple.gif","1","180","1","",""
"casino-fixation","124","442565","0.0-25.0-0.27","1089","false","img/card_backs/set1/purple.gif","img/card_backs/set1/green.gif","img/card_backs/set1/red.gif","img/card_backs/set1/yellow.gif","img/card_backs/set2/orange.gif","img/card_backs/set2/pink.gif","img/card_backs/set2/gray.gif","img/card_backs/set2/blue.gif","""event"",""trial"",""time""
""blur"",""0"",""0""
""focus"",""1"",""3615""
""fullscreenenter"",""1"",""3766""
","""event"",""trial"",""time""
""blur"",""0"",""0""
","""event"",""trial"",""time""
""focus"",""1"",""3615""
","""event"",""trial"",""time""
""fullscreenenter"",""1"",""3766""
","
","","null","","null","","fixation","2021-08-11 20:21:09.114","","","","","",""
"card-selection-trial","125","446383","0.0-25.0-1.27","1089","false","img/card_backs/set1/purple.gif","img/card_backs/set1/green.gif","img/card_backs/set1/red.gif","img/card_backs/set1/yellow.gif","img/card_backs/set2/orange.gif","img/card_backs/set2/pink.gif","img/card_backs/set2/gray.gif","img/card_backs/set2/blue.gif","""event"",""trial"",""time""
""blur"",""0"",""0""
""focus"",""1"",""3615""
""fullscreenenter"",""1"",""3766""
","""event"",""trial"",""time""
""blur"",""0"",""0""
","""event"",""trial"",""time""
""focus"",""1"",""3615""
","""event"",""trial"",""time""
""fullscreenenter"",""1"",""3766""
","
","","1807.4000000953674","","","","real_trial","2021-08-11 20:21:12.932","img/card_backs/set1/green.gif","3","-230","1","",""
"casino-fixation","126","446886","0.0-25.0-0.28","1089","false","img/card_backs/set1/purple.gif","img/card_backs/set1/green.gif","img/card_backs/set1/red.gif","img/card_backs/set1/yellow.gif","img/card_backs/set2/orange.gif","img/card_backs/set2/pink.gif","img/card_backs/set2/gray.gif","img/card_backs/set2/blue.gif","""event"",""trial"",""time""
""blur"",""0"",""0""
""focus"",""1"",""3615""
""fullscreenenter"",""1"",""3766""
","""event"",""trial"",""time""
""blur"",""0"",""0""
","""event"",""trial"",""time""
""focus"",""1"",""3615""
","""event"",""trial"",""time""
""fullscreenenter"",""1"",""3766""
","
","","null","","null","","fixation","2021-08-11 20:21:13.435","","","","","",""
"card-selection-trial","127","450118","0.0-25.0-1.28","1089","false","img/card_backs/set1/purple.gif","img/card_backs/set1/green.gif","img/card_backs/set1/red.gif","img/card_backs/set1/yellow.gif","img/card_backs/set2/orange.gif","img/card_backs/set2/pink.gif","img/card_backs/set2/gray.gif","img/card_backs/set2/blue.gif","""event"",""trial"",""time""
""blur"",""0"",""0""
""focus"",""1"",""3615""
""fullscreenenter"",""1"",""3766""
","""event"",""trial"",""time""
""blur"",""0"",""0""
","""event"",""trial"",""time""
""focus"",""1"",""3615""
","""event"",""trial"",""time""
""fullscreenenter"",""1"",""3766""
","
","","1221","","","","real_trial","2021-08-11 20:21:16.667","img/card_backs/set1/purple.gif","2","190","1","",""
"casino-fixation","128","450620","0.0-25.0-0.29","1089","false","img/card_backs/set1/purple.gif","img/card_backs/set1/green.gif","img/card_backs/set1/red.gif","img/card_backs/set1/yellow.gif","img/card_backs/set2/orange.gif","img/card_backs/set2/pink.gif","img/card_backs/set2/gray.gif","img/card_backs/set2/blue.gif","""event"",""trial"",""time""
""blur"",""0"",""0""
""focus"",""1"",""3615""
""fullscreenenter"",""1"",""3766""
","""event"",""trial"",""time""
""blur"",""0"",""0""
","""event"",""trial"",""time""
""focus"",""1"",""3615""
","""event"",""trial"",""time""
""fullscreenenter"",""1"",""3766""
","
","","null","","null","","fixation","2021-08-11 20:21:17.169","","","","","",""
"card-selection-trial","129","453382","0.0-25.0-1.29","1089","false","img/card_backs/set1/purple.gif","img/card_backs/set1/green.gif","img/card_backs/set1/red.gif","img/card_backs/set1/yellow.gif","img/card_backs/set2/orange.gif","img/card_backs/set2/pink.gif","img/card_backs/set2/gray.gif","img/card_backs/set2/blue.gif","""event"",""trial"",""time""
""blur"",""0"",""0""
""focus"",""1"",""3615""
""fullscreenenter"",""1"",""3766""
","""event"",""trial"",""time""
""blur"",""0"",""0""
","""event"",""trial"",""time""
""focus"",""1"",""3615""
","""event"",""trial"",""time""
""fullscreenenter"",""1"",""3766""
","
","","750.9000000953674","","","","real_trial","2021-08-11 20:21:19.931","img/card_backs/set1/purple.gif","3","-230","1","",""
"casino-fixation","130","453885","0.0-25.0-0.30","1089","false","img/card_backs/set1/purple.gif","img/card_backs/set1/green.gif","img/card_backs/set1/red.gif","img/card_backs/set1/yellow.gif","img/card_backs/set2/orange.gif","img/card_backs/set2/pink.gif","img/card_backs/set2/gray.gif","img/card_backs/set2/blue.gif","""event"",""trial"",""time""
""blur"",""0"",""0""
""focus"",""1"",""3615""
""fullscreenenter"",""1"",""3766""
","""event"",""trial"",""time""
""blur"",""0"",""0""
","""event"",""trial"",""time""
""focus"",""1"",""3615""
","""event"",""trial"",""time""
""fullscreenenter"",""1"",""3766""
","
","","null","","null","","fixation","2021-08-11 20:21:20.434","","","","","",""
"card-selection-trial","131","456916","0.0-25.0-1.30","1089","false","img/card_backs/set1/purple.gif","img/card_backs/set1/green.gif","img/card_backs/set1/red.gif","img/card_backs/set1/yellow.gif","img/card_backs/set2/orange.gif","img/card_backs/set2/pink.gif","img/card_backs/set2/gray.gif","img/card_backs/set2/blue.gif","""event"",""trial"",""time""
""blur"",""0"",""0""
""focus"",""1"",""3615""
""fullscreenenter"",""1"",""3766""
","""event"",""trial"",""time""
""blur"",""0"",""0""
","""event"",""trial"",""time""
""focus"",""1"",""3615""
","""event"",""trial"",""time""
""fullscreenenter"",""1"",""3766""
","
","","1020.6999998092651","","","","real_trial","2021-08-11 20:21:23.465","img/card_backs/set1/purple.gif","2","190","1","",""
