"trial_type","trial_index","time_elapsed","internal_node_id","sub_id","risk_good_first","block1_A","block1_B","block1_C","block1_D","block2_A","block2_B","block2_C","block2_D","interactions","blur_events","focus_events","fullscreenenter_events","fullscreenexit_events","success","rt","stimulus","key_press","button_pressed","task_part","timestamp","card_choice","choice_position","points_earned","block","correct","response"
"pavlovia","0","3","0.0-0.0","188","true","img/card_backs/set1/yellow.gif","img/card_backs/set1/red.gif","img/card_backs/set1/green.gif","img/card_backs/set1/purple.gif","img/card_backs/set2/orange.gif","img/card_backs/set2/gray.gif","img/card_backs/set2/pink.gif","img/card_backs/set2/blue.gif","""event"",""trial"",""time""
""fullscreenenter"",""1"",""6998""
","
","
","""event"",""trial"",""time""
""fullscreenenter"",""1"",""6998""
","
","","","","","","","","","","","","",""
"fullscreen","1","7976","0.0-1.0","188","true","img/card_backs/set1/yellow.gif","img/card_backs/set1/red.gif","img/card_backs/set1/green.gif","img/card_backs/set1/purple.gif","img/card_backs/set2/orange.gif","img/card_backs/set2/gray.gif","img/card_backs/set2/pink.gif","img/card_backs/set2/blue.gif","""event"",""trial"",""time""
""fullscreenenter"",""1"",""6998""
","
","
","""event"",""trial"",""time""
""fullscreenenter"",""1"",""6998""
","
","true","","","","","","","","","","","",""
"audio-keyboard-response","2","11004","0.0-2.0","188","true","img/card_backs/set1/yellow.gif","img/card_backs/set1/red.gif","img/card_backs/set1/green.gif","img/card_backs/set1/purple.gif","img/card_backs/set2/orange.gif","img/card_backs/set2/gray.gif","img/card_backs/set2/pink.gif","img/card_backs/set2/blue.gif","""event"",""trial"",""time""
""fullscreenenter"",""1"",""6998""
","
","
","""event"",""trial"",""time""
""fullscreenenter"",""1"",""6998""
","
","","2467","audio/beep_loop.wav","32","","","","","","","","",""
"audio-button-response","3","14168","0.0-3.0","188","true","img/card_backs/set1/yellow.gif","img/card_backs/set1/red.gif","img/card_backs/set1/green.gif","img/card_backs/set1/purple.gif","img/card_backs/set2/orange.gif","img/card_backs/set2/gray.gif","img/card_backs/set2/pink.gif","img/card_backs/set2/blue.gif","""event"",""trial"",""time""
""fullscreenenter"",""1"",""6998""
","
","
","""event"",""trial"",""time""
""fullscreenenter"",""1"",""6998""
","
","","NaN","audio/turtle.mp3","","3","","","","","","","",""
"audio-button-response","4","16753","0.0-4.0","188","true","img/card_backs/set1/yellow.gif","img/card_backs/set1/red.gif","img/card_backs/set1/green.gif","img/card_backs/set1/purple.gif","img/card_backs/set2/orange.gif","img/card_backs/set2/gray.gif","img/card_backs/set2/pink.gif","img/card_backs/set2/blue.gif","""event"",""trial"",""time""
""fullscreenenter"",""1"",""6998""
","
","
","""event"",""trial"",""time""
""fullscreenenter"",""1"",""6998""
","
","","NaN","audio/shark.mp3","","2","","","","","","","",""
"fullscreen","5","20422","0.0-5.0","188","true","img/card_backs/set1/yellow.gif","img/card_backs/set1/red.gif","img/card_backs/set1/green.gif","img/card_backs/set1/purple.gif","img/card_backs/set2/orange.gif","img/card_backs/set2/gray.gif","img/card_backs/set2/pink.gif","img/card_backs/set2/blue.gif","""event"",""trial"",""time""
""fullscreenenter"",""1"",""6998""
","
","
","""event"",""trial"",""time""
""fullscreenenter"",""1"",""6998""
","
","true","","","","","","","","","","","",""
"casino-keyboard-response","6","23482","0.0-6.0-0.0","188","true","img/card_backs/set1/yellow.gif","img/card_backs/set1/red.gif","img/card_backs/set1/green.gif","img/card_backs/set1/purple.gif","img/card_backs/set2/orange.gif","img/card_backs/set2/gray.gif","img/card_backs/set2/pink.gif","img/card_backs/set2/blue.gif","""event"",""trial"",""time""
""fullscreenenter"",""1"",""6998""
","
","
","""event"",""trial"",""time""
""fullscreenenter"",""1"",""6998""
","
","","3056.764999986626","Welcome to the casino!","71","","instructions","2021-04-16 17:42:34.093","","","","","",""
"casino-keyboard-response","7","33382","0.0-6.0-0.1","188","true","img/card_backs/set1/yellow.gif","img/card_backs/set1/red.gif","img/card_backs/set1/green.gif","img/card_backs/set1/purple.gif","img/card_backs/set2/orange.gif","img/card_backs/set2/gray.gif","img/card_backs/set2/pink.gif","img/card_backs/set2/blue.gif","""event"",""trial"",""time""
""fullscreenenter"",""1"",""6998""
","
","
","""event"",""trial"",""time""
""fullscreenenter"",""1"",""6998""
","
","","9897.620000061579","Today you will be playing a game to earn tokens. </br> At the end of the experiment, you will be paid a bonus based on how many tokens you win. ","69","","instructions","2021-04-16 17:42:43.992","","","","","",""
"casino-keyboard-response","8","40802","0.0-6.0-0.2","188","true","img/card_backs/set1/yellow.gif","img/card_backs/set1/red.gif","img/card_backs/set1/green.gif","img/card_backs/set1/purple.gif","img/card_backs/set2/orange.gif","img/card_backs/set2/gray.gif","img/card_backs/set2/pink.gif","img/card_backs/set2/blue.gif","""event"",""trial"",""time""
""fullscreenenter"",""1"",""6998""
","
","
","""event"",""trial"",""time""
""fullscreenenter"",""1"",""6998""
","
","","7418.470000033267","On every turn, you will be shown four different decks of cards. </br> You need to select a card from one of the four decks.  ","75","","instructions","2021-04-16 17:42:51.412","","","","","",""
"casino-keyboard-response","9","46936","0.0-6.0-0.3","188","true","img/card_backs/set1/yellow.gif","img/card_backs/set1/red.gif","img/card_backs/set1/green.gif","img/card_backs/set1/purple.gif","img/card_backs/set2/orange.gif","img/card_backs/set2/gray.gif","img/card_backs/set2/pink.gif","img/card_backs/set2/blue.gif","""event"",""trial"",""time""
""fullscreenenter"",""1"",""6998""
","
","
","""event"",""trial"",""time""
""fullscreenenter"",""1"",""6998""
","
","","6133.020000066608","On the next screen, you will see what the decks will look like. ","66","","instructions","2021-04-16 17:42:57.546","","","","","",""
"card-selection-trial","10","50940","0.0-7.0-0.0","188","true","img/card_backs/set1/yellow.gif","img/card_backs/set1/red.gif","img/card_backs/set1/green.gif","img/card_backs/set1/purple.gif","img/card_backs/set2/orange.gif","img/card_backs/set2/gray.gif","img/card_backs/set2/pink.gif","img/card_backs/set2/blue.gif","""event"",""trial"",""time""
""fullscreenenter"",""1"",""6998""
","
","
","""event"",""trial"",""time""
""fullscreenenter"",""1"",""6998""
","
","","null","","","","practice","2021-04-16 17:43:01.550","null","null","null","0","",""
"casino-keyboard-response","11","59520","0.0-8.0-0.0","188","true","img/card_backs/set1/yellow.gif","img/card_backs/set1/red.gif","img/card_backs/set1/green.gif","img/card_backs/set1/purple.gif","img/card_backs/set2/orange.gif","img/card_backs/set2/gray.gif","img/card_backs/set2/pink.gif","img/card_backs/set2/blue.gif","""event"",""trial"",""time""
""fullscreenenter"",""1"",""6998""
","
","
","""event"",""trial"",""time""
""fullscreenenter"",""1"",""6998""
","
","","8577.839999925345","You should pick a card from a deck using the '2', '4', '6', and '8' keys at the top of the keyboard.","85","","instructions","2021-04-16 17:43:10.130","","","","","",""
"casino-keyboard-response","12","65033","0.0-8.0-0.1","188","true","img/card_backs/set1/yellow.gif","img/card_backs/set1/red.gif","img/card_backs/set1/green.gif","img/card_backs/set1/purple.gif","img/card_backs/set2/orange.gif","img/card_backs/set2/gray.gif","img/card_backs/set2/pink.gif","img/card_backs/set2/blue.gif","""event"",""trial"",""time""
""fullscreenenter"",""1"",""6998""
","
","
","""event"",""trial"",""time""
""fullscreenenter"",""1"",""6998""
","
","","5512.315000058152","Once you select a card, it will turn over and you will see how many tokens you earned.","83","","instructions","2021-04-16 17:43:15.643","","","","","",""
"casino-keyboard-response","13","79655","0.0-8.0-0.2","188","true","img/card_backs/set1/yellow.gif","img/card_backs/set1/red.gif","img/card_backs/set1/green.gif","img/card_backs/set1/purple.gif","img/card_backs/set2/orange.gif","img/card_backs/set2/gray.gif","img/card_backs/set2/pink.gif","img/card_backs/set2/blue.gif","""event"",""trial"",""time""
""fullscreenenter"",""1"",""6998""
","
","
","""event"",""trial"",""time""
""fullscreenenter"",""1"",""6998""
","
","","14620.104999979958","Let's try practicing that! </br> First, try to put your fingers over the '2', '4', '6', and '8' keys. </br>  You can use whatever fingers are most comfortable for you. Try to find a comfortable position now. ","50","","instructions","2021-04-16 17:43:30.265","","","","","",""
"casino-keyboard-response","14","85595","0.0-8.0-0.3","188","true","img/card_backs/set1/yellow.gif","img/card_backs/set1/red.gif","img/card_backs/set1/green.gif","img/card_backs/set1/purple.gif","img/card_backs/set2/orange.gif","img/card_backs/set2/gray.gif","img/card_backs/set2/pink.gif","img/card_backs/set2/blue.gif","""event"",""trial"",""time""
""fullscreenenter"",""1"",""6998""
","
","
","""event"",""trial"",""time""
""fullscreenenter"",""1"",""6998""
","
","","5938.345000031404","Okay ready? </br> On the next screen, press '2' to select the left deck. ","50","","instructions","2021-04-16 17:43:36.205","","","","","",""
"card-selection-trial","15","88405","0.0-9.0-0.0","188","true","img/card_backs/set1/yellow.gif","img/card_backs/set1/red.gif","img/card_backs/set1/green.gif","img/card_backs/set1/purple.gif","img/card_backs/set2/orange.gif","img/card_backs/set2/gray.gif","img/card_backs/set2/pink.gif","img/card_backs/set2/blue.gif","""event"",""trial"",""time""
""fullscreenenter"",""1"",""6998""
","
","
","""event"",""trial"",""time""
""fullscreenenter"",""1"",""6998""
","
","","797.4249999970198","","","","practice_card_selection","2021-04-16 17:43:39.015","img/practice_cards/backs/dark_green.gif","0","200","","",""
"casino-keyboard-response","16","94724","0.0-10.0-0.0","188","true","img/card_backs/set1/yellow.gif","img/card_backs/set1/red.gif","img/card_backs/set1/green.gif","img/card_backs/set1/purple.gif","img/card_backs/set2/orange.gif","img/card_backs/set2/gray.gif","img/card_backs/set2/pink.gif","img/card_backs/set2/blue.gif","""event"",""trial"",""time""
""fullscreenenter"",""1"",""6998""
","
","
","""event"",""trial"",""time""
""fullscreenenter"",""1"",""6998""
","
","","6316.720000002533","Great! Now on the next screen, try pressing '6' to select the third deck.","54","","instructions","2021-04-16 17:43:45.334","","","","","",""
"card-selection-trial","17","97395","0.0-11.0-0.0","188","true","img/card_backs/set1/yellow.gif","img/card_backs/set1/red.gif","img/card_backs/set1/green.gif","img/card_backs/set1/purple.gif","img/card_backs/set2/orange.gif","img/card_backs/set2/gray.gif","img/card_backs/set2/pink.gif","img/card_backs/set2/blue.gif","""event"",""trial"",""time""
""fullscreenenter"",""1"",""6998""
","
","
","""event"",""trial"",""time""
""fullscreenenter"",""1"",""6998""
","
","","664.2749999882653","","","","practice_card_selection","2021-04-16 17:43:48.005","img/practice_cards/backs/brown.gif","2","100","","",""
"casino-keyboard-response","18","104575","0.0-12.0-0.0","188","true","img/card_backs/set1/yellow.gif","img/card_backs/set1/red.gif","img/card_backs/set1/green.gif","img/card_backs/set1/purple.gif","img/card_backs/set2/orange.gif","img/card_backs/set2/gray.gif","img/card_backs/set2/pink.gif","img/card_backs/set2/blue.gif","""event"",""trial"",""time""
""fullscreenenter"",""1"",""6998""
","
","
","""event"",""trial"",""time""
""fullscreenenter"",""1"",""6998""
","
","","7178.474999964237","Now on the next screen, try pressing '4' to select the second deck.","52","","instructions","2021-04-16 17:43:55.185","","","","","",""
"card-selection-trial","19","107244","0.0-13.0-0.0","188","true","img/card_backs/set1/yellow.gif","img/card_backs/set1/red.gif","img/card_backs/set1/green.gif","img/card_backs/set1/purple.gif","img/card_backs/set2/orange.gif","img/card_backs/set2/gray.gif","img/card_backs/set2/pink.gif","img/card_backs/set2/blue.gif","""event"",""trial"",""time""
""fullscreenenter"",""1"",""6998""
","
","
","""event"",""trial"",""time""
""fullscreenenter"",""1"",""6998""
","
","","658.6200000019744","","","","practice_card_selection","2021-04-16 17:43:57.854","img/practice_cards/backs/brown.gif","1","100","","",""
"casino-keyboard-response","20","111877","0.0-14.0-0.0","188","true","img/card_backs/set1/yellow.gif","img/card_backs/set1/red.gif","img/card_backs/set1/green.gif","img/card_backs/set1/purple.gif","img/card_backs/set2/orange.gif","img/card_backs/set2/gray.gif","img/card_backs/set2/pink.gif","img/card_backs/set2/blue.gif","""event"",""trial"",""time""
""fullscreenenter"",""1"",""6998""
","
","
","""event"",""trial"",""time""
""fullscreenenter"",""1"",""6998""
","
","","4631.960000027902","Finally, try pressing '8' to select the deck all the way on the right.","56","","instructions","2021-04-16 17:44:02.487","","","","","",""
"card-selection-trial","21","114429","0.0-15.0-0.0","188","true","img/card_backs/set1/yellow.gif","img/card_backs/set1/red.gif","img/card_backs/set1/green.gif","img/card_backs/set1/purple.gif","img/card_backs/set2/orange.gif","img/card_backs/set2/gray.gif","img/card_backs/set2/pink.gif","img/card_backs/set2/blue.gif","""event"",""trial"",""time""
""fullscreenenter"",""1"",""6998""
","
","
","""event"",""trial"",""time""
""fullscreenenter"",""1"",""6998""
","
","","544.1000000573695","","","","practice_card_selection","2021-04-16 17:44:05.039","img/practice_cards/backs/dark_green.gif","3","200","","",""
"casino-keyboard-response","22","124005","0.0-16.0-0.0","188","true","img/card_backs/set1/yellow.gif","img/card_backs/set1/red.gif","img/card_backs/set1/green.gif","img/card_backs/set1/purple.gif","img/card_backs/set2/orange.gif","img/card_backs/set2/gray.gif","img/card_backs/set2/pink.gif","img/card_backs/set2/blue.gif","""event"",""trial"",""time""
""fullscreenenter"",""1"",""6998""
","
","
","""event"",""trial"",""time""
""fullscreenenter"",""1"",""6998""
","
","","9574.714999995194","Great! It seems like you are getting the hang of this.","80","","instructions","2021-04-16 17:44:14.615","","","","","",""
"casino-keyboard-response","23","132397","0.0-16.0-0.1","188","true","img/card_backs/set1/yellow.gif","img/card_backs/set1/red.gif","img/card_backs/set1/green.gif","img/card_backs/set1/purple.gif","img/card_backs/set2/orange.gif","img/card_backs/set2/gray.gif","img/card_backs/set2/pink.gif","img/card_backs/set2/blue.gif","""event"",""trial"",""time""
""fullscreenenter"",""1"",""6998""
","
","
","""event"",""trial"",""time""
""fullscreenenter"",""1"",""6998""
","
","","8390.184999909252","You may have noticed that some cards will cause you to <b> win </b> tokens while other cards will cause you to <b> lose </b>  tokens.","70","","instructions","2021-04-16 17:44:23.007","","","","","",""
"casino-keyboard-response","24","140767","0.0-16.0-0.2","188","true","img/card_backs/set1/yellow.gif","img/card_backs/set1/red.gif","img/card_backs/set1/green.gif","img/card_backs/set1/purple.gif","img/card_backs/set2/orange.gif","img/card_backs/set2/gray.gif","img/card_backs/set2/pink.gif","img/card_backs/set2/blue.gif","""event"",""trial"",""time""
""fullscreenenter"",""1"",""6998""
","
","
","""event"",""trial"",""time""
""fullscreenenter"",""1"",""6998""
","
","","8368.71000006795","Each deck has a mix of cards that will cause you to win and lose tokens. </br> However, the cards in each colored deck are different.","73","","instructions","2021-04-16 17:44:31.377","","","","","",""
"casino-keyboard-response","25","149289","0.0-16.0-0.3","188","true","img/card_backs/set1/yellow.gif","img/card_backs/set1/red.gif","img/card_backs/set1/green.gif","img/card_backs/set1/purple.gif","img/card_backs/set2/orange.gif","img/card_backs/set2/gray.gif","img/card_backs/set2/pink.gif","img/card_backs/set2/blue.gif","""event"",""trial"",""time""
""fullscreenenter"",""1"",""6998""
","
","
","""event"",""trial"",""time""
""fullscreenenter"",""1"",""6998""
","
","","8520.000000018626","Some colored decks are luckier than others. </br> If you choose the lucky decks, you will earn more tokens than if you choose the unlucky decks.","69","","instructions","2021-04-16 17:44:39.899","","","","","",""
"casino-keyboard-response","26","156908","0.0-16.0-0.4","188","true","img/card_backs/set1/yellow.gif","img/card_backs/set1/red.gif","img/card_backs/set1/green.gif","img/card_backs/set1/purple.gif","img/card_backs/set2/orange.gif","img/card_backs/set2/gray.gif","img/card_backs/set2/pink.gif","img/card_backs/set2/blue.gif","""event"",""trial"",""time""
""fullscreenenter"",""1"",""6998""
","
","
","""event"",""trial"",""time""
""fullscreenenter"",""1"",""6998""
","
","","7616.9450000161305","You should try to figure out which decks are lucky. </br> Then, try to choose the lucky decks so you can win the most tokens.","87","","instructions","2021-04-16 17:44:47.518","","","","","",""
"casino-keyboard-response","27","168526","0.0-16.0-0.5","188","true","img/card_backs/set1/yellow.gif","img/card_backs/set1/red.gif","img/card_backs/set1/green.gif","img/card_backs/set1/purple.gif","img/card_backs/set2/orange.gif","img/card_backs/set2/gray.gif","img/card_backs/set2/pink.gif","img/card_backs/set2/blue.gif","""event"",""trial"",""time""
""fullscreenenter"",""1"",""6998""
","
","
","""event"",""trial"",""time""
""fullscreenenter"",""1"",""6998""
","
","","11617.005000007339","To make it trickier, the casino dealer will switch the locations of the decks on every turn. </br> The color of the deck determines how lucky it is. The location does not matter.","88","","instructions","2021-04-16 17:44:59.136","","","","","",""
"casino-keyboard-response","28","191583","0.0-16.0-0.6","188","true","img/card_backs/set1/yellow.gif","img/card_backs/set1/red.gif","img/card_backs/set1/green.gif","img/card_backs/set1/purple.gif","img/card_backs/set2/orange.gif","img/card_backs/set2/gray.gif","img/card_backs/set2/pink.gif","img/card_backs/set2/blue.gif","""event"",""trial"",""time""
""fullscreenenter"",""1"",""6998""
","
","
","""event"",""trial"",""time""
""fullscreenenter"",""1"",""6998""
","
","","23054.57999999635","The mix of cards in each colored deck will stay the same throughout the game. </br> That means that a deck that is lucky early on will stay lucky.","79","","instructions","2021-04-16 17:45:22.193","","","","","",""
"casino-keyboard-response","29","200467","0.0-16.0-0.7","188","true","img/card_backs/set1/yellow.gif","img/card_backs/set1/red.gif","img/card_backs/set1/green.gif","img/card_backs/set1/purple.gif","img/card_backs/set2/orange.gif","img/card_backs/set2/gray.gif","img/card_backs/set2/pink.gif","img/card_backs/set2/blue.gif","""event"",""trial"",""time""
""fullscreenenter"",""1"",""6998""
","
","
","""event"",""trial"",""time""
""fullscreenenter"",""1"",""6998""
","
","","8882.02000001911","Remember though, all the decks have a <b> mix </b> of both <b> good </b> and <b> bad </b> cards so it may take a couple of turns to figure out if a deck is lucky.","69","","instructions","2021-04-16 17:45:31.077","","","","","",""
"casino-keyboard-response","30","208740","0.0-16.0-0.8","188","true","img/card_backs/set1/yellow.gif","img/card_backs/set1/red.gif","img/card_backs/set1/green.gif","img/card_backs/set1/purple.gif","img/card_backs/set2/orange.gif","img/card_backs/set2/gray.gif","img/card_backs/set2/pink.gif","img/card_backs/set2/blue.gif","""event"",""trial"",""time""
""fullscreenenter"",""1"",""6998""
","
","
","""event"",""trial"",""time""
""fullscreenenter"",""1"",""6998""
","
","","8271.824999945238","At the end of the game, you will be paid bonus money based on how many tokens you win. </br> If you win more tokens, you will earn more money!","72","","instructions","2021-04-16 17:45:39.350","","","","","",""
"casino-keyboard-response","31","219070","0.0-16.0-0.9","188","true","img/card_backs/set1/yellow.gif","img/card_backs/set1/red.gif","img/card_backs/set1/green.gif","img/card_backs/set1/purple.gif","img/card_backs/set2/orange.gif","img/card_backs/set2/gray.gif","img/card_backs/set2/pink.gif","img/card_backs/set2/blue.gif","""event"",""trial"",""time""
""fullscreenenter"",""1"",""6998""
","
","
","""event"",""trial"",""time""
""fullscreenenter"",""1"",""6998""
","
","","10327.855000039563","You will never <b> lose </b> money. </br> If you end up with fewer than 0 tokens, you will earn $0 of bonus money, but you will still be paid for playing the game.","83","","instructions","2021-04-16 17:45:49.680","","","","","",""
"casino-keyboard-response","32","223735","0.0-16.0-0.10","188","true","img/card_backs/set1/yellow.gif","img/card_backs/set1/red.gif","img/card_backs/set1/green.gif","img/card_backs/set1/purple.gif","img/card_backs/set2/orange.gif","img/card_backs/set2/gray.gif","img/card_backs/set2/pink.gif","img/card_backs/set2/blue.gif","""event"",""trial"",""time""
""fullscreenenter"",""1"",""6998""
","
","
","""event"",""trial"",""time""
""fullscreenenter"",""1"",""6998""
","
","","4662.089999997988","You will have 10 seconds to make each choice.","82","","instructions","2021-04-16 17:45:54.345","","","","","",""
"casino-keyboard-response","33","232066","0.0-16.0-0.11","188","true","img/card_backs/set1/yellow.gif","img/card_backs/set1/red.gif","img/card_backs/set1/green.gif","img/card_backs/set1/purple.gif","img/card_backs/set2/orange.gif","img/card_backs/set2/gray.gif","img/card_backs/set2/pink.gif","img/card_backs/set2/blue.gif","""event"",""trial"",""time""
""fullscreenenter"",""1"",""6998""
","
","
","""event"",""trial"",""time""
""fullscreenenter"",""1"",""6998""
","
","","8328.635000041686","Before you play the game for real, you will play with practice decks. </br> The tokens you earn during practice won't count toward your total.","86","","instructions","2021-04-16 17:46:02.676","","","","","",""
"casino-keyboard-response","34","240121","0.0-16.0-0.12","188","true","img/card_backs/set1/yellow.gif","img/card_backs/set1/red.gif","img/card_backs/set1/green.gif","img/card_backs/set1/purple.gif","img/card_backs/set2/orange.gif","img/card_backs/set2/gray.gif","img/card_backs/set2/pink.gif","img/card_backs/set2/blue.gif","""event"",""trial"",""time""
""fullscreenenter"",""1"",""6998""
","
","
","""event"",""trial"",""time""
""fullscreenenter"",""1"",""6998""
","
","","8053.565000067465","Ready? Remember, use the '2', '4', '6', and '8' keys to select the decks. </br> Put your fingers on those keys now and then press '2' to begin.","50","","instructions","2021-04-16 17:46:10.731","","","","","",""
"casino-fixation","35","240623","0.0-17.0-0.0","188","true","img/card_backs/set1/yellow.gif","img/card_backs/set1/red.gif","img/card_backs/set1/green.gif","img/card_backs/set1/purple.gif","img/card_backs/set2/orange.gif","img/card_backs/set2/gray.gif","img/card_backs/set2/pink.gif","img/card_backs/set2/blue.gif","""event"",""trial"",""time""
""fullscreenenter"",""1"",""6998""
","
","
","""event"",""trial"",""time""
""fullscreenenter"",""1"",""6998""
","
","","null","","null","","fixation","2021-04-16 17:46:11.233","","","","","",""
"card-selection-trial","36","244129","0.0-17.0-1.0","188","true","img/card_backs/set1/yellow.gif","img/card_backs/set1/red.gif","img/card_backs/set1/green.gif","img/card_backs/set1/purple.gif","img/card_backs/set2/orange.gif","img/card_backs/set2/gray.gif","img/card_backs/set2/pink.gif","img/card_backs/set2/blue.gif","""event"",""trial"",""time""
""fullscreenenter"",""1"",""6998""
","
","
","""event"",""trial"",""time""
""fullscreenenter"",""1"",""6998""
","
","","1500.774999964051","","","","practice","2021-04-16 17:46:14.739","img/practice_cards/backs/dark_green.gif","0","200","0","",""
"casino-fixation","37","244632","0.0-17.0-0.1","188","true","img/card_backs/set1/yellow.gif","img/card_backs/set1/red.gif","img/card_backs/set1/green.gif","img/card_backs/set1/purple.gif","img/card_backs/set2/orange.gif","img/card_backs/set2/gray.gif","img/card_backs/set2/pink.gif","img/card_backs/set2/blue.gif","""event"",""trial"",""time""
""fullscreenenter"",""1"",""6998""
","
","
","""event"",""trial"",""time""
""fullscreenenter"",""1"",""6998""
","
","","null","","null","","fixation","2021-04-16 17:46:15.242","","","","","",""
"card-selection-trial","38","247291","0.0-17.0-1.1","188","true","img/card_backs/set1/yellow.gif","img/card_backs/set1/red.gif","img/card_backs/set1/green.gif","img/card_backs/set1/purple.gif","img/card_backs/set2/orange.gif","img/card_backs/set2/gray.gif","img/card_backs/set2/pink.gif","img/card_backs/set2/blue.gif","""event"",""trial"",""time""
""fullscreenenter"",""1"",""6998""
","
","
","""event"",""trial"",""time""
""fullscreenenter"",""1"",""6998""
","
","","649.6249999618158","","","","practice","2021-04-16 17:46:17.901","img/practice_cards/backs/black.gif","2","100","0","",""
"casino-fixation","39","247796","0.0-17.0-0.2","188","true","img/card_backs/set1/yellow.gif","img/card_backs/set1/red.gif","img/card_backs/set1/green.gif","img/card_backs/set1/purple.gif","img/card_backs/set2/orange.gif","img/card_backs/set2/gray.gif","img/card_backs/set2/pink.gif","img/card_backs/set2/blue.gif","""event"",""trial"",""time""
""fullscreenenter"",""1"",""6998""
","
","
","""event"",""trial"",""time""
""fullscreenenter"",""1"",""6998""
","
","","null","","null","","fixation","2021-04-16 17:46:18.406","","","","","",""
"card-selection-trial","40","250973","0.0-17.0-1.2","188","true","img/card_backs/set1/yellow.gif","img/card_backs/set1/red.gif","img/card_backs/set1/green.gif","img/card_backs/set1/purple.gif","img/card_backs/set2/orange.gif","img/card_backs/set2/gray.gif","img/card_backs/set2/pink.gif","img/card_backs/set2/blue.gif","""event"",""trial"",""time""
""fullscreenenter"",""1"",""6998""
","
","
","""event"",""trial"",""time""
""fullscreenenter"",""1"",""6998""
","
","","1167.8150000516325","","","","practice","2021-04-16 17:46:21.583","img/practice_cards/backs/black.gif","0","-100","0","",""
"casino-fixation","41","251476","0.0-17.0-0.3","188","true","img/card_backs/set1/yellow.gif","img/card_backs/set1/red.gif","img/card_backs/set1/green.gif","img/card_backs/set1/purple.gif","img/card_backs/set2/orange.gif","img/card_backs/set2/gray.gif","img/card_backs/set2/pink.gif","img/card_backs/set2/blue.gif","""event"",""trial"",""time""
""fullscreenenter"",""1"",""6998""
","
","
","""event"",""trial"",""time""
""fullscreenenter"",""1"",""6998""
","
","","null","","null","","fixation","2021-04-16 17:46:22.086","","","","","",""
"card-selection-trial","42","254488","0.0-17.0-1.3","188","true","img/card_backs/set1/yellow.gif","img/card_backs/set1/red.gif","img/card_backs/set1/green.gif","img/card_backs/set1/purple.gif","img/card_backs/set2/orange.gif","img/card_backs/set2/gray.gif","img/card_backs/set2/pink.gif","img/card_backs/set2/blue.gif","""event"",""trial"",""time""
""fullscreenenter"",""1"",""6998""
","
","
","""event"",""trial"",""time""
""fullscreenenter"",""1"",""6998""
","
","","1004.7900000354275","","","","practice","2021-04-16 17:46:25.098","img/practice_cards/backs/black.gif","0","100","0","",""
"casino-fixation","43","254994","0.0-17.0-0.4","188","true","img/card_backs/set1/yellow.gif","img/card_backs/set1/red.gif","img/card_backs/set1/green.gif","img/card_backs/set1/purple.gif","img/card_backs/set2/orange.gif","img/card_backs/set2/gray.gif","img/card_backs/set2/pink.gif","img/card_backs/set2/blue.gif","""event"",""trial"",""time""
""fullscreenenter"",""1"",""6998""
","
","
","""event"",""trial"",""time""
""fullscreenenter"",""1"",""6998""
","
","","null","","null","","fixation","2021-04-16 17:46:25.604","","","","","",""
"card-selection-trial","44","257673","0.0-17.0-1.4","188","true","img/card_backs/set1/yellow.gif","img/card_backs/set1/red.gif","img/card_backs/set1/green.gif","img/card_backs/set1/purple.gif","img/card_backs/set2/orange.gif","img/card_backs/set2/gray.gif","img/card_backs/set2/pink.gif","img/card_backs/set2/blue.gif","""event"",""trial"",""time""
""fullscreenenter"",""1"",""6998""
","
","
","""event"",""trial"",""time""
""fullscreenenter"",""1"",""6998""
","
","","670.4749999335036","","","","practice","2021-04-16 17:46:28.283","img/practice_cards/backs/dark_blue.gif","0","-200","0","",""
"casino-fixation","45","258175","0.0-17.0-0.5","188","true","img/card_backs/set1/yellow.gif","img/card_backs/set1/red.gif","img/card_backs/set1/green.gif","img/card_backs/set1/purple.gif","img/card_backs/set2/orange.gif","img/card_backs/set2/gray.gif","img/card_backs/set2/pink.gif","img/card_backs/set2/blue.gif","""event"",""trial"",""time""
""fullscreenenter"",""1"",""6998""
","
","
","""event"",""trial"",""time""
""fullscreenenter"",""1"",""6998""
","
","","null","","null","","fixation","2021-04-16 17:46:28.785","","","","","",""
"card-selection-trial","46","260759","0.0-17.0-1.5","188","true","img/card_backs/set1/yellow.gif","img/card_backs/set1/red.gif","img/card_backs/set1/green.gif","img/card_backs/set1/purple.gif","img/card_backs/set2/orange.gif","img/card_backs/set2/gray.gif","img/card_backs/set2/pink.gif","img/card_backs/set2/blue.gif","""event"",""trial"",""time""
""fullscreenenter"",""1"",""6998""
","
","
","""event"",""trial"",""time""
""fullscreenenter"",""1"",""6998""
","
","","579.5500000240281","","","","practice","2021-04-16 17:46:31.369","img/practice_cards/backs/dark_green.gif","0","200","0","",""
"casino-fixation","47","261265","0.0-17.0-0.6","188","true","img/card_backs/set1/yellow.gif","img/card_backs/set1/red.gif","img/card_backs/set1/green.gif","img/card_backs/set1/purple.gif","img/card_backs/set2/orange.gif","img/card_backs/set2/gray.gif","img/card_backs/set2/pink.gif","img/card_backs/set2/blue.gif","""event"",""trial"",""time""
""fullscreenenter"",""1"",""6998""
","
","
","""event"",""trial"",""time""
""fullscreenenter"",""1"",""6998""
","
","","null","","null","","fixation","2021-04-16 17:46:31.875","","","","","",""
"card-selection-trial","48","263569","0.0-17.0-1.6","188","true","img/card_backs/set1/yellow.gif","img/card_backs/set1/red.gif","img/card_backs/set1/green.gif","img/card_backs/set1/purple.gif","img/card_backs/set2/orange.gif","img/card_backs/set2/gray.gif","img/card_backs/set2/pink.gif","img/card_backs/set2/blue.gif","""event"",""trial"",""time""
""fullscreenenter"",""1"",""6998""
","
","
","""event"",""trial"",""time""
""fullscreenenter"",""1"",""6998""
","
","","293.6350000090897","","","","practice","2021-04-16 17:46:34.179","img/practice_cards/backs/dark_green.gif","3","200","0","",""
"casino-fixation","49","264070","0.0-17.0-0.7","188","true","img/card_backs/set1/yellow.gif","img/card_backs/set1/red.gif","img/card_backs/set1/green.gif","img/card_backs/set1/purple.gif","img/card_backs/set2/orange.gif","img/card_backs/set2/gray.gif","img/card_backs/set2/pink.gif","img/card_backs/set2/blue.gif","""event"",""trial"",""time""
""fullscreenenter"",""1"",""6998""
","
","
","""event"",""trial"",""time""
""fullscreenenter"",""1"",""6998""
","
","","null","","null","","fixation","2021-04-16 17:46:34.680","","","","","",""
"card-selection-trial","50","267375","0.0-17.0-1.7","188","true","img/card_backs/set1/yellow.gif","img/card_backs/set1/red.gif","img/card_backs/set1/green.gif","img/card_backs/set1/purple.gif","img/card_backs/set2/orange.gif","img/card_backs/set2/gray.gif","img/card_backs/set2/pink.gif","img/card_backs/set2/blue.gif","""event"",""trial"",""time""
""fullscreenenter"",""1"",""6998""
","
","
","""event"",""trial"",""time""
""fullscreenenter"",""1"",""6998""
","
","","1297.2849999787286","","","","practice","2021-04-16 17:46:37.985","img/practice_cards/backs/black.gif","0","100","0","",""
"casino-fixation","51","267877","0.0-17.0-0.8","188","true","img/card_backs/set1/yellow.gif","img/card_backs/set1/red.gif","img/card_backs/set1/green.gif","img/card_backs/set1/purple.gif","img/card_backs/set2/orange.gif","img/card_backs/set2/gray.gif","img/card_backs/set2/pink.gif","img/card_backs/set2/blue.gif","""event"",""trial"",""time""
""fullscreenenter"",""1"",""6998""
","
","
","""event"",""trial"",""time""
""fullscreenenter"",""1"",""6998""
","
","","null","","null","","fixation","2021-04-16 17:46:38.487","","","","","",""
"card-selection-trial","52","272095","0.0-17.0-1.8","188","true","img/card_backs/set1/yellow.gif","img/card_backs/set1/red.gif","img/card_backs/set1/green.gif","img/card_backs/set1/purple.gif","img/card_backs/set2/orange.gif","img/card_backs/set2/gray.gif","img/card_backs/set2/pink.gif","img/card_backs/set2/blue.gif","""event"",""trial"",""time""
""fullscreenenter"",""1"",""6998""
","
","
","""event"",""trial"",""time""
""fullscreenenter"",""1"",""6998""
","
","","2208.119999966584","","","","practice","2021-04-16 17:46:42.705","img/practice_cards/backs/black.gif","2","100","0","",""
"casino-fixation","53","272600","0.0-17.0-0.9","188","true","img/card_backs/set1/yellow.gif","img/card_backs/set1/red.gif","img/card_backs/set1/green.gif","img/card_backs/set1/purple.gif","img/card_backs/set2/orange.gif","img/card_backs/set2/gray.gif","img/card_backs/set2/pink.gif","img/card_backs/set2/blue.gif","""event"",""trial"",""time""
""fullscreenenter"",""1"",""6998""
","
","
","""event"",""trial"",""time""
""fullscreenenter"",""1"",""6998""
","
","","null","","null","","fixation","2021-04-16 17:46:43.210","","","","","",""
"card-selection-trial","54","275005","0.0-17.0-1.9","188","true","img/card_backs/set1/yellow.gif","img/card_backs/set1/red.gif","img/card_backs/set1/green.gif","img/card_backs/set1/purple.gif","img/card_backs/set2/orange.gif","img/card_backs/set2/gray.gif","img/card_backs/set2/pink.gif","img/card_backs/set2/blue.gif","""event"",""trial"",""time""
""fullscreenenter"",""1"",""6998""
","
","
","""event"",""trial"",""time""
""fullscreenenter"",""1"",""6998""
","
","","400.1100000459701","","","","practice","2021-04-16 17:46:45.615","img/practice_cards/backs/dark_blue.gif","1","200","0","",""
"casino-keyboard-response","55","277879","0.0-18.0","188","true","img/card_backs/set1/yellow.gif","img/card_backs/set1/red.gif","img/card_backs/set1/green.gif","img/card_backs/set1/purple.gif","img/card_backs/set2/orange.gif","img/card_backs/set2/gray.gif","img/card_backs/set2/pink.gif","img/card_backs/set2/blue.gif","""event"",""trial"",""time""
""fullscreenenter"",""1"",""6998""
","
","
","""event"",""trial"",""time""
""fullscreenenter"",""1"",""6998""
","
","","2872.0200000097975","You earned 900 tokens during the practice round!","82","","","2021-04-16 17:46:48.489","","","","","",""
"casino-keyboard-response","56","282437","0.0-19.0-0.0","188","true","img/card_backs/set1/yellow.gif","img/card_backs/set1/red.gif","img/card_backs/set1/green.gif","img/card_backs/set1/purple.gif","img/card_backs/set2/orange.gif","img/card_backs/set2/gray.gif","img/card_backs/set2/pink.gif","img/card_backs/set2/blue.gif","""event"",""trial"",""time""
""fullscreenenter"",""1"",""6998""
","
","
","""event"",""trial"",""time""
""fullscreenenter"",""1"",""6998""
","
","","4556.62500008475","Nice job! You are almost ready to play the real game.","86","","instructions","2021-04-16 17:46:53.047","","","","","",""
"casino-keyboard-response","57","290337","0.0-19.0-0.1","188","true","img/card_backs/set1/yellow.gif","img/card_backs/set1/red.gif","img/card_backs/set1/green.gif","img/card_backs/set1/purple.gif","img/card_backs/set2/orange.gif","img/card_backs/set2/gray.gif","img/card_backs/set2/pink.gif","img/card_backs/set2/blue.gif","""event"",""trial"",""time""
""fullscreenenter"",""1"",""6998""
","
","
","""event"",""trial"",""time""
""fullscreenenter"",""1"",""6998""
","
","","7898.634999990463","You will play two rounds of the real game. In each round, you will pick 100 cards in total.","73","","instructions","2021-04-16 17:47:00.947","","","","","",""
"casino-keyboard-response","58","294552","0.0-19.0-0.2","188","true","img/card_backs/set1/yellow.gif","img/card_backs/set1/red.gif","img/card_backs/set1/green.gif","img/card_backs/set1/purple.gif","img/card_backs/set2/orange.gif","img/card_backs/set2/gray.gif","img/card_backs/set2/pink.gif","img/card_backs/set2/blue.gif","""event"",""trial"",""time""
""fullscreenenter"",""1"",""6998""
","
","
","""event"",""trial"",""time""
""fullscreenenter"",""1"",""6998""
","
","","4213.450000039302","We are now going to ask you some questions about how the game works.","66","","instructions","2021-04-16 17:47:05.162","","","","","",""
"casino-keyboard-response","59","300958","0.0-19.0-0.3","188","true","img/card_backs/set1/yellow.gif","img/card_backs/set1/red.gif","img/card_backs/set1/green.gif","img/card_backs/set1/purple.gif","img/card_backs/set2/orange.gif","img/card_backs/set2/gray.gif","img/card_backs/set2/pink.gif","img/card_backs/set2/blue.gif","""event"",""trial"",""time""
""fullscreenenter"",""1"",""6998""
","
","
","""event"",""trial"",""time""
""fullscreenenter"",""1"",""6998""
","
","","6405.08499997668","Answer carefully. You will not be able to begin the game until you answer them correctly.","67","","instructions","2021-04-16 17:47:11.568","","","","","",""
"casino-comp_q","60","309349","0.0-20.0-0.0","188","true","img/card_backs/set1/yellow.gif","img/card_backs/set1/red.gif","img/card_backs/set1/green.gif","img/card_backs/set1/purple.gif","img/card_backs/set2/orange.gif","img/card_backs/set2/gray.gif","img/card_backs/set2/pink.gif","img/card_backs/set2/blue.gif","""event"",""trial"",""time""
""fullscreenenter"",""1"",""6998""
","
","
","""event"",""trial"",""time""
""fullscreenenter"",""1"",""6998""
","
","","8388.960000011139","True or False: All the decks have some cards that cause you to win tokens and some cards that cause you to lose tokens.","84","","","2021-04-16 17:47:19.960","","","","","",""
"casino-keyboard-response","61","312972","0.0-20.0-1.0","188","true","img/card_backs/set1/yellow.gif","img/card_backs/set1/red.gif","img/card_backs/set1/green.gif","img/card_backs/set1/purple.gif","img/card_backs/set2/orange.gif","img/card_backs/set2/gray.gif","img/card_backs/set2/pink.gif","img/card_backs/set2/blue.gif","""event"",""trial"",""time""
""fullscreenenter"",""1"",""6998""
","
","
","""event"",""trial"",""time""
""fullscreenenter"",""1"",""6998""
","
","","3620.93500001356","True is correct! All the decks have a mix of winning and losing cards.","77","","","2021-04-16 17:47:23.582","","","","","true",""
"casino-comp_q","62","317981","0.0-21.0-0.0","188","true","img/card_backs/set1/yellow.gif","img/card_backs/set1/red.gif","img/card_backs/set1/green.gif","img/card_backs/set1/purple.gif","img/card_backs/set2/orange.gif","img/card_backs/set2/gray.gif","img/card_backs/set2/pink.gif","img/card_backs/set2/blue.gif","""event"",""trial"",""time""
""fullscreenenter"",""1"",""6998""
","
","
","""event"",""trial"",""time""
""fullscreenenter"",""1"",""6998""
","
","","5005.910000065342","True or False: You will have as much time as you want to make your response.","70","","","2021-04-16 17:47:28.591","","","","","",""
"casino-keyboard-response","63","324502","0.0-21.0-1.0","188","true","img/card_backs/set1/yellow.gif","img/card_backs/set1/red.gif","img/card_backs/set1/green.gif","img/card_backs/set1/purple.gif","img/card_backs/set2/orange.gif","img/card_backs/set2/gray.gif","img/card_backs/set2/pink.gif","img/card_backs/set2/blue.gif","""event"",""trial"",""time""
""fullscreenenter"",""1"",""6998""
","
","
","""event"",""trial"",""time""
""fullscreenenter"",""1"",""6998""
","
","","6518.830000073649","False is correct! You will only have 10 seconds to make each choice.","75","","","2021-04-16 17:47:35.112","","","","","true",""
"casino-comp_q","64","332334","0.0-22.0-0.0","188","true","img/card_backs/set1/yellow.gif","img/card_backs/set1/red.gif","img/card_backs/set1/green.gif","img/card_backs/set1/purple.gif","img/card_backs/set2/orange.gif","img/card_backs/set2/gray.gif","img/card_backs/set2/pink.gif","img/card_backs/set2/blue.gif","""event"",""trial"",""time""
""fullscreenenter"",""1"",""6998""
","
","
","""event"",""trial"",""time""
""fullscreenenter"",""1"",""6998""
","
","","7830.764999962412","True or False: The location of the deck determines how lucky it is.","70","","","2021-04-16 17:47:42.944","","","","","",""
"casino-keyboard-response","65","339397","0.0-22.0-1.0","188","true","img/card_backs/set1/yellow.gif","img/card_backs/set1/red.gif","img/card_backs/set1/green.gif","img/card_backs/set1/purple.gif","img/card_backs/set2/orange.gif","img/card_backs/set2/gray.gif","img/card_backs/set2/pink.gif","img/card_backs/set2/blue.gif","""event"",""trial"",""time""
""fullscreenenter"",""1"",""6998""
","
","
","""event"",""trial"",""time""
""fullscreenenter"",""1"",""6998""
","
","","7060.620000003837","False is correct! The <i>color</i>  of the deck determines how lucky or unlucky it is.","68","","","2021-04-16 17:47:50.007","","","","","true",""
"casino-keyboard-response","66","344916","0.0-23.0-0.0","188","true","img/card_backs/set1/yellow.gif","img/card_backs/set1/red.gif","img/card_backs/set1/green.gif","img/card_backs/set1/purple.gif","img/card_backs/set2/orange.gif","img/card_backs/set2/gray.gif","img/card_backs/set2/pink.gif","img/card_backs/set2/blue.gif","""event"",""trial"",""time""
""fullscreenenter"",""1"",""6998""
","
","
","""event"",""trial"",""time""
""fullscreenenter"",""1"",""6998""
","
","","5517.594999982975","Great job! Now it's time to start the real game.","82","","instructions","2021-04-16 17:47:55.526","","","","","",""
"casino-keyboard-response","67","349968","0.0-23.0-0.1","188","true","img/card_backs/set1/yellow.gif","img/card_backs/set1/red.gif","img/card_backs/set1/green.gif","img/card_backs/set1/purple.gif","img/card_backs/set2/orange.gif","img/card_backs/set2/gray.gif","img/card_backs/set2/pink.gif","img/card_backs/set2/blue.gif","""event"",""trial"",""time""
""fullscreenenter"",""1"",""6998""
","
","
","""event"",""trial"",""time""
""fullscreenenter"",""1"",""6998""
","
","","5050.369999953546","Before we start, we're going to head into a new room of the casino.","86","","instructions","2021-04-16 17:48:00.578","","","","","",""
"casino-keyboard-response","68","356507","0.0-24.0-0.0","188","true","img/card_backs/set1/yellow.gif","img/card_backs/set1/red.gif","img/card_backs/set1/green.gif","img/card_backs/set1/purple.gif","img/card_backs/set2/orange.gif","img/card_backs/set2/gray.gif","img/card_backs/set2/pink.gif","img/card_backs/set2/blue.gif","""event"",""trial"",""time""
""fullscreenenter"",""1"",""6998""
","
","
","""event"",""trial"",""time""
""fullscreenenter"",""1"",""6998""
","
","","6537.695000064559","Here we are! The real game will use different cards, but the rules will be the same.","71","","instructions","2021-04-16 17:48:07.117","","","","","",""
"casino-keyboard-response","69","361621","0.0-24.0-0.1","188","true","img/card_backs/set1/yellow.gif","img/card_backs/set1/red.gif","img/card_backs/set1/green.gif","img/card_backs/set1/purple.gif","img/card_backs/set2/orange.gif","img/card_backs/set2/gray.gif","img/card_backs/set2/pink.gif","img/card_backs/set2/blue.gif","""event"",""trial"",""time""
""fullscreenenter"",""1"",""6998""
","
","
","""event"",""trial"",""time""
""fullscreenenter"",""1"",""6998""
","
","","5113.175000064075","Ready? Put your fingers over the '2', '4', 6', and '8' keys so you are ready to play the game. </br> Then press 2 to start.","50","","instructions","2021-04-16 17:48:12.231","","","","","",""
"casino-fixation","70","362124","0.0-25.0-0.0","188","true","img/card_backs/set1/yellow.gif","img/card_backs/set1/red.gif","img/card_backs/set1/green.gif","img/card_backs/set1/purple.gif","img/card_backs/set2/orange.gif","img/card_backs/set2/gray.gif","img/card_backs/set2/pink.gif","img/card_backs/set2/blue.gif","""event"",""trial"",""time""
""fullscreenenter"",""1"",""6998""
","
","
","""event"",""trial"",""time""
""fullscreenenter"",""1"",""6998""
","
","","null","","null","","fixation","2021-04-16 17:48:12.734","","","","","",""
"card-selection-trial","71","364700","0.0-25.0-1.0","188","true","img/card_backs/set1/yellow.gif","img/card_backs/set1/red.gif","img/card_backs/set1/green.gif","img/card_backs/set1/purple.gif","img/card_backs/set2/orange.gif","img/card_backs/set2/gray.gif","img/card_backs/set2/pink.gif","img/card_backs/set2/blue.gif","""event"",""trial"",""time""
""fullscreenenter"",""1"",""6998""
","
","
","""event"",""trial"",""time""
""fullscreenenter"",""1"",""6998""
","
","","571.1400000145659","","","","real_trial","2021-04-16 17:48:15.310","img/card_backs/set1/red.gif","2","-190","1","",""
"casino-fixation","72","365206","0.0-25.0-0.1","188","true","img/card_backs/set1/yellow.gif","img/card_backs/set1/red.gif","img/card_backs/set1/green.gif","img/card_backs/set1/purple.gif","img/card_backs/set2/orange.gif","img/card_backs/set2/gray.gif","img/card_backs/set2/pink.gif","img/card_backs/set2/blue.gif","""event"",""trial"",""time""
""fullscreenenter"",""1"",""6998""
","
","
","""event"",""trial"",""time""
""fullscreenenter"",""1"",""6998""
","
","","null","","null","","fixation","2021-04-16 17:48:15.816","","","","","",""
"card-selection-trial","73","367803","0.0-25.0-1.1","188","true","img/card_backs/set1/yellow.gif","img/card_backs/set1/red.gif","img/card_backs/set1/green.gif","img/card_backs/set1/purple.gif","img/card_backs/set2/orange.gif","img/card_backs/set2/gray.gif","img/card_backs/set2/pink.gif","img/card_backs/set2/blue.gif","""event"",""trial"",""time""
""fullscreenenter"",""1"",""6998""
","
","
","""event"",""trial"",""time""
""fullscreenenter"",""1"",""6998""
","
","","591.8600000441074","","","","real_trial","2021-04-16 17:48:18.413","img/card_backs/set1/yellow.gif","2","240","1","",""
"casino-fixation","74","368306","0.0-25.0-0.2","188","true","img/card_backs/set1/yellow.gif","img/card_backs/set1/red.gif","img/card_backs/set1/green.gif","img/card_backs/set1/purple.gif","img/card_backs/set2/orange.gif","img/card_backs/set2/gray.gif","img/card_backs/set2/pink.gif","img/card_backs/set2/blue.gif","""event"",""trial"",""time""
""fullscreenenter"",""1"",""6998""
","
","
","""event"",""trial"",""time""
""fullscreenenter"",""1"",""6998""
","
","","null","","null","","fixation","2021-04-16 17:48:18.916","","","","","",""
"card-selection-trial","75","370615","0.0-25.0-1.2","188","true","img/card_backs/set1/yellow.gif","img/card_backs/set1/red.gif","img/card_backs/set1/green.gif","img/card_backs/set1/purple.gif","img/card_backs/set2/orange.gif","img/card_backs/set2/gray.gif","img/card_backs/set2/pink.gif","img/card_backs/set2/blue.gif","""event"",""trial"",""time""
""fullscreenenter"",""1"",""6998""
","
","
","""event"",""trial"",""time""
""fullscreenenter"",""1"",""6998""
","
","","302.76500002946705","","","","real_trial","2021-04-16 17:48:21.225","img/card_backs/set1/yellow.gif","2","260","1","",""
"casino-fixation","76","371116","0.0-25.0-0.3","188","true","img/card_backs/set1/yellow.gif","img/card_backs/set1/red.gif","img/card_backs/set1/green.gif","img/card_backs/set1/purple.gif","img/card_backs/set2/orange.gif","img/card_backs/set2/gray.gif","img/card_backs/set2/pink.gif","img/card_backs/set2/blue.gif","""event"",""trial"",""time""
""fullscreenenter"",""1"",""6998""
","
","
","""event"",""trial"",""time""
""fullscreenenter"",""1"",""6998""
","
","","null","","null","","fixation","2021-04-16 17:48:21.726","","","","","",""
"card-selection-trial","77","373918","0.0-25.0-1.3","188","true","img/card_backs/set1/yellow.gif","img/card_backs/set1/red.gif","img/card_backs/set1/green.gif","img/card_backs/set1/purple.gif","img/card_backs/set2/orange.gif","img/card_backs/set2/gray.gif","img/card_backs/set2/pink.gif","img/card_backs/set2/blue.gif","""event"",""trial"",""time""
""fullscreenenter"",""1"",""6998""
","
","
","""event"",""trial"",""time""
""fullscreenenter"",""1"",""6998""
","
","","796.8249999685213","","","","real_trial","2021-04-16 17:48:24.528","img/card_backs/set1/green.gif","2","-90","1","",""
"casino-fixation","78","374419","0.0-25.0-0.4","188","true","img/card_backs/set1/yellow.gif","img/card_backs/set1/red.gif","img/card_backs/set1/green.gif","img/card_backs/set1/purple.gif","img/card_backs/set2/orange.gif","img/card_backs/set2/gray.gif","img/card_backs/set2/pink.gif","img/card_backs/set2/blue.gif","""event"",""trial"",""time""
""fullscreenenter"",""1"",""6998""
","
","
","""event"",""trial"",""time""
""fullscreenenter"",""1"",""6998""
","
","","null","","null","","fixation","2021-04-16 17:48:25.029","","","","","",""
"card-selection-trial","79","376843","0.0-25.0-1.4","188","true","img/card_backs/set1/yellow.gif","img/card_backs/set1/red.gif","img/card_backs/set1/green.gif","img/card_backs/set1/purple.gif","img/card_backs/set2/orange.gif","img/card_backs/set2/gray.gif","img/card_backs/set2/pink.gif","img/card_backs/set2/blue.gif","""event"",""trial"",""time""
""fullscreenenter"",""1"",""6998""
","
","
","""event"",""trial"",""time""
""fullscreenenter"",""1"",""6998""
","
","","417.4450000282377","","","","real_trial","2021-04-16 17:48:27.453","img/card_backs/set1/red.gif","2","-210","1","",""
"casino-fixation","80","377344","0.0-25.0-0.5","188","true","img/card_backs/set1/yellow.gif","img/card_backs/set1/red.gif","img/card_backs/set1/green.gif","img/card_backs/set1/purple.gif","img/card_backs/set2/orange.gif","img/card_backs/set2/gray.gif","img/card_backs/set2/pink.gif","img/card_backs/set2/blue.gif","""event"",""trial"",""time""
""fullscreenenter"",""1"",""6998""
","
","
","""event"",""trial"",""time""
""fullscreenenter"",""1"",""6998""
","
","","null","","null","","fixation","2021-04-16 17:48:27.955","","","","","",""
"card-selection-trial","81","379371","0.0-25.0-1.5","188","true","img/card_backs/set1/yellow.gif","img/card_backs/set1/red.gif","img/card_backs/set1/green.gif","img/card_backs/set1/purple.gif","img/card_backs/set2/orange.gif","img/card_backs/set2/gray.gif","img/card_backs/set2/pink.gif","img/card_backs/set2/blue.gif","""event"",""trial"",""time""
""fullscreenenter"",""1"",""6998""
","
","
","""event"",""trial"",""time""
""fullscreenenter"",""1"",""6998""
","
","","19.314999924972653","","","","real_trial","2021-04-16 17:48:29.982","img/card_backs/set1/purple.gif","2","40","1","",""
"casino-fixation","82","379872","0.0-25.0-0.6","188","true","img/card_backs/set1/yellow.gif","img/card_backs/set1/red.gif","img/card_backs/set1/green.gif","img/card_backs/set1/purple.gif","img/card_backs/set2/orange.gif","img/card_backs/set2/gray.gif","img/card_backs/set2/pink.gif","img/card_backs/set2/blue.gif","""event"",""trial"",""time""
""fullscreenenter"",""1"",""6998""
","
","
","""event"",""trial"",""time""
""fullscreenenter"",""1"",""6998""
","
","","null","","null","","fixation","2021-04-16 17:48:30.483","","","","","",""
"card-selection-trial","83","382105","0.0-25.0-1.6","188","true","img/card_backs/set1/yellow.gif","img/card_backs/set1/red.gif","img/card_backs/set1/green.gif","img/card_backs/set1/purple.gif","img/card_backs/set2/orange.gif","img/card_backs/set2/gray.gif","img/card_backs/set2/pink.gif","img/card_backs/set2/blue.gif","""event"",""trial"",""time""
""fullscreenenter"",""1"",""6998""
","
","
","""event"",""trial"",""time""
""fullscreenenter"",""1"",""6998""
","
","","224.820000003092","","","","real_trial","2021-04-16 17:48:32.715","img/card_backs/set1/red.gif","3","240","1","",""
"casino-fixation","84","382609","0.0-25.0-0.7","188","true","img/card_backs/set1/yellow.gif","img/card_backs/set1/red.gif","img/card_backs/set1/green.gif","img/card_backs/set1/purple.gif","img/card_backs/set2/orange.gif","img/card_backs/set2/gray.gif","img/card_backs/set2/pink.gif","img/card_backs/set2/blue.gif","""event"",""trial"",""time""
""fullscreenenter"",""1"",""6998""
","
","
","""event"",""trial"",""time""
""fullscreenenter"",""1"",""6998""
","
","","null","","null","","fixation","2021-04-16 17:48:33.219","","","","","",""
"card-selection-trial","85","384916","0.0-25.0-1.7","188","true","img/card_backs/set1/yellow.gif","img/card_backs/set1/red.gif","img/card_backs/set1/green.gif","img/card_backs/set1/purple.gif","img/card_backs/set2/orange.gif","img/card_backs/set2/gray.gif","img/card_backs/set2/pink.gif","img/card_backs/set2/blue.gif","""event"",""trial"",""time""
""fullscreenenter"",""1"",""6998""
","
","
","""event"",""trial"",""time""
""fullscreenenter"",""1"",""6998""
","
","","298.1549999676645","","","","real_trial","2021-04-16 17:48:35.526","img/card_backs/set1/green.gif","0","-110","1","",""
"casino-fixation","86","385418","0.0-25.0-0.8","188","true","img/card_backs/set1/yellow.gif","img/card_backs/set1/red.gif","img/card_backs/set1/green.gif","img/card_backs/set1/purple.gif","img/card_backs/set2/orange.gif","img/card_backs/set2/gray.gif","img/card_backs/set2/pink.gif","img/card_backs/set2/blue.gif","""event"",""trial"",""time""
""fullscreenenter"",""1"",""6998""
","
","
","""event"",""trial"",""time""
""fullscreenenter"",""1"",""6998""
","
","","null","","null","","fixation","2021-04-16 17:48:36.028","","","","","",""
"card-selection-trial","87","387684","0.0-25.0-1.8","188","true","img/card_backs/set1/yellow.gif","img/card_backs/set1/red.gif","img/card_backs/set1/green.gif","img/card_backs/set1/purple.gif","img/card_backs/set2/orange.gif","img/card_backs/set2/gray.gif","img/card_backs/set2/pink.gif","img/card_backs/set2/blue.gif","""event"",""trial"",""time""
""fullscreenenter"",""1"",""6998""
","
","
","""event"",""trial"",""time""
""fullscreenenter"",""1"",""6998""
","
","","258.03499994799495","","","","real_trial","2021-04-16 17:48:38.294","img/card_backs/set1/red.gif","1","260","1","",""
"casino-fixation","88","388188","0.0-25.0-0.9","188","true","img/card_backs/set1/yellow.gif","img/card_backs/set1/red.gif","img/card_backs/set1/green.gif","img/card_backs/set1/purple.gif","img/card_backs/set2/orange.gif","img/card_backs/set2/gray.gif","img/card_backs/set2/pink.gif","img/card_backs/set2/blue.gif","""event"",""trial"",""time""
""fullscreenenter"",""1"",""6998""
","
","
","""event"",""trial"",""time""
""fullscreenenter"",""1"",""6998""
","
","","null","","null","","fixation","2021-04-16 17:48:38.798","","","","","",""
"card-selection-trial","89","390615","0.0-25.0-1.9","188","true","img/card_backs/set1/yellow.gif","img/card_backs/set1/red.gif","img/card_backs/set1/green.gif","img/card_backs/set1/purple.gif","img/card_backs/set2/orange.gif","img/card_backs/set2/gray.gif","img/card_backs/set2/pink.gif","img/card_backs/set2/blue.gif","""event"",""trial"",""time""
""fullscreenenter"",""1"",""6998""
","
","
","""event"",""trial"",""time""
""fullscreenenter"",""1"",""6998""
","
","","421.1899999063462","","","","real_trial","2021-04-16 17:48:41.225","img/card_backs/set1/green.gif","1","-90","1","",""
"casino-fixation","90","391120","0.0-25.0-0.10","188","true","img/card_backs/set1/yellow.gif","img/card_backs/set1/red.gif","img/card_backs/set1/green.gif","img/card_backs/set1/purple.gif","img/card_backs/set2/orange.gif","img/card_backs/set2/gray.gif","img/card_backs/set2/pink.gif","img/card_backs/set2/blue.gif","""event"",""trial"",""time""
""fullscreenenter"",""1"",""6998""
","
","
","""event"",""trial"",""time""
""fullscreenenter"",""1"",""6998""
","
","","null","","null","","fixation","2021-04-16 17:48:41.730","","","","","",""
"card-selection-trial","91","393422","0.0-25.0-1.10","188","true","img/card_backs/set1/yellow.gif","img/card_backs/set1/red.gif","img/card_backs/set1/green.gif","img/card_backs/set1/purple.gif","img/card_backs/set2/orange.gif","img/card_backs/set2/gray.gif","img/card_backs/set2/pink.gif","img/card_backs/set2/blue.gif","""event"",""trial"",""time""
""fullscreenenter"",""1"",""6998""
","
","
","""event"",""trial"",""time""
""fullscreenenter"",""1"",""6998""
","
","","292.80000005383044","","","","real_trial","2021-04-16 17:48:44.032","img/card_backs/set1/yellow.gif","1","250","1","",""
"casino-fixation","92","393925","0.0-25.0-0.11","188","true","img/card_backs/set1/yellow.gif","img/card_backs/set1/red.gif","img/card_backs/set1/green.gif","img/card_backs/set1/purple.gif","img/card_backs/set2/orange.gif","img/card_backs/set2/gray.gif","img/card_backs/set2/pink.gif","img/card_backs/set2/blue.gif","""event"",""trial"",""time""
""fullscreenenter"",""1"",""6998""
","
","
","""event"",""trial"",""time""
""fullscreenenter"",""1"",""6998""
","
","","null","","null","","fixation","2021-04-16 17:48:44.535","","","","","",""
"card-selection-trial","93","396973","0.0-25.0-1.11","188","true","img/card_backs/set1/yellow.gif","img/card_backs/set1/red.gif","img/card_backs/set1/green.gif","img/card_backs/set1/purple.gif","img/card_backs/set2/orange.gif","img/card_backs/set2/gray.gif","img/card_backs/set2/pink.gif","img/card_backs/set2/blue.gif","""event"",""trial"",""time""
""fullscreenenter"",""1"",""6998""
","
","
","""event"",""trial"",""time""
""fullscreenenter"",""1"",""6998""
","
","","1043.3249999769032","","","","real_trial","2021-04-16 17:48:47.583","img/card_backs/set1/yellow.gif","2","-190","1","",""
"casino-fixation","94","397478","0.0-25.0-0.12","188","true","img/card_backs/set1/yellow.gif","img/card_backs/set1/red.gif","img/card_backs/set1/green.gif","img/card_backs/set1/purple.gif","img/card_backs/set2/orange.gif","img/card_backs/set2/gray.gif","img/card_backs/set2/pink.gif","img/card_backs/set2/blue.gif","""event"",""trial"",""time""
""fullscreenenter"",""1"",""6998""
","
","
","""event"",""trial"",""time""
""fullscreenenter"",""1"",""6998""
","
","","null","","null","","fixation","2021-04-16 17:48:48.088","","","","","",""
"card-selection-trial","95","400450","0.0-25.0-1.12","188","true","img/card_backs/set1/yellow.gif","img/card_backs/set1/red.gif","img/card_backs/set1/green.gif","img/card_backs/set1/purple.gif","img/card_backs/set2/orange.gif","img/card_backs/set2/gray.gif","img/card_backs/set2/pink.gif","img/card_backs/set2/blue.gif","""event"",""trial"",""time""
""fullscreenenter"",""1"",""6998""
","
","
","""event"",""trial"",""time""
""fullscreenenter"",""1"",""6998""
","
","","966.7149999877438","","","","real_trial","2021-04-16 17:48:51.060","img/card_backs/set1/yellow.gif","0","-210","1","",""
"casino-fixation","96","400955","0.0-25.0-0.13","188","true","img/card_backs/set1/yellow.gif","img/card_backs/set1/red.gif","img/card_backs/set1/green.gif","img/card_backs/set1/purple.gif","img/card_backs/set2/orange.gif","img/card_backs/set2/gray.gif","img/card_backs/set2/pink.gif","img/card_backs/set2/blue.gif","""event"",""trial"",""time""
""fullscreenenter"",""1"",""6998""
","
","
","""event"",""trial"",""time""
""fullscreenenter"",""1"",""6998""
","
","","null","","null","","fixation","2021-04-16 17:48:51.565","","","","","",""
"card-selection-trial","97","403840","0.0-25.0-1.13","188","true","img/card_backs/set1/yellow.gif","img/card_backs/set1/red.gif","img/card_backs/set1/green.gif","img/card_backs/set1/purple.gif","img/card_backs/set2/orange.gif","img/card_backs/set2/gray.gif","img/card_backs/set2/pink.gif","img/card_backs/set2/blue.gif","""event"",""trial"",""time""
""fullscreenenter"",""1"",""6998""
","
","
","""event"",""trial"",""time""
""fullscreenenter"",""1"",""6998""
","
","","878.3850000472739","","","","real_trial","2021-04-16 17:48:54.450","img/card_backs/set1/yellow.gif","2","-200","1","",""
"casino-fixation","98","404345","0.0-25.0-0.14","188","true","img/card_backs/set1/yellow.gif","img/card_backs/set1/red.gif","img/card_backs/set1/green.gif","img/card_backs/set1/purple.gif","img/card_backs/set2/orange.gif","img/card_backs/set2/gray.gif","img/card_backs/set2/pink.gif","img/card_backs/set2/blue.gif","""event"",""trial"",""time""
""fullscreenenter"",""1"",""6998""
","
","
","""event"",""trial"",""time""
""fullscreenenter"",""1"",""6998""
","
","","null","","null","","fixation","2021-04-16 17:48:54.955","","","","","",""
"card-selection-trial","99","408074","0.0-25.0-1.14","188","true","img/card_backs/set1/yellow.gif","img/card_backs/set1/red.gif","img/card_backs/set1/green.gif","img/card_backs/set1/purple.gif","img/card_backs/set2/orange.gif","img/card_backs/set2/gray.gif","img/card_backs/set2/pink.gif","img/card_backs/set2/blue.gif","""event"",""trial"",""time""
""fullscreenenter"",""1"",""6998""
","
","
","""event"",""trial"",""time""
""fullscreenenter"",""1"",""6998""
","
","","1724.5249999687076","","","","real_trial","2021-04-16 17:48:58.684","img/card_backs/set1/purple.gif","0","-100","1","",""
"casino-fixation","100","408577","0.0-25.0-0.15","188","true","img/card_backs/set1/yellow.gif","img/card_backs/set1/red.gif","img/card_backs/set1/green.gif","img/card_backs/set1/purple.gif","img/card_backs/set2/orange.gif","img/card_backs/set2/gray.gif","img/card_backs/set2/pink.gif","img/card_backs/set2/blue.gif","""event"",""trial"",""time""
""fullscreenenter"",""1"",""6998""
","
","
","""event"",""trial"",""time""
""fullscreenenter"",""1"",""6998""
","
","","null","","null","","fixation","2021-04-16 17:48:59.187","","","","","",""
"card-selection-trial","101","413147","0.0-25.0-1.15","188","true","img/card_backs/set1/yellow.gif","img/card_backs/set1/red.gif","img/card_backs/set1/green.gif","img/card_backs/set1/purple.gif","img/card_backs/set2/orange.gif","img/card_backs/set2/gray.gif","img/card_backs/set2/pink.gif","img/card_backs/set2/blue.gif","""event"",""trial"",""time""
""fullscreenenter"",""1"",""6998""
","
","
","""event"",""trial"",""time""
""fullscreenenter"",""1"",""6998""
","
","","2565.6700000399724","","","","real_trial","2021-04-16 17:49:03.757","img/card_backs/set1/red.gif","0","250","1","",""
"casino-fixation","102","413654","0.0-25.0-0.16","188","true","img/card_backs/set1/yellow.gif","img/card_backs/set1/red.gif","img/card_backs/set1/green.gif","img/card_backs/set1/purple.gif","img/card_backs/set2/orange.gif","img/card_backs/set2/gray.gif","img/card_backs/set2/pink.gif","img/card_backs/set2/blue.gif","""event"",""trial"",""time""
""fullscreenenter"",""1"",""6998""
","
","
","""event"",""trial"",""time""
""fullscreenenter"",""1"",""6998""
","
","","null","","null","","fixation","2021-04-16 17:49:04.264","","","","","",""
"card-selection-trial","103","416298","0.0-25.0-1.16","188","true","img/card_backs/set1/yellow.gif","img/card_backs/set1/red.gif","img/card_backs/set1/green.gif","img/card_backs/set1/purple.gif","img/card_backs/set2/orange.gif","img/card_backs/set2/gray.gif","img/card_backs/set2/pink.gif","img/card_backs/set2/blue.gif","""event"",""trial"",""time""
""fullscreenenter"",""1"",""6998""
","
","
","""event"",""trial"",""time""
""fullscreenenter"",""1"",""6998""
","
","","638.1750000873581","","","","real_trial","2021-04-16 17:49:06.908","img/card_backs/set1/red.gif","0","-200","1","",""
"casino-fixation","104","416802","0.0-25.0-0.17","188","true","img/card_backs/set1/yellow.gif","img/card_backs/set1/red.gif","img/card_backs/set1/green.gif","img/card_backs/set1/purple.gif","img/card_backs/set2/orange.gif","img/card_backs/set2/gray.gif","img/card_backs/set2/pink.gif","img/card_backs/set2/blue.gif","""event"",""trial"",""time""
""fullscreenenter"",""1"",""6998""
","
","
","""event"",""trial"",""time""
""fullscreenenter"",""1"",""6998""
","
","","null","","null","","fixation","2021-04-16 17:49:07.413","","","","","",""
"card-selection-trial","105","419827","0.0-25.0-1.17","188","true","img/card_backs/set1/yellow.gif","img/card_backs/set1/red.gif","img/card_backs/set1/green.gif","img/card_backs/set1/purple.gif","img/card_backs/set2/orange.gif","img/card_backs/set2/gray.gif","img/card_backs/set2/pink.gif","img/card_backs/set2/blue.gif","""event"",""trial"",""time""
""fullscreenenter"",""1"",""6998""
","
","
","""event"",""trial"",""time""
""fullscreenenter"",""1"",""6998""
","
","","1015.9349999157712","","","","real_trial","2021-04-16 17:49:10.437","img/card_backs/set1/red.gif","2","240","1","",""
"casino-fixation","106","420332","0.0-25.0-0.18","188","true","img/card_backs/set1/yellow.gif","img/card_backs/set1/red.gif","img/card_backs/set1/green.gif","img/card_backs/set1/purple.gif","img/card_backs/set2/orange.gif","img/card_backs/set2/gray.gif","img/card_backs/set2/pink.gif","img/card_backs/set2/blue.gif","""event"",""trial"",""time""
""fullscreenenter"",""1"",""6998""
","
","
","""event"",""trial"",""time""
""fullscreenenter"",""1"",""6998""
","
","","null","","null","","fixation","2021-04-16 17:49:10.942","","","","","",""
"card-selection-trial","107","423624","0.0-25.0-1.18","188","true","img/card_backs/set1/yellow.gif","img/card_backs/set1/red.gif","img/card_backs/set1/green.gif","img/card_backs/set1/purple.gif","img/card_backs/set2/orange.gif","img/card_backs/set2/gray.gif","img/card_backs/set2/pink.gif","img/card_backs/set2/blue.gif","""event"",""trial"",""time""
""fullscreenenter"",""1"",""6998""
","
","
","""event"",""trial"",""time""
""fullscreenenter"",""1"",""6998""
","
","","1286.4250000566244","","","","real_trial","2021-04-16 17:49:14.234","img/card_backs/set1/red.gif","3","-210","1","",""
"casino-fixation","108","424128","0.0-25.0-0.19","188","true","img/card_backs/set1/yellow.gif","img/card_backs/set1/red.gif","img/card_backs/set1/green.gif","img/card_backs/set1/purple.gif","img/card_backs/set2/orange.gif","img/card_backs/set2/gray.gif","img/card_backs/set2/pink.gif","img/card_backs/set2/blue.gif","""event"",""trial"",""time""
""fullscreenenter"",""1"",""6998""
","
","
","""event"",""trial"",""time""
""fullscreenenter"",""1"",""6998""
","
","","null","","null","","fixation","2021-04-16 17:49:14.738","","","","","",""
"card-selection-trial","109","426900","0.0-25.0-1.19","188","true","img/card_backs/set1/yellow.gif","img/card_backs/set1/red.gif","img/card_backs/set1/green.gif","img/card_backs/set1/purple.gif","img/card_backs/set2/orange.gif","img/card_backs/set2/gray.gif","img/card_backs/set2/pink.gif","img/card_backs/set2/blue.gif","""event"",""trial"",""time""
""fullscreenenter"",""1"",""6998""
","
","
","""event"",""trial"",""time""
""fullscreenenter"",""1"",""6998""
","
","","765.5549999326468","","","","real_trial","2021-04-16 17:49:17.510","img/card_backs/set1/green.gif","3","50","1","",""
"casino-fixation","110","427405","0.0-25.0-0.20","188","true","img/card_backs/set1/yellow.gif","img/card_backs/set1/red.gif","img/card_backs/set1/green.gif","img/card_backs/set1/purple.gif","img/card_backs/set2/orange.gif","img/card_backs/set2/gray.gif","img/card_backs/set2/pink.gif","img/card_backs/set2/blue.gif","""event"",""trial"",""time""
""fullscreenenter"",""1"",""6998""
","
","
","""event"",""trial"",""time""
""fullscreenenter"",""1"",""6998""
","
","","null","","null","","fixation","2021-04-16 17:49:18.015","","","","","",""
"card-selection-trial","111","430345","0.0-25.0-1.20","188","true","img/card_backs/set1/yellow.gif","img/card_backs/set1/red.gif","img/card_backs/set1/green.gif","img/card_backs/set1/purple.gif","img/card_backs/set2/orange.gif","img/card_backs/set2/gray.gif","img/card_backs/set2/pink.gif","img/card_backs/set2/blue.gif","""event"",""trial"",""time""
""fullscreenenter"",""1"",""6998""
","
","
","""event"",""trial"",""time""
""fullscreenenter"",""1"",""6998""
","
","","933.309999993071","","","","real_trial","2021-04-16 17:49:20.955","img/card_backs/set1/green.gif","1","-90","1","",""
"casino-fixation","112","430848","0.0-25.0-0.21","188","true","img/card_backs/set1/yellow.gif","img/card_backs/set1/red.gif","img/card_backs/set1/green.gif","img/card_backs/set1/purple.gif","img/card_backs/set2/orange.gif","img/card_backs/set2/gray.gif","img/card_backs/set2/pink.gif","img/card_backs/set2/blue.gif","""event"",""trial"",""time""
""fullscreenenter"",""1"",""6998""
","
","
","""event"",""trial"",""time""
""fullscreenenter"",""1"",""6998""
","
","","null","","null","","fixation","2021-04-16 17:49:21.458","","","","","",""
"card-selection-trial","113","433984","0.0-25.0-1.21","188","true","img/card_backs/set1/yellow.gif","img/card_backs/set1/red.gif","img/card_backs/set1/green.gif","img/card_backs/set1/purple.gif","img/card_backs/set2/orange.gif","img/card_backs/set2/gray.gif","img/card_backs/set2/pink.gif","img/card_backs/set2/blue.gif","""event"",""trial"",""time""
""fullscreenenter"",""1"",""6998""
","
","
","""event"",""trial"",""time""
""fullscreenenter"",""1"",""6998""
","
","","1128.7449999945238","","","","real_trial","2021-04-16 17:49:24.594","img/card_backs/set1/red.gif","3","260","1","",""
"casino-fixation","114","434491","0.0-25.0-0.22","188","true","img/card_backs/set1/yellow.gif","img/card_backs/set1/red.gif","img/card_backs/set1/green.gif","img/card_backs/set1/purple.gif","img/card_backs/set2/orange.gif","img/card_backs/set2/gray.gif","img/card_backs/set2/pink.gif","img/card_backs/set2/blue.gif","""event"",""trial"",""time""
""fullscreenenter"",""1"",""6998""
","
","
","""event"",""trial"",""time""
""fullscreenenter"",""1"",""6998""
","
","","null","","null","","fixation","2021-04-16 17:49:25.101","","","","","",""
"card-selection-trial","115","437199","0.0-25.0-1.22","188","true","img/card_backs/set1/yellow.gif","img/card_backs/set1/red.gif","img/card_backs/set1/green.gif","img/card_backs/set1/purple.gif","img/card_backs/set2/orange.gif","img/card_backs/set2/gray.gif","img/card_backs/set2/pink.gif","img/card_backs/set2/blue.gif","""event"",""trial"",""time""
""fullscreenenter"",""1"",""6998""
","
","
","""event"",""trial"",""time""
""fullscreenenter"",""1"",""6998""
","
","","700.5950000602752","","","","real_trial","2021-04-16 17:49:27.809","img/card_backs/set1/purple.gif","3","60","1","",""
"casino-fixation","116","437701","0.0-25.0-0.23","188","true","img/card_backs/set1/yellow.gif","img/card_backs/set1/red.gif","img/card_backs/set1/green.gif","img/card_backs/set1/purple.gif","img/card_backs/set2/orange.gif","img/card_backs/set2/gray.gif","img/card_backs/set2/pink.gif","img/card_backs/set2/blue.gif","""event"",""trial"",""time""
""fullscreenenter"",""1"",""6998""
","
","
","""event"",""trial"",""time""
""fullscreenenter"",""1"",""6998""
","
","","null","","null","","fixation","2021-04-16 17:49:28.312","","","","","",""
"card-selection-trial","117","440157","0.0-25.0-1.23","188","true","img/card_backs/set1/yellow.gif","img/card_backs/set1/red.gif","img/card_backs/set1/green.gif","img/card_backs/set1/purple.gif","img/card_backs/set2/orange.gif","img/card_backs/set2/gray.gif","img/card_backs/set2/pink.gif","img/card_backs/set2/blue.gif","""event"",""trial"",""time""
""fullscreenenter"",""1"",""6998""
","
","
","""event"",""trial"",""time""
""fullscreenenter"",""1"",""6998""
","
","","445.86999993771315","","","","real_trial","2021-04-16 17:49:30.767","img/card_backs/set1/red.gif","3","-190","1","",""
"casino-fixation","118","440660","0.0-25.0-0.24","188","true","img/card_backs/set1/yellow.gif","img/card_backs/set1/red.gif","img/card_backs/set1/green.gif","img/card_backs/set1/purple.gif","img/card_backs/set2/orange.gif","img/card_backs/set2/gray.gif","img/card_backs/set2/pink.gif","img/card_backs/set2/blue.gif","""event"",""trial"",""time""
""fullscreenenter"",""1"",""6998""
","
","
","""event"",""trial"",""time""
""fullscreenenter"",""1"",""6998""
","
","","null","","null","","fixation","2021-04-16 17:49:31.270","","","","","",""
"card-selection-trial","119","442967","0.0-25.0-1.24","188","true","img/card_backs/set1/yellow.gif","img/card_backs/set1/red.gif","img/card_backs/set1/green.gif","img/card_backs/set1/purple.gif","img/card_backs/set2/orange.gif","img/card_backs/set2/gray.gif","img/card_backs/set2/pink.gif","img/card_backs/set2/blue.gif","""event"",""trial"",""time""
""fullscreenenter"",""1"",""6998""
","
","
","""event"",""trial"",""time""
""fullscreenenter"",""1"",""6998""
","
","","301.75499990582466","","","","real_trial","2021-04-16 17:49:33.577","img/card_backs/set1/green.gif","3","40","1","",""
"casino-fixation","120","443471","0.0-25.0-0.25","188","true","img/card_backs/set1/yellow.gif","img/card_backs/set1/red.gif","img/card_backs/set1/green.gif","img/card_backs/set1/purple.gif","img/card_backs/set2/orange.gif","img/card_backs/set2/gray.gif","img/card_backs/set2/pink.gif","img/card_backs/set2/blue.gif","""event"",""trial"",""time""
""fullscreenenter"",""1"",""6998""
","
","
","""event"",""trial"",""time""
""fullscreenenter"",""1"",""6998""
","
","","null","","null","","fixation","2021-04-16 17:49:34.081","","","","","",""
"card-selection-trial","121","446426","0.0-25.0-1.25","188","true","img/card_backs/set1/yellow.gif","img/card_backs/set1/red.gif","img/card_backs/set1/green.gif","img/card_backs/set1/purple.gif","img/card_backs/set2/orange.gif","img/card_backs/set2/gray.gif","img/card_backs/set2/pink.gif","img/card_backs/set2/blue.gif","""event"",""trial"",""time""
""fullscreenenter"",""1"",""6998""
","
","
","""event"",""trial"",""time""
""fullscreenenter"",""1"",""6998""
","
","","946.2950000306591","","","","real_trial","2021-04-16 17:49:37.036","img/card_backs/set1/yellow.gif","0","-200","1","",""
"casino-fixation","122","446931","0.0-25.0-0.26","188","true","img/card_backs/set1/yellow.gif","img/card_backs/set1/red.gif","img/card_backs/set1/green.gif","img/card_backs/set1/purple.gif","img/card_backs/set2/orange.gif","img/card_backs/set2/gray.gif","img/card_backs/set2/pink.gif","img/card_backs/set2/blue.gif","""event"",""trial"",""time""
""fullscreenenter"",""1"",""6998""
","
","
","""event"",""trial"",""time""
""fullscreenenter"",""1"",""6998""
","
","","null","","null","","fixation","2021-04-16 17:49:37.541","","","","","",""
"card-selection-trial","123","448975","0.0-25.0-1.26","188","true","img/card_backs/set1/yellow.gif","img/card_backs/set1/red.gif","img/card_backs/set1/green.gif","img/card_backs/set1/purple.gif","img/card_backs/set2/orange.gif","img/card_backs/set2/gray.gif","img/card_backs/set2/pink.gif","img/card_backs/set2/blue.gif","""event"",""trial"",""time""
""fullscreenenter"",""1"",""6998""
","
","
","""event"",""trial"",""time""
""fullscreenenter"",""1"",""6998""
","
","","38.36499992758036","","","","real_trial","2021-04-16 17:49:39.585","img/card_backs/set1/red.gif","1","-190","1","",""
"casino-fixation","124","449481","0.0-25.0-0.27","188","true","img/card_backs/set1/yellow.gif","img/card_backs/set1/red.gif","img/card_backs/set1/green.gif","img/card_backs/set1/purple.gif","img/card_backs/set2/orange.gif","img/card_backs/set2/gray.gif","img/card_backs/set2/pink.gif","img/card_backs/set2/blue.gif","""event"",""trial"",""time""
""fullscreenenter"",""1"",""6998""
","
","
","""event"",""trial"",""time""
""fullscreenenter"",""1"",""6998""
","
","","null","","null","","fixation","2021-04-16 17:49:40.091","","","","","",""
"card-selection-trial","125","451569","0.0-25.0-1.27","188","true","img/card_backs/set1/yellow.gif","img/card_backs/set1/red.gif","img/card_backs/set1/green.gif","img/card_backs/set1/purple.gif","img/card_backs/set2/orange.gif","img/card_backs/set2/gray.gif","img/card_backs/set2/pink.gif","img/card_backs/set2/blue.gif","""event"",""trial"",""time""
""fullscreenenter"",""1"",""6998""
","
","
","""event"",""trial"",""time""
""fullscreenenter"",""1"",""6998""
","
","","81.69999998062849","","","","real_trial","2021-04-16 17:49:42.180","img/card_backs/set1/green.gif","2","40","1","",""
"casino-fixation","126","452071","0.0-25.0-0.28","188","true","img/card_backs/set1/yellow.gif","img/card_backs/set1/red.gif","img/card_backs/set1/green.gif","img/card_backs/set1/purple.gif","img/card_backs/set2/orange.gif","img/card_backs/set2/gray.gif","img/card_backs/set2/pink.gif","img/card_backs/set2/blue.gif","""event"",""trial"",""time""
""fullscreenenter"",""1"",""6998""
","
","
","""event"",""trial"",""time""
""fullscreenenter"",""1"",""6998""
","
","","null","","null","","fixation","2021-04-16 17:49:42.681","","","","","",""
"card-selection-trial","127","454504","0.0-25.0-1.28","188","true","img/card_backs/set1/yellow.gif","img/card_backs/set1/red.gif","img/card_backs/set1/green.gif","img/card_backs/set1/purple.gif","img/card_backs/set2/orange.gif","img/card_backs/set2/gray.gif","img/card_backs/set2/pink.gif","img/card_backs/set2/blue.gif","""event"",""trial"",""time""
""fullscreenenter"",""1"",""6998""
","
","
","""event"",""trial"",""time""
""fullscreenenter"",""1"",""6998""
","
","","426.2899999739602","","","","real_trial","2021-04-16 17:49:45.115","img/card_backs/set1/yellow.gif","2","250","1","",""
"casino-fixation","128","455006","0.0-25.0-0.29","188","true","img/card_backs/set1/yellow.gif","img/card_backs/set1/red.gif","img/card_backs/set1/green.gif","img/card_backs/set1/purple.gif","img/card_backs/set2/orange.gif","img/card_backs/set2/gray.gif","img/card_backs/set2/pink.gif","img/card_backs/set2/blue.gif","""event"",""trial"",""time""
""fullscreenenter"",""1"",""6998""
","
","
","""event"",""trial"",""time""
""fullscreenenter"",""1"",""6998""
","
","","null","","null","","fixation","2021-04-16 17:49:45.616","","","","","",""
"card-selection-trial","129","457787","0.0-25.0-1.29","188","true","img/card_backs/set1/yellow.gif","img/card_backs/set1/red.gif","img/card_backs/set1/green.gif","img/card_backs/set1/purple.gif","img/card_backs/set2/orange.gif","img/card_backs/set2/gray.gif","img/card_backs/set2/pink.gif","img/card_backs/set2/blue.gif","""event"",""trial"",""time""
""fullscreenenter"",""1"",""6998""
","
","
","""event"",""trial"",""time""
""fullscreenenter"",""1"",""6998""
","
","","771.5700000990182","","","","real_trial","2021-04-16 17:49:48.397","img/card_backs/set1/yellow.gif","1","-200","1","",""
"casino-fixation","130","458291","0.0-25.0-0.30","188","true","img/card_backs/set1/yellow.gif","img/card_backs/set1/red.gif","img/card_backs/set1/green.gif","img/card_backs/set1/purple.gif","img/card_backs/set2/orange.gif","img/card_backs/set2/gray.gif","img/card_backs/set2/pink.gif","img/card_backs/set2/blue.gif","""event"",""trial"",""time""
""fullscreenenter"",""1"",""6998""
","
","
","""event"",""trial"",""time""
""fullscreenenter"",""1"",""6998""
","
","","null","","null","","fixation","2021-04-16 17:49:48.901","","","","","",""
"card-selection-trial","131","461537","0.0-25.0-1.30","188","true","img/card_backs/set1/yellow.gif","img/card_backs/set1/red.gif","img/card_backs/set1/green.gif","img/card_backs/set1/purple.gif","img/card_backs/set2/orange.gif","img/card_backs/set2/gray.gif","img/card_backs/set2/pink.gif","img/card_backs/set2/blue.gif","""event"",""trial"",""time""
""fullscreenenter"",""1"",""6998""
","
","
","""event"",""trial"",""time""
""fullscreenenter"",""1"",""6998""
","
","","1238.9950000215322","","","","real_trial","2021-04-16 17:49:52.147","img/card_backs/set1/purple.gif","2","40","1","",""
"casino-fixation","132","462041","0.0-25.0-0.31","188","true","img/card_backs/set1/yellow.gif","img/card_backs/set1/red.gif","img/card_backs/set1/green.gif","img/card_backs/set1/purple.gif","img/card_backs/set2/orange.gif","img/card_backs/set2/gray.gif","img/card_backs/set2/pink.gif","img/card_backs/set2/blue.gif","""event"",""trial"",""time""
""fullscreenenter"",""1"",""6998""
","
","
","""event"",""trial"",""time""
""fullscreenenter"",""1"",""6998""
","
","","null","","null","","fixation","2021-04-16 17:49:52.652","","","","","",""
"card-selection-trial","133","465020","0.0-25.0-1.31","188","true","img/card_backs/set1/yellow.gif","img/card_backs/set1/red.gif","img/card_backs/set1/green.gif","img/card_backs/set1/purple.gif","img/card_backs/set2/orange.gif","img/card_backs/set2/gray.gif","img/card_backs/set2/pink.gif","img/card_backs/set2/blue.gif","""event"",""trial"",""time""
""fullscreenenter"",""1"",""6998""
","
","
","""event"",""trial"",""time""
""fullscreenenter"",""1"",""6998""
","
","","971.0150000173599","","","","real_trial","2021-04-16 17:49:55.630","img/card_backs/set1/yellow.gif","1","-190","1","",""
"casino-fixation","134","465525","0.0-25.0-0.32","188","true","img/card_backs/set1/yellow.gif","img/card_backs/set1/red.gif","img/card_backs/set1/green.gif","img/card_backs/set1/purple.gif","img/card_backs/set2/orange.gif","img/card_backs/set2/gray.gif","img/card_backs/set2/pink.gif","img/card_backs/set2/blue.gif","""event"",""trial"",""time""
""fullscreenenter"",""1"",""6998""
","
","
","""event"",""trial"",""time""
""fullscreenenter"",""1"",""6998""
","
","","null","","null","","fixation","2021-04-16 17:49:56.135","","","","","",""
"card-selection-trial","135","468253","0.0-25.0-1.32","188","true","img/card_backs/set1/yellow.gif","img/card_backs/set1/red.gif","img/card_backs/set1/green.gif","img/card_backs/set1/purple.gif","img/card_backs/set2/orange.gif","img/card_backs/set2/gray.gif","img/card_backs/set2/pink.gif","img/card_backs/set2/blue.gif","""event"",""trial"",""time""
""fullscreenenter"",""1"",""6998""
","
","
","""event"",""trial"",""time""
""fullscreenenter"",""1"",""6998""
","
","","719.2750000394881","","","","real_trial","2021-04-16 17:49:58.863","img/card_backs/set1/purple.gif","3","-90","1","",""
"casino-fixation","136","468758","0.0-25.0-0.33","188","true","img/card_backs/set1/yellow.gif","img/card_backs/set1/red.gif","img/card_backs/set1/green.gif","img/card_backs/set1/purple.gif","img/card_backs/set2/orange.gif","img/card_backs/set2/gray.gif","img/card_backs/set2/pink.gif","img/card_backs/set2/blue.gif","""event"",""trial"",""time""
""fullscreenenter"",""1"",""6998""
","
","
","""event"",""trial"",""time""
""fullscreenenter"",""1"",""6998""
","
","","null","","null","","fixation","2021-04-16 17:49:59.368","","","","","",""
"card-selection-trial","137","473193","0.0-25.0-1.33","188","true","img/card_backs/set1/yellow.gif","img/card_backs/set1/red.gif","img/card_backs/set1/green.gif","img/card_backs/set1/purple.gif","img/card_backs/set2/orange.gif","img/card_backs/set2/gray.gif","img/card_backs/set2/pink.gif","img/card_backs/set2/blue.gif","""event"",""trial"",""time""
""fullscreenenter"",""1"",""6998""
","
","
","""event"",""trial"",""time""
""fullscreenenter"",""1"",""6998""
","
","","2426.259999978356","","","","real_trial","2021-04-16 17:50:03.803","img/card_backs/set1/green.gif","1","50","1","",""
"casino-fixation","138","473699","0.0-25.0-0.34","188","true","img/card_backs/set1/yellow.gif","img/card_backs/set1/red.gif","img/card_backs/set1/green.gif","img/card_backs/set1/purple.gif","img/card_backs/set2/orange.gif","img/card_backs/set2/gray.gif","img/card_backs/set2/pink.gif","img/card_backs/set2/blue.gif","""event"",""trial"",""time""
""fullscreenenter"",""1"",""6998""
","
","
","""event"",""trial"",""time""
""fullscreenenter"",""1"",""6998""
","
","","null","","null","","fixation","2021-04-16 17:50:04.309","","","","","",""
"card-selection-trial","139","476816","0.0-25.0-1.34","188","true","img/card_backs/set1/yellow.gif","img/card_backs/set1/red.gif","img/card_backs/set1/green.gif","img/card_backs/set1/purple.gif","img/card_backs/set2/orange.gif","img/card_backs/set2/gray.gif","img/card_backs/set2/pink.gif","img/card_backs/set2/blue.gif","""event"",""trial"",""time""
""fullscreenenter"",""1"",""6998""
","
","
","""event"",""trial"",""time""
""fullscreenenter"",""1"",""6998""
","
","","1107.3050000704825","","","","real_trial","2021-04-16 17:50:07.426","img/card_backs/set1/yellow.gif","1","-200","1","",""
"casino-fixation","140","477321","0.0-25.0-0.35","188","true","img/card_backs/set1/yellow.gif","img/card_backs/set1/red.gif","img/card_backs/set1/green.gif","img/card_backs/set1/purple.gif","img/card_backs/set2/orange.gif","img/card_backs/set2/gray.gif","img/card_backs/set2/pink.gif","img/card_backs/set2/blue.gif","""event"",""trial"",""time""
""fullscreenenter"",""1"",""6998""
","
","
","""event"",""trial"",""time""
""fullscreenenter"",""1"",""6998""
","
","","null","","null","","fixation","2021-04-16 17:50:07.931","","","","","",""
"card-selection-trial","141","482203","0.0-25.0-1.35","188","true","img/card_backs/set1/yellow.gif","img/card_backs/set1/red.gif","img/card_backs/set1/green.gif","img/card_backs/set1/purple.gif","img/card_backs/set2/orange.gif","img/card_backs/set2/gray.gif","img/card_backs/set2/pink.gif","img/card_backs/set2/blue.gif","""event"",""trial"",""time""
""fullscreenenter"",""1"",""6998""
","
","
","""event"",""trial"",""time""
""fullscreenenter"",""1"",""6998""
","
","","2875.1550000160933","","","","real_trial","2021-04-16 17:50:12.813","img/card_backs/set1/purple.gif","2","-110","1","",""
"casino-fixation","142","482708","0.0-25.0-0.36","188","true","img/card_backs/set1/yellow.gif","img/card_backs/set1/red.gif","img/card_backs/set1/green.gif","img/card_backs/set1/purple.gif","img/card_backs/set2/orange.gif","img/card_backs/set2/gray.gif","img/card_backs/set2/pink.gif","img/card_backs/set2/blue.gif","""event"",""trial"",""time""
""fullscreenenter"",""1"",""6998""
","
","
","""event"",""trial"",""time""
""fullscreenenter"",""1"",""6998""
","
","","null","","null","","fixation","2021-04-16 17:50:13.318","","","","","",""
"card-selection-trial","143","485347","0.0-25.0-1.36","188","true","img/card_backs/set1/yellow.gif","img/card_backs/set1/red.gif","img/card_backs/set1/green.gif","img/card_backs/set1/purple.gif","img/card_backs/set2/orange.gif","img/card_backs/set2/gray.gif","img/card_backs/set2/pink.gif","img/card_backs/set2/blue.gif","""event"",""trial"",""time""
""fullscreenenter"",""1"",""6998""
","
","
","""event"",""trial"",""time""
""fullscreenenter"",""1"",""6998""
","
","","633.0699999816716","","","","real_trial","2021-04-16 17:50:15.957","img/card_backs/set1/purple.gif","3","50","1","",""
"casino-fixation","144","485848","0.0-25.0-0.37","188","true","img/card_backs/set1/yellow.gif","img/card_backs/set1/red.gif","img/card_backs/set1/green.gif","img/card_backs/set1/purple.gif","img/card_backs/set2/orange.gif","img/card_backs/set2/gray.gif","img/card_backs/set2/pink.gif","img/card_backs/set2/blue.gif","""event"",""trial"",""time""
""fullscreenenter"",""1"",""6998""
","
","
","""event"",""trial"",""time""
""fullscreenenter"",""1"",""6998""
","
","","null","","null","","fixation","2021-04-16 17:50:16.458","","","","","",""
"card-selection-trial","145","489517","0.0-25.0-1.37","188","true","img/card_backs/set1/yellow.gif","img/card_backs/set1/red.gif","img/card_backs/set1/green.gif","img/card_backs/set1/purple.gif","img/card_backs/set2/orange.gif","img/card_backs/set2/gray.gif","img/card_backs/set2/pink.gif","img/card_backs/set2/blue.gif","""event"",""trial"",""time""
""fullscreenenter"",""1"",""6998""
","
","
","""event"",""trial"",""time""
""fullscreenenter"",""1"",""6998""
","
","","1658.3549999631941","","","","real_trial","2021-04-16 17:50:20.127","img/card_backs/set1/green.gif","3","60","1","",""
"casino-fixation","146","490023","0.0-25.0-0.38","188","true","img/card_backs/set1/yellow.gif","img/card_backs/set1/red.gif","img/card_backs/set1/green.gif","img/card_backs/set1/purple.gif","img/card_backs/set2/orange.gif","img/card_backs/set2/gray.gif","img/card_backs/set2/pink.gif","img/card_backs/set2/blue.gif","""event"",""trial"",""time""
""fullscreenenter"",""1"",""6998""
","
","
","""event"",""trial"",""time""
""fullscreenenter"",""1"",""6998""
","
","","null","","null","","fixation","2021-04-16 17:50:20.633","","","","","",""
"card-selection-trial","147","493163","0.0-25.0-1.38","188","true","img/card_backs/set1/yellow.gif","img/card_backs/set1/red.gif","img/card_backs/set1/green.gif","img/card_backs/set1/purple.gif","img/card_backs/set2/orange.gif","img/card_backs/set2/gray.gif","img/card_backs/set2/pink.gif","img/card_backs/set2/blue.gif","""event"",""trial"",""time""
""fullscreenenter"",""1"",""6998""
","
","
","""event"",""trial"",""time""
""fullscreenenter"",""1"",""6998""
","
","","1130.2450000075623","","","","real_trial","2021-04-16 17:50:23.773","img/card_backs/set1/yellow.gif","2","-200","1","",""
"casino-fixation","148","493668","0.0-25.0-0.39","188","true","img/card_backs/set1/yellow.gif","img/card_backs/set1/red.gif","img/card_backs/set1/green.gif","img/card_backs/set1/purple.gif","img/card_backs/set2/orange.gif","img/card_backs/set2/gray.gif","img/card_backs/set2/pink.gif","img/card_backs/set2/blue.gif","""event"",""trial"",""time""
""fullscreenenter"",""1"",""6998""
","
","
","""event"",""trial"",""time""
""fullscreenenter"",""1"",""6998""
","
","","null","","null","","fixation","2021-04-16 17:50:24.278","","","","","",""
"card-selection-trial","149","497518","0.0-25.0-1.39","188","true","img/card_backs/set1/yellow.gif","img/card_backs/set1/red.gif","img/card_backs/set1/green.gif","img/card_backs/set1/purple.gif","img/card_backs/set2/orange.gif","img/card_backs/set2/gray.gif","img/card_backs/set2/pink.gif","img/card_backs/set2/blue.gif","""event"",""trial"",""time""
""fullscreenenter"",""1"",""6998""
","
","
","""event"",""trial"",""time""
""fullscreenenter"",""1"",""6998""
","
","","1841.8799999635667","","","","real_trial","2021-04-16 17:50:28.129","img/card_backs/set1/yellow.gif","2","240","1","",""
"casino-fixation","150","498023","0.0-25.0-0.40","188","true","img/card_backs/set1/yellow.gif","img/card_backs/set1/red.gif","img/card_backs/set1/green.gif","img/card_backs/set1/purple.gif","img/card_backs/set2/orange.gif","img/card_backs/set2/gray.gif","img/card_backs/set2/pink.gif","img/card_backs/set2/blue.gif","""event"",""trial"",""time""
""fullscreenenter"",""1"",""6998""
","
","
","""event"",""trial"",""time""
""fullscreenenter"",""1"",""6998""
","
","","null","","null","","fixation","2021-04-16 17:50:28.633","","","","","",""
"card-selection-trial","151","500919","0.0-25.0-1.40","188","true","img/card_backs/set1/yellow.gif","img/card_backs/set1/red.gif","img/card_backs/set1/green.gif","img/card_backs/set1/purple.gif","img/card_backs/set2/orange.gif","img/card_backs/set2/gray.gif","img/card_backs/set2/pink.gif","img/card_backs/set2/blue.gif","""event"",""trial"",""time""
""fullscreenenter"",""1"",""6998""
","
","
","""event"",""trial"",""time""
""fullscreenenter"",""1"",""6998""
","
","","885.4900000151247","","","","real_trial","2021-04-16 17:50:31.529","img/card_backs/set1/purple.gif","3","50","1","",""
"casino-fixation","152","501423","0.0-25.0-0.41","188","true","img/card_backs/set1/yellow.gif","img/card_backs/set1/red.gif","img/card_backs/set1/green.gif","img/card_backs/set1/purple.gif","img/card_backs/set2/orange.gif","img/card_backs/set2/gray.gif","img/card_backs/set2/pink.gif","img/card_backs/set2/blue.gif","""event"",""trial"",""time""
""fullscreenenter"",""1"",""6998""
","
","
","""event"",""trial"",""time""
""fullscreenenter"",""1"",""6998""
","
","","null","","null","","fixation","2021-04-16 17:50:32.033","","","","","",""
"card-selection-trial","153","504415","0.0-25.0-1.41","188","true","img/card_backs/set1/yellow.gif","img/card_backs/set1/red.gif","img/card_backs/set1/green.gif","img/card_backs/set1/purple.gif","img/card_backs/set2/orange.gif","img/card_backs/set2/gray.gif","img/card_backs/set2/pink.gif","img/card_backs/set2/blue.gif","""event"",""trial"",""time""
""fullscreenenter"",""1"",""6998""
","
","
","""event"",""trial"",""time""
""fullscreenenter"",""1"",""6998""
","
","","982.5849999906495","","","","real_trial","2021-04-16 17:50:35.025","img/card_backs/set1/green.gif","1","40","1","",""
"casino-fixation","154","504918","0.0-25.0-0.42","188","true","img/card_backs/set1/yellow.gif","img/card_backs/set1/red.gif","img/card_backs/set1/green.gif","img/card_backs/set1/purple.gif","img/card_backs/set2/orange.gif","img/card_backs/set2/gray.gif","img/card_backs/set2/pink.gif","img/card_backs/set2/blue.gif","""event"",""trial"",""time""
""fullscreenenter"",""1"",""6998""
","
","
","""event"",""trial"",""time""
""fullscreenenter"",""1"",""6998""
","
","","null","","null","","fixation","2021-04-16 17:50:35.528","","","","","",""
"card-selection-trial","155","507862","0.0-25.0-1.42","188","true","img/card_backs/set1/yellow.gif","img/card_backs/set1/red.gif","img/card_backs/set1/green.gif","img/card_backs/set1/purple.gif","img/card_backs/set2/orange.gif","img/card_backs/set2/gray.gif","img/card_backs/set2/pink.gif","img/card_backs/set2/blue.gif","""event"",""trial"",""time""
""fullscreenenter"",""1"",""6998""
","
","
","""event"",""trial"",""time""
""fullscreenenter"",""1"",""6998""
","
","","939.1199999954551","","","","real_trial","2021-04-16 17:50:38.472","img/card_backs/set1/red.gif","2","-200","1","",""
"casino-fixation","156","508366","0.0-25.0-0.43","188","true","img/card_backs/set1/yellow.gif","img/card_backs/set1/red.gif","img/card_backs/set1/green.gif","img/card_backs/set1/purple.gif","img/card_backs/set2/orange.gif","img/card_backs/set2/gray.gif","img/card_backs/set2/pink.gif","img/card_backs/set2/blue.gif","""event"",""trial"",""time""
""fullscreenenter"",""1"",""6998""
","
","
","""event"",""trial"",""time""
""fullscreenenter"",""1"",""6998""
","
","","null","","null","","fixation","2021-04-16 17:50:38.977","","","","","",""
"card-selection-trial","157","511101","0.0-25.0-1.43","188","true","img/card_backs/set1/yellow.gif","img/card_backs/set1/red.gif","img/card_backs/set1/green.gif","img/card_backs/set1/purple.gif","img/card_backs/set2/orange.gif","img/card_backs/set2/gray.gif","img/card_backs/set2/pink.gif","img/card_backs/set2/blue.gif","""event"",""trial"",""time""
""fullscreenenter"",""1"",""6998""
","
","
","""event"",""trial"",""time""
""fullscreenenter"",""1"",""6998""
","
","","724.9499999452382","","","","real_trial","2021-04-16 17:50:41.711","img/card_backs/set1/yellow.gif","3","250","1","",""
"casino-fixation","158","511606","0.0-25.0-0.44","188","true","img/card_backs/set1/yellow.gif","img/card_backs/set1/red.gif","img/card_backs/set1/green.gif","img/card_backs/set1/purple.gif","img/card_backs/set2/orange.gif","img/card_backs/set2/gray.gif","img/card_backs/set2/pink.gif","img/card_backs/set2/blue.gif","""event"",""trial"",""time""
""fullscreenenter"",""1"",""6998""
","
","
","""event"",""trial"",""time""
""fullscreenenter"",""1"",""6998""
","
","","null","","null","","fixation","2021-04-16 17:50:42.216","","","","","",""
"card-selection-trial","159","514816","0.0-25.0-1.44","188","true","img/card_backs/set1/yellow.gif","img/card_backs/set1/red.gif","img/card_backs/set1/green.gif","img/card_backs/set1/purple.gif","img/card_backs/set2/orange.gif","img/card_backs/set2/gray.gif","img/card_backs/set2/pink.gif","img/card_backs/set2/blue.gif","""event"",""trial"",""time""
""fullscreenenter"",""1"",""6998""
","
","
","""event"",""trial"",""time""
""fullscreenenter"",""1"",""6998""
","
","","1202.625000034459","","","","real_trial","2021-04-16 17:50:45.426","img/card_backs/set1/purple.gif","1","-90","1","",""
"casino-fixation","160","515321","0.0-25.0-0.45","188","true","img/card_backs/set1/yellow.gif","img/card_backs/set1/red.gif","img/card_backs/set1/green.gif","img/card_backs/set1/purple.gif","img/card_backs/set2/orange.gif","img/card_backs/set2/gray.gif","img/card_backs/set2/pink.gif","img/card_backs/set2/blue.gif","""event"",""trial"",""time""
""fullscreenenter"",""1"",""6998""
","
","
","""event"",""trial"",""time""
""fullscreenenter"",""1"",""6998""
","
","","null","","null","","fixation","2021-04-16 17:50:45.931","","","","","",""
"card-selection-trial","161","519349","0.0-25.0-1.45","188","true","img/card_backs/set1/yellow.gif","img/card_backs/set1/red.gif","img/card_backs/set1/green.gif","img/card_backs/set1/purple.gif","img/card_backs/set2/orange.gif","img/card_backs/set2/gray.gif","img/card_backs/set2/pink.gif","img/card_backs/set2/blue.gif","""event"",""trial"",""time""
""fullscreenenter"",""1"",""6998""
","
","
","""event"",""trial"",""time""
""fullscreenenter"",""1"",""6998""
","
","","2019.5650000823662","","","","real_trial","2021-04-16 17:50:49.959","img/card_backs/set1/red.gif","3","260","1","",""
"casino-fixation","162","519854","0.0-25.0-0.46","188","true","img/card_backs/set1/yellow.gif","img/card_backs/set1/red.gif","img/card_backs/set1/green.gif","img/card_backs/set1/purple.gif","img/card_backs/set2/orange.gif","img/card_backs/set2/gray.gif","img/card_backs/set2/pink.gif","img/card_backs/set2/blue.gif","""event"",""trial"",""time""
""fullscreenenter"",""1"",""6998""
","
","
","""event"",""trial"",""time""
""fullscreenenter"",""1"",""6998""
","
","","null","","null","","fixation","2021-04-16 17:50:50.464","","","","","",""
"card-selection-trial","163","522914","0.0-25.0-1.46","188","true","img/card_backs/set1/yellow.gif","img/card_backs/set1/red.gif","img/card_backs/set1/green.gif","img/card_backs/set1/purple.gif","img/card_backs/set2/orange.gif","img/card_backs/set2/gray.gif","img/card_backs/set2/pink.gif","img/card_backs/set2/blue.gif","""event"",""trial"",""time""
""fullscreenenter"",""1"",""6998""
","
","
","""event"",""trial"",""time""
""fullscreenenter"",""1"",""6998""
","
","","1053.8950000191107","","","","real_trial","2021-04-16 17:50:53.524","img/card_backs/set1/green.gif","1","40","1","",""
"casino-fixation","164","523419","0.0-25.0-0.47","188","true","img/card_backs/set1/yellow.gif","img/card_backs/set1/red.gif","img/card_backs/set1/green.gif","img/card_backs/set1/purple.gif","img/card_backs/set2/orange.gif","img/card_backs/set2/gray.gif","img/card_backs/set2/pink.gif","img/card_backs/set2/blue.gif","""event"",""trial"",""time""
""fullscreenenter"",""1"",""6998""
","
","
","""event"",""trial"",""time""
""fullscreenenter"",""1"",""6998""
","
","","null","","null","","fixation","2021-04-16 17:50:54.029","","","","","",""
"card-selection-trial","165","525927","0.0-25.0-1.47","188","true","img/card_backs/set1/yellow.gif","img/card_backs/set1/red.gif","img/card_backs/set1/green.gif","img/card_backs/set1/purple.gif","img/card_backs/set2/orange.gif","img/card_backs/set2/gray.gif","img/card_backs/set2/pink.gif","img/card_backs/set2/blue.gif","""event"",""trial"",""time""
""fullscreenenter"",""1"",""6998""
","
","
","""event"",""trial"",""time""
""fullscreenenter"",""1"",""6998""
","
","","500.4500000504777","","","","real_trial","2021-04-16 17:50:56.537","img/card_backs/set1/yellow.gif","0","-210","1","",""
"casino-fixation","166","526431","0.0-25.0-0.48","188","true","img/card_backs/set1/yellow.gif","img/card_backs/set1/red.gif","img/card_backs/set1/green.gif","img/card_backs/set1/purple.gif","img/card_backs/set2/orange.gif","img/card_backs/set2/gray.gif","img/card_backs/set2/pink.gif","img/card_backs/set2/blue.gif","""event"",""trial"",""time""
""fullscreenenter"",""1"",""6998""
","
","
","""event"",""trial"",""time""
""fullscreenenter"",""1"",""6998""
","
","","null","","null","","fixation","2021-04-16 17:50:57.042","","","","","",""
"card-selection-trial","167","529642","0.0-25.0-1.48","188","true","img/card_backs/set1/yellow.gif","img/card_backs/set1/red.gif","img/card_backs/set1/green.gif","img/card_backs/set1/purple.gif","img/card_backs/set2/orange.gif","img/card_backs/set2/gray.gif","img/card_backs/set2/pink.gif","img/card_backs/set2/blue.gif","""event"",""trial"",""time""
""fullscreenenter"",""1"",""6998""
","
","
","""event"",""trial"",""time""
""fullscreenenter"",""1"",""6998""
","
