"trial_type","trial_index","time_elapsed","internal_node_id","sub_id","risk_good_first","block1_A","block1_B","block1_C","block1_D","block2_A","block2_B","block2_C","block2_D","interactions","blur_events","focus_events","fullscreenenter_events","fullscreenexit_events","success","rt","stimulus","key_press","button_pressed","task_part","timestamp","card_choice","choice_position","points_earned","block","correct","response"
"pavlovia","0","6","0.0-0.0","995","false","img/card_backs/set1/purple.gif","img/card_backs/set1/red.gif","img/card_backs/set1/green.gif","img/card_backs/set1/yellow.gif","img/card_backs/set2/pink.gif","img/card_backs/set2/blue.gif","img/card_backs/set2/orange.gif","img/card_backs/set2/gray.gif","""event"",""trial"",""time""
""fullscreenenter"",""1"",""5366""
","
","
","""event"",""trial"",""time""
""fullscreenenter"",""1"",""5366""
","
","","","","","","","","","","","","",""
"fullscreen","1","6325","0.0-1.0","995","false","img/card_backs/set1/purple.gif","img/card_backs/set1/red.gif","img/card_backs/set1/green.gif","img/card_backs/set1/yellow.gif","img/card_backs/set2/pink.gif","img/card_backs/set2/blue.gif","img/card_backs/set2/orange.gif","img/card_backs/set2/gray.gif","""event"",""trial"",""time""
""fullscreenenter"",""1"",""5366""
","
","
","""event"",""trial"",""time""
""fullscreenenter"",""1"",""5366""
","
","true","","","","","","","","","","","",""
"audio-keyboard-response","2","8908","0.0-2.0","995","false","img/card_backs/set1/purple.gif","img/card_backs/set1/red.gif","img/card_backs/set1/green.gif","img/card_backs/set1/yellow.gif","img/card_backs/set2/pink.gif","img/card_backs/set2/blue.gif","img/card_backs/set2/orange.gif","img/card_backs/set2/gray.gif","""event"",""trial"",""time""
""fullscreenenter"",""1"",""5366""
","
","
","""event"",""trial"",""time""
""fullscreenenter"",""1"",""5366""
","
","","2301","audio/beep_loop.wav","32","","","","","","","","",""
"audio-button-response","3","11450","0.0-3.0","995","false","img/card_backs/set1/purple.gif","img/card_backs/set1/red.gif","img/card_backs/set1/green.gif","img/card_backs/set1/yellow.gif","img/card_backs/set2/pink.gif","img/card_backs/set2/blue.gif","img/card_backs/set2/orange.gif","img/card_backs/set2/gray.gif","""event"",""trial"",""time""
""fullscreenenter"",""1"",""5366""
","
","
","""event"",""trial"",""time""
""fullscreenenter"",""1"",""5366""
","
","","NaN","audio/turtle.mp3","","3","","","","","","","",""
"audio-button-response","4","17151","0.0-4.0","995","false","img/card_backs/set1/purple.gif","img/card_backs/set1/red.gif","img/card_backs/set1/green.gif","img/card_backs/set1/yellow.gif","img/card_backs/set2/pink.gif","img/card_backs/set2/blue.gif","img/card_backs/set2/orange.gif","img/card_backs/set2/gray.gif","""event"",""trial"",""time""
""fullscreenenter"",""1"",""5366""
","
","
","""event"",""trial"",""time""
""fullscreenenter"",""1"",""5366""
","
","","NaN","audio/shark.mp3","","2","","","","","","","",""
"fullscreen","5","21358","0.0-5.0","995","false","img/card_backs/set1/purple.gif","img/card_backs/set1/red.gif","img/card_backs/set1/green.gif","img/card_backs/set1/yellow.gif","img/card_backs/set2/pink.gif","img/card_backs/set2/blue.gif","img/card_backs/set2/orange.gif","img/card_backs/set2/gray.gif","""event"",""trial"",""time""
""fullscreenenter"",""1"",""5366""
","
","
","""event"",""trial"",""time""
""fullscreenenter"",""1"",""5366""
","
","true","","","","","","","","","","","",""
"casino-keyboard-response","6","24759","0.0-6.0-0.0","995","false","img/card_backs/set1/purple.gif","img/card_backs/set1/red.gif","img/card_backs/set1/green.gif","img/card_backs/set1/yellow.gif","img/card_backs/set2/pink.gif","img/card_backs/set2/blue.gif","img/card_backs/set2/orange.gif","img/card_backs/set2/gray.gif","""event"",""trial"",""time""
""fullscreenenter"",""1"",""5366""
","
","
","""event"",""trial"",""time""
""fullscreenenter"",""1"",""5366""
","
","","3389.599999997765","Welcome to the casino!","71","","instructions","2021-07-15 18:41:16.143","","","","","",""
"casino-keyboard-response","7","34358","0.0-6.0-0.1","995","false","img/card_backs/set1/purple.gif","img/card_backs/set1/red.gif","img/card_backs/set1/green.gif","img/card_backs/set1/yellow.gif","img/card_backs/set2/pink.gif","img/card_backs/set2/blue.gif","img/card_backs/set2/orange.gif","img/card_backs/set2/gray.gif","""event"",""trial"",""time""
""fullscreenenter"",""1"",""5366""
","
","
","""event"",""trial"",""time""
""fullscreenenter"",""1"",""5366""
","
","","9593.300000000745","Today you will be playing a game to earn tokens. </br> At the end of the experiment, you will be paid a bonus based on how many tokens you win. ","69","","instructions","2021-07-15 18:41:25.742","","","","","",""
"casino-keyboard-response","8","41976","0.0-6.0-0.2","995","false","img/card_backs/set1/purple.gif","img/card_backs/set1/red.gif","img/card_backs/set1/green.gif","img/card_backs/set1/yellow.gif","img/card_backs/set2/pink.gif","img/card_backs/set2/blue.gif","img/card_backs/set2/orange.gif","img/card_backs/set2/gray.gif","""event"",""trial"",""time""
""fullscreenenter"",""1"",""5366""
","
","
","""event"",""trial"",""time""
""fullscreenenter"",""1"",""5366""
","
","","7611.800000000745","On every turn, you will be shown four different decks of cards. </br> You need to select a card from one of the four decks.  ","75","","instructions","2021-07-15 18:41:33.359","","","","","",""
"casino-keyboard-response","9","46777","0.0-6.0-0.3","995","false","img/card_backs/set1/purple.gif","img/card_backs/set1/red.gif","img/card_backs/set1/green.gif","img/card_backs/set1/yellow.gif","img/card_backs/set2/pink.gif","img/card_backs/set2/blue.gif","img/card_backs/set2/orange.gif","img/card_backs/set2/gray.gif","""event"",""trial"",""time""
""fullscreenenter"",""1"",""5366""
","
","
","""event"",""trial"",""time""
""fullscreenenter"",""1"",""5366""
","
","","4797.300000000745","On the next screen, you will see what the decks will look like. ","66","","instructions","2021-07-15 18:41:38.160","","","","","",""
"card-selection-trial","10","50802","0.0-7.0-0.0","995","false","img/card_backs/set1/purple.gif","img/card_backs/set1/red.gif","img/card_backs/set1/green.gif","img/card_backs/set1/yellow.gif","img/card_backs/set2/pink.gif","img/card_backs/set2/blue.gif","img/card_backs/set2/orange.gif","img/card_backs/set2/gray.gif","""event"",""trial"",""time""
""fullscreenenter"",""1"",""5366""
","
","
","""event"",""trial"",""time""
""fullscreenenter"",""1"",""5366""
","
","","null","","","","practice","2021-07-15 18:41:42.185","null","null","null","0","",""
"casino-keyboard-response","11","58426","0.0-8.0-0.0","995","false","img/card_backs/set1/purple.gif","img/card_backs/set1/red.gif","img/card_backs/set1/green.gif","img/card_backs/set1/yellow.gif","img/card_backs/set2/pink.gif","img/card_backs/set2/blue.gif","img/card_backs/set2/orange.gif","img/card_backs/set2/gray.gif","""event"",""trial"",""time""
""fullscreenenter"",""1"",""5366""
","
","
","""event"",""trial"",""time""
""fullscreenenter"",""1"",""5366""
","
","","7617.699999999255","You should pick a card from a deck using the '2', '4', '6', and '8' keys at the top of the keyboard.","85","","instructions","2021-07-15 18:41:49.809","","","","","",""
"casino-keyboard-response","12","64076","0.0-8.0-0.1","995","false","img/card_backs/set1/purple.gif","img/card_backs/set1/red.gif","img/card_backs/set1/green.gif","img/card_backs/set1/yellow.gif","img/card_backs/set2/pink.gif","img/card_backs/set2/blue.gif","img/card_backs/set2/orange.gif","img/card_backs/set2/gray.gif","""event"",""trial"",""time""
""fullscreenenter"",""1"",""5366""
","
","
","""event"",""trial"",""time""
""fullscreenenter"",""1"",""5366""
","
","","5645.199999999255","Once you select a card, it will turn over and you will see how many tokens you earned.","83","","instructions","2021-07-15 18:41:55.459","","","","","",""
"casino-keyboard-response","13","78201","0.0-8.0-0.2","995","false","img/card_backs/set1/purple.gif","img/card_backs/set1/red.gif","img/card_backs/set1/green.gif","img/card_backs/set1/yellow.gif","img/card_backs/set2/pink.gif","img/card_backs/set2/blue.gif","img/card_backs/set2/orange.gif","img/card_backs/set2/gray.gif","""event"",""trial"",""time""
""fullscreenenter"",""1"",""5366""
","
","
","""event"",""trial"",""time""
""fullscreenenter"",""1"",""5366""
","
","","14119.800000000745","Let's try practicing that! </br> First, try to put your fingers over the '2', '4', '6', and '8' keys. </br>  You can use whatever fingers are most comfortable for you. Try to find a comfortable position now. ","50","","instructions","2021-07-15 18:42:09.584","","","","","",""
"casino-keyboard-response","14","84076","0.0-8.0-0.3","995","false","img/card_backs/set1/purple.gif","img/card_backs/set1/red.gif","img/card_backs/set1/green.gif","img/card_backs/set1/yellow.gif","img/card_backs/set2/pink.gif","img/card_backs/set2/blue.gif","img/card_backs/set2/orange.gif","img/card_backs/set2/gray.gif","""event"",""trial"",""time""
""fullscreenenter"",""1"",""5366""
","
","
","""event"",""trial"",""time""
""fullscreenenter"",""1"",""5366""
","
","","5869.199999999255","Okay ready? </br> On the next screen, press '2' to select the left deck. ","50","","instructions","2021-07-15 18:42:15.459","","","","","",""
"card-selection-trial","15","86946","0.0-9.0-0.0","995","false","img/card_backs/set1/purple.gif","img/card_backs/set1/red.gif","img/card_backs/set1/green.gif","img/card_backs/set1/yellow.gif","img/card_backs/set2/pink.gif","img/card_backs/set2/blue.gif","img/card_backs/set2/orange.gif","img/card_backs/set2/gray.gif","""event"",""trial"",""time""
""fullscreenenter"",""1"",""5366""
","
","
","""event"",""trial"",""time""
""fullscreenenter"",""1"",""5366""
","
","","833.8000000007451","","","","practice_card_selection","2021-07-15 18:42:18.330","img/practice_cards/backs/dark_blue.gif","0","200","","",""
"casino-keyboard-response","16","92839","0.0-10.0-0.0","995","false","img/card_backs/set1/purple.gif","img/card_backs/set1/red.gif","img/card_backs/set1/green.gif","img/card_backs/set1/yellow.gif","img/card_backs/set2/pink.gif","img/card_backs/set2/blue.gif","img/card_backs/set2/orange.gif","img/card_backs/set2/gray.gif","""event"",""trial"",""time""
""fullscreenenter"",""1"",""5366""
","
","
","""event"",""trial"",""time""
""fullscreenenter"",""1"",""5366""
","
","","5887.39999999851","Great! Now on the next screen, try pressing '6' to select the third deck.","54","","instructions","2021-07-15 18:42:24.222","","","","","",""
"card-selection-trial","17","95648","0.0-11.0-0.0","995","false","img/card_backs/set1/purple.gif","img/card_backs/set1/red.gif","img/card_backs/set1/green.gif","img/card_backs/set1/yellow.gif","img/card_backs/set2/pink.gif","img/card_backs/set2/blue.gif","img/card_backs/set2/orange.gif","img/card_backs/set2/gray.gif","""event"",""trial"",""time""
""fullscreenenter"",""1"",""5366""
","
","
","""event"",""trial"",""time""
""fullscreenenter"",""1"",""5366""
","
","","800.1000000014901","","","","practice_card_selection","2021-07-15 18:42:27.031","img/practice_cards/backs/black.gif","2","100","","",""
"casino-keyboard-response","18","100695","0.0-12.0-0.0","995","false","img/card_backs/set1/purple.gif","img/card_backs/set1/red.gif","img/card_backs/set1/green.gif","img/card_backs/set1/yellow.gif","img/card_backs/set2/pink.gif","img/card_backs/set2/blue.gif","img/card_backs/set2/orange.gif","img/card_backs/set2/gray.gif","""event"",""trial"",""time""
""fullscreenenter"",""1"",""5366""
","
","
","""event"",""trial"",""time""
""fullscreenenter"",""1"",""5366""
","
","","5044","Now on the next screen, try pressing '4' to select the second deck.","52","","instructions","2021-07-15 18:42:32.078","","","","","",""
"card-selection-trial","19","103382","0.0-13.0-0.0","995","false","img/card_backs/set1/purple.gif","img/card_backs/set1/red.gif","img/card_backs/set1/green.gif","img/card_backs/set1/yellow.gif","img/card_backs/set2/pink.gif","img/card_backs/set2/blue.gif","img/card_backs/set2/orange.gif","img/card_backs/set2/gray.gif","""event"",""trial"",""time""
""fullscreenenter"",""1"",""5366""
","
","
","""event"",""trial"",""time""
""fullscreenenter"",""1"",""5366""
","
","","661.3999999985099","","","","practice_card_selection","2021-07-15 18:42:34.765","img/practice_cards/backs/brown.gif","1","100","","",""
"casino-keyboard-response","20","108259","0.0-14.0-0.0","995","false","img/card_backs/set1/purple.gif","img/card_backs/set1/red.gif","img/card_backs/set1/green.gif","img/card_backs/set1/yellow.gif","img/card_backs/set2/pink.gif","img/card_backs/set2/blue.gif","img/card_backs/set2/orange.gif","img/card_backs/set2/gray.gif","""event"",""trial"",""time""
""fullscreenenter"",""1"",""5366""
","
","
","""event"",""trial"",""time""
""fullscreenenter"",""1"",""5366""
","
","","4874.300000000745","Finally, try pressing '8' to select the deck all the way on the right.","56","","instructions","2021-07-15 18:42:39.642","","","","","",""
"card-selection-trial","21","110791","0.0-15.0-0.0","995","false","img/card_backs/set1/purple.gif","img/card_backs/set1/red.gif","img/card_backs/set1/green.gif","img/card_backs/set1/yellow.gif","img/card_backs/set2/pink.gif","img/card_backs/set2/blue.gif","img/card_backs/set2/orange.gif","img/card_backs/set2/gray.gif","""event"",""trial"",""time""
""fullscreenenter"",""1"",""5366""
","
","
","""event"",""trial"",""time""
""fullscreenenter"",""1"",""5366""
","
","","480.8999999985099","","","","practice_card_selection","2021-07-15 18:42:42.174","img/practice_cards/backs/dark_green.gif","3","-200","","",""
"casino-keyboard-response","22","115089","0.0-16.0-0.0","995","false","img/card_backs/set1/purple.gif","img/card_backs/set1/red.gif","img/card_backs/set1/green.gif","img/card_backs/set1/yellow.gif","img/card_backs/set2/pink.gif","img/card_backs/set2/blue.gif","img/card_backs/set2/orange.gif","img/card_backs/set2/gray.gif","""event"",""trial"",""time""
""fullscreenenter"",""1"",""5366""
","
","
","""event"",""trial"",""time""
""fullscreenenter"",""1"",""5366""
","
","","4292.599999997765","Great! It seems like you are getting the hang of this.","80","","instructions","2021-07-15 18:42:46.472","","","","","",""
"casino-keyboard-response","23","122464","0.0-16.0-0.1","995","false","img/card_backs/set1/purple.gif","img/card_backs/set1/red.gif","img/card_backs/set1/green.gif","img/card_backs/set1/yellow.gif","img/card_backs/set2/pink.gif","img/card_backs/set2/blue.gif","img/card_backs/set2/orange.gif","img/card_backs/set2/gray.gif","""event"",""trial"",""time""
""fullscreenenter"",""1"",""5366""
","
","
","""event"",""trial"",""time""
""fullscreenenter"",""1"",""5366""
","
","","7369.699999999255","You may have noticed that some cards will cause you to <b> win </b> tokens while other cards will cause you to <b> lose </b>  tokens.","70","","instructions","2021-07-15 18:42:53.847","","","","","",""
"casino-keyboard-response","24","131015","0.0-16.0-0.2","995","false","img/card_backs/set1/purple.gif","img/card_backs/set1/red.gif","img/card_backs/set1/green.gif","img/card_backs/set1/yellow.gif","img/card_backs/set2/pink.gif","img/card_backs/set2/blue.gif","img/card_backs/set2/orange.gif","img/card_backs/set2/gray.gif","""event"",""trial"",""time""
""fullscreenenter"",""1"",""5366""
","
","
","""event"",""trial"",""time""
""fullscreenenter"",""1"",""5366""
","
","","8545.89999999851","Each deck has a mix of cards that will cause you to win and lose tokens. </br> However, the cards in each colored deck are different.","73","","instructions","2021-07-15 18:43:02.398","","","","","",""
"casino-keyboard-response","25","139606","0.0-16.0-0.3","995","false","img/card_backs/set1/purple.gif","img/card_backs/set1/red.gif","img/card_backs/set1/green.gif","img/card_backs/set1/yellow.gif","img/card_backs/set2/pink.gif","img/card_backs/set2/blue.gif","img/card_backs/set2/orange.gif","img/card_backs/set2/gray.gif","""event"",""trial"",""time""
""fullscreenenter"",""1"",""5366""
","
","
","""event"",""trial"",""time""
""fullscreenenter"",""1"",""5366""
","
","","8586.29999999702","Some colored decks are luckier than others. </br> If you choose the lucky decks, you will earn more tokens than if you choose the unlucky decks.","69","","instructions","2021-07-15 18:43:10.989","","","","","",""
"casino-keyboard-response","26","146886","0.0-16.0-0.4","995","false","img/card_backs/set1/purple.gif","img/card_backs/set1/red.gif","img/card_backs/set1/green.gif","img/card_backs/set1/yellow.gif","img/card_backs/set2/pink.gif","img/card_backs/set2/blue.gif","img/card_backs/set2/orange.gif","img/card_backs/set2/gray.gif","""event"",""trial"",""time""
""fullscreenenter"",""1"",""5366""
","
","
","""event"",""trial"",""time""
""fullscreenenter"",""1"",""5366""
","
","","7275.599999997765","You should try to figure out which decks are lucky. </br> Then, try to choose the lucky decks so you can win the most tokens.","87","","instructions","2021-07-15 18:43:18.269","","","","","",""
"casino-keyboard-response","27","158566","0.0-16.0-0.5","995","false","img/card_backs/set1/purple.gif","img/card_backs/set1/red.gif","img/card_backs/set1/green.gif","img/card_backs/set1/yellow.gif","img/card_backs/set2/pink.gif","img/card_backs/set2/blue.gif","img/card_backs/set2/orange.gif","img/card_backs/set2/gray.gif","""event"",""trial"",""time""
""fullscreenenter"",""1"",""5366""
","
","
","""event"",""trial"",""time""
""fullscreenenter"",""1"",""5366""
","
","","11675.900000002235","To make it trickier, the casino dealer will switch the locations of the decks on every turn. </br> The color of the deck determines how lucky it is. The location does not matter.","88","","instructions","2021-07-15 18:43:29.949","","","","","",""
"casino-keyboard-response","28","168230","0.0-16.0-0.6","995","false","img/card_backs/set1/purple.gif","img/card_backs/set1/red.gif","img/card_backs/set1/green.gif","img/card_backs/set1/yellow.gif","img/card_backs/set2/pink.gif","img/card_backs/set2/blue.gif","img/card_backs/set2/orange.gif","img/card_backs/set2/gray.gif","""event"",""trial"",""time""
""fullscreenenter"",""1"",""5366""
","
","
","""event"",""trial"",""time""
""fullscreenenter"",""1"",""5366""
","
","","9661.89999999851","The mix of cards in each colored deck will stay the same throughout the game. </br> That means that a deck that is lucky early on will stay lucky.","79","","instructions","2021-07-15 18:43:39.613","","","","","",""
"casino-keyboard-response","29","176665","0.0-16.0-0.7","995","false","img/card_backs/set1/purple.gif","img/card_backs/set1/red.gif","img/card_backs/set1/green.gif","img/card_backs/set1/yellow.gif","img/card_backs/set2/pink.gif","img/card_backs/set2/blue.gif","img/card_backs/set2/orange.gif","img/card_backs/set2/gray.gif","""event"",""trial"",""time""
""fullscreenenter"",""1"",""5366""
","
","
","""event"",""trial"",""time""
""fullscreenenter"",""1"",""5366""
","
","","8430.39999999851","Remember though, all the decks have a <b> mix </b> of both <b> good </b> and <b> bad </b> cards so it may take a couple of turns to figure out if a deck is lucky.","69","","instructions","2021-07-15 18:43:48.048","","","","","",""
"casino-keyboard-response","30","184921","0.0-16.0-0.8","995","false","img/card_backs/set1/purple.gif","img/card_backs/set1/red.gif","img/card_backs/set1/green.gif","img/card_backs/set1/yellow.gif","img/card_backs/set2/pink.gif","img/card_backs/set2/blue.gif","img/card_backs/set2/orange.gif","img/card_backs/set2/gray.gif","""event"",""trial"",""time""
""fullscreenenter"",""1"",""5366""
","
","
","""event"",""trial"",""time""
""fullscreenenter"",""1"",""5366""
","
","","8249.800000000745","At the end of the game, you will be paid bonus money based on how many tokens you win. </br> If you win more tokens, you will earn more money!","72","","instructions","2021-07-15 18:43:56.304","","","","","",""
"casino-keyboard-response","31","195982","0.0-16.0-0.9","995","false","img/card_backs/set1/purple.gif","img/card_backs/set1/red.gif","img/card_backs/set1/green.gif","img/card_backs/set1/yellow.gif","img/card_backs/set2/pink.gif","img/card_backs/set2/blue.gif","img/card_backs/set2/orange.gif","img/card_backs/set2/gray.gif","""event"",""trial"",""time""
""fullscreenenter"",""1"",""5366""
","
","
","""event"",""trial"",""time""
""fullscreenenter"",""1"",""5366""
","
","","11055.60000000149","You will never <b> lose </b> money. </br> If you end up with fewer than 0 tokens, you will earn $0 of bonus money, but you will still be paid for playing the game.","83","","instructions","2021-07-15 18:44:07.365","","","","","",""
"casino-keyboard-response","32","200174","0.0-16.0-0.10","995","false","img/card_backs/set1/purple.gif","img/card_backs/set1/red.gif","img/card_backs/set1/green.gif","img/card_backs/set1/yellow.gif","img/card_backs/set2/pink.gif","img/card_backs/set2/blue.gif","img/card_backs/set2/orange.gif","img/card_backs/set2/gray.gif","""event"",""trial"",""time""
""fullscreenenter"",""1"",""5366""
","
","
","""event"",""trial"",""time""
""fullscreenenter"",""1"",""5366""
","
","","4187.20000000298","You will have 10 seconds to make each choice.","82","","instructions","2021-07-15 18:44:11.557","","","","","",""
"casino-keyboard-response","33","208485","0.0-16.0-0.11","995","false","img/card_backs/set1/purple.gif","img/card_backs/set1/red.gif","img/card_backs/set1/green.gif","img/card_backs/set1/yellow.gif","img/card_backs/set2/pink.gif","img/card_backs/set2/blue.gif","img/card_backs/set2/orange.gif","img/card_backs/set2/gray.gif","""event"",""trial"",""time""
""fullscreenenter"",""1"",""5366""
","
","
","""event"",""trial"",""time""
""fullscreenenter"",""1"",""5366""
","
","","8302","Before you play the game for real, you will play with practice decks. </br> The tokens you earn during practice won't count toward your total.","86","","instructions","2021-07-15 18:44:19.868","","","","","",""
"casino-keyboard-response","34","219993","0.0-16.0-0.12","995","false","img/card_backs/set1/purple.gif","img/card_backs/set1/red.gif","img/card_backs/set1/green.gif","img/card_backs/set1/yellow.gif","img/card_backs/set2/pink.gif","img/card_backs/set2/blue.gif","img/card_backs/set2/orange.gif","img/card_backs/set2/gray.gif","""event"",""trial"",""time""
""fullscreenenter"",""1"",""5366""
","
","
","""event"",""trial"",""time""
""fullscreenenter"",""1"",""5366""
","
","","11505","Ready? Remember, use the '2', '4', '6', and '8' keys to select the decks. </br> Put your fingers on those keys now and then press '2' to begin.","50","","instructions","2021-07-15 18:44:31.376","","","","","",""
"casino-fixation","35","220503","0.0-17.0-0.0","995","false","img/card_backs/set1/purple.gif","img/card_backs/set1/red.gif","img/card_backs/set1/green.gif","img/card_backs/set1/yellow.gif","img/card_backs/set2/pink.gif","img/card_backs/set2/blue.gif","img/card_backs/set2/orange.gif","img/card_backs/set2/gray.gif","""event"",""trial"",""time""
""fullscreenenter"",""1"",""5366""
","
","
","""event"",""trial"",""time""
""fullscreenenter"",""1"",""5366""
","
","","null","","null","","fixation","2021-07-15 18:44:31.886","","","","","",""
"card-selection-trial","36","223867","0.0-17.0-1.0","995","false","img/card_backs/set1/purple.gif","img/card_backs/set1/red.gif","img/card_backs/set1/green.gif","img/card_backs/set1/yellow.gif","img/card_backs/set2/pink.gif","img/card_backs/set2/blue.gif","img/card_backs/set2/orange.gif","img/card_backs/set2/gray.gif","""event"",""trial"",""time""
""fullscreenenter"",""1"",""5366""
","
","
","""event"",""trial"",""time""
""fullscreenenter"",""1"",""5366""
","
","","1338.699999999255","","","","practice","2021-07-15 18:44:35.251","img/practice_cards/backs/black.gif","1","-100","0","",""
"casino-fixation","37","224378","0.0-17.0-0.1","995","false","img/card_backs/set1/purple.gif","img/card_backs/set1/red.gif","img/card_backs/set1/green.gif","img/card_backs/set1/yellow.gif","img/card_backs/set2/pink.gif","img/card_backs/set2/blue.gif","img/card_backs/set2/orange.gif","img/card_backs/set2/gray.gif","""event"",""trial"",""time""
""fullscreenenter"",""1"",""5366""
","
","
","""event"",""trial"",""time""
""fullscreenenter"",""1"",""5366""
","
","","null","","null","","fixation","2021-07-15 18:44:35.761","","","","","",""
"card-selection-trial","38","227628","0.0-17.0-1.1","995","false","img/card_backs/set1/purple.gif","img/card_backs/set1/red.gif","img/card_backs/set1/green.gif","img/card_backs/set1/yellow.gif","img/card_backs/set2/pink.gif","img/card_backs/set2/blue.gif","img/card_backs/set2/orange.gif","img/card_backs/set2/gray.gif","""event"",""trial"",""time""
""fullscreenenter"",""1"",""5366""
","
","
","""event"",""trial"",""time""
""fullscreenenter"",""1"",""5366""
","
","","1215.8999999985099","","","","practice","2021-07-15 18:44:39.011","img/practice_cards/backs/brown.gif","2","-100","0","",""
"casino-fixation","39","228143","0.0-17.0-0.2","995","false","img/card_backs/set1/purple.gif","img/card_backs/set1/red.gif","img/card_backs/set1/green.gif","img/card_backs/set1/yellow.gif","img/card_backs/set2/pink.gif","img/card_backs/set2/blue.gif","img/card_backs/set2/orange.gif","img/card_backs/set2/gray.gif","""event"",""trial"",""time""
""fullscreenenter"",""1"",""5366""
","
","
","""event"",""trial"",""time""
""fullscreenenter"",""1"",""5366""
","
","","null","","null","","fixation","2021-07-15 18:44:39.526","","","","","",""
"card-selection-trial","40","230841","0.0-17.0-1.2","995","false","img/card_backs/set1/purple.gif","img/card_backs/set1/red.gif","img/card_backs/set1/green.gif","img/card_backs/set1/yellow.gif","img/card_backs/set2/pink.gif","img/card_backs/set2/blue.gif","img/card_backs/set2/orange.gif","img/card_backs/set2/gray.gif","""event"",""trial"",""time""
""fullscreenenter"",""1"",""5366""
","
","
","""event"",""trial"",""time""
""fullscreenenter"",""1"",""5366""
","
","","678.3999999985099","","","","practice","2021-07-15 18:44:42.224","img/practice_cards/backs/dark_blue.gif","0","-200","0","",""
"casino-fixation","41","231356","0.0-17.0-0.3","995","false","img/card_backs/set1/purple.gif","img/card_backs/set1/red.gif","img/card_backs/set1/green.gif","img/card_backs/set1/yellow.gif","img/card_backs/set2/pink.gif","img/card_backs/set2/blue.gif","img/card_backs/set2/orange.gif","img/card_backs/set2/gray.gif","""event"",""trial"",""time""
""fullscreenenter"",""1"",""5366""
","
","
","""event"",""trial"",""time""
""fullscreenenter"",""1"",""5366""
","
","","null","","null","","fixation","2021-07-15 18:44:42.739","","","","","",""
"card-selection-trial","42","235250","0.0-17.0-1.3","995","false","img/card_backs/set1/purple.gif","img/card_backs/set1/red.gif","img/card_backs/set1/green.gif","img/card_backs/set1/yellow.gif","img/card_backs/set2/pink.gif","img/card_backs/set2/blue.gif","img/card_backs/set2/orange.gif","img/card_backs/set2/gray.gif","""event"",""trial"",""time""
""fullscreenenter"",""1"",""5366""
","
","
","""event"",""trial"",""time""
""fullscreenenter"",""1"",""5366""
","
","","1840.0999999977648","","","","practice","2021-07-15 18:44:46.633","img/practice_cards/backs/black.gif","0","-100","0","",""
"casino-fixation","43","235764","0.0-17.0-0.4","995","false","img/card_backs/set1/purple.gif","img/card_backs/set1/red.gif","img/card_backs/set1/green.gif","img/card_backs/set1/yellow.gif","img/card_backs/set2/pink.gif","img/card_backs/set2/blue.gif","img/card_backs/set2/orange.gif","img/card_backs/set2/gray.gif","""event"",""trial"",""time""
""fullscreenenter"",""1"",""5366""
","
","
","""event"",""trial"",""time""
""fullscreenenter"",""1"",""5366""
","
","","null","","null","","fixation","2021-07-15 18:44:47.147","","","","","",""
"card-selection-trial","44","239012","0.0-17.0-1.4","995","false","img/card_backs/set1/purple.gif","img/card_backs/set1/red.gif","img/card_backs/set1/green.gif","img/card_backs/set1/yellow.gif","img/card_backs/set2/pink.gif","img/card_backs/set2/blue.gif","img/card_backs/set2/orange.gif","img/card_backs/set2/gray.gif","""event"",""trial"",""time""
""fullscreenenter"",""1"",""5366""
","
","
","""event"",""trial"",""time""
""fullscreenenter"",""1"",""5366""
","
","","1212.2999999970198","","","","practice","2021-07-15 18:44:50.395","img/practice_cards/backs/brown.gif","2","-100","0","",""
"casino-fixation","45","239521","0.0-17.0-0.5","995","false","img/card_backs/set1/purple.gif","img/card_backs/set1/red.gif","img/card_backs/set1/green.gif","img/card_backs/set1/yellow.gif","img/card_backs/set2/pink.gif","img/card_backs/set2/blue.gif","img/card_backs/set2/orange.gif","img/card_backs/set2/gray.gif","""event"",""trial"",""time""
""fullscreenenter"",""1"",""5366""
","
","
","""event"",""trial"",""time""
""fullscreenenter"",""1"",""5366""
","
","","null","","null","","fixation","2021-07-15 18:44:50.904","","","","","",""
"card-selection-trial","46","242991","0.0-17.0-1.5","995","false","img/card_backs/set1/purple.gif","img/card_backs/set1/red.gif","img/card_backs/set1/green.gif","img/card_backs/set1/yellow.gif","img/card_backs/set2/pink.gif","img/card_backs/set2/blue.gif","img/card_backs/set2/orange.gif","img/card_backs/set2/gray.gif","""event"",""trial"",""time""
""fullscreenenter"",""1"",""5366""
","
","
","""event"",""trial"",""time""
""fullscreenenter"",""1"",""5366""
","
","","1442.3999999985099","","","","practice","2021-07-15 18:44:54.374","img/practice_cards/backs/black.gif","1","100","0","",""
"casino-fixation","47","243510","0.0-17.0-0.6","995","false","img/card_backs/set1/purple.gif","img/card_backs/set1/red.gif","img/card_backs/set1/green.gif","img/card_backs/set1/yellow.gif","img/card_backs/set2/pink.gif","img/card_backs/set2/blue.gif","img/card_backs/set2/orange.gif","img/card_backs/set2/gray.gif","""event"",""trial"",""time""
""fullscreenenter"",""1"",""5366""
","
","
","""event"",""trial"",""time""
""fullscreenenter"",""1"",""5366""
","
","","null","","null","","fixation","2021-07-15 18:44:54.894","","","","","",""
"card-selection-trial","48","246601","0.0-17.0-1.6","995","false","img/card_backs/set1/purple.gif","img/card_backs/set1/red.gif","img/card_backs/set1/green.gif","img/card_backs/set1/yellow.gif","img/card_backs/set2/pink.gif","img/card_backs/set2/blue.gif","img/card_backs/set2/orange.gif","img/card_backs/set2/gray.gif","""event"",""trial"",""time""
""fullscreenenter"",""1"",""5366""
","
","
","""event"",""trial"",""time""
""fullscreenenter"",""1"",""5366""
","
","","1070.199999999255","","","","practice","2021-07-15 18:44:57.984","img/practice_cards/backs/black.gif","2","-100","0","",""
"casino-fixation","49","247116","0.0-17.0-0.7","995","false","img/card_backs/set1/purple.gif","img/card_backs/set1/red.gif","img/card_backs/set1/green.gif","img/card_backs/set1/yellow.gif","img/card_backs/set2/pink.gif","img/card_backs/set2/blue.gif","img/card_backs/set2/orange.gif","img/card_backs/set2/gray.gif","""event"",""trial"",""time""
""fullscreenenter"",""1"",""5366""
","
","
","""event"",""trial"",""time""
""fullscreenenter"",""1"",""5366""
","
","","null","","null","","fixation","2021-07-15 18:44:58.499","","","","","",""
"card-selection-trial","50","250211","0.0-17.0-1.7","995","false","img/card_backs/set1/purple.gif","img/card_backs/set1/red.gif","img/card_backs/set1/green.gif","img/card_backs/set1/yellow.gif","img/card_backs/set2/pink.gif","img/card_backs/set2/blue.gif","img/card_backs/set2/orange.gif","img/card_backs/set2/gray.gif","""event"",""trial"",""time""
""fullscreenenter"",""1"",""5366""
","
","
","""event"",""trial"",""time""
""fullscreenenter"",""1"",""5366""
","
","","1081.800000000745","","","","practice","2021-07-15 18:45:01.594","img/practice_cards/backs/dark_green.gif","0","-200","0","",""
"casino-fixation","51","250720","0.0-17.0-0.8","995","false","img/card_backs/set1/purple.gif","img/card_backs/set1/red.gif","img/card_backs/set1/green.gif","img/card_backs/set1/yellow.gif","img/card_backs/set2/pink.gif","img/card_backs/set2/blue.gif","img/card_backs/set2/orange.gif","img/card_backs/set2/gray.gif","""event"",""trial"",""time""
""fullscreenenter"",""1"",""5366""
","
","
","""event"",""trial"",""time""
""fullscreenenter"",""1"",""5366""
","
","","null","","null","","fixation","2021-07-15 18:45:02.103","","","","","",""
"card-selection-trial","52","253596","0.0-17.0-1.8","995","false","img/card_backs/set1/purple.gif","img/card_backs/set1/red.gif","img/card_backs/set1/green.gif","img/card_backs/set1/yellow.gif","img/card_backs/set2/pink.gif","img/card_backs/set2/blue.gif","img/card_backs/set2/orange.gif","img/card_backs/set2/gray.gif","""event"",""trial"",""time""
""fullscreenenter"",""1"",""5366""
","
","
","""event"",""trial"",""time""
""fullscreenenter"",""1"",""5366""
","
","","864.7000000029802","","","","practice","2021-07-15 18:45:04.979","img/practice_cards/backs/dark_blue.gif","1","200","0","",""
"casino-fixation","53","254098","0.0-17.0-0.9","995","false","img/card_backs/set1/purple.gif","img/card_backs/set1/red.gif","img/card_backs/set1/green.gif","img/card_backs/set1/yellow.gif","img/card_backs/set2/pink.gif","img/card_backs/set2/blue.gif","img/card_backs/set2/orange.gif","img/card_backs/set2/gray.gif","""event"",""trial"",""time""
""fullscreenenter"",""1"",""5366""
","
","
","""event"",""trial"",""time""
""fullscreenenter"",""1"",""5366""
","
","","null","","null","","fixation","2021-07-15 18:45:05.481","","","","","",""
"card-selection-trial","54","257114","0.0-17.0-1.9","995","false","img/card_backs/set1/purple.gif","img/card_backs/set1/red.gif","img/card_backs/set1/green.gif","img/card_backs/set1/yellow.gif","img/card_backs/set2/pink.gif","img/card_backs/set2/blue.gif","img/card_backs/set2/orange.gif","img/card_backs/set2/gray.gif","""event"",""trial"",""time""
""fullscreenenter"",""1"",""5366""
","
","
","""event"",""trial"",""time""
""fullscreenenter"",""1"",""5366""
","
","","1009.3000000007451","","","","practice","2021-07-15 18:45:08.497","img/practice_cards/backs/brown.gif","3","-100","0","",""
"casino-keyboard-response","55","260676","0.0-18.0","995","false","img/card_backs/set1/purple.gif","img/card_backs/set1/red.gif","img/card_backs/set1/green.gif","img/card_backs/set1/yellow.gif","img/card_backs/set2/pink.gif","img/card_backs/set2/blue.gif","img/card_backs/set2/orange.gif","img/card_backs/set2/gray.gif","""event"",""trial"",""time""
""fullscreenenter"",""1"",""5366""
","
","
","""event"",""trial"",""time""
""fullscreenenter"",""1"",""5366""
","
","","3557.60000000149","You earned -700 tokens during the practice round!","82","","","2021-07-15 18:45:12.060","","","","","",""
"casino-keyboard-response","56","264982","0.0-19.0-0.0","995","false","img/card_backs/set1/purple.gif","img/card_backs/set1/red.gif","img/card_backs/set1/green.gif","img/card_backs/set1/yellow.gif","img/card_backs/set2/pink.gif","img/card_backs/set2/blue.gif","img/card_backs/set2/orange.gif","img/card_backs/set2/gray.gif","""event"",""trial"",""time""
""fullscreenenter"",""1"",""5366""
","
","
","""event"",""trial"",""time""
""fullscreenenter"",""1"",""5366""
","
","","4300.800000000745","Nice job! You are almost ready to play the real game.","86","","instructions","2021-07-15 18:45:16.365","","","","","",""
"casino-keyboard-response","57","271519","0.0-19.0-0.1","995","false","img/card_backs/set1/purple.gif","img/card_backs/set1/red.gif","img/card_backs/set1/green.gif","img/card_backs/set1/yellow.gif","img/card_backs/set2/pink.gif","img/card_backs/set2/blue.gif","img/card_backs/set2/orange.gif","img/card_backs/set2/gray.gif","""event"",""trial"",""time""
""fullscreenenter"",""1"",""5366""
","
","
","""event"",""trial"",""time""
""fullscreenenter"",""1"",""5366""
","
","","6532.20000000298","You will play two rounds of the real game. In each round, you will pick 100 cards in total.","73","","instructions","2021-07-15 18:45:22.903","","","","","",""
"casino-keyboard-response","58","275757","0.0-19.0-0.2","995","false","img/card_backs/set1/purple.gif","img/card_backs/set1/red.gif","img/card_backs/set1/green.gif","img/card_backs/set1/yellow.gif","img/card_backs/set2/pink.gif","img/card_backs/set2/blue.gif","img/card_backs/set2/orange.gif","img/card_backs/set2/gray.gif","""event"",""trial"",""time""
""fullscreenenter"",""1"",""5366""
","
","
","""event"",""trial"",""time""
""fullscreenenter"",""1"",""5366""
","
","","4232.60000000149","We are now going to ask you some questions about how the game works.","66","","instructions","2021-07-15 18:45:27.140","","","","","",""
"casino-keyboard-response","59","281872","0.0-19.0-0.3","995","false","img/card_backs/set1/purple.gif","img/card_backs/set1/red.gif","img/card_backs/set1/green.gif","img/card_backs/set1/yellow.gif","img/card_backs/set2/pink.gif","img/card_backs/set2/blue.gif","img/card_backs/set2/orange.gif","img/card_backs/set2/gray.gif","""event"",""trial"",""time""
""fullscreenenter"",""1"",""5366""
","
","
","""event"",""trial"",""time""
""fullscreenenter"",""1"",""5366""
","
","","6111.800000000745","Answer carefully. You will not be able to begin the game until you answer them correctly.","67","","instructions","2021-07-15 18:45:33.256","","","","","",""
"casino-comp_q","60","289253","0.0-20.0-0.0","995","false","img/card_backs/set1/purple.gif","img/card_backs/set1/red.gif","img/card_backs/set1/green.gif","img/card_backs/set1/yellow.gif","img/card_backs/set2/pink.gif","img/card_backs/set2/blue.gif","img/card_backs/set2/orange.gif","img/card_backs/set2/gray.gif","""event"",""trial"",""time""
""fullscreenenter"",""1"",""5366""
","
","
","""event"",""trial"",""time""
""fullscreenenter"",""1"",""5366""
","
","","7378.099999997765","True or False: All the decks have some cards that cause you to win tokens and some cards that cause you to lose tokens.","84","","","2021-07-15 18:45:40.637","","","","","",""
"casino-keyboard-response","61","294086","0.0-20.0-1.0","995","false","img/card_backs/set1/purple.gif","img/card_backs/set1/red.gif","img/card_backs/set1/green.gif","img/card_backs/set1/yellow.gif","img/card_backs/set2/pink.gif","img/card_backs/set2/blue.gif","img/card_backs/set2/orange.gif","img/card_backs/set2/gray.gif","""event"",""trial"",""time""
""fullscreenenter"",""1"",""5366""
","
","
","""event"",""trial"",""time""
""fullscreenenter"",""1"",""5366""
","
","","4827.199999999255","True is correct! All the decks have a mix of winning and losing cards.","77","","","2021-07-15 18:45:45.470","","","","","true",""
"casino-comp_q","62","298820","0.0-21.0-0.0","995","false","img/card_backs/set1/purple.gif","img/card_backs/set1/red.gif","img/card_backs/set1/green.gif","img/card_backs/set1/yellow.gif","img/card_backs/set2/pink.gif","img/card_backs/set2/blue.gif","img/card_backs/set2/orange.gif","img/card_backs/set2/gray.gif","""event"",""trial"",""time""
""fullscreenenter"",""1"",""5366""
","
","
","""event"",""trial"",""time""
""fullscreenenter"",""1"",""5366""
","
","","4726.199999999255","True or False: You will have as much time as you want to make your response.","70","","","2021-07-15 18:45:50.203","","","","","",""
"casino-keyboard-response","63","302946","0.0-21.0-1.0","995","false","img/card_backs/set1/purple.gif","img/card_backs/set1/red.gif","img/card_backs/set1/green.gif","img/card_backs/set1/yellow.gif","img/card_backs/set2/pink.gif","img/card_backs/set2/blue.gif","img/card_backs/set2/orange.gif","img/card_backs/set2/gray.gif","""event"",""trial"",""time""
""fullscreenenter"",""1"",""5366""
","
","
","""event"",""trial"",""time""
""fullscreenenter"",""1"",""5366""
","
","","4114.89999999851","False is correct! You will only have 10 seconds to make each choice.","75","","","2021-07-15 18:45:54.329","","","","","true",""
"casino-comp_q","64","308638","0.0-22.0-0.0","995","false","img/card_backs/set1/purple.gif","img/card_backs/set1/red.gif","img/card_backs/set1/green.gif","img/card_backs/set1/yellow.gif","img/card_backs/set2/pink.gif","img/card_backs/set2/blue.gif","img/card_backs/set2/orange.gif","img/card_backs/set2/gray.gif","""event"",""trial"",""time""
""fullscreenenter"",""1"",""5366""
","
","
","""event"",""trial"",""time""
""fullscreenenter"",""1"",""5366""
","
","","5687.699999999255","True or False: The location of the deck determines how lucky it is.","70","","","2021-07-15 18:46:00.021","","","","","",""
"casino-keyboard-response","65","313784","0.0-22.0-1.0","995","false","img/card_backs/set1/purple.gif","img/card_backs/set1/red.gif","img/card_backs/set1/green.gif","img/card_backs/set1/yellow.gif","img/card_backs/set2/pink.gif","img/card_backs/set2/blue.gif","img/card_backs/set2/orange.gif","img/card_backs/set2/gray.gif","""event"",""trial"",""time""
""fullscreenenter"",""1"",""5366""
","
","
","""event"",""trial"",""time""
""fullscreenenter"",""1"",""5366""
","
","","5143.599999997765","False is correct! The <i>color</i>  of the deck determines how lucky or unlucky it is.","68","","","2021-07-15 18:46:05.167","","","","","true",""
"casino-keyboard-response","66","317886","0.0-23.0-0.0","995","false","img/card_backs/set1/purple.gif","img/card_backs/set1/red.gif","img/card_backs/set1/green.gif","img/card_backs/set1/yellow.gif","img/card_backs/set2/pink.gif","img/card_backs/set2/blue.gif","img/card_backs/set2/orange.gif","img/card_backs/set2/gray.gif","""event"",""trial"",""time""
""fullscreenenter"",""1"",""5366""
","
","
","""event"",""trial"",""time""
""fullscreenenter"",""1"",""5366""
","
","","4096.79999999702","Great job! Now it's time to start the real game.","82","","instructions","2021-07-15 18:46:09.269","","","","","",""
"casino-keyboard-response","67","323086","0.0-23.0-0.1","995","false","img/card_backs/set1/purple.gif","img/card_backs/set1/red.gif","img/card_backs/set1/green.gif","img/card_backs/set1/yellow.gif","img/card_backs/set2/pink.gif","img/card_backs/set2/blue.gif","img/card_backs/set2/orange.gif","img/card_backs/set2/gray.gif","""event"",""trial"",""time""
""fullscreenenter"",""1"",""5366""
","
","
","""event"",""trial"",""time""
""fullscreenenter"",""1"",""5366""
","
","","5195.900000002235","Before we start, we're going to head into a new room of the casino.","86","","instructions","2021-07-15 18:46:14.469","","","","","",""
"casino-keyboard-response","68","329604","0.0-24.0-0.0","995","false","img/card_backs/set1/purple.gif","img/card_backs/set1/red.gif","img/card_backs/set1/green.gif","img/card_backs/set1/yellow.gif","img/card_backs/set2/pink.gif","img/card_backs/set2/blue.gif","img/card_backs/set2/orange.gif","img/card_backs/set2/gray.gif","""event"",""trial"",""time""
""fullscreenenter"",""1"",""5366""
","
","
","""event"",""trial"",""time""
""fullscreenenter"",""1"",""5366""
","
","","6514","Here we are! The real game will use different cards, but the rules will be the same.","71","","instructions","2021-07-15 18:46:20.987","","","","","",""
"casino-keyboard-response","69","339206","0.0-24.0-0.1","995","false","img/card_backs/set1/purple.gif","img/card_backs/set1/red.gif","img/card_backs/set1/green.gif","img/card_backs/set1/yellow.gif","img/card_backs/set2/pink.gif","img/card_backs/set2/blue.gif","img/card_backs/set2/orange.gif","img/card_backs/set2/gray.gif","""event"",""trial"",""time""
""fullscreenenter"",""1"",""5366""
","
","
","""event"",""trial"",""time""
""fullscreenenter"",""1"",""5366""
","
","","9599","Ready? Put your fingers over the '2', '4', 6', and '8' keys so you are ready to play the game. </br> Then press 2 to start.","50","","instructions","2021-07-15 18:46:30.589","","","","","",""
"casino-fixation","70","339717","0.0-25.0-0.0","995","false","img/card_backs/set1/purple.gif","img/card_backs/set1/red.gif","img/card_backs/set1/green.gif","img/card_backs/set1/yellow.gif","img/card_backs/set2/pink.gif","img/card_backs/set2/blue.gif","img/card_backs/set2/orange.gif","img/card_backs/set2/gray.gif","""event"",""trial"",""time""
""fullscreenenter"",""1"",""5366""
","
","
","""event"",""trial"",""time""
""fullscreenenter"",""1"",""5366""
","
","","null","","null","","fixation","2021-07-15 18:46:31.100","","","","","",""
"card-selection-trial","71","343073","0.0-25.0-1.0","995","false","img/card_backs/set1/purple.gif","img/card_backs/set1/red.gif","img/card_backs/set1/green.gif","img/card_backs/set1/yellow.gif","img/card_backs/set2/pink.gif","img/card_backs/set2/blue.gif","img/card_backs/set2/orange.gif","img/card_backs/set2/gray.gif","""event"",""trial"",""time""
""fullscreenenter"",""1"",""5366""
","
","
","""event"",""trial"",""time""
""fullscreenenter"",""1"",""5366""
","
","","1338","","","","real_trial","2021-07-15 18:46:34.456","img/card_backs/set1/purple.gif","1","180","1","",""
"casino-fixation","72","343588","0.0-25.0-0.1","995","false","img/card_backs/set1/purple.gif","img/card_backs/set1/red.gif","img/card_backs/set1/green.gif","img/card_backs/set1/yellow.gif","img/card_backs/set2/pink.gif","img/card_backs/set2/blue.gif","img/card_backs/set2/orange.gif","img/card_backs/set2/gray.gif","""event"",""trial"",""time""
""fullscreenenter"",""1"",""5366""
","
","
","""event"",""trial"",""time""
""fullscreenenter"",""1"",""5366""
","
","","null","","null","","fixation","2021-07-15 18:46:34.971","","","","","",""
"card-selection-trial","73","346327","0.0-25.0-1.1","995","false","img/card_backs/set1/purple.gif","img/card_backs/set1/red.gif","img/card_backs/set1/green.gif","img/card_backs/set1/yellow.gif","img/card_backs/set2/pink.gif","img/card_backs/set2/blue.gif","img/card_backs/set2/orange.gif","img/card_backs/set2/gray.gif","""event"",""trial"",""time""
""fullscreenenter"",""1"",""5366""
","
","
","""event"",""trial"",""time""
""fullscreenenter"",""1"",""5366""
","
","","725","","","","real_trial","2021-07-15 18:46:37.710","img/card_backs/set1/red.gif","0","180","1","",""
"casino-fixation","74","346842","0.0-25.0-0.2","995","false","img/card_backs/set1/purple.gif","img/card_backs/set1/red.gif","img/card_backs/set1/green.gif","img/card_backs/set1/yellow.gif","img/card_backs/set2/pink.gif","img/card_backs/set2/blue.gif","img/card_backs/set2/orange.gif","img/card_backs/set2/gray.gif","""event"",""trial"",""time""
""fullscreenenter"",""1"",""5366""
","
","
","""event"",""trial"",""time""
""fullscreenenter"",""1"",""5366""
","
","","null","","null","","fixation","2021-07-15 18:46:38.225","","","","","",""
"card-selection-trial","75","349771","0.0-25.0-1.2","995","false","img/card_backs/set1/purple.gif","img/card_backs/set1/red.gif","img/card_backs/set1/green.gif","img/card_backs/set1/yellow.gif","img/card_backs/set2/pink.gif","img/card_backs/set2/blue.gif","img/card_backs/set2/orange.gif","img/card_backs/set2/gray.gif","""event"",""trial"",""time""
""fullscreenenter"",""1"",""5366""
","
","
","""event"",""trial"",""time""
""fullscreenenter"",""1"",""5366""
","
","","896.2000000029802","","","","real_trial","2021-07-15 18:46:41.154","img/card_backs/set1/yellow.gif","2","-50","1","",""
"casino-fixation","76","350280","0.0-25.0-0.3","995","false","img/card_backs/set1/purple.gif","img/card_backs/set1/red.gif","img/card_backs/set1/green.gif","img/card_backs/set1/yellow.gif","img/card_backs/set2/pink.gif","img/card_backs/set2/blue.gif","img/card_backs/set2/orange.gif","img/card_backs/set2/gray.gif","""event"",""trial"",""time""
""fullscreenenter"",""1"",""5366""
","
","
","""event"",""trial"",""time""
""fullscreenenter"",""1"",""5366""
","
","","null","","null","","fixation","2021-07-15 18:46:41.663","","","","","",""
"card-selection-trial","77","353768","0.0-25.0-1.3","995","false","img/card_backs/set1/purple.gif","img/card_backs/set1/red.gif","img/card_backs/set1/green.gif","img/card_backs/set1/yellow.gif","img/card_backs/set2/pink.gif","img/card_backs/set2/blue.gif","img/card_backs/set2/orange.gif","img/card_backs/set2/gray.gif","""event"",""trial"",""time""
""fullscreenenter"",""1"",""5366""
","
","
","""event"",""trial"",""time""
""fullscreenenter"",""1"",""5366""
","
","","1448.7999999970198","","","","real_trial","2021-07-15 18:46:45.151","img/card_backs/set1/red.gif","1","-240","1","",""
"casino-fixation","78","354290","0.0-25.0-0.4","995","false","img/card_backs/set1/purple.gif","img/card_backs/set1/red.gif","img/card_backs/set1/green.gif","img/card_backs/set1/yellow.gif","img/card_backs/set2/pink.gif","img/card_backs/set2/blue.gif","img/card_backs/set2/orange.gif","img/card_backs/set2/gray.gif","""event"",""trial"",""time""
""fullscreenenter"",""1"",""5366""
","
","
","""event"",""trial"",""time""
""fullscreenenter"",""1"",""5366""
","
","","null","","null","","fixation","2021-07-15 18:46:45.673","","","","","",""
"card-selection-trial","79","357032","0.0-25.0-1.4","995","false","img/card_backs/set1/purple.gif","img/card_backs/set1/red.gif","img/card_backs/set1/green.gif","img/card_backs/set1/yellow.gif","img/card_backs/set2/pink.gif","img/card_backs/set2/blue.gif","img/card_backs/set2/orange.gif","img/card_backs/set2/gray.gif","""event"",""trial"",""time""
""fullscreenenter"",""1"",""5366""
","
","
","""event"",""trial"",""time""
""fullscreenenter"",""1"",""5366""
","
","","717","","","","real_trial","2021-07-15 18:46:48.415","img/card_backs/set1/green.gif","3","-50","1","",""
"casino-fixation","80","357550","0.0-25.0-0.5","995","false","img/card_backs/set1/purple.gif","img/card_backs/set1/red.gif","img/card_backs/set1/green.gif","img/card_backs/set1/yellow.gif","img/card_backs/set2/pink.gif","img/card_backs/set2/blue.gif","img/card_backs/set2/orange.gif","img/card_backs/set2/gray.gif","""event"",""trial"",""time""
""fullscreenenter"",""1"",""5366""
","
","
","""event"",""trial"",""time""
""fullscreenenter"",""1"",""5366""
","
","","null","","null","","fixation","2021-07-15 18:46:48.933","","","","","",""
"card-selection-trial","81","361190","0.0-25.0-1.5","995","false","img/card_backs/set1/purple.gif","img/card_backs/set1/red.gif","img/card_backs/set1/green.gif","img/card_backs/set1/yellow.gif","img/card_backs/set2/pink.gif","img/card_backs/set2/blue.gif","img/card_backs/set2/orange.gif","img/card_backs/set2/gray.gif","""event"",""trial"",""time""
""fullscreenenter"",""1"",""5366""
","
","
","""event"",""trial"",""time""
""fullscreenenter"",""1"",""5366""
","
","","1618.699999999255","","","","real_trial","2021-07-15 18:46:52.573","img/card_backs/set1/yellow.gif","1","100","1","",""
"casino-fixation","82","361700","0.0-25.0-0.6","995","false","img/card_backs/set1/purple.gif","img/card_backs/set1/red.gif","img/card_backs/set1/green.gif","img/card_backs/set1/yellow.gif","img/card_backs/set2/pink.gif","img/card_backs/set2/blue.gif","img/card_backs/set2/orange.gif","img/card_backs/set2/gray.gif","""event"",""trial"",""time""
""fullscreenenter"",""1"",""5366""
","
","
","""event"",""trial"",""time""
""fullscreenenter"",""1"",""5366""
","
","","null","","null","","fixation","2021-07-15 18:46:53.083","","","","","",""
"card-selection-trial","83","364631","0.0-25.0-1.6","995","false","img/card_backs/set1/purple.gif","img/card_backs/set1/red.gif","img/card_backs/set1/green.gif","img/card_backs/set1/yellow.gif","img/card_backs/set2/pink.gif","img/card_backs/set2/blue.gif","img/card_backs/set2/orange.gif","img/card_backs/set2/gray.gif","""event"",""trial"",""time""
""fullscreenenter"",""1"",""5366""
","
","
","""event"",""trial"",""time""
""fullscreenenter"",""1"",""5366""
","
","","908.3999999985099","","","","real_trial","2021-07-15 18:46:56.014","img/card_backs/set1/purple.gif","2","-250","1","",""
"casino-fixation","84","365140","0.0-25.0-0.7","995","false","img/card_backs/set1/purple.gif","img/card_backs/set1/red.gif","img/card_backs/set1/green.gif","img/card_backs/set1/yellow.gif","img/card_backs/set2/pink.gif","img/card_backs/set2/blue.gif","img/card_backs/set2/orange.gif","img/card_backs/set2/gray.gif","""event"",""trial"",""time""
""fullscreenenter"",""1"",""5366""
","
","
","""event"",""trial"",""time""
""fullscreenenter"",""1"",""5366""
","
","","null","","null","","fixation","2021-07-15 18:46:56.523","","","","","",""
"card-selection-trial","85","368165","0.0-25.0-1.7","995","false","img/card_backs/set1/purple.gif","img/card_backs/set1/red.gif","img/card_backs/set1/green.gif","img/card_backs/set1/yellow.gif","img/card_backs/set2/pink.gif","img/card_backs/set2/blue.gif","img/card_backs/set2/orange.gif","img/card_backs/set2/gray.gif","""event"",""trial"",""time""
""fullscreenenter"",""1"",""5366""
","
","
","""event"",""trial"",""time""
""fullscreenenter"",""1"",""5366""
","
","","1006.3000000007451","","","","real_trial","2021-07-15 18:46:59.548","img/card_backs/set1/yellow.gif","0","120","1","",""
"casino-fixation","86","368671","0.0-25.0-0.8","995","false","img/card_backs/set1/purple.gif","img/card_backs/set1/red.gif","img/card_backs/set1/green.gif","img/card_backs/set1/yellow.gif","img/card_backs/set2/pink.gif","img/card_backs/set2/blue.gif","img/card_backs/set2/orange.gif","img/card_backs/set2/gray.gif","""event"",""trial"",""time""
""fullscreenenter"",""1"",""5366""
","
","
","""event"",""trial"",""time""
""fullscreenenter"",""1"",""5366""
","
","","null","","null","","fixation","2021-07-15 18:47:00.054","","","","","",""
"card-selection-trial","87","371643","0.0-25.0-1.8","995","false","img/card_backs/set1/purple.gif","img/card_backs/set1/red.gif","img/card_backs/set1/green.gif","img/card_backs/set1/yellow.gif","img/card_backs/set2/pink.gif","img/card_backs/set2/blue.gif","img/card_backs/set2/orange.gif","img/card_backs/set2/gray.gif","""event"",""trial"",""time""
""fullscreenenter"",""1"",""5366""
","
","
","""event"",""trial"",""time""
""fullscreenenter"",""1"",""5366""
","
","","962.3000000007451","","","","real_trial","2021-07-15 18:47:03.026","img/card_backs/set1/red.gif","1","190","1","",""
"casino-fixation","88","372147","0.0-25.0-0.9","995","false","img/card_backs/set1/purple.gif","img/card_backs/set1/red.gif","img/card_backs/set1/green.gif","img/card_backs/set1/yellow.gif","img/card_backs/set2/pink.gif","img/card_backs/set2/blue.gif","img/card_backs/set2/orange.gif","img/card_backs/set2/gray.gif","""event"",""trial"",""time""
""fullscreenenter"",""1"",""5366""
","
","
","""event"",""trial"",""time""
""fullscreenenter"",""1"",""5366""
","
","","null","","null","","fixation","2021-07-15 18:47:03.530","","","","","",""
"card-selection-trial","89","376710","0.0-25.0-1.9","995","false","img/card_backs/set1/purple.gif","img/card_backs/set1/red.gif","img/card_backs/set1/green.gif","img/card_backs/set1/yellow.gif","img/card_backs/set2/pink.gif","img/card_backs/set2/blue.gif","img/card_backs/set2/orange.gif","img/card_backs/set2/gray.gif","""event"",""trial"",""time""
""fullscreenenter"",""1"",""5366""
","
","
","""event"",""trial"",""time""
""fullscreenenter"",""1"",""5366""
","
","","2550.5","","","","real_trial","2021-07-15 18:47:08.094","img/card_backs/set1/purple.gif","2","190","1","",""
"casino-fixation","90","377214","0.0-25.0-0.10","995","false","img/card_backs/set1/purple.gif","img/card_backs/set1/red.gif","img/card_backs/set1/green.gif","img/card_backs/set1/yellow.gif","img/card_backs/set2/pink.gif","img/card_backs/set2/blue.gif","img/card_backs/set2/orange.gif","img/card_backs/set2/gray.gif","""event"",""trial"",""time""
""fullscreenenter"",""1"",""5366""
","
","
","""event"",""trial"",""time""
""fullscreenenter"",""1"",""5366""
","
","","null","","null","","fixation","2021-07-15 18:47:08.597","","","","","",""
"card-selection-trial","91","380145","0.0-25.0-1.10","995","false","img/card_backs/set1/purple.gif","img/card_backs/set1/red.gif","img/card_backs/set1/green.gif","img/card_backs/set1/yellow.gif","img/card_backs/set2/pink.gif","img/card_backs/set2/blue.gif","img/card_backs/set2/orange.gif","img/card_backs/set2/gray.gif","""event"",""trial"",""time""
""fullscreenenter"",""1"",""5366""
","
","
","""event"",""trial"",""time""
""fullscreenenter"",""1"",""5366""
","
","","916.3999999985099","","","","real_trial","2021-07-15 18:47:11.528","img/card_backs/set1/purple.gif","2","200","1","",""
"casino-fixation","92","380650","0.0-25.0-0.11","995","false","img/card_backs/set1/purple.gif","img/card_backs/set1/red.gif","img/card_backs/set1/green.gif","img/card_backs/set1/yellow.gif","img/card_backs/set2/pink.gif","img/card_backs/set2/blue.gif","img/card_backs/set2/orange.gif","img/card_backs/set2/gray.gif","""event"",""trial"",""time""
""fullscreenenter"",""1"",""5366""
","
","
","""event"",""trial"",""time""
""fullscreenenter"",""1"",""5366""
","
","","null","","null","","fixation","2021-07-15 18:47:12.033","","","","","",""
"card-selection-trial","93","383501","0.0-25.0-1.11","995","false","img/card_backs/set1/purple.gif","img/card_backs/set1/red.gif","img/card_backs/set1/green.gif","img/card_backs/set1/yellow.gif","img/card_backs/set2/pink.gif","img/card_backs/set2/blue.gif","img/card_backs/set2/orange.gif","img/card_backs/set2/gray.gif","""event"",""trial"",""time""
""fullscreenenter"",""1"",""5366""
","
","
","""event"",""trial"",""time""
""fullscreenenter"",""1"",""5366""
","
","","837.6999999992549","","","","real_trial","2021-07-15 18:47:14.884","img/card_backs/set1/purple.gif","3","-250","1","",""
"casino-fixation","94","384007","0.0-25.0-0.12","995","false","img/card_backs/set1/purple.gif","img/card_backs/set1/red.gif","img/card_backs/set1/green.gif","img/card_backs/set1/yellow.gif","img/card_backs/set2/pink.gif","img/card_backs/set2/blue.gif","img/card_backs/set2/orange.gif","img/card_backs/set2/gray.gif","""event"",""trial"",""time""
""fullscreenenter"",""1"",""5366""
","
","
","""event"",""trial"",""time""
""fullscreenenter"",""1"",""5366""
","
","","null","","null","","fixation","2021-07-15 18:47:15.390","","","","","",""
"card-selection-trial","95","387055","0.0-25.0-1.12","995","false","img/card_backs/set1/purple.gif","img/card_backs/set1/red.gif","img/card_backs/set1/green.gif","img/card_backs/set1/yellow.gif","img/card_backs/set2/pink.gif","img/card_backs/set2/blue.gif","img/card_backs/set2/orange.gif","img/card_backs/set2/gray.gif","""event"",""trial"",""time""
""fullscreenenter"",""1"",""5366""
","
","
","""event"",""trial"",""time""
""fullscreenenter"",""1"",""5366""
","
","","1022.3000000007451","","","","real_trial","2021-07-15 18:47:18.439","img/card_backs/set1/yellow.gif","0","110","1","",""
"casino-fixation","96","387559","0.0-25.0-0.13","995","false","img/card_backs/set1/purple.gif","img/card_backs/set1/red.gif","img/card_backs/set1/green.gif","img/card_backs/set1/yellow.gif","img/card_backs/set2/pink.gif","img/card_backs/set2/blue.gif","img/card_backs/set2/orange.gif","img/card_backs/set2/gray.gif","""event"",""trial"",""time""
""fullscreenenter"",""1"",""5366""
","
","
","""event"",""trial"",""time""
""fullscreenenter"",""1"",""5366""
","
","","null","","null","","fixation","2021-07-15 18:47:18.942","","","","","",""
"card-selection-trial","97","390803","0.0-25.0-1.13","995","false","img/card_backs/set1/purple.gif","img/card_backs/set1/red.gif","img/card_backs/set1/green.gif","img/card_backs/set1/yellow.gif","img/card_backs/set2/pink.gif","img/card_backs/set2/blue.gif","img/card_backs/set2/orange.gif","img/card_backs/set2/gray.gif","""event"",""trial"",""time""
""fullscreenenter"",""1"",""5366""
","
","
","""event"",""trial"",""time""
""fullscreenenter"",""1"",""5366""
","
","","1230.7999999970198","","","","real_trial","2021-07-15 18:47:22.186","img/card_backs/set1/yellow.gif","3","-60","1","",""
"casino-fixation","98","391308","0.0-25.0-0.14","995","false","img/card_backs/set1/purple.gif","img/card_backs/set1/red.gif","img/card_backs/set1/green.gif","img/card_backs/set1/yellow.gif","img/card_backs/set2/pink.gif","img/card_backs/set2/blue.gif","img/card_backs/set2/orange.gif","img/card_backs/set2/gray.gif","""event"",""trial"",""time""
""fullscreenenter"",""1"",""5366""
","
","
","""event"",""trial"",""time""
""fullscreenenter"",""1"",""5366""
","
","","null","","null","","fixation","2021-07-15 18:47:22.691","","","","","",""
"card-selection-trial","99","396525","0.0-25.0-1.14","995","false","img/card_backs/set1/purple.gif","img/card_backs/set1/red.gif","img/card_backs/set1/green.gif","img/card_backs/set1/yellow.gif","img/card_backs/set2/pink.gif","img/card_backs/set2/blue.gif","img/card_backs/set2/orange.gif","img/card_backs/set2/gray.gif","""event"",""trial"",""time""
""fullscreenenter"",""1"",""5366""
","
","
","""event"",""trial"",""time""
""fullscreenenter"",""1"",""5366""
","
","","3203.5","","","","real_trial","2021-07-15 18:47:27.908","img/card_backs/set1/yellow.gif","2","110","1","",""
"casino-fixation","100","397030","0.0-25.0-0.15","995","false","img/card_backs/set1/purple.gif","img/card_backs/set1/red.gif","img/card_backs/set1/green.gif","img/card_backs/set1/yellow.gif","img/card_backs/set2/pink.gif","img/card_backs/set2/blue.gif","img/card_backs/set2/orange.gif","img/card_backs/set2/gray.gif","""event"",""trial"",""time""
""fullscreenenter"",""1"",""5366""
","
","
","""event"",""trial"",""time""
""fullscreenenter"",""1"",""5366""
","
","","null","","null","","fixation","2021-07-15 18:47:28.413","","","","","",""
"card-selection-trial","101","400927","0.0-25.0-1.15","995","false","img/card_backs/set1/purple.gif","img/card_backs/set1/red.gif","img/card_backs/set1/green.gif","img/card_backs/set1/yellow.gif","img/card_backs/set2/pink.gif","img/card_backs/set2/blue.gif","img/card_backs/set2/orange.gif","img/card_backs/set2/gray.gif","""event"",""trial"",""time""
""fullscreenenter"",""1"",""5366""
","
","
","""event"",""trial"",""time""
""fullscreenenter"",""1"",""5366""
","
","","1882.6000000014901","","","","real_trial","2021-07-15 18:47:32.311","img/card_backs/set1/yellow.gif","3","110","1","",""
"casino-fixation","102","401433","0.0-25.0-0.16","995","false","img/card_backs/set1/purple.gif","img/card_backs/set1/red.gif","img/card_backs/set1/green.gif","img/card_backs/set1/yellow.gif","img/card_backs/set2/pink.gif","img/card_backs/set2/blue.gif","img/card_backs/set2/orange.gif","img/card_backs/set2/gray.gif","""event"",""trial"",""time""
""fullscreenenter"",""1"",""5366""
","
","
","""event"",""trial"",""time""
""fullscreenenter"",""1"",""5366""
","
","","null","","null","","fixation","2021-07-15 18:47:32.816","","","","","",""
"card-selection-trial","103","404190","0.0-25.0-1.16","995","false","img/card_backs/set1/purple.gif","img/card_backs/set1/red.gif","img/card_backs/set1/green.gif","img/card_backs/set1/yellow.gif","img/card_backs/set2/pink.gif","img/card_backs/set2/blue.gif","img/card_backs/set2/orange.gif","img/card_backs/set2/gray.gif","""event"",""trial"",""time""
""fullscreenenter"",""1"",""5366""
","
","
","""event"",""trial"",""time""
""fullscreenenter"",""1"",""5366""
","
","","744.3000000007451","","","","real_trial","2021-07-15 18:47:35.573","img/card_backs/set1/yellow.gif","0","-70","1","",""
"casino-fixation","104","404694","0.0-25.0-0.17","995","false","img/card_backs/set1/purple.gif","img/card_backs/set1/red.gif","img/card_backs/set1/green.gif","img/card_backs/set1/yellow.gif","img/card_backs/set2/pink.gif","img/card_backs/set2/blue.gif","img/card_backs/set2/orange.gif","img/card_backs/set2/gray.gif","""event"",""trial"",""time""
""fullscreenenter"",""1"",""5366""
","
","
","""event"",""trial"",""time""
""fullscreenenter"",""1"",""5366""
","
","","null","","null","","fixation","2021-07-15 18:47:36.077","","","","","",""
"card-selection-trial","105","409231","0.0-25.0-1.17","995","false","img/card_backs/set1/purple.gif","img/card_backs/set1/red.gif","img/card_backs/set1/green.gif","img/card_backs/set1/yellow.gif","img/card_backs/set2/pink.gif","img/card_backs/set2/blue.gif","img/card_backs/set2/orange.gif","img/card_backs/set2/gray.gif","""event"",""trial"",""time""
""fullscreenenter"",""1"",""5366""
","
","
","""event"",""trial"",""time""
""fullscreenenter"",""1"",""5366""
","
","","2524.699999999255","","","","real_trial","2021-07-15 18:47:40.614","img/card_backs/set1/green.gif","3","110","1","",""
"casino-fixation","106","409736","0.0-25.0-0.18","995","false","img/card_backs/set1/purple.gif","img/card_backs/set1/red.gif","img/card_backs/set1/green.gif","img/card_backs/set1/yellow.gif","img/card_backs/set2/pink.gif","img/card_backs/set2/blue.gif","img/card_backs/set2/orange.gif","img/card_backs/set2/gray.gif","""event"",""trial"",""time""
""fullscreenenter"",""1"",""5366""
","
","
","""event"",""trial"",""time""
""fullscreenenter"",""1"",""5366""
","
","","null","","null","","fixation","2021-07-15 18:47:41.120","","","","","",""
"card-selection-trial","107","412967","0.0-25.0-1.18","995","false","img/card_backs/set1/purple.gif","img/card_backs/set1/red.gif","img/card_backs/set1/green.gif","img/card_backs/set1/yellow.gif","img/card_backs/set2/pink.gif","img/card_backs/set2/blue.gif","img/card_backs/set2/orange.gif","img/card_backs/set2/gray.gif","""event"",""trial"",""time""
""fullscreenenter"",""1"",""5366""
","
","
","""event"",""trial"",""time""
""fullscreenenter"",""1"",""5366""
","
","","1217","","","","real_trial","2021-07-15 18:47:44.350","img/card_backs/set1/yellow.gif","1","120","1","",""
"casino-fixation","108","413470","0.0-25.0-0.19","995","false","img/card_backs/set1/purple.gif","img/card_backs/set1/red.gif","img/card_backs/set1/green.gif","img/card_backs/set1/yellow.gif","img/card_backs/set2/pink.gif","img/card_backs/set2/blue.gif","img/card_backs/set2/orange.gif","img/card_backs/set2/gray.gif","""event"",""trial"",""time""
""fullscreenenter"",""1"",""5366""
","
","
","""event"",""trial"",""time""
""fullscreenenter"",""1"",""5366""
","
","","null","","null","","fixation","2021-07-15 18:47:44.853","","","","","",""
"card-selection-trial","109","416216","0.0-25.0-1.19","995","false","img/card_backs/set1/purple.gif","img/card_backs/set1/red.gif","img/card_backs/set1/green.gif","img/card_backs/set1/yellow.gif","img/card_backs/set2/pink.gif","img/card_backs/set2/blue.gif","img/card_backs/set2/orange.gif","img/card_backs/set2/gray.gif","""event"",""trial"",""time""
""fullscreenenter"",""1"",""5366""
","
","
","""event"",""trial"",""time""
""fullscreenenter"",""1"",""5366""
","
","","729.4000000022352","","","","real_trial","2021-07-15 18:47:47.599","img/card_backs/set1/yellow.gif","3","-70","1","",""
"casino-fixation","110","416720","0.0-25.0-0.20","995","false","img/card_backs/set1/purple.gif","img/card_backs/set1/red.gif","img/card_backs/set1/green.gif","img/card_backs/set1/yellow.gif","img/card_backs/set2/pink.gif","img/card_backs/set2/blue.gif","img/card_backs/set2/orange.gif","img/card_backs/set2/gray.gif","""event"",""trial"",""time""
""fullscreenenter"",""1"",""5366""
","
","
","""event"",""trial"",""time""
""fullscreenenter"",""1"",""5366""
","
","","null","","null","","fixation","2021-07-15 18:47:48.103","","","","","",""
"card-selection-trial","111","419459","0.0-25.0-1.20","995","false","img/card_backs/set1/purple.gif","img/card_backs/set1/red.gif","img/card_backs/set1/green.gif","img/card_backs/set1/yellow.gif","img/card_backs/set2/pink.gif","img/card_backs/set2/blue.gif","img/card_backs/set2/orange.gif","img/card_backs/set2/gray.gif","""event"",""trial"",""time""
""fullscreenenter"",""1"",""5366""
","
","
","""event"",""trial"",""time""
""fullscreenenter"",""1"",""5366""
","
","","725.9000000022352","","","","real_trial","2021-07-15 18:47:50.843","img/card_backs/set1/yellow.gif","0","100","1","",""
"casino-fixation","112","419965","0.0-25.0-0.21","995","false","img/card_backs/set1/purple.gif","img/card_backs/set1/red.gif","img/card_backs/set1/green.gif","img/card_backs/set1/yellow.gif","img/card_backs/set2/pink.gif","img/card_backs/set2/blue.gif","img/card_backs/set2/orange.gif","img/card_backs/set2/gray.gif","""event"",""trial"",""time""
""fullscreenenter"",""1"",""5366""
","
","
","""event"",""trial"",""time""
""fullscreenenter"",""1"",""5366""
","
","","null","","null","","fixation","2021-07-15 18:47:51.349","","","","","",""
"card-selection-trial","113","422655","0.0-25.0-1.21","995","false","img/card_backs/set1/purple.gif","img/card_backs/set1/red.gif","img/card_backs/set1/green.gif","img/card_backs/set1/yellow.gif","img/card_backs/set2/pink.gif","img/card_backs/set2/blue.gif","img/card_backs/set2/orange.gif","img/card_backs/set2/gray.gif","""event"",""trial"",""time""
""fullscreenenter"",""1"",""5366""
","
","
","""event"",""trial"",""time""
""fullscreenenter"",""1"",""5366""
","
","","677.1000000014901","","","","real_trial","2021-07-15 18:47:54.038","img/card_backs/set1/yellow.gif","0","-50","1","",""
"casino-fixation","114","423160","0.0-25.0-0.22","995","false","img/card_backs/set1/purple.gif","img/card_backs/set1/red.gif","img/card_backs/set1/green.gif","img/card_backs/set1/yellow.gif","img/card_backs/set2/pink.gif","img/card_backs/set2/blue.gif","img/card_backs/set2/orange.gif","img/card_backs/set2/gray.gif","""event"",""trial"",""time""
""fullscreenenter"",""1"",""5366""
","
","
","""event"",""trial"",""time""
""fullscreenenter"",""1"",""5366""
","
","","null","","null","","fixation","2021-07-15 18:47:54.543","","","","","",""
"card-selection-trial","115","425926","0.0-25.0-1.22","995","false","img/card_backs/set1/purple.gif","img/card_backs/set1/red.gif","img/card_backs/set1/green.gif","img/card_backs/set1/yellow.gif","img/card_backs/set2/pink.gif","img/card_backs/set2/blue.gif","img/card_backs/set2/orange.gif","img/card_backs/set2/gray.gif","""event"",""trial"",""time""
""fullscreenenter"",""1"",""5366""
","
","
","""event"",""trial"",""time""
""fullscreenenter"",""1"",""5366""
","
","","753.6000000014901","","","","real_trial","2021-07-15 18:47:57.309","img/card_backs/set1/yellow.gif","1","120","1","",""
"casino-fixation","116","426431","0.0-25.0-0.23","995","false","img/card_backs/set1/purple.gif","img/card_backs/set1/red.gif","img/card_backs/set1/green.gif","img/card_backs/set1/yellow.gif","img/card_backs/set2/pink.gif","img/card_backs/set2/blue.gif","img/card_backs/set2/orange.gif","img/card_backs/set2/gray.gif","""event"",""trial"",""time""
""fullscreenenter"",""1"",""5366""
","
","
","""event"",""trial"",""time""
""fullscreenenter"",""1"",""5366""
","
","","null","","null","","fixation","2021-07-15 18:47:57.814","","","","","",""
"card-selection-trial","117","429130","0.0-25.0-1.23","995","false","img/card_backs/set1/purple.gif","img/card_backs/set1/red.gif","img/card_backs/set1/green.gif","img/card_backs/set1/yellow.gif","img/card_backs/set2/pink.gif","img/card_backs/set2/blue.gif","img/card_backs/set2/orange.gif","img/card_backs/set2/gray.gif","""event"",""trial"",""time""
""fullscreenenter"",""1"",""5366""
","
","
","""event"",""trial"",""time""
""fullscreenenter"",""1"",""5366""
","
","","648.1999999992549","","","","real_trial","2021-07-15 18:48:00.513","img/card_backs/set1/yellow.gif","0","-50","1","",""
"casino-fixation","118","429634","0.0-25.0-0.24","995","false","img/card_backs/set1/purple.gif","img/card_backs/set1/red.gif","img/card_backs/set1/green.gif","img/card_backs/set1/yellow.gif","img/card_backs/set2/pink.gif","img/card_backs/set2/blue.gif","img/card_backs/set2/orange.gif","img/card_backs/set2/gray.gif","""event"",""trial"",""time""
""fullscreenenter"",""1"",""5366""
","
","
","""event"",""trial"",""time""
""fullscreenenter"",""1"",""5366""
","
","","null","","null","","fixation","2021-07-15 18:48:01.017","","","","","",""
"card-selection-trial","119","432454","0.0-25.0-1.24","995","false","img/card_backs/set1/purple.gif","img/card_backs/set1/red.gif","img/card_backs/set1/green.gif","img/card_backs/set1/yellow.gif","img/card_backs/set2/pink.gif","img/card_backs/set2/blue.gif","img/card_backs/set2/orange.gif","img/card_backs/set2/gray.gif","""event"",""trial"",""time""
""fullscreenenter"",""1"",""5366""
","
","
","""event"",""trial"",""time""
""fullscreenenter"",""1"",""5366""
","
","","797.1000000014901","","","","real_trial","2021-07-15 18:48:03.837","img/card_backs/set1/purple.gif","3","200","1","",""
"casino-fixation","120","432957","0.0-25.0-0.25","995","false","img/card_backs/set1/purple.gif","img/card_backs/set1/red.gif","img/card_backs/set1/green.gif","img/card_backs/set1/yellow.gif","img/card_backs/set2/pink.gif","img/card_backs/set2/blue.gif","img/card_backs/set2/orange.gif","img/card_backs/set2/gray.gif","""event"",""trial"",""time""
""fullscreenenter"",""1"",""5366""
","
","
","""event"",""trial"",""time""
""fullscreenenter"",""1"",""5366""
","
","","null","","null","","fixation","2021-07-15 18:48:04.340","","","","","",""
"card-selection-trial","121","435713","0.0-25.0-1.25","995","false","img/card_backs/set1/purple.gif","img/card_backs/set1/red.gif","img/card_backs/set1/green.gif","img/card_backs/set1/yellow.gif","img/card_backs/set2/pink.gif","img/card_backs/set2/blue.gif","img/card_backs/set2/orange.gif","img/card_backs/set2/gray.gif","""event"",""trial"",""time""
""fullscreenenter"",""1"",""5366""
","
","
","""event"",""trial"",""time""
""fullscreenenter"",""1"",""5366""
","
","","737.1000000014901","","","","real_trial","2021-07-15 18:48:07.097","img/card_backs/set1/purple.gif","3","-230","1","",""
"casino-fixation","122","436217","0.0-25.0-0.26","995","false","img/card_backs/set1/purple.gif","img/card_backs/set1/red.gif","img/card_backs/set1/green.gif","img/card_backs/set1/yellow.gif","img/card_backs/set2/pink.gif","img/card_backs/set2/blue.gif","img/card_backs/set2/orange.gif","img/card_backs/set2/gray.gif","""event"",""trial"",""time""
""fullscreenenter"",""1"",""5366""
","
","
","""event"",""trial"",""time""
""fullscreenenter"",""1"",""5366""
","
","","null","","null","","fixation","2021-07-15 18:48:07.600","","","","","",""
"card-selection-trial","123","439415","0.0-25.0-1.26","995","false","img/card_backs/set1/purple.gif","img/card_backs/set1/red.gif","img/card_backs/set1/green.gif","img/card_backs/set1/yellow.gif","img/card_backs/set2/pink.gif","img/card_backs/set2/blue.gif","img/card_backs/set2/orange.gif","img/card_backs/set2/gray.gif","""event"",""trial"",""time""
""fullscreenenter"",""1"",""5366""
","
","
","""event"",""trial"",""time""
""fullscreenenter"",""1"",""5366""
","
","","1190.4000000022352","","","","real_trial","2021-07-15 18:48:10.798","img/card_backs/set1/purple.gif","3","-240","1","",""
"casino-fixation","124","439922","0.0-25.0-0.27","995","false","img/card_backs/set1/purple.gif","img/card_backs/set1/red.gif","img/card_backs/set1/green.gif","img/card_backs/set1/yellow.gif","img/card_backs/set2/pink.gif","img/card_backs/set2/blue.gif","img/card_backs/set2/orange.gif","img/card_backs/set2/gray.gif","""event"",""trial"",""time""
""fullscreenenter"",""1"",""5366""
","
","
","""event"",""trial"",""time""
""fullscreenenter"",""1"",""5366""
","
","","null","","null","","fixation","2021-07-15 18:48:11.305","","","","","",""
"card-selection-trial","125","443090","0.0-25.0-1.27","995","false","img/card_backs/set1/purple.gif","img/card_backs/set1/red.gif","img/card_backs/set1/green.gif","img/card_backs/set1/yellow.gif","img/card_backs/set2/pink.gif","img/card_backs/set2/blue.gif","img/card_backs/set2/orange.gif","img/card_backs/set2/gray.gif","""event"",""trial"",""time""
""fullscreenenter"",""1"",""5366""
","
","
","""event"",""trial"",""time""
""fullscreenenter"",""1"",""5366""
","
","","1155.699999999255","","","","real_trial","2021-07-15 18:48:14.473","img/card_backs/set1/green.gif","2","110","1","",""
"casino-fixation","126","443593","0.0-25.0-0.28","995","false","img/card_backs/set1/purple.gif","img/card_backs/set1/red.gif","img/card_backs/set1/green.gif","img/card_backs/set1/yellow.gif","img/card_backs/set2/pink.gif","img/card_backs/set2/blue.gif","img/card_backs/set2/orange.gif","img/card_backs/set2/gray.gif","""event"",""trial"",""time""
""fullscreenenter"",""1"",""5366""
","
","
","""event"",""trial"",""time""
""fullscreenenter"",""1"",""5366""
","
","","null","","null","","fixation","2021-07-15 18:48:14.976","","","","","",""
"card-selection-trial","127","446264","0.0-25.0-1.28","995","false","img/card_backs/set1/purple.gif","img/card_backs/set1/red.gif","img/card_backs/set1/green.gif","img/card_backs/set1/yellow.gif","img/card_backs/set2/pink.gif","img/card_backs/set2/blue.gif","img/card_backs/set2/orange.gif","img/card_backs/set2/gray.gif","""event"",""trial"",""time""
""fullscreenenter"",""1"",""5366""
","
","
","""event"",""trial"",""time""
""fullscreenenter"",""1"",""5366""
","
","","648.1999999992549","","","","real_trial","2021-07-15 18:48:17.647","img/card_backs/set1/yellow.gif","2","-60","1","",""
"casino-fixation","128","446767","0.0-25.0-0.29","995","false","img/card_backs/set1/purple.gif","img/card_backs/set1/red.gif","img/card_backs/set1/green.gif","img/card_backs/set1/yellow.gif","img/card_backs/set2/pink.gif","img/card_backs/set2/blue.gif","img/card_backs/set2/orange.gif","img/card_backs/set2/gray.gif","""event"",""trial"",""time""
""fullscreenenter"",""1"",""5366""
","
","
","""event"",""trial"",""time""
""fullscreenenter"",""1"",""5366""
","
","","null","","null","","fixation","2021-07-15 18:48:18.150","","","","","",""
"card-selection-trial","129","449466","0.0-25.0-1.29","995","false","img/card_backs/set1/purple.gif","img/card_backs/set1/red.gif","img/card_backs/set1/green.gif","img/card_backs/set1/yellow.gif","img/card_backs/set2/pink.gif","img/card_backs/set2/blue.gif","img/card_backs/set2/orange.gif","img/card_backs/set2/gray.gif","""event"",""trial"",""time""
""fullscreenenter"",""1"",""5366""
","
","
","""event"",""trial"",""time""
""fullscreenenter"",""1"",""5366""
","
","","680","","","","real_trial","2021-07-15 18:48:20.849","img/card_backs/set1/yellow.gif","1","-60","1","",""
"casino-fixation","130","449969","0.0-25.0-0.30","995","false","img/card_backs/set1/purple.gif","img/card_backs/set1/red.gif","img/card_backs/set1/green.gif","img/card_backs/set1/yellow.gif","img/card_backs/set2/pink.gif","img/card_backs/set2/blue.gif","img/card_backs/set2/orange.gif","img/card_backs/set2/gray.gif","""event"",""trial"",""time""
""fullscreenenter"",""1"",""5366""
","
","
","""event"",""trial"",""time""
""fullscreenenter"",""1"",""5366""
","
","","null","","null","","fixation","2021-07-15 18:48:21.352","","","","","",""
"card-selection-trial","131","453119","0.0-25.0-1.30","995","false","img/card_backs/set1/purple.gif","img/card_backs/set1/red.gif","img/card_backs/set1/green.gif","img/card_backs/set1/yellow.gif","img/card_backs/set2/pink.gif","img/card_backs/set2/blue.gif","img/card_backs/set2/orange.gif","img/card_backs/set2/gray.gif","""event"",""trial"",""time""
""fullscreenenter"",""1"",""5366""
","
","
","""event"",""trial"",""time""
""fullscreenenter"",""1"",""5366""
","
","","1136.5999999977648","","","","real_trial","2021-07-15 18:48:24.502","img/card_backs/set1/yellow.gif","3","100","1","",""
"casino-fixation","132","453623","0.0-25.0-0.31","995","false","img/card_backs/set1/purple.gif","img/card_backs/set1/red.gif","img/card_backs/set1/green.gif","img/card_backs/set1/yellow.gif","img/card_backs/set2/pink.gif","img/card_backs/set2/blue.gif","img/card_backs/set2/orange.gif","img/card_backs/set2/gray.gif","""event"",""trial"",""time""
""fullscreenenter"",""1"",""5366""
","
","
","""event"",""trial"",""time""
""fullscreenenter"",""1"",""5366""
","
","","null","","null","","fixation","2021-07-15 18:48:25.007","","","","","",""
"card-selection-trial","133","456580","0.0-25.0-1.31","995","false","img/card_backs/set1/purple.gif","img/card_backs/set1/red.gif","img/card_backs/set1/green.gif","img/card_backs/set1/yellow.gif","img/card_backs/set2/pink.gif","img/card_backs/set2/blue.gif","img/card_backs/set2/orange.gif","img/card_backs/set2/gray.gif","""event"",""trial"",""time""
""fullscreenenter"",""1"",""5366""
","
","
","""event"",""trial"",""time""
""fullscreenenter"",""1"",""5366""
","
","","944.7000000029802","","","","real_trial","2021-07-15 18:48:27.963","img/card_backs/set1/yellow.gif","2","110","1","",""
"casino-fixation","134","457083","0.0-25.0-0.32","995","false","img/card_backs/set1/purple.gif","img/card_backs/set1/red.gif","img/card_backs/set1/green.gif","img/card_backs/set1/yellow.gif","img/card_backs/set2/pink.gif","img/card_backs/set2/blue.gif","img/card_backs/set2/orange.gif","img/card_backs/set2/gray.gif","""event"",""trial"",""time""
""fullscreenenter"",""1"",""5366""
","
","
","""event"",""trial"",""time""
""fullscreenenter"",""1"",""5366""
","
","","null","","null","","fixation","2021-07-15 18:48:28.466","","","","","",""
"card-selection-trial","135","459803","0.0-25.0-1.32","995","false","img/card_backs/set1/purple.gif","img/card_backs/set1/red.gif","img/card_backs/set1/green.gif","img/card_backs/set1/yellow.gif","img/card_backs/set2/pink.gif","img/card_backs/set2/blue.gif","img/card_backs/set2/orange.gif","img/card_backs/set2/gray.gif","""event"",""trial"",""time""
""fullscreenenter"",""1"",""5366""
","
","
","""event"",""trial"",""time""
""fullscreenenter"",""1"",""5366""
","
","","707.1999999992549","","","","real_trial","2021-07-15 18:48:31.187","img/card_backs/set1/yellow.gif","2","-60","1","",""
"casino-fixation","136","460308","0.0-25.0-0.33","995","false","img/card_backs/set1/purple.gif","img/card_backs/set1/red.gif","img/card_backs/set1/green.gif","img/card_backs/set1/yellow.gif","img/card_backs/set2/pink.gif","img/card_backs/set2/blue.gif","img/card_backs/set2/orange.gif","img/card_backs/set2/gray.gif","""event"",""trial"",""time""
""fullscreenenter"",""1"",""5366""
","
","
","""event"",""trial"",""time""
""fullscreenenter"",""1"",""5366""
","
","","null","","null","","fixation","2021-07-15 18:48:31.691","","","","","",""
"card-selection-trial","137","463045","0.0-25.0-1.33","995","false","img/card_backs/set1/purple.gif","img/card_backs/set1/red.gif","img/card_backs/set1/green.gif","img/card_backs/set1/yellow.gif","img/card_backs/set2/pink.gif","img/card_backs/set2/blue.gif","img/card_backs/set2/orange.gif","img/card_backs/set2/gray.gif","""event"",""trial"",""time""
""fullscreenenter"",""1"",""5366""
","
","
","""event"",""trial"",""time""
""fullscreenenter"",""1"",""5366""
","
","","725.1000000014901","","","","real_trial","2021-07-15 18:48:34.428","img/card_backs/set1/yellow.gif","2","-70","1","",""
"casino-fixation","138","463549","0.0-25.0-0.34","995","false","img/card_backs/set1/purple.gif","img/card_backs/set1/red.gif","img/card_backs/set1/green.gif","img/card_backs/set1/yellow.gif","img/card_backs/set2/pink.gif","img/card_backs/set2/blue.gif","img/card_backs/set2/orange.gif","img/card_backs/set2/gray.gif","""event"",""trial"",""time""
""fullscreenenter"",""1"",""5366""
","
","
","""event"",""trial"",""time""
""fullscreenenter"",""1"",""5366""
","
","","null","","null","","fixation","2021-07-15 18:48:34.932","","","","","",""
"card-selection-trial","139","467019","0.0-25.0-1.34","995","false","img/card_backs/set1/purple.gif","img/card_backs/set1/red.gif","img/card_backs/set1/green.gif","img/card_backs/set1/yellow.gif","img/card_backs/set2/pink.gif","img/card_backs/set2/blue.gif","img/card_backs/set2/orange.gif","img/card_backs/set2/gray.gif","""event"",""trial"",""time""
""fullscreenenter"",""1"",""5366""
","
","
","""event"",""trial"",""time""
""fullscreenenter"",""1"",""5366""
","
","","1456.9000000022352","","","","real_trial","2021-07-15 18:48:38.402","img/card_backs/set1/yellow.gif","0","-60","1","",""
"casino-fixation","140","467523","0.0-25.0-0.35","995","false","img/card_backs/set1/purple.gif","img/card_backs/set1/red.gif","img/card_backs/set1/green.gif","img/card_backs/set1/yellow.gif","img/card_backs/set2/pink.gif","img/card_backs/set2/blue.gif","img/card_backs/set2/orange.gif","img/card_backs/set2/gray.gif","""event"",""trial"",""time""
""fullscreenenter"",""1"",""5366""
","
","
","""event"",""trial"",""time""
""fullscreenenter"",""1"",""5366""
","
","","null","","null","","fixation","2021-07-15 18:48:38.906","","","","","",""
"card-selection-trial","141","471348","0.0-25.0-1.35","995","false","img/card_backs/set1/purple.gif","img/card_backs/set1/red.gif","img/card_backs/set1/green.gif","img/card_backs/set1/yellow.gif","img/card_backs/set2/pink.gif","img/card_backs/set2/blue.gif","img/card_backs/set2/orange.gif","img/card_backs/set2/gray.gif","""event"",""trial"",""time""
""fullscreenenter"",""1"",""5366""
","
","
","""event"",""trial"",""time""
""fullscreenenter"",""1"",""5366""
","
","","1810.5","","","","real_trial","2021-07-15 18:48:42.731","img/card_backs/set1/purple.gif","2","200","1","",""
"casino-fixation","142","471852","0.0-25.0-0.36","995","false","img/card_backs/set1/purple.gif","img/card_backs/set1/red.gif","img/card_backs/set1/green.gif","img/card_backs/set1/yellow.gif","img/card_backs/set2/pink.gif","img/card_backs/set2/blue.gif","img/card_backs/set2/orange.gif","img/card_backs/set2/gray.gif","""event"",""trial"",""time""
""fullscreenenter"",""1"",""5366""
","
","
","""event"",""trial"",""time""
""fullscreenenter"",""1"",""5366""
","
","","null","","null","","fixation","2021-07-15 18:48:43.235","","","","","",""
"card-selection-trial","143","474772","0.0-25.0-1.36","995","false","img/card_backs/set1/purple.gif","img/card_backs/set1/red.gif","img/card_backs/set1/green.gif","img/card_backs/set1/yellow.gif","img/card_backs/set2/pink.gif","img/card_backs/set2/blue.gif","img/card_backs/set2/orange.gif","img/card_backs/set2/gray.gif","""event"",""trial"",""time""
""fullscreenenter"",""1"",""5366""
","
","
","""event"",""trial"",""time""
""fullscreenenter"",""1"",""5366""
","
","","908.5","","","","real_trial","2021-07-15 18:48:46.155","img/card_backs/set1/yellow.gif","1","-50","1","",""
"casino-fixation","144","475279","0.0-25.0-0.37","995","false","img/card_backs/set1/purple.gif","img/card_backs/set1/red.gif","img/card_backs/set1/green.gif","img/card_backs/set1/yellow.gif","img/card_backs/set2/pink.gif","img/card_backs/set2/blue.gif","img/card_backs/set2/orange.gif","img/card_backs/set2/gray.gif","""event"",""trial"",""time""
""fullscreenenter"",""1"",""5366""
","
","
","""event"",""trial"",""time""
""fullscreenenter"",""1"",""5366""
","
","","null","","null","","fixation","2021-07-15 18:48:46.662","","","","","",""
"card-selection-trial","145","478360","0.0-25.0-1.37","995","false","img/card_backs/set1/purple.gif","img/card_backs/set1/red.gif","img/card_backs/set1/green.gif","img/card_backs/set1/yellow.gif","img/card_backs/set2/pink.gif","img/card_backs/set2/blue.gif","img/card_backs/set2/orange.gif","img/card_backs/set2/gray.gif","""event"",""trial"",""time""
""fullscreenenter"",""1"",""5366""
","
","
","""event"",""trial"",""time""
""fullscreenenter"",""1"",""5366""
","
","","1068.4000000022352","","","","real_trial","2021-07-15 18:48:49.743","img/card_backs/set1/purple.gif","0","190","1","",""
"casino-fixation","146","478866","0.0-25.0-0.38","995","false","img/card_backs/set1/purple.gif","img/card_backs/set1/red.gif","img/card_backs/set1/green.gif","img/card_backs/set1/yellow.gif","img/card_backs/set2/pink.gif","img/card_backs/set2/blue.gif","img/card_backs/set2/orange.gif","img/card_backs/set2/gray.gif","""event"",""trial"",""time""
""fullscreenenter"",""1"",""5366""
","
","
","""event"",""trial"",""time""
""fullscreenenter"",""1"",""5366""
","
","","null","","null","","fixation","2021-07-15 18:48:50.250","","","","","",""
"card-selection-trial","147","481616","0.0-25.0-1.38","995","false","img/card_backs/set1/purple.gif","img/card_backs/set1/red.gif","img/card_backs/set1/green.gif","img/card_backs/set1/yellow.gif","img/card_backs/set2/pink.gif","img/card_backs/set2/blue.gif","img/card_backs/set2/orange.gif","img/card_backs/set2/gray.gif","""event"",""trial"",""time""
""fullscreenenter"",""1"",""5366""
","
","
","""event"",""trial"",""time""
""fullscreenenter"",""1"",""5366""
","
","","735.6999999992549","","","","real_trial","2021-07-15 18:48:52.999","img/card_backs/set1/purple.gif","3","-240","1","",""
"casino-fixation","148","482130","0.0-25.0-0.39","995","false","img/card_backs/set1/purple.gif","img/card_backs/set1/red.gif","img/card_backs/set1/green.gif","img/card_backs/set1/yellow.gif","img/card_backs/set2/pink.gif","img/card_backs/set2/blue.gif","img/card_backs/set2/orange.gif","img/card_backs/set2/gray.gif","""event"",""trial"",""time""
""fullscreenenter"",""1"",""5366""
","
","
","""event"",""trial"",""time""
""fullscreenenter"",""1"",""5366""
","
","","null","","null","","fixation","2021-07-15 18:48:53.513","","","","","",""
"card-selection-trial","149","484869","0.0-25.0-1.39","995","false","img/card_backs/set1/purple.gif","img/card_backs/set1/red.gif","img/card_backs/set1/green.gif","img/card_backs/set1/yellow.gif","img/card_backs/set2/pink.gif","img/card_backs/set2/blue.gif","img/card_backs/set2/orange.gif","img/card_backs/set2/gray.gif","""event"",""trial"",""time""
""fullscreenenter"",""1"",""5366""
","
","
","""event"",""trial"",""time""
""fullscreenenter"",""1"",""5366""
","
","","699.3000000007451","","","","real_trial","2021-07-15 18:48:56.252","img/card_backs/set1/purple.gif","0","-240","1","",""
"casino-fixation","150","485373","0.0-25.0-0.40","995","false","img/card_backs/set1/purple.gif","img/card_backs/set1/red.gif","img/card_backs/set1/green.gif","img/card_backs/set1/yellow.gif","img/card_backs/set2/pink.gif","img/card_backs/set2/blue.gif","img/card_backs/set2/orange.gif","img/card_backs/set2/gray.gif","""event"",""trial"",""time""
""fullscreenenter"",""1"",""5366""
","
","
","""event"",""trial"",""time""
""fullscreenenter"",""1"",""5366""
","
","","null","","null","","fixation","2021-07-15 18:48:56.756","","","","","",""
"card-selection-trial","151","488537","0.0-25.0-1.40","995","false","img/card_backs/set1/purple.gif","img/card_backs/set1/red.gif","img/card_backs/set1/green.gif","img/card_backs/set1/yellow.gif","img/card_backs/set2/pink.gif","img/card_backs/set2/blue.gif","img/card_backs/set2/orange.gif","img/card_backs/set2/gray.gif","""event"",""trial"",""time""
""fullscreenenter"",""1"",""5366""
","
","
","""event"",""trial"",""time""
""fullscreenenter"",""1"",""5366""
","
","","1150.8999999985099","","","","real_trial","2021-07-15 18:48:59.920","img/card_backs/set1/yellow.gif","2","-50","1","",""
"casino-fixation","152","489041","0.0-25.0-0.41","995","false","img/card_backs/set1/purple.gif","img/card_backs/set1/red.gif","img/card_backs/set1/green.gif","img/card_backs/set1/yellow.gif","img/card_backs/set2/pink.gif","img/card_backs/set2/blue.gif","img/card_backs/set2/orange.gif","img/card_backs/set2/gray.gif","""event"",""trial"",""time""
""fullscreenenter"",""1"",""5366""
","
","
","""event"",""trial"",""time""
""fullscreenenter"",""1"",""5366""
","
","","null","","null","","fixation","2021-07-15 18:49:00.424","","","","","",""
"card-selection-trial","153","492138","0.0-25.0-1.41","995","false","img/card_backs/set1/purple.gif","img/card_backs/set1/red.gif","img/card_backs/set1/green.gif","img/card_backs/set1/yellow.gif","img/card_backs/set2/pink.gif","img/card_backs/set2/blue.gif","img/card_backs/set2/orange.gif","img/card_backs/set2/gray.gif","""event"",""trial"",""time""
""fullscreenenter"",""1"",""5366""
","
","
","""event"",""trial"",""time""
""fullscreenenter"",""1"",""5366""
","
","","1069.699999999255","","","","real_trial","2021-07-15 18:49:03.521","img/card_backs/set1/green.gif","2","110","1","",""
"casino-fixation","154","492643","0.0-25.0-0.42","995","false","img/card_backs/set1/purple.gif","img/card_backs/set1/red.gif","img/card_backs/set1/green.gif","img/card_backs/set1/yellow.gif","img/card_backs/set2/pink.gif","img/card_backs/set2/blue.gif","img/card_backs/set2/orange.gif","img/card_backs/set2/gray.gif","""event"",""trial"",""time""
""fullscreenenter"",""1"",""5366""
","
","
","""event"",""trial"",""time""
""fullscreenenter"",""1"",""5366""
","
","","null","","null","","fixation","2021-07-15 18:49:04.026","","","","","",""
"card-selection-trial","155","496054","0.0-25.0-1.42","995","false","img/card_backs/set1/purple.gif","img/card_backs/set1/red.gif","img/card_backs/set1/green.gif","img/card_backs/set1/yellow.gif","img/card_backs/set2/pink.gif","img/card_backs/set2/blue.gif","img/card_backs/set2/orange.gif","img/card_backs/set2/gray.gif","""event"",""trial"",""time""
""fullscreenenter"",""1"",""5366""
","
","
","""event"",""trial"",""time""
""fullscreenenter"",""1"",""5366""
","
","","1389.1000000014901","","","","real_trial","2021-07-15 18:49:07.437","img/card_backs/set1/purple.gif","1","200","1","",""
"casino-fixation","156","496559","0.0-25.0-0.43","995","false","img/card_backs/set1/purple.gif","img/card_backs/set1/red.gif","img/card_backs/set1/green.gif","img/card_backs/set1/yellow.gif","img/card_backs/set2/pink.gif","img/card_backs/set2/blue.gif","img/card_backs/set2/orange.gif","img/card_backs/set2/gray.gif","""event"",""trial"",""time""
""fullscreenenter"",""1"",""5366""
","
","
","""event"",""trial"",""time""
""fullscreenenter"",""1"",""5366""
","
","","null","","null","","fixation","2021-07-15 18:49:07.942","","","","","",""
"card-selection-trial","157","499299","0.0-25.0-1.43","995","false","img/card_backs/set1/purple.gif","img/card_backs/set1/red.gif","img/card_backs/set1/green.gif","img/card_backs/set1/yellow.gif","img/card_backs/set2/pink.gif","img/card_backs/set2/blue.gif","img/card_backs/set2/orange.gif","img/card_backs/set2/gray.gif","""event"",""trial"",""time""
""fullscreenenter"",""1"",""5366""
","
","
","""event"",""trial"",""time""
""fullscreenenter"",""1"",""5366""
","
","","727.3999999985099","","","","real_trial","2021-07-15 18:49:10.682","img/card_backs/set1/yellow.gif","0","110","1","",""
"casino-fixation","158","499803","0.0-25.0-0.44","995","false","img/card_backs/set1/purple.gif","img/card_backs/set1/red.gif","img/card_backs/set1/green.gif","img/card_backs/set1/yellow.gif","img/card_backs/set2/pink.gif","img/card_backs/set2/blue.gif","img/card_backs/set2/orange.gif","img/card_backs/set2/gray.gif","""event"",""trial"",""time""
""fullscreenenter"",""1"",""5366""
","
","
","""event"",""trial"",""time""
""fullscreenenter"",""1"",""5366""
","
","","null","","null","","fixation","2021-07-15 18:49:11.186","","","","","",""
"card-selection-trial","159","502377","0.0-25.0-1.44","995","false","img/card_backs/set1/purple.gif","img/card_backs/set1/red.gif","img/card_backs/set1/green.gif","img/card_backs/set1/yellow.gif","img/card_backs/set2/pink.gif","img/card_backs/set2/blue.gif","img/card_backs/set2/orange.gif","img/card_backs/set2/gray.gif","""event"",""trial"",""time""
""fullscreenenter"",""1"",""5366""
","
","
","""event"",""trial"",""time""
""fullscreenenter"",""1"",""5366""
","
","","546.6999999992549","","","","real_trial","2021-07-15 18:49:13.761","img/card_backs/set1/yellow.gif","0","-70","1","",""
"casino-fixation","160","502881","0.0-25.0-0.45","995","false","img/card_backs/set1/purple.gif","img/card_backs/set1/red.gif","img/card_backs/set1/green.gif","img/card_backs/set1/yellow.gif","img/card_backs/set2/pink.gif","img/card_backs/set2/blue.gif","img/card_backs/set2/orange.gif","img/card_backs/set2/gray.gif","""event"",""trial"",""time""
""fullscreenenter"",""1"",""5366""
","
","
","""event"",""trial"",""time""
""fullscreenenter"",""1"",""5366""
","
","","null","","null","","fixation","2021-07-15 18:49:14.264","","","","","",""
"card-selection-trial","161","506147","0.0-25.0-1.45","995","false","img/card_backs/set1/purple.gif","img/card_backs/set1/red.gif","img/card_backs/set1/green.gif","img/card_backs/set1/yellow.gif","img/card_backs/set2/pink.gif","img/card_backs/set2/blue.gif","img/card_backs/set2/orange.gif","img/card_backs/set2/gray.gif","""event"",""trial"",""time""
""fullscreenenter"",""1"",""5366""
","
","
","""event"",""trial"",""time""
""fullscreenenter"",""1"",""5366""
","
","","1251.699999999255","","","","real_trial","2021-07-15 18:49:17.530","img/card_backs/set1/green.gif","2","-50","1","",""
"casino-fixation","162","506651","0.0-25.0-0.46","995","false","img/card_backs/set1/purple.gif","img/card_backs/set1/red.gif","img/card_backs/set1/green.gif","img/card_backs/set1/yellow.gif","img/card_backs/set2/pink.gif","img/card_backs/set2/blue.gif","img/card_backs/set2/orange.gif","img/card_backs/set2/gray.gif","""event"",""trial"",""time""
""fullscreenenter"",""1"",""5366""
","
","
","""event"",""trial"",""time""
""fullscreenenter"",""1"",""5366""
","
","","null","","null","","fixation","2021-07-15 18:49:18.034","","","","","",""
"card-selection-trial","163","510480","0.0-25.0-1.46","995","false","img/card_backs/set1/purple.gif","img/card_backs/set1/red.gif","img/card_backs/set1/green.gif","img/card_backs/set1/yellow.gif","img/card_backs/set2/pink.gif","img/card_backs/set2/blue.gif","img/card_backs/set2/orange.gif","img/card_backs/set2/gray.gif","""event"",""trial"",""time""
""fullscreenenter"",""1"",""5366""
","
","
","""event"",""trial"",""time""
""fullscreenenter"",""1"",""5366""
","
","","1805.199999999255","","","","real_trial","2021-07-15 18:49:21.863","img/card_backs/set1/purple.gif","2","-250","1","",""
"casino-fixation","164","510985","0.0-25.0-0.47","995","false","img/card_backs/set1/purple.gif","img/card_backs/set1/red.gif","img/card_backs/set1/green.gif","img/card_backs/set1/yellow.gif","img/card_backs/set2/pink.gif","img/card_backs/set2/blue.gif","img/card_backs/set2/orange.gif","img/card_backs/set2/gray.gif","""event"",""trial"",""time""
""fullscreenenter"",""1"",""5366""
","
","
","""event"",""trial"",""time""
""fullscreenenter"",""1"",""5366""
","
","","null","","null","","fixation","2021-07-15 18:49:22.368","","","","","",""
"card-selection-trial","165","513749","0.0-25.0-1.47","995","false","img/card_backs/set1/purple.gif","img/card_backs/set1/red.gif","img/card_backs/set1/green.gif","img/card_backs/set1/yellow.gif","img/card_backs/set2/pink.gif","img/card_backs/set2/blue.gif","img/card_backs/set2/orange.gif","img/card_backs/set2/gray.gif","""event"",""trial"",""time""
""fullscreenenter"",""1"",""5366""
","
","
","""event"",""trial"",""time""
""fullscreenenter"",""1"",""5366""
","
","","749.8999999985099","","","","real_trial","2021-07-15 18:49:25.132","img/card_backs/set1/yellow.gif","0","110","1","",""
"casino-fixation","166","514254","0.0-25.0-0.48","995","false","img/card_backs/set1/purple.gif","img/card_backs/set1/red.gif","img/card_backs/set1/green.gif","img/card_backs/set1/yellow.gif","img/card_backs/set2/pink.gif","img/card_backs/set2/blue.gif","img/card_backs/set2/orange.gif","img/card_backs/set2/gray.gif","""event"",""trial"",""time""
""fullscreenenter"",""1"",""5366""
","
","
","""event"",""trial"",""time""
""fullscreenenter"",""1"",""5366""
","
","","null","","null","","fixation","2021-07-15 18:49:25.637","","","","","",""
"card-selection-trial","167","517465","0.0-25.0-1.48","995","false","img/card_backs/set1/purple.gif","img/card_backs/set1/red.gif","img/card_backs/set1/green.gif","img/card_backs/set1/yellow.gif","img/card_backs/set2/pink.gif","img/card_backs/set2/blue.gif","img/card_backs/set2/orange.gif","img/card_backs/set2/gray.gif","""event"",""trial"",""time""
""fullscreenenter"",""1"",""5366""
","
","
","""event"",""trial"",""time""
""fullscreenenter"",""1"",""5366""
