"trial_type","trial_index","time_elapsed","internal_node_id","sub_id","risk_good_first","block1_A","block1_B","block1_C","block1_D","block2_A","block2_B","block2_C","block2_D","interactions","blur_events","focus_events","fullscreenenter_events","fullscreenexit_events","success","rt","stimulus","key_press","button_pressed","task_part","timestamp","card_choice","choice_position","points_earned","block","correct","response"
"pavlovia","0","11","0.0-0.0","808","false","img/card_backs/set1/purple.gif","img/card_backs/set1/green.gif","img/card_backs/set1/red.gif","img/card_backs/set1/yellow.gif","img/card_backs/set2/blue.gif","img/card_backs/set2/gray.gif","img/card_backs/set2/orange.gif","img/card_backs/set2/pink.gif","""event"",""trial"",""time""
""fullscreenenter"",""1"",""8956""
","
","
","""event"",""trial"",""time""
""fullscreenenter"",""1"",""8956""
","
","","","","","","","","","","","","",""
"fullscreen","1","9947","0.0-1.0","808","false","img/card_backs/set1/purple.gif","img/card_backs/set1/green.gif","img/card_backs/set1/red.gif","img/card_backs/set1/yellow.gif","img/card_backs/set2/blue.gif","img/card_backs/set2/gray.gif","img/card_backs/set2/orange.gif","img/card_backs/set2/pink.gif","""event"",""trial"",""time""
""fullscreenenter"",""1"",""8956""
","
","
","""event"",""trial"",""time""
""fullscreenenter"",""1"",""8956""
","
","true","","","","","","","","","","","",""
"audio-keyboard-response","2","13984","0.0-2.0","808","false","img/card_backs/set1/purple.gif","img/card_backs/set1/green.gif","img/card_backs/set1/red.gif","img/card_backs/set1/yellow.gif","img/card_backs/set2/blue.gif","img/card_backs/set2/gray.gif","img/card_backs/set2/orange.gif","img/card_backs/set2/pink.gif","""event"",""trial"",""time""
""fullscreenenter"",""1"",""8956""
","
","
","""event"",""trial"",""time""
""fullscreenenter"",""1"",""8956""
","
","","4043","audio/beep_loop.wav","32","","","","","","","","",""
"audio-button-response","3","22017","0.0-3.0","808","false","img/card_backs/set1/purple.gif","img/card_backs/set1/green.gif","img/card_backs/set1/red.gif","img/card_backs/set1/yellow.gif","img/card_backs/set2/blue.gif","img/card_backs/set2/gray.gif","img/card_backs/set2/orange.gif","img/card_backs/set2/pink.gif","""event"",""trial"",""time""
""fullscreenenter"",""1"",""8956""
","
","
","""event"",""trial"",""time""
""fullscreenenter"",""1"",""8956""
","
","","NaN","audio/turtle.mp3","","3","","","","","","","",""
"audio-button-response","4","24747","0.0-4.0","808","false","img/card_backs/set1/purple.gif","img/card_backs/set1/green.gif","img/card_backs/set1/red.gif","img/card_backs/set1/yellow.gif","img/card_backs/set2/blue.gif","img/card_backs/set2/gray.gif","img/card_backs/set2/orange.gif","img/card_backs/set2/pink.gif","""event"",""trial"",""time""
""fullscreenenter"",""1"",""8956""
","
","
","""event"",""trial"",""time""
""fullscreenenter"",""1"",""8956""
","
","","NaN","audio/shark.mp3","","2","","","","","","","",""
"fullscreen","5","29509","0.0-5.0","808","false","img/card_backs/set1/purple.gif","img/card_backs/set1/green.gif","img/card_backs/set1/red.gif","img/card_backs/set1/yellow.gif","img/card_backs/set2/blue.gif","img/card_backs/set2/gray.gif","img/card_backs/set2/orange.gif","img/card_backs/set2/pink.gif","""event"",""trial"",""time""
""fullscreenenter"",""1"",""8956""
","
","
","""event"",""trial"",""time""
""fullscreenenter"",""1"",""8956""
","
","true","","","","","","","","","","","",""
"casino-keyboard-response","6","36558","0.0-6.0-0.0","808","false","img/card_backs/set1/purple.gif","img/card_backs/set1/green.gif","img/card_backs/set1/red.gif","img/card_backs/set1/yellow.gif","img/card_backs/set2/blue.gif","img/card_backs/set2/gray.gif","img/card_backs/set2/orange.gif","img/card_backs/set2/pink.gif","""event"",""trial"",""time""
""fullscreenenter"",""1"",""8956""
","
","
","""event"",""trial"",""time""
""fullscreenenter"",""1"",""8956""
","
","","7022.010000000591","Welcome to the casino!","71","","instructions","2021-04-26 20:15:18.070","","","","","",""
"casino-keyboard-response","7","47022","0.0-6.0-0.1","808","false","img/card_backs/set1/purple.gif","img/card_backs/set1/green.gif","img/card_backs/set1/red.gif","img/card_backs/set1/yellow.gif","img/card_backs/set2/blue.gif","img/card_backs/set2/gray.gif","img/card_backs/set2/orange.gif","img/card_backs/set2/pink.gif","""event"",""trial"",""time""
""fullscreenenter"",""1"",""8956""
","
","
","""event"",""trial"",""time""
""fullscreenenter"",""1"",""8956""
","
","","10461.28999999928","Today you will be playing a game to earn tokens. </br> At the end of the experiment, you will be paid a bonus based on how many tokens you win. ","69","","instructions","2021-04-26 20:15:28.534","","","","","",""
"casino-keyboard-response","8","54864","0.0-6.0-0.2","808","false","img/card_backs/set1/purple.gif","img/card_backs/set1/green.gif","img/card_backs/set1/red.gif","img/card_backs/set1/yellow.gif","img/card_backs/set2/blue.gif","img/card_backs/set2/gray.gif","img/card_backs/set2/orange.gif","img/card_backs/set2/pink.gif","""event"",""trial"",""time""
""fullscreenenter"",""1"",""8956""
","
","
","""event"",""trial"",""time""
""fullscreenenter"",""1"",""8956""
","
","","7838.750000002619","On every turn, you will be shown four different decks of cards. </br> You need to select a card from one of the four decks.  ","75","","instructions","2021-04-26 20:15:36.376","","","","","",""
"casino-keyboard-response","9","60457","0.0-6.0-0.3","808","false","img/card_backs/set1/purple.gif","img/card_backs/set1/green.gif","img/card_backs/set1/red.gif","img/card_backs/set1/yellow.gif","img/card_backs/set2/blue.gif","img/card_backs/set2/gray.gif","img/card_backs/set2/orange.gif","img/card_backs/set2/pink.gif","""event"",""trial"",""time""
""fullscreenenter"",""1"",""8956""
","
","
","""event"",""trial"",""time""
""fullscreenenter"",""1"",""8956""
","
","","5589.400000000751","On the next screen, you will see what the decks will look like. ","66","","instructions","2021-04-26 20:15:41.969","","","","","",""
"card-selection-trial","10","64464","0.0-7.0-0.0","808","false","img/card_backs/set1/purple.gif","img/card_backs/set1/green.gif","img/card_backs/set1/red.gif","img/card_backs/set1/yellow.gif","img/card_backs/set2/blue.gif","img/card_backs/set2/gray.gif","img/card_backs/set2/orange.gif","img/card_backs/set2/pink.gif","""event"",""trial"",""time""
""fullscreenenter"",""1"",""8956""
","
","
","""event"",""trial"",""time""
""fullscreenenter"",""1"",""8956""
","
","","null","","","","practice","2021-04-26 20:15:45.976","null","null","null","0","",""
"casino-keyboard-response","11","75923","0.0-8.0-0.0","808","false","img/card_backs/set1/purple.gif","img/card_backs/set1/green.gif","img/card_backs/set1/red.gif","img/card_backs/set1/yellow.gif","img/card_backs/set2/blue.gif","img/card_backs/set2/gray.gif","img/card_backs/set2/orange.gif","img/card_backs/set2/pink.gif","""event"",""trial"",""time""
""fullscreenenter"",""1"",""8956""
","
","
","""event"",""trial"",""time""
""fullscreenenter"",""1"",""8956""
","
","","11455.835000000661","You should pick a card from a deck using the '2', '4', '6', and '8' keys at the top of the keyboard.","85","","instructions","2021-04-26 20:15:57.435","","","","","",""
"casino-keyboard-response","12","81987","0.0-8.0-0.1","808","false","img/card_backs/set1/purple.gif","img/card_backs/set1/green.gif","img/card_backs/set1/red.gif","img/card_backs/set1/yellow.gif","img/card_backs/set2/blue.gif","img/card_backs/set2/gray.gif","img/card_backs/set2/orange.gif","img/card_backs/set2/pink.gif","""event"",""trial"",""time""
""fullscreenenter"",""1"",""8956""
","
","
","""event"",""trial"",""time""
""fullscreenenter"",""1"",""8956""
","
","","6060.929999999644","Once you select a card, it will turn over and you will see how many tokens you earned.","83","","instructions","2021-04-26 20:16:03.499","","","","","",""
"casino-keyboard-response","13","97660","0.0-8.0-0.2","808","false","img/card_backs/set1/purple.gif","img/card_backs/set1/green.gif","img/card_backs/set1/red.gif","img/card_backs/set1/yellow.gif","img/card_backs/set2/blue.gif","img/card_backs/set2/gray.gif","img/card_backs/set2/orange.gif","img/card_backs/set2/pink.gif","""event"",""trial"",""time""
""fullscreenenter"",""1"",""8956""
","
","
","""event"",""trial"",""time""
""fullscreenenter"",""1"",""8956""
","
","","15668.914999998378","Let's try practicing that! </br> First, try to put your fingers over the '2', '4', '6', and '8' keys. </br>  You can use whatever fingers are most comfortable for you. Try to find a comfortable position now. ","50","","instructions","2021-04-26 20:16:19.172","","","","","",""
"casino-keyboard-response","14","103547","0.0-8.0-0.3","808","false","img/card_backs/set1/purple.gif","img/card_backs/set1/green.gif","img/card_backs/set1/red.gif","img/card_backs/set1/yellow.gif","img/card_backs/set2/blue.gif","img/card_backs/set2/gray.gif","img/card_backs/set2/orange.gif","img/card_backs/set2/pink.gif","""event"",""trial"",""time""
""fullscreenenter"",""1"",""8956""
","
","
","""event"",""trial"",""time""
""fullscreenenter"",""1"",""8956""
","
","","5882.784999997966","Okay ready? </br> On the next screen, press '2' to select the left deck. ","50","","instructions","2021-04-26 20:16:25.059","","","","","",""
"card-selection-trial","15","107042","0.0-9.0-0.0","808","false","img/card_backs/set1/purple.gif","img/card_backs/set1/green.gif","img/card_backs/set1/red.gif","img/card_backs/set1/yellow.gif","img/card_backs/set2/blue.gif","img/card_backs/set2/gray.gif","img/card_backs/set2/orange.gif","img/card_backs/set2/pink.gif","""event"",""trial"",""time""
""fullscreenenter"",""1"",""8956""
","
","
","""event"",""trial"",""time""
""fullscreenenter"",""1"",""8956""
","
","","1438.0200000014156","","","","practice_card_selection","2021-04-26 20:16:28.554","img/practice_cards/backs/black.gif","0","-100","","",""
"casino-keyboard-response","16","112914","0.0-10.0-0.0","808","false","img/card_backs/set1/purple.gif","img/card_backs/set1/green.gif","img/card_backs/set1/red.gif","img/card_backs/set1/yellow.gif","img/card_backs/set2/blue.gif","img/card_backs/set2/gray.gif","img/card_backs/set2/orange.gif","img/card_backs/set2/pink.gif","""event"",""trial"",""time""
""fullscreenenter"",""1"",""8956""
","
","
","""event"",""trial"",""time""
""fullscreenenter"",""1"",""8956""
","
","","5868.804999998247","Great! Now on the next screen, try pressing '6' to select the third deck.","54","","instructions","2021-04-26 20:16:34.426","","","","","",""
"card-selection-trial","17","115622","0.0-11.0-0.0","808","false","img/card_backs/set1/purple.gif","img/card_backs/set1/green.gif","img/card_backs/set1/red.gif","img/card_backs/set1/yellow.gif","img/card_backs/set2/blue.gif","img/card_backs/set2/gray.gif","img/card_backs/set2/orange.gif","img/card_backs/set2/pink.gif","""event"",""trial"",""time""
""fullscreenenter"",""1"",""8956""
","
","
","""event"",""trial"",""time""
""fullscreenenter"",""1"",""8956""
","
","","696.894999997312","","","","practice_card_selection","2021-04-26 20:16:37.134","img/practice_cards/backs/dark_green.gif","2","-200","","",""
"casino-keyboard-response","18","121096","0.0-12.0-0.0","808","false","img/card_backs/set1/purple.gif","img/card_backs/set1/green.gif","img/card_backs/set1/red.gif","img/card_backs/set1/yellow.gif","img/card_backs/set2/blue.gif","img/card_backs/set2/gray.gif","img/card_backs/set2/orange.gif","img/card_backs/set2/pink.gif","""event"",""trial"",""time""
""fullscreenenter"",""1"",""8956""
","
","
","""event"",""trial"",""time""
""fullscreenenter"",""1"",""8956""
","
","","5470.0750000010885","Now on the next screen, try pressing '4' to select the second deck.","52","","instructions","2021-04-26 20:16:42.608","","","","","",""
"card-selection-trial","19","123589","0.0-13.0-0.0","808","false","img/card_backs/set1/purple.gif","img/card_backs/set1/green.gif","img/card_backs/set1/red.gif","img/card_backs/set1/yellow.gif","img/card_backs/set2/blue.gif","img/card_backs/set2/gray.gif","img/card_backs/set2/orange.gif","img/card_backs/set2/pink.gif","""event"",""trial"",""time""
""fullscreenenter"",""1"",""8956""
","
","
","""event"",""trial"",""time""
""fullscreenenter"",""1"",""8956""
","
","","478.7300000025425","","","","practice_card_selection","2021-04-26 20:16:45.101","img/practice_cards/backs/dark_green.gif","1","200","","",""
"casino-keyboard-response","20","128209","0.0-14.0-0.0","808","false","img/card_backs/set1/purple.gif","img/card_backs/set1/green.gif","img/card_backs/set1/red.gif","img/card_backs/set1/yellow.gif","img/card_backs/set2/blue.gif","img/card_backs/set2/gray.gif","img/card_backs/set2/orange.gif","img/card_backs/set2/pink.gif","""event"",""trial"",""time""
""fullscreenenter"",""1"",""8956""
","
","
","""event"",""trial"",""time""
""fullscreenenter"",""1"",""8956""
","
","","4617.539999999281","Finally, try pressing '8' to select the deck all the way on the right.","56","","instructions","2021-04-26 20:16:49.721","","","","","",""
"card-selection-trial","21","130706","0.0-15.0-0.0","808","false","img/card_backs/set1/purple.gif","img/card_backs/set1/green.gif","img/card_backs/set1/red.gif","img/card_backs/set1/yellow.gif","img/card_backs/set2/blue.gif","img/card_backs/set2/gray.gif","img/card_backs/set2/orange.gif","img/card_backs/set2/pink.gif","""event"",""trial"",""time""
""fullscreenenter"",""1"",""8956""
","
","
","""event"",""trial"",""time""
""fullscreenenter"",""1"",""8956""
","
","","484.9149999972724","","","","practice_card_selection","2021-04-26 20:16:52.218","img/practice_cards/backs/dark_green.gif","3","-200","","",""
"casino-keyboard-response","22","135174","0.0-16.0-0.0","808","false","img/card_backs/set1/purple.gif","img/card_backs/set1/green.gif","img/card_backs/set1/red.gif","img/card_backs/set1/yellow.gif","img/card_backs/set2/blue.gif","img/card_backs/set2/gray.gif","img/card_backs/set2/orange.gif","img/card_backs/set2/pink.gif","""event"",""trial"",""time""
""fullscreenenter"",""1"",""8956""
","
","
","""event"",""trial"",""time""
""fullscreenenter"",""1"",""8956""
","
","","4465.280000000348","Great! It seems like you are getting the hang of this.","80","","instructions","2021-04-26 20:16:56.686","","","","","",""
"casino-keyboard-response","23","143199","0.0-16.0-0.1","808","false","img/card_backs/set1/purple.gif","img/card_backs/set1/green.gif","img/card_backs/set1/red.gif","img/card_backs/set1/yellow.gif","img/card_backs/set2/blue.gif","img/card_backs/set2/gray.gif","img/card_backs/set2/orange.gif","img/card_backs/set2/pink.gif","""event"",""trial"",""time""
""fullscreenenter"",""1"",""8956""
","
","
","""event"",""trial"",""time""
""fullscreenenter"",""1"",""8956""
","
","","8020.665000000008","You may have noticed that some cards will cause you to <b> win </b> tokens while other cards will cause you to <b> lose </b>  tokens.","70","","instructions","2021-04-26 20:17:04.711","","","","","",""
"casino-keyboard-response","24","153319","0.0-16.0-0.2","808","false","img/card_backs/set1/purple.gif","img/card_backs/set1/green.gif","img/card_backs/set1/red.gif","img/card_backs/set1/yellow.gif","img/card_backs/set2/blue.gif","img/card_backs/set2/gray.gif","img/card_backs/set2/orange.gif","img/card_backs/set2/pink.gif","""event"",""trial"",""time""
""fullscreenenter"",""1"",""8956""
","
","
","""event"",""trial"",""time""
""fullscreenenter"",""1"",""8956""
","
","","10116.300000001502","Each deck has a mix of cards that will cause you to win and lose tokens. </br> However, the cards in each colored deck are different.","73","","instructions","2021-04-26 20:17:14.831","","","","","",""
"casino-keyboard-response","25","164001","0.0-16.0-0.3","808","false","img/card_backs/set1/purple.gif","img/card_backs/set1/green.gif","img/card_backs/set1/red.gif","img/card_backs/set1/yellow.gif","img/card_backs/set2/blue.gif","img/card_backs/set2/gray.gif","img/card_backs/set2/orange.gif","img/card_backs/set2/pink.gif","""event"",""trial"",""time""
""fullscreenenter"",""1"",""8956""
","
","
","""event"",""trial"",""time""
""fullscreenenter"",""1"",""8956""
","
","","10677.65000000145","Some colored decks are luckier than others. </br> If you choose the lucky decks, you will earn more tokens than if you choose the unlucky decks.","69","","instructions","2021-04-26 20:17:25.513","","","","","",""
"casino-keyboard-response","26","171515","0.0-16.0-0.4","808","false","img/card_backs/set1/purple.gif","img/card_backs/set1/green.gif","img/card_backs/set1/red.gif","img/card_backs/set1/yellow.gif","img/card_backs/set2/blue.gif","img/card_backs/set2/gray.gif","img/card_backs/set2/orange.gif","img/card_backs/set2/pink.gif","""event"",""trial"",""time""
""fullscreenenter"",""1"",""8956""
","
","
","""event"",""trial"",""time""
""fullscreenenter"",""1"",""8956""
","
","","7509.960000003048","You should try to figure out which decks are lucky. </br> Then, try to choose the lucky decks so you can win the most tokens.","87","","instructions","2021-04-26 20:17:33.027","","","","","",""
"casino-keyboard-response","27","185465","0.0-16.0-0.5","808","false","img/card_backs/set1/purple.gif","img/card_backs/set1/green.gif","img/card_backs/set1/red.gif","img/card_backs/set1/yellow.gif","img/card_backs/set2/blue.gif","img/card_backs/set2/gray.gif","img/card_backs/set2/orange.gif","img/card_backs/set2/pink.gif","""event"",""trial"",""time""
""fullscreenenter"",""1"",""8956""
","
","
","""event"",""trial"",""time""
""fullscreenenter"",""1"",""8956""
","
","","13946.609999999055","To make it trickier, the casino dealer will switch the locations of the decks on every turn. </br> The color of the deck determines how lucky it is. The location does not matter.","88","","instructions","2021-04-26 20:17:46.977","","","","","",""
"casino-keyboard-response","28","251256","0.0-16.0-0.6","808","false","img/card_backs/set1/purple.gif","img/card_backs/set1/green.gif","img/card_backs/set1/red.gif","img/card_backs/set1/yellow.gif","img/card_backs/set2/blue.gif","img/card_backs/set2/gray.gif","img/card_backs/set2/orange.gif","img/card_backs/set2/pink.gif","""event"",""trial"",""time""
""fullscreenenter"",""1"",""8956""
","
","
","""event"",""trial"",""time""
""fullscreenenter"",""1"",""8956""
","
","","65788.62500000108","The mix of cards in each colored deck will stay the same throughout the game. </br> That means that a deck that is lucky early on will stay lucky.","79","","instructions","2021-04-26 20:18:52.768","","","","","",""
"casino-keyboard-response","29","260980","0.0-16.0-0.7","808","false","img/card_backs/set1/purple.gif","img/card_backs/set1/green.gif","img/card_backs/set1/red.gif","img/card_backs/set1/yellow.gif","img/card_backs/set2/blue.gif","img/card_backs/set2/gray.gif","img/card_backs/set2/orange.gif","img/card_backs/set2/pink.gif","""event"",""trial"",""time""
""fullscreenenter"",""1"",""8956""
","
","
","""event"",""trial"",""time""
""fullscreenenter"",""1"",""8956""
","
","","9720.160000000731","Remember though, all the decks have a <b> mix </b> of both <b> good </b> and <b> bad </b> cards so it may take a couple of turns to figure out if a deck is lucky.","69","","instructions","2021-04-26 20:19:02.492","","","","","",""
"casino-keyboard-response","30","269790","0.0-16.0-0.8","808","false","img/card_backs/set1/purple.gif","img/card_backs/set1/green.gif","img/card_backs/set1/red.gif","img/card_backs/set1/yellow.gif","img/card_backs/set2/blue.gif","img/card_backs/set2/gray.gif","img/card_backs/set2/orange.gif","img/card_backs/set2/pink.gif","""event"",""trial"",""time""
""fullscreenenter"",""1"",""8956""
","
","
","""event"",""trial"",""time""
""fullscreenenter"",""1"",""8956""
","
","","8805.925000000512","At the end of the game, you will be paid bonus money based on how many tokens you win. </br> If you win more tokens, you will earn more money!","72","","instructions","2021-04-26 20:19:11.302","","","","","",""
"casino-keyboard-response","31","280461","0.0-16.0-0.9","808","false","img/card_backs/set1/purple.gif","img/card_backs/set1/green.gif","img/card_backs/set1/red.gif","img/card_backs/set1/yellow.gif","img/card_backs/set2/blue.gif","img/card_backs/set2/gray.gif","img/card_backs/set2/orange.gif","img/card_backs/set2/pink.gif","""event"",""trial"",""time""
""fullscreenenter"",""1"",""8956""
","
","
","""event"",""trial"",""time""
""fullscreenenter"",""1"",""8956""
","
","","10667.645000001357","You will never <b> lose </b> money. </br> If you end up with fewer than 0 tokens, you will earn $0 of bonus money, but you will still be paid for playing the game.","83","","instructions","2021-04-26 20:19:21.973","","","","","",""
"casino-keyboard-response","32","285604","0.0-16.0-0.10","808","false","img/card_backs/set1/purple.gif","img/card_backs/set1/green.gif","img/card_backs/set1/red.gif","img/card_backs/set1/yellow.gif","img/card_backs/set2/blue.gif","img/card_backs/set2/gray.gif","img/card_backs/set2/orange.gif","img/card_backs/set2/pink.gif","""event"",""trial"",""time""
""fullscreenenter"",""1"",""8956""
","
","
","""event"",""trial"",""time""
""fullscreenenter"",""1"",""8956""
","
","","5135.310000001511","You will have 10 seconds to make each choice.","82","","instructions","2021-04-26 20:19:27.116","","","","","",""
"casino-keyboard-response","33","294039","0.0-16.0-0.11","808","false","img/card_backs/set1/purple.gif","img/card_backs/set1/green.gif","img/card_backs/set1/red.gif","img/card_backs/set1/yellow.gif","img/card_backs/set2/blue.gif","img/card_backs/set2/gray.gif","img/card_backs/set2/orange.gif","img/card_backs/set2/pink.gif","""event"",""trial"",""time""
""fullscreenenter"",""1"",""8956""
","
","
","""event"",""trial"",""time""
""fullscreenenter"",""1"",""8956""
","
","","8431.42000000074","Before you play the game for real, you will play with practice decks. </br> The tokens you earn during practice won't count toward your total.","86","","instructions","2021-04-26 20:19:35.551","","","","","",""
"casino-keyboard-response","34","305723","0.0-16.0-0.12","808","false","img/card_backs/set1/purple.gif","img/card_backs/set1/green.gif","img/card_backs/set1/red.gif","img/card_backs/set1/yellow.gif","img/card_backs/set2/blue.gif","img/card_backs/set2/gray.gif","img/card_backs/set2/orange.gif","img/card_backs/set2/pink.gif","""event"",""trial"",""time""
""fullscreenenter"",""1"",""8956""
","
","
","""event"",""trial"",""time""
""fullscreenenter"",""1"",""8956""
","
","","11680.084999999963","Ready? Remember, use the '2', '4', '6', and '8' keys to select the decks. </br> Put your fingers on those keys now and then press '2' to begin.","50","","instructions","2021-04-26 20:19:47.236","","","","","",""
"casino-fixation","35","306228","0.0-17.0-0.0","808","false","img/card_backs/set1/purple.gif","img/card_backs/set1/green.gif","img/card_backs/set1/red.gif","img/card_backs/set1/yellow.gif","img/card_backs/set2/blue.gif","img/card_backs/set2/gray.gif","img/card_backs/set2/orange.gif","img/card_backs/set2/pink.gif","""event"",""trial"",""time""
""fullscreenenter"",""1"",""8956""
","
","
","""event"",""trial"",""time""
""fullscreenenter"",""1"",""8956""
","
","","null","","null","","fixation","2021-04-26 20:19:47.740","","","","","",""
"card-selection-trial","36","311937","0.0-17.0-1.0","808","false","img/card_backs/set1/purple.gif","img/card_backs/set1/green.gif","img/card_backs/set1/red.gif","img/card_backs/set1/yellow.gif","img/card_backs/set2/blue.gif","img/card_backs/set2/gray.gif","img/card_backs/set2/orange.gif","img/card_backs/set2/pink.gif","""event"",""trial"",""time""
""fullscreenenter"",""1"",""8956""
","
","
","""event"",""trial"",""time""
""fullscreenenter"",""1"",""8956""
","
","","3700.810000002093","","","","practice","2021-04-26 20:19:53.449","img/practice_cards/backs/brown.gif","3","-100","0","",""
"casino-fixation","37","312440","0.0-17.0-0.1","808","false","img/card_backs/set1/purple.gif","img/card_backs/set1/green.gif","img/card_backs/set1/red.gif","img/card_backs/set1/yellow.gif","img/card_backs/set2/blue.gif","img/card_backs/set2/gray.gif","img/card_backs/set2/orange.gif","img/card_backs/set2/pink.gif","""event"",""trial"",""time""
""fullscreenenter"",""1"",""8956""
","
","
","""event"",""trial"",""time""
""fullscreenenter"",""1"",""8956""
","
","","null","","null","","fixation","2021-04-26 20:19:53.953","","","","","",""
"card-selection-trial","38","315766","0.0-17.0-1.1","808","false","img/card_backs/set1/purple.gif","img/card_backs/set1/green.gif","img/card_backs/set1/red.gif","img/card_backs/set1/yellow.gif","img/card_backs/set2/blue.gif","img/card_backs/set2/gray.gif","img/card_backs/set2/orange.gif","img/card_backs/set2/pink.gif","""event"",""trial"",""time""
""fullscreenenter"",""1"",""8956""
","
","
","""event"",""trial"",""time""
""fullscreenenter"",""1"",""8956""
","
","","1315.8850000000093","","","","practice","2021-04-26 20:19:57.278","img/practice_cards/backs/black.gif","0","100","0","",""
"casino-fixation","39","316268","0.0-17.0-0.2","808","false","img/card_backs/set1/purple.gif","img/card_backs/set1/green.gif","img/card_backs/set1/red.gif","img/card_backs/set1/yellow.gif","img/card_backs/set2/blue.gif","img/card_backs/set2/gray.gif","img/card_backs/set2/orange.gif","img/card_backs/set2/pink.gif","""event"",""trial"",""time""
""fullscreenenter"",""1"",""8956""
","
","
","""event"",""trial"",""time""
""fullscreenenter"",""1"",""8956""
","
","","null","","null","","fixation","2021-04-26 20:19:57.780","","","","","",""
"card-selection-trial","40","319999","0.0-17.0-1.2","808","false","img/card_backs/set1/purple.gif","img/card_backs/set1/green.gif","img/card_backs/set1/red.gif","img/card_backs/set1/yellow.gif","img/card_backs/set2/blue.gif","img/card_backs/set2/gray.gif","img/card_backs/set2/orange.gif","img/card_backs/set2/pink.gif","""event"",""trial"",""time""
""fullscreenenter"",""1"",""8956""
","
","
","""event"",""trial"",""time""
""fullscreenenter"",""1"",""8956""
","
","","1723.0150000032154","","","","practice","2021-04-26 20:20:01.511","img/practice_cards/backs/dark_green.gif","1","-200","0","",""
"casino-fixation","41","320502","0.0-17.0-0.3","808","false","img/card_backs/set1/purple.gif","img/card_backs/set1/green.gif","img/card_backs/set1/red.gif","img/card_backs/set1/yellow.gif","img/card_backs/set2/blue.gif","img/card_backs/set2/gray.gif","img/card_backs/set2/orange.gif","img/card_backs/set2/pink.gif","""event"",""trial"",""time""
""fullscreenenter"",""1"",""8956""
","
","
","""event"",""trial"",""time""
""fullscreenenter"",""1"",""8956""
","
","","null","","null","","fixation","2021-04-26 20:20:02.014","","","","","",""
"card-selection-trial","42","325372","0.0-17.0-1.3","808","false","img/card_backs/set1/purple.gif","img/card_backs/set1/green.gif","img/card_backs/set1/red.gif","img/card_backs/set1/yellow.gif","img/card_backs/set2/blue.gif","img/card_backs/set2/gray.gif","img/card_backs/set2/orange.gif","img/card_backs/set2/pink.gif","""event"",""trial"",""time""
""fullscreenenter"",""1"",""8956""
","
","
","""event"",""trial"",""time""
""fullscreenenter"",""1"",""8956""
","
","","2862.8399999979883","","","","practice","2021-04-26 20:20:06.884","img/practice_cards/backs/dark_blue.gif","1","-200","0","",""
"casino-fixation","43","325876","0.0-17.0-0.4","808","false","img/card_backs/set1/purple.gif","img/card_backs/set1/green.gif","img/card_backs/set1/red.gif","img/card_backs/set1/yellow.gif","img/card_backs/set2/blue.gif","img/card_backs/set2/gray.gif","img/card_backs/set2/orange.gif","img/card_backs/set2/pink.gif","""event"",""trial"",""time""
""fullscreenenter"",""1"",""8956""
","
","
","""event"",""trial"",""time""
""fullscreenenter"",""1"",""8956""
","
","","null","","null","","fixation","2021-04-26 20:20:07.388","","","","","",""
"card-selection-trial","44","329354","0.0-17.0-1.4","808","false","img/card_backs/set1/purple.gif","img/card_backs/set1/green.gif","img/card_backs/set1/red.gif","img/card_backs/set1/yellow.gif","img/card_backs/set2/blue.gif","img/card_backs/set2/gray.gif","img/card_backs/set2/orange.gif","img/card_backs/set2/pink.gif","""event"",""trial"",""time""
""fullscreenenter"",""1"",""8956""
","
","
","""event"",""trial"",""time""
""fullscreenenter"",""1"",""8956""
","
","","1468.5499999978347","","","","practice","2021-04-26 20:20:10.866","img/practice_cards/backs/dark_green.gif","2","200","0","",""
"casino-fixation","45","329856","0.0-17.0-0.5","808","false","img/card_backs/set1/purple.gif","img/card_backs/set1/green.gif","img/card_backs/set1/red.gif","img/card_backs/set1/yellow.gif","img/card_backs/set2/blue.gif","img/card_backs/set2/gray.gif","img/card_backs/set2/orange.gif","img/card_backs/set2/pink.gif","""event"",""trial"",""time""
""fullscreenenter"",""1"",""8956""
","
","
","""event"",""trial"",""time""
""fullscreenenter"",""1"",""8956""
","
","","null","","null","","fixation","2021-04-26 20:20:11.368","","","","","",""
"card-selection-trial","46","332982","0.0-17.0-1.5","808","false","img/card_backs/set1/purple.gif","img/card_backs/set1/green.gif","img/card_backs/set1/red.gif","img/card_backs/set1/yellow.gif","img/card_backs/set2/blue.gif","img/card_backs/set2/gray.gif","img/card_backs/set2/orange.gif","img/card_backs/set2/pink.gif","""event"",""trial"",""time""
""fullscreenenter"",""1"",""8956""
","
","
","""event"",""trial"",""time""
""fullscreenenter"",""1"",""8956""
","
","","1117.1799999974319","","","","practice","2021-04-26 20:20:14.495","img/practice_cards/backs/dark_green.gif","0","-200","0","",""
"casino-fixation","47","333485","0.0-17.0-0.6","808","false","img/card_backs/set1/purple.gif","img/card_backs/set1/green.gif","img/card_backs/set1/red.gif","img/card_backs/set1/yellow.gif","img/card_backs/set2/blue.gif","img/card_backs/set2/gray.gif","img/card_backs/set2/orange.gif","img/card_backs/set2/pink.gif","""event"",""trial"",""time""
""fullscreenenter"",""1"",""8956""
","
","
","""event"",""trial"",""time""
""fullscreenenter"",""1"",""8956""
","
","","null","","null","","fixation","2021-04-26 20:20:14.997","","","","","",""
"card-selection-trial","48","336354","0.0-17.0-1.6","808","false","img/card_backs/set1/purple.gif","img/card_backs/set1/green.gif","img/card_backs/set1/red.gif","img/card_backs/set1/yellow.gif","img/card_backs/set2/blue.gif","img/card_backs/set2/gray.gif","img/card_backs/set2/orange.gif","img/card_backs/set2/pink.gif","""event"",""trial"",""time""
""fullscreenenter"",""1"",""8956""
","
","
","""event"",""trial"",""time""
""fullscreenenter"",""1"",""8956""
","
","","860.0899999983376","","","","practice","2021-04-26 20:20:17.866","img/practice_cards/backs/black.gif","2","-100","0","",""
"casino-fixation","49","336857","0.0-17.0-0.7","808","false","img/card_backs/set1/purple.gif","img/card_backs/set1/green.gif","img/card_backs/set1/red.gif","img/card_backs/set1/yellow.gif","img/card_backs/set2/blue.gif","img/card_backs/set2/gray.gif","img/card_backs/set2/orange.gif","img/card_backs/set2/pink.gif","""event"",""trial"",""time""
""fullscreenenter"",""1"",""8956""
","
","
","""event"",""trial"",""time""
""fullscreenenter"",""1"",""8956""
","
","","null","","null","","fixation","2021-04-26 20:20:18.369","","","","","",""
"card-selection-trial","50","339862","0.0-17.0-1.7","808","false","img/card_backs/set1/purple.gif","img/card_backs/set1/green.gif","img/card_backs/set1/red.gif","img/card_backs/set1/yellow.gif","img/card_backs/set2/blue.gif","img/card_backs/set2/gray.gif","img/card_backs/set2/orange.gif","img/card_backs/set2/pink.gif","""event"",""trial"",""time""
""fullscreenenter"",""1"",""8956""
","
","
","""event"",""trial"",""time""
""fullscreenenter"",""1"",""8956""
","
","","996.5049999991897","","","","practice","2021-04-26 20:20:21.374","img/practice_cards/backs/dark_green.gif","1","-200","0","",""
"casino-fixation","51","340366","0.0-17.0-0.8","808","false","img/card_backs/set1/purple.gif","img/card_backs/set1/green.gif","img/card_backs/set1/red.gif","img/card_backs/set1/yellow.gif","img/card_backs/set2/blue.gif","img/card_backs/set2/gray.gif","img/card_backs/set2/orange.gif","img/card_backs/set2/pink.gif","""event"",""trial"",""time""
""fullscreenenter"",""1"",""8956""
","
","
","""event"",""trial"",""time""
""fullscreenenter"",""1"",""8956""
","
","","null","","null","","fixation","2021-04-26 20:20:21.878","","","","","",""
"card-selection-trial","52","344211","0.0-17.0-1.8","808","false","img/card_backs/set1/purple.gif","img/card_backs/set1/green.gif","img/card_backs/set1/red.gif","img/card_backs/set1/yellow.gif","img/card_backs/set2/blue.gif","img/card_backs/set2/gray.gif","img/card_backs/set2/orange.gif","img/card_backs/set2/pink.gif","""event"",""trial"",""time""
""fullscreenenter"",""1"",""8956""
","
","
","""event"",""trial"",""time""
""fullscreenenter"",""1"",""8956""
","
","","1835.5699999992503","","","","practice","2021-04-26 20:20:25.723","img/practice_cards/backs/dark_blue.gif","3","-200","0","",""
"casino-fixation","53","344714","0.0-17.0-0.9","808","false","img/card_backs/set1/purple.gif","img/card_backs/set1/green.gif","img/card_backs/set1/red.gif","img/card_backs/set1/yellow.gif","img/card_backs/set2/blue.gif","img/card_backs/set2/gray.gif","img/card_backs/set2/orange.gif","img/card_backs/set2/pink.gif","""event"",""trial"",""time""
""fullscreenenter"",""1"",""8956""
","
","
","""event"",""trial"",""time""
""fullscreenenter"",""1"",""8956""
","
","","null","","null","","fixation","2021-04-26 20:20:26.226","","","","","",""
"card-selection-trial","54","347905","0.0-17.0-1.9","808","false","img/card_backs/set1/purple.gif","img/card_backs/set1/green.gif","img/card_backs/set1/red.gif","img/card_backs/set1/yellow.gif","img/card_backs/set2/blue.gif","img/card_backs/set2/gray.gif","img/card_backs/set2/orange.gif","img/card_backs/set2/pink.gif","""event"",""trial"",""time""
""fullscreenenter"",""1"",""8956""
","
","
","""event"",""trial"",""time""
""fullscreenenter"",""1"",""8956""
","
","","1180.9400000020396","","","","practice","2021-04-26 20:20:29.417","img/practice_cards/backs/brown.gif","1","100","0","",""
"casino-keyboard-response","55","351079","0.0-18.0","808","false","img/card_backs/set1/purple.gif","img/card_backs/set1/green.gif","img/card_backs/set1/red.gif","img/card_backs/set1/yellow.gif","img/card_backs/set2/blue.gif","img/card_backs/set2/gray.gif","img/card_backs/set2/orange.gif","img/card_backs/set2/pink.gif","""event"",""trial"",""time""
""fullscreenenter"",""1"",""8956""
","
","
","""event"",""trial"",""time""
""fullscreenenter"",""1"",""8956""
","
","","3171.3049999998184","You earned -800 tokens during the practice round!","82","","","2021-04-26 20:20:32.592","","","","","",""
"casino-keyboard-response","56","356220","0.0-19.0-0.0","808","false","img/card_backs/set1/purple.gif","img/card_backs/set1/green.gif","img/card_backs/set1/red.gif","img/card_backs/set1/yellow.gif","img/card_backs/set2/blue.gif","img/card_backs/set2/gray.gif","img/card_backs/set2/orange.gif","img/card_backs/set2/pink.gif","""event"",""trial"",""time""
""fullscreenenter"",""1"",""8956""
","
","
","""event"",""trial"",""time""
""fullscreenenter"",""1"",""8956""
","
","","5137.194999999367","Nice job! You are almost ready to play the real game.","86","","instructions","2021-04-26 20:20:37.733","","","","","",""
"casino-keyboard-response","57","363704","0.0-19.0-0.1","808","false","img/card_backs/set1/purple.gif","img/card_backs/set1/green.gif","img/card_backs/set1/red.gif","img/card_backs/set1/yellow.gif","img/card_backs/set2/blue.gif","img/card_backs/set2/gray.gif","img/card_backs/set2/orange.gif","img/card_backs/set2/pink.gif","""event"",""trial"",""time""
""fullscreenenter"",""1"",""8956""
","
","
","""event"",""trial"",""time""
""fullscreenenter"",""1"",""8956""
","
","","7480.379999997269","You will play two rounds of the real game. In each round, you will pick 100 cards in total.","73","","instructions","2021-04-26 20:20:45.216","","","","","",""
"casino-keyboard-response","58","368317","0.0-19.0-0.2","808","false","img/card_backs/set1/purple.gif","img/card_backs/set1/green.gif","img/card_backs/set1/red.gif","img/card_backs/set1/yellow.gif","img/card_backs/set2/blue.gif","img/card_backs/set2/gray.gif","img/card_backs/set2/orange.gif","img/card_backs/set2/pink.gif","""event"",""trial"",""time""
""fullscreenenter"",""1"",""8956""
","
","
","""event"",""trial"",""time""
""fullscreenenter"",""1"",""8956""
","
","","4609.375","We are now going to ask you some questions about how the game works.","66","","instructions","2021-04-26 20:20:49.829","","","","","",""
"casino-keyboard-response","59","374450","0.0-19.0-0.3","808","false","img/card_backs/set1/purple.gif","img/card_backs/set1/green.gif","img/card_backs/set1/red.gif","img/card_backs/set1/yellow.gif","img/card_backs/set2/blue.gif","img/card_backs/set2/gray.gif","img/card_backs/set2/orange.gif","img/card_backs/set2/pink.gif","""event"",""trial"",""time""
""fullscreenenter"",""1"",""8956""
","
","
","""event"",""trial"",""time""
""fullscreenenter"",""1"",""8956""
","
","","6129.91999999946","Answer carefully. You will not be able to begin the game until you answer them correctly.","67","","instructions","2021-04-26 20:20:55.962","","","","","",""
"casino-comp_q","60","384248","0.0-20.0-0.0","808","false","img/card_backs/set1/purple.gif","img/card_backs/set1/green.gif","img/card_backs/set1/red.gif","img/card_backs/set1/yellow.gif","img/card_backs/set2/blue.gif","img/card_backs/set2/gray.gif","img/card_backs/set2/orange.gif","img/card_backs/set2/pink.gif","""event"",""trial"",""time""
""fullscreenenter"",""1"",""8956""
","
","
","""event"",""trial"",""time""
""fullscreenenter"",""1"",""8956""
","
","","9793.190000000352","True or False: All the decks have some cards that cause you to win tokens and some cards that cause you to lose tokens.","84","","","2021-04-26 20:21:05.760","","","","","",""
"casino-keyboard-response","61","391662","0.0-20.0-1.0","808","false","img/card_backs/set1/purple.gif","img/card_backs/set1/green.gif","img/card_backs/set1/red.gif","img/card_backs/set1/yellow.gif","img/card_backs/set2/blue.gif","img/card_backs/set2/gray.gif","img/card_backs/set2/orange.gif","img/card_backs/set2/pink.gif","""event"",""trial"",""time""
""fullscreenenter"",""1"",""8956""
","
","
","""event"",""trial"",""time""
""fullscreenenter"",""1"",""8956""
","
","","7410.069999998086","True is correct! All the decks have a mix of winning and losing cards.","77","","","2021-04-26 20:21:13.175","","","","","true",""
"casino-comp_q","62","396882","0.0-21.0-0.0","808","false","img/card_backs/set1/purple.gif","img/card_backs/set1/green.gif","img/card_backs/set1/red.gif","img/card_backs/set1/yellow.gif","img/card_backs/set2/blue.gif","img/card_backs/set2/gray.gif","img/card_backs/set2/orange.gif","img/card_backs/set2/pink.gif","""event"",""trial"",""time""
""fullscreenenter"",""1"",""8956""
","
","
","""event"",""trial"",""time""
""fullscreenenter"",""1"",""8956""
","
","","5214.479999998759","True or False: You will have as much time as you want to make your response.","70","","","2021-04-26 20:21:18.394","","","","","",""
"casino-keyboard-response","63","399952","0.0-21.0-1.0","808","false","img/card_backs/set1/purple.gif","img/card_backs/set1/green.gif","img/card_backs/set1/red.gif","img/card_backs/set1/yellow.gif","img/card_backs/set2/blue.gif","img/card_backs/set2/gray.gif","img/card_backs/set2/orange.gif","img/card_backs/set2/pink.gif","""event"",""trial"",""time""
""fullscreenenter"",""1"",""8956""
","
","
","""event"",""trial"",""time""
""fullscreenenter"",""1"",""8956""
","
","","3066.865000000689","False is correct! You will only have 10 seconds to make each choice.","75","","","2021-04-26 20:21:21.464","","","","","true",""
"casino-comp_q","64","405607","0.0-22.0-0.0","808","false","img/card_backs/set1/purple.gif","img/card_backs/set1/green.gif","img/card_backs/set1/red.gif","img/card_backs/set1/yellow.gif","img/card_backs/set2/blue.gif","img/card_backs/set2/gray.gif","img/card_backs/set2/orange.gif","img/card_backs/set2/pink.gif","""event"",""trial"",""time""
""fullscreenenter"",""1"",""8956""
","
","
","""event"",""trial"",""time""
""fullscreenenter"",""1"",""8956""
","
","","5651.5550000004005","True or False: The location of the deck determines how lucky it is.","70","","","2021-04-26 20:21:27.119","","","","","",""
"casino-keyboard-response","65","410405","0.0-22.0-1.0","808","false","img/card_backs/set1/purple.gif","img/card_backs/set1/green.gif","img/card_backs/set1/red.gif","img/card_backs/set1/yellow.gif","img/card_backs/set2/blue.gif","img/card_backs/set2/gray.gif","img/card_backs/set2/orange.gif","img/card_backs/set2/pink.gif","""event"",""trial"",""time""
""fullscreenenter"",""1"",""8956""
","
","
","""event"",""trial"",""time""
""fullscreenenter"",""1"",""8956""
","
","","4794.794999998005","False is correct! The <i>color</i>  of the deck determines how lucky or unlucky it is.","68","","","2021-04-26 20:21:31.917","","","","","true",""
"casino-keyboard-response","66","415535","0.0-23.0-0.0","808","false","img/card_backs/set1/purple.gif","img/card_backs/set1/green.gif","img/card_backs/set1/red.gif","img/card_backs/set1/yellow.gif","img/card_backs/set2/blue.gif","img/card_backs/set2/gray.gif","img/card_backs/set2/orange.gif","img/card_backs/set2/pink.gif","""event"",""trial"",""time""
""fullscreenenter"",""1"",""8956""
","
","
","""event"",""trial"",""time""
""fullscreenenter"",""1"",""8956""
","
","","5125.860000000102","Great job! Now it's time to start the real game.","82","","instructions","2021-04-26 20:21:37.048","","","","","",""
"casino-keyboard-response","67","421121","0.0-23.0-0.1","808","false","img/card_backs/set1/purple.gif","img/card_backs/set1/green.gif","img/card_backs/set1/red.gif","img/card_backs/set1/yellow.gif","img/card_backs/set2/blue.gif","img/card_backs/set2/gray.gif","img/card_backs/set2/orange.gif","img/card_backs/set2/pink.gif","""event"",""trial"",""time""
""fullscreenenter"",""1"",""8956""
","
","
","""event"",""trial"",""time""
""fullscreenenter"",""1"",""8956""
","
","","5582.930000000517","Before we start, we're going to head into a new room of the casino.","86","","instructions","2021-04-26 20:21:42.634","","","","","",""
"casino-keyboard-response","68","428738","0.0-24.0-0.0","808","false","img/card_backs/set1/purple.gif","img/card_backs/set1/green.gif","img/card_backs/set1/red.gif","img/card_backs/set1/yellow.gif","img/card_backs/set2/blue.gif","img/card_backs/set2/gray.gif","img/card_backs/set2/orange.gif","img/card_backs/set2/pink.gif","""event"",""trial"",""time""
""fullscreenenter"",""1"",""8956""
","
","
","""event"",""trial"",""time""
""fullscreenenter"",""1"",""8956""
","
","","7613.460000000428","Here we are! The real game will use different cards, but the rules will be the same.","71","","instructions","2021-04-26 20:21:50.250","","","","","",""
"casino-keyboard-response","69","438219","0.0-24.0-0.1","808","false","img/card_backs/set1/purple.gif","img/card_backs/set1/green.gif","img/card_backs/set1/red.gif","img/card_backs/set1/yellow.gif","img/card_backs/set2/blue.gif","img/card_backs/set2/gray.gif","img/card_backs/set2/orange.gif","img/card_backs/set2/pink.gif","""event"",""trial"",""time""
""fullscreenenter"",""1"",""8956""
","
","
","""event"",""trial"",""time""
""fullscreenenter"",""1"",""8956""
","
","","9477.435000000638","Ready? Put your fingers over the '2', '4', 6', and '8' keys so you are ready to play the game. </br> Then press 2 to start.","50","","instructions","2021-04-26 20:21:59.731","","","","","",""
"casino-fixation","70","438723","0.0-25.0-0.0","808","false","img/card_backs/set1/purple.gif","img/card_backs/set1/green.gif","img/card_backs/set1/red.gif","img/card_backs/set1/yellow.gif","img/card_backs/set2/blue.gif","img/card_backs/set2/gray.gif","img/card_backs/set2/orange.gif","img/card_backs/set2/pink.gif","""event"",""trial"",""time""
""fullscreenenter"",""1"",""8956""
","
","
","""event"",""trial"",""time""
""fullscreenenter"",""1"",""8956""
","
","","null","","null","","fixation","2021-04-26 20:22:00.235","","","","","",""
"card-selection-trial","71","441807","0.0-25.0-1.0","808","false","img/card_backs/set1/purple.gif","img/card_backs/set1/green.gif","img/card_backs/set1/red.gif","img/card_backs/set1/yellow.gif","img/card_backs/set2/blue.gif","img/card_backs/set2/gray.gif","img/card_backs/set2/orange.gif","img/card_backs/set2/pink.gif","""event"",""trial"",""time""
""fullscreenenter"",""1"",""8956""
","
","
","""event"",""trial"",""time""
""fullscreenenter"",""1"",""8956""
","
","","1074.9550000000745","","","","real_trial","2021-04-26 20:22:03.319","img/card_backs/set1/purple.gif","1","190","1","",""
"casino-fixation","72","442310","0.0-25.0-0.1","808","false","img/card_backs/set1/purple.gif","img/card_backs/set1/green.gif","img/card_backs/set1/red.gif","img/card_backs/set1/yellow.gif","img/card_backs/set2/blue.gif","img/card_backs/set2/gray.gif","img/card_backs/set2/orange.gif","img/card_backs/set2/pink.gif","""event"",""trial"",""time""
""fullscreenenter"",""1"",""8956""
","
","
","""event"",""trial"",""time""
""fullscreenenter"",""1"",""8956""
","
","","null","","null","","fixation","2021-04-26 20:22:03.822","","","","","",""
"card-selection-trial","73","444633","0.0-25.0-1.1","808","false","img/card_backs/set1/purple.gif","img/card_backs/set1/green.gif","img/card_backs/set1/red.gif","img/card_backs/set1/yellow.gif","img/card_backs/set2/blue.gif","img/card_backs/set2/gray.gif","img/card_backs/set2/orange.gif","img/card_backs/set2/pink.gif","""event"",""trial"",""time""
""fullscreenenter"",""1"",""8956""
","
","
","""event"",""trial"",""time""
""fullscreenenter"",""1"",""8956""
","
","","311.4900000000489","","","","real_trial","2021-04-26 20:22:06.145","img/card_backs/set1/yellow.gif","3","-50","1","",""
"casino-fixation","74","445135","0.0-25.0-0.2","808","false","img/card_backs/set1/purple.gif","img/card_backs/set1/green.gif","img/card_backs/set1/red.gif","img/card_backs/set1/yellow.gif","img/card_backs/set2/blue.gif","img/card_backs/set2/gray.gif","img/card_backs/set2/orange.gif","img/card_backs/set2/pink.gif","""event"",""trial"",""time""
""fullscreenenter"",""1"",""8956""
","
","
","""event"",""trial"",""time""
""fullscreenenter"",""1"",""8956""
","
","","null","","null","","fixation","2021-04-26 20:22:06.647","","","","","",""
"card-selection-trial","75","447557","0.0-25.0-1.2","808","false","img/card_backs/set1/purple.gif","img/card_backs/set1/green.gif","img/card_backs/set1/red.gif","img/card_backs/set1/yellow.gif","img/card_backs/set2/blue.gif","img/card_backs/set2/gray.gif","img/card_backs/set2/orange.gif","img/card_backs/set2/pink.gif","""event"",""trial"",""time""
""fullscreenenter"",""1"",""8956""
","
","
","""event"",""trial"",""time""
""fullscreenenter"",""1"",""8956""
","
","","409.2349999991711","","","","real_trial","2021-04-26 20:22:09.069","img/card_backs/set1/red.gif","1","-60","1","",""
"casino-fixation","76","448059","0.0-25.0-0.3","808","false","img/card_backs/set1/purple.gif","img/card_backs/set1/green.gif","img/card_backs/set1/red.gif","img/card_backs/set1/yellow.gif","img/card_backs/set2/blue.gif","img/card_backs/set2/gray.gif","img/card_backs/set2/orange.gif","img/card_backs/set2/pink.gif","""event"",""trial"",""time""
""fullscreenenter"",""1"",""8956""
","
","
","""event"",""trial"",""time""
""fullscreenenter"",""1"",""8956""
","
","","null","","null","","fixation","2021-04-26 20:22:09.571","","","","","",""
"card-selection-trial","77","450171","0.0-25.0-1.3","808","false","img/card_backs/set1/purple.gif","img/card_backs/set1/green.gif","img/card_backs/set1/red.gif","img/card_backs/set1/yellow.gif","img/card_backs/set2/blue.gif","img/card_backs/set2/gray.gif","img/card_backs/set2/orange.gif","img/card_backs/set2/pink.gif","""event"",""trial"",""time""
""fullscreenenter"",""1"",""8956""
","
","
","""event"",""trial"",""time""
""fullscreenenter"",""1"",""8956""
","
","","103.47499999991851","","","","real_trial","2021-04-26 20:22:11.683","img/card_backs/set1/purple.gif","2","-240","1","",""
"casino-fixation","78","450673","0.0-25.0-0.4","808","false","img/card_backs/set1/purple.gif","img/card_backs/set1/green.gif","img/card_backs/set1/red.gif","img/card_backs/set1/yellow.gif","img/card_backs/set2/blue.gif","img/card_backs/set2/gray.gif","img/card_backs/set2/orange.gif","img/card_backs/set2/pink.gif","""event"",""trial"",""time""
""fullscreenenter"",""1"",""8956""
","
","
","""event"",""trial"",""time""
""fullscreenenter"",""1"",""8956""
","
","","null","","null","","fixation","2021-04-26 20:22:12.185","","","","","",""
"card-selection-trial","79","452817","0.0-25.0-1.4","808","false","img/card_backs/set1/purple.gif","img/card_backs/set1/green.gif","img/card_backs/set1/red.gif","img/card_backs/set1/yellow.gif","img/card_backs/set2/blue.gif","img/card_backs/set2/gray.gif","img/card_backs/set2/orange.gif","img/card_backs/set2/pink.gif","""event"",""trial"",""time""
""fullscreenenter"",""1"",""8956""
","
","
","""event"",""trial"",""time""
""fullscreenenter"",""1"",""8956""
","
","","134.91500000236556","","","","real_trial","2021-04-26 20:22:14.329","img/card_backs/set1/purple.gif","0","-230","1","",""
"casino-fixation","80","453319","0.0-25.0-0.5","808","false","img/card_backs/set1/purple.gif","img/card_backs/set1/green.gif","img/card_backs/set1/red.gif","img/card_backs/set1/yellow.gif","img/card_backs/set2/blue.gif","img/card_backs/set2/gray.gif","img/card_backs/set2/orange.gif","img/card_backs/set2/pink.gif","""event"",""trial"",""time""
""fullscreenenter"",""1"",""8956""
","
","
","""event"",""trial"",""time""
""fullscreenenter"",""1"",""8956""
","
","","null","","null","","fixation","2021-04-26 20:22:14.832","","","","","",""
"card-selection-trial","81","456869","0.0-25.0-1.5","808","false","img/card_backs/set1/purple.gif","img/card_backs/set1/green.gif","img/card_backs/set1/red.gif","img/card_backs/set1/yellow.gif","img/card_backs/set2/blue.gif","img/card_backs/set2/gray.gif","img/card_backs/set2/orange.gif","img/card_backs/set2/pink.gif","""event"",""trial"",""time""
""fullscreenenter"",""1"",""8956""
","
","
","""event"",""trial"",""time""
""fullscreenenter"",""1"",""8956""
","
","","1540.64500000095","","","","real_trial","2021-04-26 20:22:18.382","img/card_backs/set1/green.gif","1","200","1","",""
"casino-fixation","82","457372","0.0-25.0-0.6","808","false","img/card_backs/set1/purple.gif","img/card_backs/set1/green.gif","img/card_backs/set1/red.gif","img/card_backs/set1/yellow.gif","img/card_backs/set2/blue.gif","img/card_backs/set2/gray.gif","img/card_backs/set2/orange.gif","img/card_backs/set2/pink.gif","""event"",""trial"",""time""
""fullscreenenter"",""1"",""8956""
","
","
","""event"",""trial"",""time""
""fullscreenenter"",""1"",""8956""
","
","","null","","null","","fixation","2021-04-26 20:22:18.885","","","","","",""
"card-selection-trial","83","460098","0.0-25.0-1.6","808","false","img/card_backs/set1/purple.gif","img/card_backs/set1/green.gif","img/card_backs/set1/red.gif","img/card_backs/set1/yellow.gif","img/card_backs/set2/blue.gif","img/card_backs/set2/gray.gif","img/card_backs/set2/orange.gif","img/card_backs/set2/pink.gif","""event"",""trial"",""time""
""fullscreenenter"",""1"",""8956""
","
","
","""event"",""trial"",""time""
""fullscreenenter"",""1"",""8956""
","
","","715.4799999989336","","","","real_trial","2021-04-26 20:22:21.610","img/card_backs/set1/red.gif","2","100","1","",""
"casino-fixation","84","460600","0.0-25.0-0.7","808","false","img/card_backs/set1/purple.gif","img/card_backs/set1/green.gif","img/card_backs/set1/red.gif","img/card_backs/set1/yellow.gif","img/card_backs/set2/blue.gif","img/card_backs/set2/gray.gif","img/card_backs/set2/orange.gif","img/card_backs/set2/pink.gif","""event"",""trial"",""time""
""fullscreenenter"",""1"",""8956""
","
","
","""event"",""trial"",""time""
""fullscreenenter"",""1"",""8956""
","
","","null","","null","","fixation","2021-04-26 20:22:22.112","","","","","",""
"card-selection-trial","85","464830","0.0-25.0-1.7","808","false","img/card_backs/set1/purple.gif","img/card_backs/set1/green.gif","img/card_backs/set1/red.gif","img/card_backs/set1/yellow.gif","img/card_backs/set2/blue.gif","img/card_backs/set2/gray.gif","img/card_backs/set2/orange.gif","img/card_backs/set2/pink.gif","""event"",""trial"",""time""
""fullscreenenter"",""1"",""8956""
","
","
","""event"",""trial"",""time""
""fullscreenenter"",""1"",""8956""
","
","","2220.14499999932","","","","real_trial","2021-04-26 20:22:26.342","img/card_backs/set1/red.gif","1","100","1","",""
"casino-fixation","86","465334","0.0-25.0-0.8","808","false","img/card_backs/set1/purple.gif","img/card_backs/set1/green.gif","img/card_backs/set1/red.gif","img/card_backs/set1/yellow.gif","img/card_backs/set2/blue.gif","img/card_backs/set2/gray.gif","img/card_backs/set2/orange.gif","img/card_backs/set2/pink.gif","""event"",""trial"",""time""
""fullscreenenter"",""1"",""8956""
","
","
","""event"",""trial"",""time""
""fullscreenenter"",""1"",""8956""
","
","","null","","null","","fixation","2021-04-26 20:22:26.846","","","","","",""
"card-selection-trial","87","468088","0.0-25.0-1.8","808","false","img/card_backs/set1/purple.gif","img/card_backs/set1/green.gif","img/card_backs/set1/red.gif","img/card_backs/set1/yellow.gif","img/card_backs/set2/blue.gif","img/card_backs/set2/gray.gif","img/card_backs/set2/orange.gif","img/card_backs/set2/pink.gif","""event"",""trial"",""time""
""fullscreenenter"",""1"",""8956""
","
","
","""event"",""trial"",""time""
""fullscreenenter"",""1"",""8956""
","
","","745.315000000177","","","","real_trial","2021-04-26 20:22:29.600","img/card_backs/set1/yellow.gif","2","-70","1","",""
"casino-fixation","88","468589","0.0-25.0-0.9","808","false","img/card_backs/set1/purple.gif","img/card_backs/set1/green.gif","img/card_backs/set1/red.gif","img/card_backs/set1/yellow.gif","img/card_backs/set2/blue.gif","img/card_backs/set2/gray.gif","img/card_backs/set2/orange.gif","img/card_backs/set2/pink.gif","""event"",""trial"",""time""
""fullscreenenter"",""1"",""8956""
","
","
","""event"",""trial"",""time""
""fullscreenenter"",""1"",""8956""
","
","","null","","null","","fixation","2021-04-26 20:22:30.102","","","","","",""
"card-selection-trial","89","471039","0.0-25.0-1.9","808","false","img/card_backs/set1/purple.gif","img/card_backs/set1/green.gif","img/card_backs/set1/red.gif","img/card_backs/set1/yellow.gif","img/card_backs/set2/blue.gif","img/card_backs/set2/gray.gif","img/card_backs/set2/orange.gif","img/card_backs/set2/pink.gif","""event"",""trial"",""time""
""fullscreenenter"",""1"",""8956""
","
","
","""event"",""trial"",""time""
""fullscreenenter"",""1"",""8956""
","
","","441.21000000083586","","","","real_trial","2021-04-26 20:22:32.551","img/card_backs/set1/purple.gif","1","200","1","",""
"casino-fixation","90","471541","0.0-25.0-0.10","808","false","img/card_backs/set1/purple.gif","img/card_backs/set1/green.gif","img/card_backs/set1/red.gif","img/card_backs/set1/yellow.gif","img/card_backs/set2/blue.gif","img/card_backs/set2/gray.gif","img/card_backs/set2/orange.gif","img/card_backs/set2/pink.gif","""event"",""trial"",""time""
""fullscreenenter"",""1"",""8956""
","
","
","""event"",""trial"",""time""
""fullscreenenter"",""1"",""8956""
","
","","null","","null","","fixation","2021-04-26 20:22:33.053","","","","","",""
"card-selection-trial","91","473589","0.0-25.0-1.10","808","false","img/card_backs/set1/purple.gif","img/card_backs/set1/green.gif","img/card_backs/set1/red.gif","img/card_backs/set1/yellow.gif","img/card_backs/set2/blue.gif","img/card_backs/set2/gray.gif","img/card_backs/set2/orange.gif","img/card_backs/set2/pink.gif","""event"",""trial"",""time""
""fullscreenenter"",""1"",""8956""
","
","
","""event"",""trial"",""time""
""fullscreenenter"",""1"",""8956""
","
","","39.31000000011409","","","","real_trial","2021-04-26 20:22:35.101","img/card_backs/set1/purple.gif","3","180","1","",""
"casino-fixation","92","474091","0.0-25.0-0.11","808","false","img/card_backs/set1/purple.gif","img/card_backs/set1/green.gif","img/card_backs/set1/red.gif","img/card_backs/set1/yellow.gif","img/card_backs/set2/blue.gif","img/card_backs/set2/gray.gif","img/card_backs/set2/orange.gif","img/card_backs/set2/pink.gif","""event"",""trial"",""time""
""fullscreenenter"",""1"",""8956""
","
","
","""event"",""trial"",""time""
""fullscreenenter"",""1"",""8956""
","
","","null","","null","","fixation","2021-04-26 20:22:35.603","","","","","",""
"card-selection-trial","93","476308","0.0-25.0-1.11","808","false","img/card_backs/set1/purple.gif","img/card_backs/set1/green.gif","img/card_backs/set1/red.gif","img/card_backs/set1/yellow.gif","img/card_backs/set2/blue.gif","img/card_backs/set2/gray.gif","img/card_backs/set2/orange.gif","img/card_backs/set2/pink.gif","""event"",""trial"",""time""
""fullscreenenter"",""1"",""8956""
","
","
","""event"",""trial"",""time""
""fullscreenenter"",""1"",""8956""
","
","","208.56999999884283","","","","real_trial","2021-04-26 20:22:37.820","img/card_backs/set1/green.gif","1","180","1","",""
"casino-fixation","94","476811","0.0-25.0-0.12","808","false","img/card_backs/set1/purple.gif","img/card_backs/set1/green.gif","img/card_backs/set1/red.gif","img/card_backs/set1/yellow.gif","img/card_backs/set2/blue.gif","img/card_backs/set2/gray.gif","img/card_backs/set2/orange.gif","img/card_backs/set2/pink.gif","""event"",""trial"",""time""
""fullscreenenter"",""1"",""8956""
","
","
","""event"",""trial"",""time""
""fullscreenenter"",""1"",""8956""
","
","","null","","null","","fixation","2021-04-26 20:22:38.323","","","","","",""
"card-selection-trial","95","478860","0.0-25.0-1.12","808","false","img/card_backs/set1/purple.gif","img/card_backs/set1/green.gif","img/card_backs/set1/red.gif","img/card_backs/set1/yellow.gif","img/card_backs/set2/blue.gif","img/card_backs/set2/gray.gif","img/card_backs/set2/orange.gif","img/card_backs/set2/pink.gif","""event"",""trial"",""time""
""fullscreenenter"",""1"",""8956""
","
","
","""event"",""trial"",""time""
""fullscreenenter"",""1"",""8956""
","
","","39.790000002481975","","","","real_trial","2021-04-26 20:22:40.372","img/card_backs/set1/red.gif","3","110","1","",""
"casino-fixation","96","479362","0.0-25.0-0.13","808","false","img/card_backs/set1/purple.gif","img/card_backs/set1/green.gif","img/card_backs/set1/red.gif","img/card_backs/set1/yellow.gif","img/card_backs/set2/blue.gif","img/card_backs/set2/gray.gif","img/card_backs/set2/orange.gif","img/card_backs/set2/pink.gif","""event"",""trial"",""time""
""fullscreenenter"",""1"",""8956""
","
","
","""event"",""trial"",""time""
""fullscreenenter"",""1"",""8956""
","
","","null","","null","","fixation","2021-04-26 20:22:40.874","","","","","",""
"card-selection-trial","97","481397","0.0-25.0-1.13","808","false","img/card_backs/set1/purple.gif","img/card_backs/set1/green.gif","img/card_backs/set1/red.gif","img/card_backs/set1/yellow.gif","img/card_backs/set2/blue.gif","img/card_backs/set2/gray.gif","img/card_backs/set2/orange.gif","img/card_backs/set2/pink.gif","""event"",""trial"",""time""
""fullscreenenter"",""1"",""8956""
","
","
","""event"",""trial"",""time""
""fullscreenenter"",""1"",""8956""
","
","","27.524999997694977","","","","real_trial","2021-04-26 20:22:42.909","img/card_backs/set1/purple.gif","1","-230","1","",""
"casino-fixation","98","481899","0.0-25.0-0.14","808","false","img/card_backs/set1/purple.gif","img/card_backs/set1/green.gif","img/card_backs/set1/red.gif","img/card_backs/set1/yellow.gif","img/card_backs/set2/blue.gif","img/card_backs/set2/gray.gif","img/card_backs/set2/orange.gif","img/card_backs/set2/pink.gif","""event"",""trial"",""time""
""fullscreenenter"",""1"",""8956""
","
","
","""event"",""trial"",""time""
""fullscreenenter"",""1"",""8956""
","
","","null","","null","","fixation","2021-04-26 20:22:43.411","","","","","",""
"card-selection-trial","99","484020","0.0-25.0-1.14","808","false","img/card_backs/set1/purple.gif","img/card_backs/set1/green.gif","img/card_backs/set1/red.gif","img/card_backs/set1/yellow.gif","img/card_backs/set2/blue.gif","img/card_backs/set2/gray.gif","img/card_backs/set2/orange.gif","img/card_backs/set2/pink.gif","""event"",""trial"",""time""
""fullscreenenter"",""1"",""8956""
","
","
","""event"",""trial"",""time""
""fullscreenenter"",""1"",""8956""
","
","","113.294999999227","","","","real_trial","2021-04-26 20:22:45.532","img/card_backs/set1/purple.gif","3","-250","1","",""
"casino-fixation","100","484522","0.0-25.0-0.15","808","false","img/card_backs/set1/purple.gif","img/card_backs/set1/green.gif","img/card_backs/set1/red.gif","img/card_backs/set1/yellow.gif","img/card_backs/set2/blue.gif","img/card_backs/set2/gray.gif","img/card_backs/set2/orange.gif","img/card_backs/set2/pink.gif","""event"",""trial"",""time""
""fullscreenenter"",""1"",""8956""
","
","
","""event"",""trial"",""time""
""fullscreenenter"",""1"",""8956""
","
","","null","","null","","fixation","2021-04-26 20:22:46.034","","","","","",""
"card-selection-trial","101","487507","0.0-25.0-1.15","808","false","img/card_backs/set1/purple.gif","img/card_backs/set1/green.gif","img/card_backs/set1/red.gif","img/card_backs/set1/yellow.gif","img/card_backs/set2/blue.gif","img/card_backs/set2/gray.gif","img/card_backs/set2/orange.gif","img/card_backs/set2/pink.gif","""event"",""trial"",""time""
""fullscreenenter"",""1"",""8956""
","
","
","""event"",""trial"",""time""
""fullscreenenter"",""1"",""8956""
","
","","976.860000002489","","","","real_trial","2021-04-26 20:22:49.019","img/card_backs/set1/red.gif","2","-50","1","",""
"casino-fixation","102","488008","0.0-25.0-0.16","808","false","img/card_backs/set1/purple.gif","img/card_backs/set1/green.gif","img/card_backs/set1/red.gif","img/card_backs/set1/yellow.gif","img/card_backs/set2/blue.gif","img/card_backs/set2/gray.gif","img/card_backs/set2/orange.gif","img/card_backs/set2/pink.gif","""event"",""trial"",""time""
""fullscreenenter"",""1"",""8956""
","
","
","""event"",""trial"",""time""
""fullscreenenter"",""1"",""8956""
","
","","null","","null","","fixation","2021-04-26 20:22:49.521","","","","","",""
"card-selection-trial","103","490270","0.0-25.0-1.16","808","false","img/card_backs/set1/purple.gif","img/card_backs/set1/green.gif","img/card_backs/set1/red.gif","img/card_backs/set1/yellow.gif","img/card_backs/set2/blue.gif","img/card_backs/set2/gray.gif","img/card_backs/set2/orange.gif","img/card_backs/set2/pink.gif","""event"",""trial"",""time""
""fullscreenenter"",""1"",""8956""
","
","
","""event"",""trial"",""time""
""fullscreenenter"",""1"",""8956""
","
","","253.15499999851454","","","","real_trial","2021-04-26 20:22:51.782","img/card_backs/set1/green.gif","1","180","1","",""
"casino-fixation","104","490773","0.0-25.0-0.17","808","false","img/card_backs/set1/purple.gif","img/card_backs/set1/green.gif","img/card_backs/set1/red.gif","img/card_backs/set1/yellow.gif","img/card_backs/set2/blue.gif","img/card_backs/set2/gray.gif","img/card_backs/set2/orange.gif","img/card_backs/set2/pink.gif","""event"",""trial"",""time""
""fullscreenenter"",""1"",""8956""
","
","
","""event"",""trial"",""time""
""fullscreenenter"",""1"",""8956""
","
","","null","","null","","fixation","2021-04-26 20:22:52.285","","","","","",""
"card-selection-trial","105","493544","0.0-25.0-1.17","808","false","img/card_backs/set1/purple.gif","img/card_backs/set1/green.gif","img/card_backs/set1/red.gif","img/card_backs/set1/yellow.gif","img/card_backs/set2/blue.gif","img/card_backs/set2/gray.gif","img/card_backs/set2/orange.gif","img/card_backs/set2/pink.gif","""event"",""trial"",""time""
""fullscreenenter"",""1"",""8956""
","
","
","""event"",""trial"",""time""
""fullscreenenter"",""1"",""8956""
","
","","763.2950000006822","","","","real_trial","2021-04-26 20:22:55.056","img/card_backs/set1/red.gif","2","-60","1","",""
"casino-fixation","106","494048","0.0-25.0-0.18","808","false","img/card_backs/set1/purple.gif","img/card_backs/set1/green.gif","img/card_backs/set1/red.gif","img/card_backs/set1/yellow.gif","img/card_backs/set2/blue.gif","img/card_backs/set2/gray.gif","img/card_backs/set2/orange.gif","img/card_backs/set2/pink.gif","""event"",""trial"",""time""
""fullscreenenter"",""1"",""8956""
","
","
","""event"",""trial"",""time""
""fullscreenenter"",""1"",""8956""
","
","","null","","null","","fixation","2021-04-26 20:22:55.560","","","","","",""
"card-selection-trial","107","496218","0.0-25.0-1.18","808","false","img/card_backs/set1/purple.gif","img/card_backs/set1/green.gif","img/card_backs/set1/red.gif","img/card_backs/set1/yellow.gif","img/card_backs/set2/blue.gif","img/card_backs/set2/gray.gif","img/card_backs/set2/orange.gif","img/card_backs/set2/pink.gif","""event"",""trial"",""time""
""fullscreenenter"",""1"",""8956""
","
","
","""event"",""trial"",""time""
""fullscreenenter"",""1"",""8956""
","
","","160.744999997376","","","","real_trial","2021-04-26 20:22:57.730","img/card_backs/set1/green.gif","3","190","1","",""
"casino-fixation","108","496720","0.0-25.0-0.19","808","false","img/card_backs/set1/purple.gif","img/card_backs/set1/green.gif","img/card_backs/set1/red.gif","img/card_backs/set1/yellow.gif","img/card_backs/set2/blue.gif","img/card_backs/set2/gray.gif","img/card_backs/set2/orange.gif","img/card_backs/set2/pink.gif","""event"",""trial"",""time""
""fullscreenenter"",""1"",""8956""
","
","
","""event"",""trial"",""time""
""fullscreenenter"",""1"",""8956""
","
","","null","","null","","fixation","2021-04-26 20:22:58.232","","","","","",""
"card-selection-trial","109","498780","0.0-25.0-1.19","808","false","img/card_backs/set1/purple.gif","img/card_backs/set1/green.gif","img/card_backs/set1/red.gif","img/card_backs/set1/yellow.gif","img/card_backs/set2/blue.gif","img/card_backs/set2/gray.gif","img/card_backs/set2/orange.gif","img/card_backs/set2/pink.gif","""event"",""trial"",""time""
""fullscreenenter"",""1"",""8956""
","
","
","""event"",""trial"",""time""
""fullscreenenter"",""1"",""8956""
","
","","51.72999999928288","","","","real_trial","2021-04-26 20:23:00.292","img/card_backs/set1/green.gif","1","180","1","",""
"casino-fixation","110","499283","0.0-25.0-0.20","808","false","img/card_backs/set1/purple.gif","img/card_backs/set1/green.gif","img/card_backs/set1/red.gif","img/card_backs/set1/yellow.gif","img/card_backs/set2/blue.gif","img/card_backs/set2/gray.gif","img/card_backs/set2/orange.gif","img/card_backs/set2/pink.gif","""event"",""trial"",""time""
""fullscreenenter"",""1"",""8956""
","
","
","""event"",""trial"",""time""
""fullscreenenter"",""1"",""8956""
","
","","null","","null","","fixation","2021-04-26 20:23:00.795","","","","","",""
"card-selection-trial","111","501399","0.0-25.0-1.20","808","false","img/card_backs/set1/purple.gif","img/card_backs/set1/green.gif","img/card_backs/set1/red.gif","img/card_backs/set1/yellow.gif","img/card_backs/set2/blue.gif","img/card_backs/set2/gray.gif","img/card_backs/set2/orange.gif","img/card_backs/set2/pink.gif","""event"",""trial"",""time""
""fullscreenenter"",""1"",""8956""
","
","
","""event"",""trial"",""time""
""fullscreenenter"",""1"",""8956""
","
","","107.07499999983702","","","","real_trial","2021-04-26 20:23:02.911","img/card_backs/set1/red.gif","3","-70","1","",""
"casino-fixation","112","501901","0.0-25.0-0.21","808","false","img/card_backs/set1/purple.gif","img/card_backs/set1/green.gif","img/card_backs/set1/red.gif","img/card_backs/set1/yellow.gif","img/card_backs/set2/blue.gif","img/card_backs/set2/gray.gif","img/card_backs/set2/orange.gif","img/card_backs/set2/pink.gif","""event"",""trial"",""time""
""fullscreenenter"",""1"",""8956""
","
","
","""event"",""trial"",""time""
""fullscreenenter"",""1"",""8956""
","
","","null","","null","","fixation","2021-04-26 20:23:03.413","","","","","",""
"card-selection-trial","113","505126","0.0-25.0-1.21","808","false","img/card_backs/set1/purple.gif","img/card_backs/set1/green.gif","img/card_backs/set1/red.gif","img/card_backs/set1/yellow.gif","img/card_backs/set2/blue.gif","img/card_backs/set2/gray.gif","img/card_backs/set2/orange.gif","img/card_backs/set2/pink.gif","""event"",""trial"",""time""
""fullscreenenter"",""1"",""8956""
","
","
","""event"",""trial"",""time""
""fullscreenenter"",""1"",""8956""
","
","","1216.87000000017","","","","real_trial","2021-04-26 20:23:06.638","img/card_backs/set1/yellow.gif","0","-50","1","",""
"casino-fixation","114","505629","0.0-25.0-0.22","808","false","img/card_backs/set1/purple.gif","img/card_backs/set1/green.gif","img/card_backs/set1/red.gif","img/card_backs/set1/yellow.gif","img/card_backs/set2/blue.gif","img/card_backs/set2/gray.gif","img/card_backs/set2/orange.gif","img/card_backs/set2/pink.gif","""event"",""trial"",""time""
""fullscreenenter"",""1"",""8956""
","
","
","""event"",""trial"",""time""
""fullscreenenter"",""1"",""8956""
","
","","null","","null","","fixation","2021-04-26 20:23:07.141","","","","","",""
"card-selection-trial","115","508891","0.0-25.0-1.22","808","false","img/card_backs/set1/purple.gif","img/card_backs/set1/green.gif","img/card_backs/set1/red.gif","img/card_backs/set1/yellow.gif","img/card_backs/set2/blue.gif","img/card_backs/set2/gray.gif","img/card_backs/set2/orange.gif","img/card_backs/set2/pink.gif","""event"",""trial"",""time""
""fullscreenenter"",""1"",""8956""
","
","
","""event"",""trial"",""time""
""fullscreenenter"",""1"",""8956""
","
","","1252.6600000019534","","","","real_trial","2021-04-26 20:23:10.403","img/card_backs/set1/green.gif","1","190","1","",""
"casino-fixation","116","509394","0.0-25.0-0.23","808","false","img/card_backs/set1/purple.gif","img/card_backs/set1/green.gif","img/card_backs/set1/red.gif","img/card_backs/set1/yellow.gif","img/card_backs/set2/blue.gif","img/card_backs/set2/gray.gif","img/card_backs/set2/orange.gif","img/card_backs/set2/pink.gif","""event"",""trial"",""time""
""fullscreenenter"",""1"",""8956""
","
","
","""event"",""trial"",""time""
""fullscreenenter"",""1"",""8956""
","
","","null","","null","","fixation","2021-04-26 20:23:10.906","","","","","",""
"card-selection-trial","117","512857","0.0-25.0-1.23","808","false","img/card_backs/set1/purple.gif","img/card_backs/set1/green.gif","img/card_backs/set1/red.gif","img/card_backs/set1/yellow.gif","img/card_backs/set2/blue.gif","img/card_backs/set2/gray.gif","img/card_backs/set2/orange.gif","img/card_backs/set2/pink.gif","""event"",""trial"",""time""
""fullscreenenter"",""1"",""8956""
","
","
","""event"",""trial"",""time""
""fullscreenenter"",""1"",""8956""
","
","","1452.3100000005215","","","","real_trial","2021-04-26 20:23:14.369","img/card_backs/set1/yellow.gif","2","-50","1","",""
"casino-fixation","118","513360","0.0-25.0-0.24","808","false","img/card_backs/set1/purple.gif","img/card_backs/set1/green.gif","img/card_backs/set1/red.gif","img/card_backs/set1/yellow.gif","img/card_backs/set2/blue.gif","img/card_backs/set2/gray.gif","img/card_backs/set2/orange.gif","img/card_backs/set2/pink.gif","""event"",""trial"",""time""
""fullscreenenter"",""1"",""8956""
","
","
","""event"",""trial"",""time""
""fullscreenenter"",""1"",""8956""
","
","","null","","null","","fixation","2021-04-26 20:23:14.872","","","","","",""
"card-selection-trial","119","516870","0.0-25.0-1.24","808","false","img/card_backs/set1/purple.gif","img/card_backs/set1/green.gif","img/card_backs/set1/red.gif","img/card_backs/set1/yellow.gif","img/card_backs/set2/blue.gif","img/card_backs/set2/gray.gif","img/card_backs/set2/orange.gif","img/card_backs/set2/pink.gif","""event"",""trial"",""time""
""fullscreenenter"",""1"",""8956""
","
","
","""event"",""trial"",""time""
""fullscreenenter"",""1"",""8956""
","
","","1501.8249999993714","","","","real_trial","2021-04-26 20:23:18.382","img/card_backs/set1/yellow.gif","0","-50","1","",""
"casino-fixation","120","517373","0.0-25.0-0.25","808","false","img/card_backs/set1/purple.gif","img/card_backs/set1/green.gif","img/card_backs/set1/red.gif","img/card_backs/set1/yellow.gif","img/card_backs/set2/blue.gif","img/card_backs/set2/gray.gif","img/card_backs/set2/orange.gif","img/card_backs/set2/pink.gif","""event"",""trial"",""time""
""fullscreenenter"",""1"",""8956""
","
","
","""event"",""trial"",""time""
""fullscreenenter"",""1"",""8956""
","
","","null","","null","","fixation","2021-04-26 20:23:18.885","","","","","",""
"card-selection-trial","121","521994","0.0-25.0-1.25","808","false","img/card_backs/set1/purple.gif","img/card_backs/set1/green.gif","img/card_backs/set1/red.gif","img/card_backs/set1/yellow.gif","img/card_backs/set2/blue.gif","img/card_backs/set2/gray.gif","img/card_backs/set2/orange.gif","img/card_backs/set2/pink.gif","""event"",""trial"",""time""
""fullscreenenter"",""1"",""8956""
","
","
","""event"",""trial"",""time""
""fullscreenenter"",""1"",""8956""
","
","","2609.3700000019744","","","","real_trial","2021-04-26 20:23:23.506","img/card_backs/set1/green.gif","3","-250","1","",""
"casino-fixation","122","522497","0.0-25.0-0.26","808","false","img/card_backs/set1/purple.gif","img/card_backs/set1/green.gif","img/card_backs/set1/red.gif","img/card_backs/set1/yellow.gif","img/card_backs/set2/blue.gif","img/card_backs/set2/gray.gif","img/card_backs/set2/orange.gif","img/card_backs/set2/pink.gif","""event"",""trial"",""time""
""fullscreenenter"",""1"",""8956""
","
","
","""event"",""trial"",""time""
""fullscreenenter"",""1"",""8956""
","
","","null","","null","","fixation","2021-04-26 20:23:24.010","","","","","",""
"card-selection-trial","123","526597","0.0-25.0-1.26","808","false","img/card_backs/set1/purple.gif","img/card_backs/set1/green.gif","img/card_backs/set1/red.gif","img/card_backs/set1/yellow.gif","img/card_backs/set2/blue.gif","img/card_backs/set2/gray.gif","img/card_backs/set2/orange.gif","img/card_backs/set2/pink.gif","""event"",""trial"",""time""
""fullscreenenter"",""1"",""8956""
","
","
","""event"",""trial"",""time""
""fullscreenenter"",""1"",""8956""
","
","","2089.589999999618","","","","real_trial","2021-04-26 20:23:28.109","img/card_backs/set1/yellow.gif","2","-70","1","",""
"casino-fixation","124","527101","0.0-25.0-0.27","808","false","img/card_backs/set1/purple.gif","img/card_backs/set1/green.gif","img/card_backs/set1/red.gif","img/card_backs/set1/yellow.gif","img/card_backs/set2/blue.gif","img/card_backs/set2/gray.gif","img/card_backs/set2/orange.gif","img/card_backs/set2/pink.gif","""event"",""trial"",""time""
""fullscreenenter"",""1"",""8956""
","
","
","""event"",""trial"",""time""
""fullscreenenter"",""1"",""8956""
","
","","null","","null","","fixation","2021-04-26 20:23:28.613","","","","","",""
"card-selection-trial","125","531273","0.0-25.0-1.27","808","false","img/card_backs/set1/purple.gif","img/card_backs/set1/green.gif","img/card_backs/set1/red.gif","img/card_backs/set1/yellow.gif","img/card_backs/set2/blue.gif","img/card_backs/set2/gray.gif","img/card_backs/set2/orange.gif","img/card_backs/set2/pink.gif","""event"",""trial"",""time""
""fullscreenenter"",""1"",""8956""
","
","
","""event"",""trial"",""time""
""fullscreenenter"",""1"",""8956""
","
","","2163.09000000183","","","","real_trial","2021-04-26 20:23:32.785","img/card_backs/set1/purple.gif","1","180","1","",""
"casino-fixation","126","531776","0.0-25.0-0.28","808","false","img/card_backs/set1/purple.gif","img/card_backs/set1/green.gif","img/card_backs/set1/red.gif","img/card_backs/set1/yellow.gif","img/card_backs/set2/blue.gif","img/card_backs/set2/gray.gif","img/card_backs/set2/orange.gif","img/card_backs/set2/pink.gif","""event"",""trial"",""time""
""fullscreenenter"",""1"",""8956""
","
","
","""event"",""trial"",""time""
""fullscreenenter"",""1"",""8956""
","
","","null","","null","","fixation","2021-04-26 20:23:33.288","","","","","",""
"card-selection-trial","127","537187","0.0-25.0-1.28","808","false","img/card_backs/set1/purple.gif","img/card_backs/set1/green.gif","img/card_backs/set1/red.gif","img/card_backs/set1/yellow.gif","img/card_backs/set2/blue.gif","img/card_backs/set2/gray.gif","img/card_backs/set2/orange.gif","img/card_backs/set2/pink.gif","""event"",""trial"",""time""
""fullscreenenter"",""1"",""8956""
","
","
","""event"",""trial"",""time""
""fullscreenenter"",""1"",""8956""
","
","","3400.4249999998137","","","","real_trial","2021-04-26 20:23:38.699","img/card_backs/set1/red.gif","1","120","1","",""
"casino-fixation","128","537690","0.0-25.0-0.29","808","false","img/card_backs/set1/purple.gif","img/card_backs/set1/green.gif","img/card_backs/set1/red.gif","img/card_backs/set1/yellow.gif","img/card_backs/set2/blue.gif","img/card_backs/set2/gray.gif","img/card_backs/set2/orange.gif","img/card_backs/set2/pink.gif","""event"",""trial"",""time""
""fullscreenenter"",""1"",""8956""
","
","
","""event"",""trial"",""time""
""fullscreenenter"",""1"",""8956""
","
","","null","","null","","fixation","2021-04-26 20:23:39.203","","","","","",""
"card-selection-trial","129","540988","0.0-25.0-1.29","808","false","img/card_backs/set1/purple.gif","img/card_backs/set1/green.gif","img/card_backs/set1/red.gif","img/card_backs/set1/yellow.gif","img/card_backs/set2/blue.gif","img/card_backs/set2/gray.gif","img/card_backs/set2/orange.gif","img/card_backs/set2/pink.gif","""event"",""trial"",""time""
""fullscreenenter"",""1"",""8956""
","
","
","""event"",""trial"",""time""
""fullscreenenter"",""1"",""8956""
","
","","1289.66500000027","","","","real_trial","2021-04-26 20:23:42.501","img/card_backs/set1/purple.gif","1","-230","1","",""
"casino-fixation","130","541492","0.0-25.0-0.30","808","false","img/card_backs/set1/purple.gif","img/card_backs/set1/green.gif","img/card_backs/set1/red.gif","img/card_backs/set1/yellow.gif","img/card_backs/set2/blue.gif","img/card_backs/set2/gray.gif","img/card_backs/set2/orange.gif","img/card_backs/set2/pink.gif","""event"",""trial"",""time""
""fullscreenenter"",""1"",""8956""
","
","
","""event"",""trial"",""time""
""fullscreenenter"",""1"",""8956""
","
","","null","","null","","fixation","2021-04-26 20:23:43.004","","","","","",""
"card-selection-trial","131","545222","0.0-25.0-1.30","808","false","img/card_backs/set1/purple.gif","img/card_backs/set1/green.gif","img/card_backs/set1/red.gif","img/card_backs/set1/yellow.gif","img/card_backs/set2/blue.gif","img/card_backs/set2/gray.gif","img/card_backs/set2/orange.gif","img/card_backs/set2/pink.gif","""event"",""trial"",""time""
""fullscreenenter"",""1"",""8956""
","
","
","""event"",""trial"",""time""
""fullscreenenter"",""1"",""8956""
","
","","1721.3300000003073","","","","real_trial","2021-04-26 20:23:46.734","img/card_backs/set1/red.gif","2","100","1","",""
"casino-fixation","132","545725","0.0-25.0-0.31","808","false","img/card_backs/set1/purple.gif","img/card_backs/set1/green.gif","img/card_backs/set1/red.gif","img/card_backs/set1/yellow.gif","img/card_backs/set2/blue.gif","img/card_backs/set2/gray.gif","img/card_backs/set2/orange.gif","img/card_backs/set2/pink.gif","""event"",""trial"",""time""
""fullscreenenter"",""1"",""8956""
","
","
","""event"",""trial"",""time""
""fullscreenenter"",""1"",""8956""
","
","","null","","null","","fixation","2021-04-26 20:23:47.237","","","","","",""
"card-selection-trial","133","549810","0.0-25.0-1.31","808","false","img/card_backs/set1/purple.gif","img/card_backs/set1/green.gif","img/card_backs/set1/red.gif","img/card_backs/set1/yellow.gif","img/card_backs/set2/blue.gif","img/card_backs/set2/gray.gif","img/card_backs/set2/orange.gif","img/card_backs/set2/pink.gif","""event"",""trial"",""time""
""fullscreenenter"",""1"",""8956""
","
","
","""event"",""trial"",""time""
""fullscreenenter"",""1"",""8956""
","
","","2075.394999999902","","","","real_trial","2021-04-26 20:23:51.322","img/card_backs/set1/purple.gif","0","180","1","",""
"casino-fixation","134","550313","0.0-25.0-0.32","808","false","img/card_backs/set1/purple.gif","img/card_backs/set1/green.gif","img/card_backs/set1/red.gif","img/card_backs/set1/yellow.gif","img/card_backs/set2/blue.gif","img/card_backs/set2/gray.gif","img/card_backs/set2/orange.gif","img/card_backs/set2/pink.gif","""event"",""trial"",""time""
""fullscreenenter"",""1"",""8956""
","
","
","""event"",""trial"",""time""
""fullscreenenter"",""1"",""8956""
","
","","null","","null","","fixation","2021-04-26 20:23:51.825","","","","","",""
"card-selection-trial","135","553402","0.0-25.0-1.32","808","false","img/card_backs/set1/purple.gif","img/card_backs/set1/green.gif","img/card_backs/set1/red.gif","img/card_backs/set1/yellow.gif","img/card_backs/set2/blue.gif","img/card_backs/set2/gray.gif","img/card_backs/set2/orange.gif","img/card_backs/set2/pink.gif","""event"",""trial"",""time""
""fullscreenenter"",""1"",""8956""
","
","
","""event"",""trial"",""time""
""fullscreenenter"",""1"",""8956""
","
","","1080.2350000012666","","","","real_trial","2021-04-26 20:23:54.914","img/card_backs/set1/purple.gif","2","190","1","",""
"casino-fixation","136","553904","0.0-25.0-0.33","808","false","img/card_backs/set1/purple.gif","img/card_backs/set1/green.gif","img/card_backs/set1/red.gif","img/card_backs/set1/yellow.gif","img/card_backs/set2/blue.gif","img/card_backs/set2/gray.gif","img/card_backs/set2/orange.gif","img/card_backs/set2/pink.gif","""event"",""trial"",""time""
""fullscreenenter"",""1"",""8956""
","
","
","""event"",""trial"",""time""
""fullscreenenter"",""1"",""8956""
","
","","null","","null","","fixation","2021-04-26 20:23:55.416","","","","","",""
"card-selection-trial","137","557245","0.0-25.0-1.33","808","false","img/card_backs/set1/purple.gif","img/card_backs/set1/green.gif","img/card_backs/set1/red.gif","img/card_backs/set1/yellow.gif","img/card_backs/set2/blue.gif","img/card_backs/set2/gray.gif","img/card_backs/set2/orange.gif","img/card_backs/set2/pink.gif","""event"",""trial"",""time""
""fullscreenenter"",""1"",""8956""
","
","
","""event"",""trial"",""time""
""fullscreenenter"",""1"",""8956""
","
","","1331.8249999975087","","","","real_trial","2021-04-26 20:23:58.758","img/card_backs/set1/purple.gif","0","200","1","",""
"casino-fixation","138","557749","0.0-25.0-0.34","808","false","img/card_backs/set1/purple.gif","img/card_backs/set1/green.gif","img/card_backs/set1/red.gif","img/card_backs/set1/yellow.gif","img/card_backs/set2/blue.gif","img/card_backs/set2/gray.gif","img/card_backs/set2/orange.gif","img/card_backs/set2/pink.gif","""event"",""trial"",""time""
""fullscreenenter"",""1"",""8956""
","
","
","""event"",""trial"",""time""
""fullscreenenter"",""1"",""8956""
","
","","null","","null","","fixation","2021-04-26 20:23:59.261","","","","","",""
"card-selection-trial","139","560926","0.0-25.0-1.34","808","false","img/card_backs/set1/purple.gif","img/card_backs/set1/green.gif","img/card_backs/set1/red.gif","img/card_backs/set1/yellow.gif","img/card_backs/set2/blue.gif","img/card_backs/set2/gray.gif","img/card_backs/set2/orange.gif","img/card_backs/set2/pink.gif","""event"",""trial"",""time""
""fullscreenenter"",""1"",""8956""
","
","
","""event"",""trial"",""time""
""fullscreenenter"",""1"",""8956""
","
","","1167.994999999879","","","","real_trial","2021-04-26 20:24:02.438","img/card_backs/set1/green.gif","2","-250","1","",""
"casino-fixation","140","561429","0.0-25.0-0.35","808","false","img/card_backs/set1/purple.gif","img/card_backs/set1/green.gif","img/card_backs/set1/red.gif","img/card_backs/set1/yellow.gif","img/card_backs/set2/blue.gif","img/card_backs/set2/gray.gif","img/card_backs/set2/orange.gif","img/card_backs/set2/pink.gif","""event"",""trial"",""time""
""fullscreenenter"",""1"",""8956""
","
","
","""event"",""trial"",""time""
""fullscreenenter"",""1"",""8956""
","
","","null","","null","","fixation","2021-04-26 20:24:02.941","","","","","",""
"card-selection-trial","141","564798","0.0-25.0-1.35","808","false","img/card_backs/set1/purple.gif","img/card_backs/set1/green.gif","img/card_backs/set1/red.gif","img/card_backs/set1/yellow.gif","img/card_backs/set2/blue.gif","img/card_backs/set2/gray.gif","img/card_backs/set2/orange.gif","img/card_backs/set2/pink.gif","""event"",""trial"",""time""
""fullscreenenter"",""1"",""8956""
","
","
","""event"",""trial"",""time""
""fullscreenenter"",""1"",""8956""
","
","","1358.3350000007777","","","","real_trial","2021-04-26 20:24:06.310","img/card_backs/set1/red.gif","3","100","1","",""
"casino-fixation","142","565302","0.0-25.0-0.36","808","false","img/card_backs/set1/purple.gif","img/card_backs/set1/green.gif","img/card_backs/set1/red.gif","img/card_backs/set1/yellow.gif","img/card_backs/set2/blue.gif","img/card_backs/set2/gray.gif","img/card_backs/set2/orange.gif","img/card_backs/set2/pink.gif","""event"",""trial"",""time""
""fullscreenenter"",""1"",""8956""
","
","
","""event"",""trial"",""time""
""fullscreenenter"",""1"",""8956""
","
","","null","","null","","fixation","2021-04-26 20:24:06.814","","","","","",""
"card-selection-trial","143","570753","0.0-25.0-1.36","808","false","img/card_backs/set1/purple.gif","img/card_backs/set1/green.gif","img/card_backs/set1/red.gif","img/card_backs/set1/yellow.gif","img/card_backs/set2/blue.gif","img/card_backs/set2/gray.gif","img/card_backs/set2/orange.gif","img/card_backs/set2/pink.gif","""event"",""trial"",""time""
""fullscreenenter"",""1"",""8956""
","
","
","""event"",""trial"",""time""
""fullscreenenter"",""1"",""8956""
","
","","3440.2249999984633","","","","real_trial","2021-04-26 20:24:12.265","img/card_backs/set1/purple.gif","3","-240","1","",""
"casino-fixation","144","571257","0.0-25.0-0.37","808","false","img/card_backs/set1/purple.gif","img/card_backs/set1/green.gif","img/card_backs/set1/red.gif","img/card_backs/set1/yellow.gif","img/card_backs/set2/blue.gif","img/card_backs/set2/gray.gif","img/card_backs/set2/orange.gif","img/card_backs/set2/pink.gif","""event"",""trial"",""time""
""fullscreenenter"",""1"",""8956""
","
","
","""event"",""trial"",""time""
""fullscreenenter"",""1"",""8956""
","
","","null","","null","","fixation","2021-04-26 20:24:12.769","","","","","",""
"card-selection-trial","145","574169","0.0-25.0-1.37","808","false","img/card_backs/set1/purple.gif","img/card_backs/set1/green.gif","img/card_backs/set1/red.gif","img/card_backs/set1/yellow.gif","img/card_backs/set2/blue.gif","img/card_backs/set2/gray.gif","img/card_backs/set2/orange.gif","img/card_backs/set2/pink.gif","""event"",""trial"",""time""
""fullscreenenter"",""1"",""8956""
","
","
","""event"",""trial"",""time""
""fullscreenenter"",""1"",""8956""
","
","","902.8199999993667","","","","real_trial","2021-04-26 20:24:15.681","img/card_backs/set1/red.gif","0","-60","1","",""
"casino-fixation","146","574673","0.0-25.0-0.38","808","false","img/card_backs/set1/purple.gif","img/card_backs/set1/green.gif","img/card_backs/set1/red.gif","img/card_backs/set1/yellow.gif","img/card_backs/set2/blue.gif","img/card_backs/set2/gray.gif","img/card_backs/set2/orange.gif","img/card_backs/set2/pink.gif","""event"",""trial"",""time""
""fullscreenenter"",""1"",""8956""
","
","
","""event"",""trial"",""time""
""fullscreenenter"",""1"",""8956""
","
","","null","","null","","fixation","2021-04-26 20:24:16.185","","","","","",""
"card-selection-trial","147","577628","0.0-25.0-1.38","808","false","img/card_backs/set1/purple.gif","img/card_backs/set1/green.gif","img/card_backs/set1/red.gif","img/card_backs/set1/yellow.gif","img/card_backs/set2/blue.gif","img/card_backs/set2/gray.gif","img/card_backs/set2/orange.gif","img/card_backs/set2/pink.gif","""event"",""trial"",""time""
""fullscreenenter"",""1"",""8956""
","
","
","""event"",""trial"",""time""
""fullscreenenter"",""1"",""8956""
","
","","946.1399999998976","","","","real_trial","2021-04-26 20:24:19.140","img/card_backs/set1/red.gif","3","120","1","",""
"casino-fixation","148","578131","0.0-25.0-0.39","808","false","img/card_backs/set1/purple.gif","img/card_backs/set1/green.gif","img/card_backs/set1/red.gif","img/card_backs/set1/yellow.gif","img/card_backs/set2/blue.gif","img/card_backs/set2/gray.gif","img/card_backs/set2/orange.gif","img/card_backs/set2/pink.gif","""event"",""trial"",""time""
""fullscreenenter"",""1"",""8956""
","
","
","""event"",""trial"",""time""
""fullscreenenter"",""1"",""8956""
","
","","null","","null","","fixation","2021-04-26 20:24:19.643","","","","","",""
"card-selection-trial","149","580355","0.0-25.0-1.39","808","false","img/card_backs/set1/purple.gif","img/card_backs/set1/green.gif","img/card_backs/set1/red.gif","img/card_backs/set1/yellow.gif","img/card_backs/set2/blue.gif","img/card_backs/set2/gray.gif","img/card_backs/set2/orange.gif","img/card_backs/set2/pink.gif","""event"",""trial"",""time""
""fullscreenenter"",""1"",""8956""
","
","
","""event"",""trial"",""time""
""fullscreenenter"",""1"",""8956""
","
","","214.63500000024214","","","","real_trial","2021-04-26 20:24:21.867","img/card_backs/set1/red.gif","0","110","1","",""
"casino-fixation","150","580858","0.0-25.0-0.40","808","false","img/card_backs/set1/purple.gif","img/card_backs/set1/green.gif","img/card_backs/set1/red.gif","img/card_backs/set1/yellow.gif","img/card_backs/set2/blue.gif","img/card_backs/set2/gray.gif","img/card_backs/set2/orange.gif","img/card_backs/set2/pink.gif","""event"",""trial"",""time""
""fullscreenenter"",""1"",""8956""
","
","
","""event"",""trial"",""time""
""fullscreenenter"",""1"",""8956""
","
","","null","","null","","fixation","2021-04-26 20:24:22.370","","","","","",""
"card-selection-trial","151","585260","0.0-25.0-1.40","808","false","img/card_backs/set1/purple.gif","img/card_backs/set1/green.gif","img/card_backs/set1/red.gif","img/card_backs/set1/yellow.gif","img/card_backs/set2/blue.gif","img/card_backs/set2/gray.gif","img/card_backs/set2/orange.gif","img/card_backs/set2/pink.gif","""event"",""trial"",""time""
""fullscreenenter"",""1"",""8956""
","
","
","""event"",""trial"",""time""
""fullscreenenter"",""1"",""8956""
","
","","2392.854999998235","","","","real_trial","2021-04-26 20:24:26.772","img/card_backs/set1/red.gif","2","-70","1","",""
"casino-fixation","152","585764","0.0-25.0-0.41","808","false","img/card_backs/set1/purple.gif","img/card_backs/set1/green.gif","img/card_backs/set1/red.gif","img/card_backs/set1/yellow.gif","img/card_backs/set2/blue.gif","img/card_backs/set2/gray.gif","img/card_backs/set2/orange.gif","img/card_backs/set2/pink.gif","""event"",""trial"",""time""
""fullscreenenter"",""1"",""8956""
","
","
","""event"",""trial"",""time""
""fullscreenenter"",""1"",""8956""
","
","","null","","null","","fixation","2021-04-26 20:24:27.276","","","","","",""
"card-selection-trial","153","588221","0.0-25.0-1.41","808","false","img/card_backs/set1/purple.gif","img/card_backs/set1/green.gif","img/card_backs/set1/red.gif","img/card_backs/set1/yellow.gif","img/card_backs/set2/blue.gif","img/card_backs/set2/gray.gif","img/card_backs/set2/orange.gif","img/card_backs/set2/pink.gif","""event"",""trial"",""time""
""fullscreenenter"",""1"",""8956""
","
","
","""event"",""trial"",""time""
""fullscreenenter"",""1"",""8956""
","
","","449.2900000005029","","","","real_trial","2021-04-26 20:24:29.734","img/card_backs/set1/red.gif","0","120","1","",""
"casino-fixation","154","588724","0.0-25.0-0.42","808","false","img/card_backs/set1/purple.gif","img/card_backs/set1/green.gif","img/card_backs/set1/red.gif","img/card_backs/set1/yellow.gif","img/card_backs/set2/blue.gif","img/card_backs/set2/gray.gif","img/card_backs/set2/orange.gif","img/card_backs/set2/pink.gif","""event"",""trial"",""time""
""fullscreenenter"",""1"",""8956""
","
","
","""event"",""trial"",""time""
""fullscreenenter"",""1"",""8956""
","
","","null","","null","","fixation","2021-04-26 20:24:30.236","","","","","",""
"card-selection-trial","155","591990","0.0-25.0-1.42","808","false","img/card_backs/set1/purple.gif","img/card_backs/set1/green.gif","img/card_backs/set1/red.gif","img/card_backs/set1/yellow.gif","img/card_backs/set2/blue.gif","img/card_backs/set2/gray.gif","img/card_backs/set2/orange.gif","img/card_backs/set2/pink.gif","""event"",""trial"",""time""
""fullscreenenter"",""1"",""8956""
","
","
","""event"",""trial"",""time""
""fullscreenenter"",""1"",""8956""
","
","","1255.8949999983888","","","","real_trial","2021-04-26 20:24:33.502","img/card_backs/set1/red.gif","1","100","1","",""
"casino-fixation","156","592492","0.0-25.0-0.43","808","false","img/card_backs/set1/purple.gif","img/card_backs/set1/green.gif","img/card_backs/set1/red.gif","img/card_backs/set1/yellow.gif","img/card_backs/set2/blue.gif","img/card_backs/set2/gray.gif","img/card_backs/set2/orange.gif","img/card_backs/set2/pink.gif","""event"",""trial"",""time""
""fullscreenenter"",""1"",""8956""
","
","
","""event"",""trial"",""time""
""fullscreenenter"",""1"",""8956""
","
","","null","","null","","fixation","2021-04-26 20:24:34.004","","","","","",""
"card-selection-trial","157","595284","0.0-25.0-1.43","808","false","img/card_backs/set1/purple.gif","img/card_backs/set1/green.gif","img/card_backs/set1/red.gif","img/card_backs/set1/yellow.gif","img/card_backs/set2/blue.gif","img/card_backs/set2/gray.gif","img/card_backs/set2/orange.gif","img/card_backs/set2/pink.gif","""event"",""trial"",""time""
""fullscreenenter"",""1"",""8956""
","
","
","""event"",""trial"",""time""
""fullscreenenter"",""1"",""8956""
","
","","783.0500000019092","","","","real_trial","2021-04-26 20:24:36.797","img/card_backs/set1/red.gif","3","-60","1","",""
"casino-fixation","158","595788","0.0-25.0-0.44","808","false","img/card_backs/set1/purple.gif","img/card_backs/set1/green.gif","img/card_backs/set1/red.gif","img/card_backs/set1/yellow.gif","img/card_backs/set2/blue.gif","img/card_backs/set2/gray.gif","img/card_backs/set2/orange.gif","img/card_backs/set2/pink.gif","""event"",""trial"",""time""
""fullscreenenter"",""1"",""8956""
","
","
","""event"",""trial"",""time""
""fullscreenenter"",""1"",""8956""
","
","","null","","null","","fixation","2021-04-26 20:24:37.300","","","","","",""
"card-selection-trial","159","597917","0.0-25.0-1.44","808","false","img/card_backs/set1/purple.gif","img/card_backs/set1/green.gif","img/card_backs/set1/red.gif","img/card_backs/set1/yellow.gif","img/card_backs/set2/blue.gif","img/card_backs/set2/gray.gif","img/card_backs/set2/orange.gif","img/card_backs/set2/pink.gif","""event"",""trial"",""time""
""fullscreenenter"",""1"",""8956""
","
","
","""event"",""trial"",""time""
""fullscreenenter"",""1"",""8956""
","
","","120.85999999917112","","","","real_trial","2021-04-26 20:24:39.429","img/card_backs/set1/yellow.gif","1","110","1","",""
"casino-fixation","160","598419","0.0-25.0-0.45","808","false","img/card_backs/set1/purple.gif","img/card_backs/set1/green.gif","img/card_backs/set1/red.gif","img/card_backs/set1/yellow.gif","img/card_backs/set2/blue.gif","img/card_backs/set2/gray.gif","img/card_backs/set2/orange.gif","img/card_backs/set2/pink.gif","""event"",""trial"",""time""
""fullscreenenter"",""1"",""8956""
","
","
","""event"",""trial"",""time""
""fullscreenenter"",""1"",""8956""
","
","","null","","null","","fixation","2021-04-26 20:24:39.932","","","","","",""
"card-selection-trial","161","601273","0.0-25.0-1.45","808","false","img/card_backs/set1/purple.gif","img/card_backs/set1/green.gif","img/card_backs/set1/red.gif","img/card_backs/set1/yellow.gif","img/card_backs/set2/blue.gif","img/card_backs/set2/gray.gif","img/card_backs/set2/orange.gif","img/card_backs/set2/pink.gif","""event"",""trial"",""time""
""fullscreenenter"",""1"",""8956""
","
","
","""event"",""trial"",""time""
""fullscreenenter"",""1"",""8956""
","
","","842.6800000015646","","","","real_trial","2021-04-26 20:24:42.785","img/card_backs/set1/green.gif","0","180","1","",""
"casino-fixation","162","601775","0.0-25.0-0.46","808","false","img/card_backs/set1/purple.gif","img/card_backs/set1/green.gif","img/card_backs/set1/red.gif","img/card_backs/set1/yellow.gif","img/card_backs/set2/blue.gif","img/card_backs/set2/gray.gif","img/card_backs/set2/orange.gif","img/card_backs/set2/pink.gif","""event"",""trial"",""time""
""fullscreenenter"",""1"",""8956""
","
","
","""event"",""trial"",""time""
""fullscreenenter"",""1"",""8956""
","
","","null","","null","","fixation","2021-04-26 20:24:43.287","","","","","",""
"card-selection-trial","163","605111","0.0-25.0-1.46","808","false","img/card_backs/set1/purple.gif","img/card_backs/set1/green.gif","img/card_backs/set1/red.gif","img/card_backs/set1/yellow.gif","img/card_backs/set2/blue.gif","img/card_backs/set2/gray.gif","img/card_backs/set2/orange.gif","img/card_backs/set2/pink.gif","""event"",""trial"",""time""
""fullscreenenter"",""1"",""8956""
","
","
","""event"",""trial"",""time""
""fullscreenenter"",""1"",""8956""
","
","","1327.5250000006054","","","","real_trial","2021-04-26 20:24:46.624","img/card_backs/set1/yellow.gif","1","110","1","",""
"casino-fixation","164","605615","0.0-25.0-0.47","808","false","img/card_backs/set1/purple.gif","img/card_backs/set1/green.gif","img/card_backs/set1/red.gif","img/card_backs/set1/yellow.gif","img/card_backs/set2/blue.gif","img/card_backs/set2/gray.gif","img/card_backs/set2/orange.gif","img/card_backs/set2/pink.gif","""event"",""trial"",""time""
""fullscreenenter"",""1"",""8956""
","
","
","""event"",""trial"",""time""
""fullscreenenter"",""1"",""8956""
","
","","null","","null","","fixation","2021-04-26 20:24:47.127","","","","","",""
"card-selection-trial","165","609983","0.0-25.0-1.47","808","false","img/card_backs/set1/purple.gif","img/card_backs/set1/green.gif","img/card_backs/set1/red.gif","img/card_backs/set1/yellow.gif","img/card_backs/set2/blue.gif","img/card_backs/set2/gray.gif","img/card_backs/set2/orange.gif","img/card_backs/set2/pink.gif","""event"",""trial"",""time""
""fullscreenenter"",""1"",""8956""
","
","
","""event"",""trial"",""time""
""fullscreenenter"",""1"",""8956""
","
","","2359.774999997113","","","","real_trial","2021-04-26 20:24:51.495","img/card_backs/set1/green.gif","1","-240","1","",""
"casino-fixation","166","610486","0.0-25.0-0.48","808","false","img/card_backs/set1/purple.gif","img/card_backs/set1/green.gif","img/card_backs/set1/red.gif","img/card_backs/set1/yellow.gif","img/card_backs/set2/blue.gif","img/card_backs/set2/gray.gif","img/card_backs/set2/orange.gif","img/card_backs/set2/pink.gif","""event"",""trial"",""time""
""fullscreenenter"",""1"",""8956""
","
","
","""event"",""trial"",""time""
""fullscreenenter"",""1"",""8956""
","
","","null","","null","","fixation","2021-04-26 20:24:51.998","","","","","",""
