"trial_type","trial_index","time_elapsed","internal_node_id","sub_id","risk_good_first","block1_A","block1_B","block1_C","block1_D","block2_A","block2_B","block2_C","block2_D","interactions","blur_events","focus_events","fullscreenenter_events","fullscreenexit_events","success","rt","stimulus","key_press","button_pressed","task_part","timestamp","card_choice","choice_position","points_earned","block","correct","response"
"pavlovia","0","65","0.0-0.0","A941","false","img/card_backs/set1/purple.gif","img/card_backs/set1/red.gif","img/card_backs/set1/green.gif","img/card_backs/set1/yellow.gif","img/card_backs/set2/blue.gif","img/card_backs/set2/orange.gif","img/card_backs/set2/pink.gif","img/card_backs/set2/gray.gif","""event"",""trial"",""time""
""fullscreenenter"",""1"",""8948""
","
","
","""event"",""trial"",""time""
""fullscreenenter"",""1"",""8948""
","
","","","","","","","","","","","","",""
"fullscreen","1","9582","0.0-1.0","A941","false","img/card_backs/set1/purple.gif","img/card_backs/set1/red.gif","img/card_backs/set1/green.gif","img/card_backs/set1/yellow.gif","img/card_backs/set2/blue.gif","img/card_backs/set2/orange.gif","img/card_backs/set2/pink.gif","img/card_backs/set2/gray.gif","""event"",""trial"",""time""
""fullscreenenter"",""1"",""8948""
","
","
","""event"",""trial"",""time""
""fullscreenenter"",""1"",""8948""
","
","true","","","","","","","","","","","",""
"audio-keyboard-response","2","14813","0.0-2.0","A941","false","img/card_backs/set1/purple.gif","img/card_backs/set1/red.gif","img/card_backs/set1/green.gif","img/card_backs/set1/yellow.gif","img/card_backs/set2/blue.gif","img/card_backs/set2/orange.gif","img/card_backs/set2/pink.gif","img/card_backs/set2/gray.gif","""event"",""trial"",""time""
""fullscreenenter"",""1"",""8948""
","
","
","""event"",""trial"",""time""
""fullscreenenter"",""1"",""8948""
","
","","0","audio/beep_loop.wav","175","","","","","","","","",""
"audio-button-response","3","18683","0.0-3.0","A941","false","img/card_backs/set1/purple.gif","img/card_backs/set1/red.gif","img/card_backs/set1/green.gif","img/card_backs/set1/yellow.gif","img/card_backs/set2/blue.gif","img/card_backs/set2/orange.gif","img/card_backs/set2/pink.gif","img/card_backs/set2/gray.gif","""event"",""trial"",""time""
""fullscreenenter"",""1"",""8948""
","
","
","""event"",""trial"",""time""
""fullscreenenter"",""1"",""8948""
","
","","NaN","audio/turtle.mp3","","3","","","","","","","",""
"audio-button-response","4","22634","0.0-4.0","A941","false","img/card_backs/set1/purple.gif","img/card_backs/set1/red.gif","img/card_backs/set1/green.gif","img/card_backs/set1/yellow.gif","img/card_backs/set2/blue.gif","img/card_backs/set2/orange.gif","img/card_backs/set2/pink.gif","img/card_backs/set2/gray.gif","""event"",""trial"",""time""
""fullscreenenter"",""1"",""8948""
","
","
","""event"",""trial"",""time""
""fullscreenenter"",""1"",""8948""
","
","","NaN","audio/shark.mp3","","2","","","","","","","",""
"fullscreen","5","26983","0.0-5.0","A941","false","img/card_backs/set1/purple.gif","img/card_backs/set1/red.gif","img/card_backs/set1/green.gif","img/card_backs/set1/yellow.gif","img/card_backs/set2/blue.gif","img/card_backs/set2/orange.gif","img/card_backs/set2/pink.gif","img/card_backs/set2/gray.gif","""event"",""trial"",""time""
""fullscreenenter"",""1"",""8948""
","
","
","""event"",""trial"",""time""
""fullscreenenter"",""1"",""8948""
","
","true","","","","","","","","","","","",""
"casino-keyboard-response","6","44882","0.0-6.0-0.0","A941","false","img/card_backs/set1/purple.gif","img/card_backs/set1/red.gif","img/card_backs/set1/green.gif","img/card_backs/set1/yellow.gif","img/card_backs/set2/blue.gif","img/card_backs/set2/orange.gif","img/card_backs/set2/pink.gif","img/card_backs/set2/gray.gif","""event"",""trial"",""time""
""fullscreenenter"",""1"",""8948""
","
","
","""event"",""trial"",""time""
""fullscreenenter"",""1"",""8948""
","
","","17879.42499993369","Welcome to the casino!","71","","instructions","2021-04-06 03:15:49.888","","","","","",""
"casino-keyboard-response","7","84283","0.0-6.0-0.1","A941","false","img/card_backs/set1/purple.gif","img/card_backs/set1/red.gif","img/card_backs/set1/green.gif","img/card_backs/set1/yellow.gif","img/card_backs/set2/blue.gif","img/card_backs/set2/orange.gif","img/card_backs/set2/pink.gif","img/card_backs/set2/gray.gif","""event"",""trial"",""time""
""fullscreenenter"",""1"",""8948""
","
","
","""event"",""trial"",""time""
""fullscreenenter"",""1"",""8948""
","
","","39395.17999999225","Today you will be playing a game to earn tokens. </br> At the end of the experiment, you will be paid a bonus based on how many tokens you win. ","69","","instructions","2021-04-06 03:16:29.288","","","","","",""
"casino-keyboard-response","8","118731","0.0-6.0-0.2","A941","false","img/card_backs/set1/purple.gif","img/card_backs/set1/red.gif","img/card_backs/set1/green.gif","img/card_backs/set1/yellow.gif","img/card_backs/set2/blue.gif","img/card_backs/set2/orange.gif","img/card_backs/set2/pink.gif","img/card_backs/set2/gray.gif","""event"",""trial"",""time""
""fullscreenenter"",""1"",""8948""
","
","
","""event"",""trial"",""time""
""fullscreenenter"",""1"",""8948""
","
","","34442.03500007279","On every turn, you will be shown four different decks of cards. </br> You need to select a card from one of the four decks.  ","75","","instructions","2021-04-06 03:17:03.736","","","","","",""
"casino-keyboard-response","9","124301","0.0-6.0-0.3","A941","false","img/card_backs/set1/purple.gif","img/card_backs/set1/red.gif","img/card_backs/set1/green.gif","img/card_backs/set1/yellow.gif","img/card_backs/set2/blue.gif","img/card_backs/set2/orange.gif","img/card_backs/set2/pink.gif","img/card_backs/set2/gray.gif","""event"",""trial"",""time""
""fullscreenenter"",""1"",""8948""
","
","
","""event"",""trial"",""time""
""fullscreenenter"",""1"",""8948""
","
","","5563.85499984026","On the next screen, you will see what the decks will look like. ","66","","instructions","2021-04-06 03:17:09.306","","","","","",""
"card-selection-trial","10","128339","0.0-7.0-0.0","A941","false","img/card_backs/set1/purple.gif","img/card_backs/set1/red.gif","img/card_backs/set1/green.gif","img/card_backs/set1/yellow.gif","img/card_backs/set2/blue.gif","img/card_backs/set2/orange.gif","img/card_backs/set2/pink.gif","img/card_backs/set2/gray.gif","""event"",""trial"",""time""
""fullscreenenter"",""1"",""8948""
","
","
","""event"",""trial"",""time""
""fullscreenenter"",""1"",""8948""
","
","","null","","","","practice","2021-04-06 03:17:13.345","null","null","null","0","",""
"casino-keyboard-response","11","137109","0.0-8.0-0.0","A941","false","img/card_backs/set1/purple.gif","img/card_backs/set1/red.gif","img/card_backs/set1/green.gif","img/card_backs/set1/yellow.gif","img/card_backs/set2/blue.gif","img/card_backs/set2/orange.gif","img/card_backs/set2/pink.gif","img/card_backs/set2/gray.gif","""event"",""trial"",""time""
""fullscreenenter"",""1"",""8948""
","
","
","""event"",""trial"",""time""
""fullscreenenter"",""1"",""8948""
","
","","8764.405000023544","You should pick a card from a deck using the '2', '4', '6', and '8' keys at the top of the keyboard.","85","","instructions","2021-04-06 03:17:22.114","","","","","",""
"casino-keyboard-response","12","144102","0.0-8.0-0.1","A941","false","img/card_backs/set1/purple.gif","img/card_backs/set1/red.gif","img/card_backs/set1/green.gif","img/card_backs/set1/yellow.gif","img/card_backs/set2/blue.gif","img/card_backs/set2/orange.gif","img/card_backs/set2/pink.gif","img/card_backs/set2/gray.gif","""event"",""trial"",""time""
""fullscreenenter"",""1"",""8948""
","
","
","""event"",""trial"",""time""
""fullscreenenter"",""1"",""8948""
","
","","6983.599999919534","Once you select a card, it will turn over and you will see how many tokens you earned.","83","","instructions","2021-04-06 03:17:29.107","","","","","",""
"casino-keyboard-response","13","158629","0.0-8.0-0.2","A941","false","img/card_backs/set1/purple.gif","img/card_backs/set1/red.gif","img/card_backs/set1/green.gif","img/card_backs/set1/yellow.gif","img/card_backs/set2/blue.gif","img/card_backs/set2/orange.gif","img/card_backs/set2/pink.gif","img/card_backs/set2/gray.gif","""event"",""trial"",""time""
""fullscreenenter"",""1"",""8948""
","
","
","""event"",""trial"",""time""
""fullscreenenter"",""1"",""8948""
","
","","14521.454999921843","Let's try practicing that! </br> First, try to put your fingers over the '2', '4', '6', and '8' keys. </br>  You can use whatever fingers are most comfortable for you. Try to find a comfortable position now. ","50","","instructions","2021-04-06 03:17:43.634","","","","","",""
"casino-keyboard-response","14","164414","0.0-8.0-0.3","A941","false","img/card_backs/set1/purple.gif","img/card_backs/set1/red.gif","img/card_backs/set1/green.gif","img/card_backs/set1/yellow.gif","img/card_backs/set2/blue.gif","img/card_backs/set2/orange.gif","img/card_backs/set2/pink.gif","img/card_backs/set2/gray.gif","""event"",""trial"",""time""
""fullscreenenter"",""1"",""8948""
","
","
","""event"",""trial"",""time""
""fullscreenenter"",""1"",""8948""
","
","","5778.785000089556","Okay ready? </br> On the next screen, press '2' to select the left deck. ","50","","instructions","2021-04-06 03:17:49.419","","","","","",""
"card-selection-trial","15","167662","0.0-9.0-0.0","A941","false","img/card_backs/set1/purple.gif","img/card_backs/set1/red.gif","img/card_backs/set1/green.gif","img/card_backs/set1/yellow.gif","img/card_backs/set2/blue.gif","img/card_backs/set2/orange.gif","img/card_backs/set2/pink.gif","img/card_backs/set2/gray.gif","""event"",""trial"",""time""
""fullscreenenter"",""1"",""8948""
","
","
","""event"",""trial"",""time""
""fullscreenenter"",""1"",""8948""
","
","","829.5750000979751","","","","practice_card_selection","2021-04-06 03:17:52.669","img/practice_cards/backs/dark_green.gif","0","-200","","",""
"casino-keyboard-response","16","173412","0.0-10.0-0.0","A941","false","img/card_backs/set1/purple.gif","img/card_backs/set1/red.gif","img/card_backs/set1/green.gif","img/card_backs/set1/yellow.gif","img/card_backs/set2/blue.gif","img/card_backs/set2/orange.gif","img/card_backs/set2/pink.gif","img/card_backs/set2/gray.gif","""event"",""trial"",""time""
""fullscreenenter"",""1"",""8948""
","
","
","""event"",""trial"",""time""
""fullscreenenter"",""1"",""8948""
","
","","5743.965000147","Great! Now on the next screen, try pressing '6' to select the third deck.","54","","instructions","2021-04-06 03:17:58.417","","","","","",""
"card-selection-trial","17","176019","0.0-11.0-0.0","A941","false","img/card_backs/set1/purple.gif","img/card_backs/set1/red.gif","img/card_backs/set1/green.gif","img/card_backs/set1/yellow.gif","img/card_backs/set2/blue.gif","img/card_backs/set2/orange.gif","img/card_backs/set2/pink.gif","img/card_backs/set2/gray.gif","""event"",""trial"",""time""
""fullscreenenter"",""1"",""8948""
","
","
","""event"",""trial"",""time""
""fullscreenenter"",""1"",""8948""
","
","","580.2050000056624","","","","practice_card_selection","2021-04-06 03:18:01.024","img/practice_cards/backs/black.gif","2","-100","","",""
"casino-keyboard-response","18","180464","0.0-12.0-0.0","A941","false","img/card_backs/set1/purple.gif","img/card_backs/set1/red.gif","img/card_backs/set1/green.gif","img/card_backs/set1/yellow.gif","img/card_backs/set2/blue.gif","img/card_backs/set2/orange.gif","img/card_backs/set2/pink.gif","img/card_backs/set2/gray.gif","""event"",""trial"",""time""
""fullscreenenter"",""1"",""8948""
","
","
","""event"",""trial"",""time""
""fullscreenenter"",""1"",""8948""
","
","","4444.520000135526","Now on the next screen, try pressing '4' to select the second deck.","52","","instructions","2021-04-06 03:18:05.469","","","","","",""
"card-selection-trial","19","183049","0.0-13.0-0.0","A941","false","img/card_backs/set1/purple.gif","img/card_backs/set1/red.gif","img/card_backs/set1/green.gif","img/card_backs/set1/yellow.gif","img/card_backs/set2/blue.gif","img/card_backs/set2/orange.gif","img/card_backs/set2/pink.gif","img/card_backs/set2/gray.gif","""event"",""trial"",""time""
""fullscreenenter"",""1"",""8948""
","
","
","""event"",""trial"",""time""
""fullscreenenter"",""1"",""8948""
","
","","567.8449999541044","","","","practice_card_selection","2021-04-06 03:18:08.054","img/practice_cards/backs/brown.gif","1","100","","",""
"casino-keyboard-response","20","187520","0.0-14.0-0.0","A941","false","img/card_backs/set1/purple.gif","img/card_backs/set1/red.gif","img/card_backs/set1/green.gif","img/card_backs/set1/yellow.gif","img/card_backs/set2/blue.gif","img/card_backs/set2/orange.gif","img/card_backs/set2/pink.gif","img/card_backs/set2/gray.gif","""event"",""trial"",""time""
""fullscreenenter"",""1"",""8948""
","
","
","""event"",""trial"",""time""
""fullscreenenter"",""1"",""8948""
","
","","4466.840000124648","Finally, try pressing '8' to select the deck all the way on the right.","56","","instructions","2021-04-06 03:18:12.525","","","","","",""
"card-selection-trial","21","189867","0.0-15.0-0.0","A941","false","img/card_backs/set1/purple.gif","img/card_backs/set1/red.gif","img/card_backs/set1/green.gif","img/card_backs/set1/yellow.gif","img/card_backs/set2/blue.gif","img/card_backs/set2/orange.gif","img/card_backs/set2/pink.gif","img/card_backs/set2/gray.gif","""event"",""trial"",""time""
""fullscreenenter"",""1"",""8948""
","
","
","""event"",""trial"",""time""
""fullscreenenter"",""1"",""8948""
","
","","324.8449999373406","","","","practice_card_selection","2021-04-06 03:18:14.872","img/practice_cards/backs/brown.gif","3","100","","",""
"casino-keyboard-response","22","194725","0.0-16.0-0.0","A941","false","img/card_backs/set1/purple.gif","img/card_backs/set1/red.gif","img/card_backs/set1/green.gif","img/card_backs/set1/yellow.gif","img/card_backs/set2/blue.gif","img/card_backs/set2/orange.gif","img/card_backs/set2/pink.gif","img/card_backs/set2/gray.gif","""event"",""trial"",""time""
""fullscreenenter"",""1"",""8948""
","
","
","""event"",""trial"",""time""
""fullscreenenter"",""1"",""8948""
","
","","4854.749999940395","Great! It seems like you are getting the hang of this.","80","","instructions","2021-04-06 03:18:19.730","","","","","",""
"casino-keyboard-response","23","202093","0.0-16.0-0.1","A941","false","img/card_backs/set1/purple.gif","img/card_backs/set1/red.gif","img/card_backs/set1/green.gif","img/card_backs/set1/yellow.gif","img/card_backs/set2/blue.gif","img/card_backs/set2/orange.gif","img/card_backs/set2/pink.gif","img/card_backs/set2/gray.gif","""event"",""trial"",""time""
""fullscreenenter"",""1"",""8948""
","
","
","""event"",""trial"",""time""
""fullscreenenter"",""1"",""8948""
","
","","7362.609999952838","You may have noticed that some cards will cause you to <b> win </b> tokens while other cards will cause you to <b> lose </b>  tokens.","70","","instructions","2021-04-06 03:18:27.098","","","","","",""
"casino-keyboard-response","24","217271","0.0-16.0-0.2","A941","false","img/card_backs/set1/purple.gif","img/card_backs/set1/red.gif","img/card_backs/set1/green.gif","img/card_backs/set1/yellow.gif","img/card_backs/set2/blue.gif","img/card_backs/set2/orange.gif","img/card_backs/set2/pink.gif","img/card_backs/set2/gray.gif","""event"",""trial"",""time""
""fullscreenenter"",""1"",""8948""
","
","
","""event"",""trial"",""time""
""fullscreenenter"",""1"",""8948""
","
","","15173.304999945685","Each deck has a mix of cards that will cause you to win and lose tokens. </br> However, the cards in each colored deck are different.","73","","instructions","2021-04-06 03:18:42.277","","","","","",""
"casino-keyboard-response","25","226476","0.0-16.0-0.3","A941","false","img/card_backs/set1/purple.gif","img/card_backs/set1/red.gif","img/card_backs/set1/green.gif","img/card_backs/set1/yellow.gif","img/card_backs/set2/blue.gif","img/card_backs/set2/orange.gif","img/card_backs/set2/pink.gif","img/card_backs/set2/gray.gif","""event"",""trial"",""time""
""fullscreenenter"",""1"",""8948""
","
","
","""event"",""trial"",""time""
""fullscreenenter"",""1"",""8948""
","
","","9199.255000101402","Some colored decks are luckier than others. </br> If you choose the lucky decks, you will earn more tokens than if you choose the unlucky decks.","69","","instructions","2021-04-06 03:18:51.481","","","","","",""
"casino-keyboard-response","26","234041","0.0-16.0-0.4","A941","false","img/card_backs/set1/purple.gif","img/card_backs/set1/red.gif","img/card_backs/set1/green.gif","img/card_backs/set1/yellow.gif","img/card_backs/set2/blue.gif","img/card_backs/set2/orange.gif","img/card_backs/set2/pink.gif","img/card_backs/set2/gray.gif","""event"",""trial"",""time""
""fullscreenenter"",""1"",""8948""
","
","
","""event"",""trial"",""time""
""fullscreenenter"",""1"",""8948""
","
","","7559.804999968037","You should try to figure out which decks are lucky. </br> Then, try to choose the lucky decks so you can win the most tokens.","87","","instructions","2021-04-06 03:18:59.046","","","","","",""
"casino-keyboard-response","27","247288","0.0-16.0-0.5","A941","false","img/card_backs/set1/purple.gif","img/card_backs/set1/red.gif","img/card_backs/set1/green.gif","img/card_backs/set1/yellow.gif","img/card_backs/set2/blue.gif","img/card_backs/set2/orange.gif","img/card_backs/set2/pink.gif","img/card_backs/set2/gray.gif","""event"",""trial"",""time""
""fullscreenenter"",""1"",""8948""
","
","
","""event"",""trial"",""time""
""fullscreenenter"",""1"",""8948""
","
","","13238.27000008896","To make it trickier, the casino dealer will switch the locations of the decks on every turn. </br> The color of the deck determines how lucky it is. The location does not matter.","88","","instructions","2021-04-06 03:19:12.293","","","","","",""
"casino-keyboard-response","28","256508","0.0-16.0-0.6","A941","false","img/card_backs/set1/purple.gif","img/card_backs/set1/red.gif","img/card_backs/set1/green.gif","img/card_backs/set1/yellow.gif","img/card_backs/set2/blue.gif","img/card_backs/set2/orange.gif","img/card_backs/set2/pink.gif","img/card_backs/set2/gray.gif","""event"",""trial"",""time""
""fullscreenenter"",""1"",""8948""
","
","
","""event"",""trial"",""time""
""fullscreenenter"",""1"",""8948""
","
","","9214.649999979883","The mix of cards in each colored deck will stay the same throughout the game. </br> That means that a deck that is lucky early on will stay lucky.","79","","instructions","2021-04-06 03:19:21.513","","","","","",""
"casino-keyboard-response","29","265537","0.0-16.0-0.7","A941","false","img/card_backs/set1/purple.gif","img/card_backs/set1/red.gif","img/card_backs/set1/green.gif","img/card_backs/set1/yellow.gif","img/card_backs/set2/blue.gif","img/card_backs/set2/orange.gif","img/card_backs/set2/pink.gif","img/card_backs/set2/gray.gif","""event"",""trial"",""time""
""fullscreenenter"",""1"",""8948""
","
","
","""event"",""trial"",""time""
""fullscreenenter"",""1"",""8948""
","
","","9022.29500003159","Remember though, all the decks have a <b> mix </b> of both <b> good </b> and <b> bad </b> cards so it may take a couple of turns to figure out if a deck is lucky.","69","","instructions","2021-04-06 03:19:30.542","","","","","",""
"casino-keyboard-response","30","273538","0.0-16.0-0.8","A941","false","img/card_backs/set1/purple.gif","img/card_backs/set1/red.gif","img/card_backs/set1/green.gif","img/card_backs/set1/yellow.gif","img/card_backs/set2/blue.gif","img/card_backs/set2/orange.gif","img/card_backs/set2/pink.gif","img/card_backs/set2/gray.gif","""event"",""trial"",""time""
""fullscreenenter"",""1"",""8948""
","
","
","""event"",""trial"",""time""
""fullscreenenter"",""1"",""8948""
","
","","7996.905000181869","At the end of the game, you will be paid bonus money based on how many tokens you win. </br> If you win more tokens, you will earn more money!","72","","instructions","2021-04-06 03:19:38.543","","","","","",""
"casino-keyboard-response","31","283778","0.0-16.0-0.9","A941","false","img/card_backs/set1/purple.gif","img/card_backs/set1/red.gif","img/card_backs/set1/green.gif","img/card_backs/set1/yellow.gif","img/card_backs/set2/blue.gif","img/card_backs/set2/orange.gif","img/card_backs/set2/pink.gif","img/card_backs/set2/gray.gif","""event"",""trial"",""time""
""fullscreenenter"",""1"",""8948""
","
","
","""event"",""trial"",""time""
""fullscreenenter"",""1"",""8948""
","
","","10235.060000093654","You will never <b> lose </b> money. </br> If you end up with fewer than 0 tokens, you will earn $0 of bonus money, but you will still be paid for playing the game.","83","","instructions","2021-04-06 03:19:48.784","","","","","",""
"casino-keyboard-response","32","288017","0.0-16.0-0.10","A941","false","img/card_backs/set1/purple.gif","img/card_backs/set1/red.gif","img/card_backs/set1/green.gif","img/card_backs/set1/yellow.gif","img/card_backs/set2/blue.gif","img/card_backs/set2/orange.gif","img/card_backs/set2/pink.gif","img/card_backs/set2/gray.gif","""event"",""trial"",""time""
""fullscreenenter"",""1"",""8948""
","
","
","""event"",""trial"",""time""
""fullscreenenter"",""1"",""8948""
","
","","4228.9050000254065","You will have 10 seconds to make each choice.","82","","instructions","2021-04-06 03:19:53.022","","","","","",""
"casino-keyboard-response","33","296084","0.0-16.0-0.11","A941","false","img/card_backs/set1/purple.gif","img/card_backs/set1/red.gif","img/card_backs/set1/green.gif","img/card_backs/set1/yellow.gif","img/card_backs/set2/blue.gif","img/card_backs/set2/orange.gif","img/card_backs/set2/pink.gif","img/card_backs/set2/gray.gif","""event"",""trial"",""time""
""fullscreenenter"",""1"",""8948""
","
","
","""event"",""trial"",""time""
""fullscreenenter"",""1"",""8948""
","
","","8061.095000011846","Before you play the game for real, you will play with practice decks. </br> The tokens you earn during practice won't count toward your total.","86","","instructions","2021-04-06 03:20:01.089","","","","","",""
"casino-keyboard-response","34","307464","0.0-16.0-0.12","A941","false","img/card_backs/set1/purple.gif","img/card_backs/set1/red.gif","img/card_backs/set1/green.gif","img/card_backs/set1/yellow.gif","img/card_backs/set2/blue.gif","img/card_backs/set2/orange.gif","img/card_backs/set2/pink.gif","img/card_backs/set2/gray.gif","""event"",""trial"",""time""
""fullscreenenter"",""1"",""8948""
","
","
","""event"",""trial"",""time""
""fullscreenenter"",""1"",""8948""
","
","","11376.910000108182","Ready? Remember, use the '2', '4', '6', and '8' keys to select the decks. </br> Put your fingers on those keys now and then press '2' to begin.","50","","instructions","2021-04-06 03:20:12.469","","","","","",""
"casino-fixation","35","307986","0.0-17.0-0.0","A941","false","img/card_backs/set1/purple.gif","img/card_backs/set1/red.gif","img/card_backs/set1/green.gif","img/card_backs/set1/yellow.gif","img/card_backs/set2/blue.gif","img/card_backs/set2/orange.gif","img/card_backs/set2/pink.gif","img/card_backs/set2/gray.gif","""event"",""trial"",""time""
""fullscreenenter"",""1"",""8948""
","
","
","""event"",""trial"",""time""
""fullscreenenter"",""1"",""8948""
","
","","null","","null","","fixation","2021-04-06 03:20:12.991","","","","","",""
"card-selection-trial","36","311162","0.0-17.0-1.0","A941","false","img/card_backs/set1/purple.gif","img/card_backs/set1/red.gif","img/card_backs/set1/green.gif","img/card_backs/set1/yellow.gif","img/card_backs/set2/blue.gif","img/card_backs/set2/orange.gif","img/card_backs/set2/pink.gif","img/card_backs/set2/gray.gif","""event"",""trial"",""time""
""fullscreenenter"",""1"",""8948""
","
","
","""event"",""trial"",""time""
""fullscreenenter"",""1"",""8948""
","
","","1153.690000064671","","","","practice","2021-04-06 03:20:16.168","img/practice_cards/backs/brown.gif","0","100","0","",""
"casino-fixation","37","311678","0.0-17.0-0.1","A941","false","img/card_backs/set1/purple.gif","img/card_backs/set1/red.gif","img/card_backs/set1/green.gif","img/card_backs/set1/yellow.gif","img/card_backs/set2/blue.gif","img/card_backs/set2/orange.gif","img/card_backs/set2/pink.gif","img/card_backs/set2/gray.gif","""event"",""trial"",""time""
""fullscreenenter"",""1"",""8948""
","
","
","""event"",""trial"",""time""
""fullscreenenter"",""1"",""8948""
","
","","null","","null","","fixation","2021-04-06 03:20:16.683","","","","","",""
"card-selection-trial","38","314187","0.0-17.0-1.1","A941","false","img/card_backs/set1/purple.gif","img/card_backs/set1/red.gif","img/card_backs/set1/green.gif","img/card_backs/set1/yellow.gif","img/card_backs/set2/blue.gif","img/card_backs/set2/orange.gif","img/card_backs/set2/pink.gif","img/card_backs/set2/gray.gif","""event"",""trial"",""time""
""fullscreenenter"",""1"",""8948""
","
","
","""event"",""trial"",""time""
""fullscreenenter"",""1"",""8948""
","
","","488.75000001862645","","","","practice","2021-04-06 03:20:19.193","img/practice_cards/backs/black.gif","1","-100","0","",""
"casino-fixation","39","314693","0.0-17.0-0.2","A941","false","img/card_backs/set1/purple.gif","img/card_backs/set1/red.gif","img/card_backs/set1/green.gif","img/card_backs/set1/yellow.gif","img/card_backs/set2/blue.gif","img/card_backs/set2/orange.gif","img/card_backs/set2/pink.gif","img/card_backs/set2/gray.gif","""event"",""trial"",""time""
""fullscreenenter"",""1"",""8948""
","
","
","""event"",""trial"",""time""
""fullscreenenter"",""1"",""8948""
","
","","null","","null","","fixation","2021-04-06 03:20:19.698","","","","","",""
"card-selection-trial","40","317202","0.0-17.0-1.2","A941","false","img/card_backs/set1/purple.gif","img/card_backs/set1/red.gif","img/card_backs/set1/green.gif","img/card_backs/set1/yellow.gif","img/card_backs/set2/blue.gif","img/card_backs/set2/orange.gif","img/card_backs/set2/pink.gif","img/card_backs/set2/gray.gif","""event"",""trial"",""time""
""fullscreenenter"",""1"",""8948""
","
","
","""event"",""trial"",""time""
""fullscreenenter"",""1"",""8948""
","
","","487.24000016227365","","","","practice","2021-04-06 03:20:22.207","img/practice_cards/backs/dark_green.gif","2","200","0","",""
"casino-fixation","41","317718","0.0-17.0-0.3","A941","false","img/card_backs/set1/purple.gif","img/card_backs/set1/red.gif","img/card_backs/set1/green.gif","img/card_backs/set1/yellow.gif","img/card_backs/set2/blue.gif","img/card_backs/set2/orange.gif","img/card_backs/set2/pink.gif","img/card_backs/set2/gray.gif","""event"",""trial"",""time""
""fullscreenenter"",""1"",""8948""
","
","
","""event"",""trial"",""time""
""fullscreenenter"",""1"",""8948""
","
","","null","","null","","fixation","2021-04-06 03:20:22.723","","","","","",""
"card-selection-trial","42","320007","0.0-17.0-1.3","A941","false","img/card_backs/set1/purple.gif","img/card_backs/set1/red.gif","img/card_backs/set1/green.gif","img/card_backs/set1/yellow.gif","img/card_backs/set2/blue.gif","img/card_backs/set2/orange.gif","img/card_backs/set2/pink.gif","img/card_backs/set2/gray.gif","""event"",""trial"",""time""
""fullscreenenter"",""1"",""8948""
","
","
","""event"",""trial"",""time""
""fullscreenenter"",""1"",""8948""
","
","","268.37499998509884","","","","practice","2021-04-06 03:20:25.013","img/practice_cards/backs/dark_blue.gif","3","-200","0","",""
"casino-fixation","43","320517","0.0-17.0-0.4","A941","false","img/card_backs/set1/purple.gif","img/card_backs/set1/red.gif","img/card_backs/set1/green.gif","img/card_backs/set1/yellow.gif","img/card_backs/set2/blue.gif","img/card_backs/set2/orange.gif","img/card_backs/set2/pink.gif","img/card_backs/set2/gray.gif","""event"",""trial"",""time""
""fullscreenenter"",""1"",""8948""
","
","
","""event"",""trial"",""time""
""fullscreenenter"",""1"",""8948""
","
","","null","","null","","fixation","2021-04-06 03:20:25.523","","","","","",""
"card-selection-trial","44","323677","0.0-17.0-1.4","A941","false","img/card_backs/set1/purple.gif","img/card_backs/set1/red.gif","img/card_backs/set1/green.gif","img/card_backs/set1/yellow.gif","img/card_backs/set2/blue.gif","img/card_backs/set2/orange.gif","img/card_backs/set2/pink.gif","img/card_backs/set2/gray.gif","""event"",""trial"",""time""
""fullscreenenter"",""1"",""8948""
","
","
","""event"",""trial"",""time""
""fullscreenenter"",""1"",""8948""
","
","","1137.4999999534339","","","","practice","2021-04-06 03:20:28.682","img/practice_cards/backs/brown.gif","1","100","0","",""
"casino-fixation","45","324184","0.0-17.0-0.5","A941","false","img/card_backs/set1/purple.gif","img/card_backs/set1/red.gif","img/card_backs/set1/green.gif","img/card_backs/set1/yellow.gif","img/card_backs/set2/blue.gif","img/card_backs/set2/orange.gif","img/card_backs/set2/pink.gif","img/card_backs/set2/gray.gif","""event"",""trial"",""time""
""fullscreenenter"",""1"",""8948""
","
","
","""event"",""trial"",""time""
""fullscreenenter"",""1"",""8948""
","
","","null","","null","","fixation","2021-04-06 03:20:29.189","","","","","",""
"card-selection-trial","46","326669","0.0-17.0-1.5","A941","false","img/card_backs/set1/purple.gif","img/card_backs/set1/red.gif","img/card_backs/set1/green.gif","img/card_backs/set1/yellow.gif","img/card_backs/set2/blue.gif","img/card_backs/set2/orange.gif","img/card_backs/set2/pink.gif","img/card_backs/set2/gray.gif","""event"",""trial"",""time""
""fullscreenenter"",""1"",""8948""
","
","
","""event"",""trial"",""time""
""fullscreenenter"",""1"",""8948""
","
","","467.2699999064207","","","","practice","2021-04-06 03:20:31.674","img/practice_cards/backs/dark_green.gif","0","200","0","",""
"casino-fixation","47","327179","0.0-17.0-0.6","A941","false","img/card_backs/set1/purple.gif","img/card_backs/set1/red.gif","img/card_backs/set1/green.gif","img/card_backs/set1/yellow.gif","img/card_backs/set2/blue.gif","img/card_backs/set2/orange.gif","img/card_backs/set2/pink.gif","img/card_backs/set2/gray.gif","""event"",""trial"",""time""
""fullscreenenter"",""1"",""8948""
","
","
","""event"",""trial"",""time""
""fullscreenenter"",""1"",""8948""
","
","","null","","null","","fixation","2021-04-06 03:20:32.184","","","","","",""
"card-selection-trial","48","329815","0.0-17.0-1.6","A941","false","img/card_backs/set1/purple.gif","img/card_backs/set1/red.gif","img/card_backs/set1/green.gif","img/card_backs/set1/yellow.gif","img/card_backs/set2/blue.gif","img/card_backs/set2/orange.gif","img/card_backs/set2/pink.gif","img/card_backs/set2/gray.gif","""event"",""trial"",""time""
""fullscreenenter"",""1"",""8948""
","
","
","""event"",""trial"",""time""
""fullscreenenter"",""1"",""8948""
","
","","600.0099999364465","","","","practice","2021-04-06 03:20:34.820","img/practice_cards/backs/dark_green.gif","2","-200","0","",""
"casino-fixation","49","330320","0.0-17.0-0.7","A941","false","img/card_backs/set1/purple.gif","img/card_backs/set1/red.gif","img/card_backs/set1/green.gif","img/card_backs/set1/yellow.gif","img/card_backs/set2/blue.gif","img/card_backs/set2/orange.gif","img/card_backs/set2/pink.gif","img/card_backs/set2/gray.gif","""event"",""trial"",""time""
""fullscreenenter"",""1"",""8948""
","
","
","""event"",""trial"",""time""
""fullscreenenter"",""1"",""8948""
","
","","null","","null","","fixation","2021-04-06 03:20:35.325","","","","","",""
"card-selection-trial","50","333961","0.0-17.0-1.7","A941","false","img/card_backs/set1/purple.gif","img/card_backs/set1/red.gif","img/card_backs/set1/green.gif","img/card_backs/set1/yellow.gif","img/card_backs/set2/blue.gif","img/card_backs/set2/orange.gif","img/card_backs/set2/pink.gif","img/card_backs/set2/gray.gif","""event"",""trial"",""time""
""fullscreenenter"",""1"",""8948""
","
","
","""event"",""trial"",""time""
""fullscreenenter"",""1"",""8948""
","
","","1611.7050000466406","","","","practice","2021-04-06 03:20:38.967","img/practice_cards/backs/brown.gif","1","100","0","",""
"casino-fixation","51","334468","0.0-17.0-0.8","A941","false","img/card_backs/set1/purple.gif","img/card_backs/set1/red.gif","img/card_backs/set1/green.gif","img/card_backs/set1/yellow.gif","img/card_backs/set2/blue.gif","img/card_backs/set2/orange.gif","img/card_backs/set2/pink.gif","img/card_backs/set2/gray.gif","""event"",""trial"",""time""
""fullscreenenter"",""1"",""8948""
","
","
","""event"",""trial"",""time""
""fullscreenenter"",""1"",""8948""
","
","","null","","null","","fixation","2021-04-06 03:20:39.473","","","","","",""
"card-selection-trial","52","337210","0.0-17.0-1.8","A941","false","img/card_backs/set1/purple.gif","img/card_backs/set1/red.gif","img/card_backs/set1/green.gif","img/card_backs/set1/yellow.gif","img/card_backs/set2/blue.gif","img/card_backs/set2/orange.gif","img/card_backs/set2/pink.gif","img/card_backs/set2/gray.gif","""event"",""trial"",""time""
""fullscreenenter"",""1"",""8948""
","
","
","""event"",""trial"",""time""
""fullscreenenter"",""1"",""8948""
","
","","710.7500000856817","","","","practice","2021-04-06 03:20:42.216","img/practice_cards/backs/brown.gif","3","100","0","",""
"casino-fixation","53","337715","0.0-17.0-0.9","A941","false","img/card_backs/set1/purple.gif","img/card_backs/set1/red.gif","img/card_backs/set1/green.gif","img/card_backs/set1/yellow.gif","img/card_backs/set2/blue.gif","img/card_backs/set2/orange.gif","img/card_backs/set2/pink.gif","img/card_backs/set2/gray.gif","""event"",""trial"",""time""
""fullscreenenter"",""1"",""8948""
","
","
","""event"",""trial"",""time""
""fullscreenenter"",""1"",""8948""
","
","","null","","null","","fixation","2021-04-06 03:20:42.720","","","","","",""
"card-selection-trial","54","340295","0.0-17.0-1.9","A941","false","img/card_backs/set1/purple.gif","img/card_backs/set1/red.gif","img/card_backs/set1/green.gif","img/card_backs/set1/yellow.gif","img/card_backs/set2/blue.gif","img/card_backs/set2/orange.gif","img/card_backs/set2/pink.gif","img/card_backs/set2/gray.gif","""event"",""trial"",""time""
""fullscreenenter"",""1"",""8948""
","
","
","""event"",""trial"",""time""
""fullscreenenter"",""1"",""8948""
","
","","556.4099999610335","","","","practice","2021-04-06 03:20:45.301","img/practice_cards/backs/dark_green.gif","3","-200","0","",""
"casino-keyboard-response","55","343502","0.0-18.0","A941","false","img/card_backs/set1/purple.gif","img/card_backs/set1/red.gif","img/card_backs/set1/green.gif","img/card_backs/set1/yellow.gif","img/card_backs/set2/blue.gif","img/card_backs/set2/orange.gif","img/card_backs/set2/pink.gif","img/card_backs/set2/gray.gif","""event"",""trial"",""time""
""fullscreenenter"",""1"",""8948""
","
","
","""event"",""trial"",""time""
""fullscreenenter"",""1"",""8948""
","
","","3203.1000000424683","You earned 100 tokens during the practice round!","82","","","2021-04-06 03:20:48.507","","","","","",""
"casino-keyboard-response","56","348250","0.0-19.0-0.0","A941","false","img/card_backs/set1/purple.gif","img/card_backs/set1/red.gif","img/card_backs/set1/green.gif","img/card_backs/set1/yellow.gif","img/card_backs/set2/blue.gif","img/card_backs/set2/orange.gif","img/card_backs/set2/pink.gif","img/card_backs/set2/gray.gif","""event"",""trial"",""time""
""fullscreenenter"",""1"",""8948""
","
","
","""event"",""trial"",""time""
""fullscreenenter"",""1"",""8948""
","
","","4742.159999907017","Nice job! You are almost ready to play the real game.","86","","instructions","2021-04-06 03:20:53.255","","","","","",""
"casino-keyboard-response","57","355080","0.0-19.0-0.1","A941","false","img/card_backs/set1/purple.gif","img/card_backs/set1/red.gif","img/card_backs/set1/green.gif","img/card_backs/set1/yellow.gif","img/card_backs/set2/blue.gif","img/card_backs/set2/orange.gif","img/card_backs/set2/pink.gif","img/card_backs/set2/gray.gif","""event"",""trial"",""time""
""fullscreenenter"",""1"",""8948""
","
","
","""event"",""trial"",""time""
""fullscreenenter"",""1"",""8948""
","
","","6822.544999886304","You will play two rounds of the real game. In each round, you will pick 100 cards in total.","73","","instructions","2021-04-06 03:21:00.085","","","","","",""
"casino-keyboard-response","58","359177","0.0-19.0-0.2","A941","false","img/card_backs/set1/purple.gif","img/card_backs/set1/red.gif","img/card_backs/set1/green.gif","img/card_backs/set1/yellow.gif","img/card_backs/set2/blue.gif","img/card_backs/set2/orange.gif","img/card_backs/set2/pink.gif","img/card_backs/set2/gray.gif","""event"",""trial"",""time""
""fullscreenenter"",""1"",""8948""
","
","
","""event"",""trial"",""time""
""fullscreenenter"",""1"",""8948""
","
","","4093.379999976605","We are now going to ask you some questions about how the game works.","66","","instructions","2021-04-06 03:21:04.182","","","","","",""
"casino-keyboard-response","59","365420","0.0-19.0-0.3","A941","false","img/card_backs/set1/purple.gif","img/card_backs/set1/red.gif","img/card_backs/set1/green.gif","img/card_backs/set1/yellow.gif","img/card_backs/set2/blue.gif","img/card_backs/set2/orange.gif","img/card_backs/set2/pink.gif","img/card_backs/set2/gray.gif","""event"",""trial"",""time""
""fullscreenenter"",""1"",""8948""
","
","
","""event"",""trial"",""time""
""fullscreenenter"",""1"",""8948""
","
","","6238.915000110865","Answer carefully. You will not be able to begin the game until you answer them correctly.","67","","instructions","2021-04-06 03:21:10.425","","","","","",""
"casino-comp_q","60","372742","0.0-20.0-0.0","A941","false","img/card_backs/set1/purple.gif","img/card_backs/set1/red.gif","img/card_backs/set1/green.gif","img/card_backs/set1/yellow.gif","img/card_backs/set2/blue.gif","img/card_backs/set2/orange.gif","img/card_backs/set2/pink.gif","img/card_backs/set2/gray.gif","""event"",""trial"",""time""
""fullscreenenter"",""1"",""8948""
","
","
","""event"",""trial"",""time""
""fullscreenenter"",""1"",""8948""
","
","","7317.684999899939","True or False: All the decks have some cards that cause you to win tokens and some cards that cause you to lose tokens.","84","","","2021-04-06 03:21:17.747","","","","","",""
"casino-keyboard-response","61","378059","0.0-20.0-1.0","A941","false","img/card_backs/set1/purple.gif","img/card_backs/set1/red.gif","img/card_backs/set1/green.gif","img/card_backs/set1/yellow.gif","img/card_backs/set2/blue.gif","img/card_backs/set2/orange.gif","img/card_backs/set2/pink.gif","img/card_backs/set2/gray.gif","""event"",""trial"",""time""
""fullscreenenter"",""1"",""8948""
","
","
","""event"",""trial"",""time""
""fullscreenenter"",""1"",""8948""
","
","","5311.510000145063","True is correct! All the decks have a mix of winning and losing cards.","77","","","2021-04-06 03:21:23.065","","","","","true",""
"casino-comp_q","62","382708","0.0-21.0-0.0","A941","false","img/card_backs/set1/purple.gif","img/card_backs/set1/red.gif","img/card_backs/set1/green.gif","img/card_backs/set1/yellow.gif","img/card_backs/set2/blue.gif","img/card_backs/set2/orange.gif","img/card_backs/set2/pink.gif","img/card_backs/set2/gray.gif","""event"",""trial"",""time""
""fullscreenenter"",""1"",""8948""
","
","
","""event"",""trial"",""time""
""fullscreenenter"",""1"",""8948""
","
","","4639.104999834672","True or False: You will have as much time as you want to make your response.","70","","","2021-04-06 03:21:27.713","","","","","",""
"casino-keyboard-response","63","386438","0.0-21.0-1.0","A941","false","img/card_backs/set1/purple.gif","img/card_backs/set1/red.gif","img/card_backs/set1/green.gif","img/card_backs/set1/yellow.gif","img/card_backs/set2/blue.gif","img/card_backs/set2/orange.gif","img/card_backs/set2/pink.gif","img/card_backs/set2/gray.gif","""event"",""trial"",""time""
""fullscreenenter"",""1"",""8948""
","
","
","""event"",""trial"",""time""
""fullscreenenter"",""1"",""8948""
","
","","3726.370000047609","False is correct! You will only have 10 seconds to make each choice.","75","","","2021-04-06 03:21:31.444","","","","","true",""
"casino-comp_q","64","389386","0.0-22.0-0.0","A941","false","img/card_backs/set1/purple.gif","img/card_backs/set1/red.gif","img/card_backs/set1/green.gif","img/card_backs/set1/yellow.gif","img/card_backs/set2/blue.gif","img/card_backs/set2/orange.gif","img/card_backs/set2/pink.gif","img/card_backs/set2/gray.gif","""event"",""trial"",""time""
""fullscreenenter"",""1"",""8948""
","
","
","""event"",""trial"",""time""
""fullscreenenter"",""1"",""8948""
","
","","2936.1499999649823","True or False: The location of the deck determines how lucky it is.","174","","","2021-04-06 03:21:34.391","","","","","",""
"casino-keyboard-response","65","398893","0.0-22.0-1.0","A941","false","img/card_backs/set1/purple.gif","img/card_backs/set1/red.gif","img/card_backs/set1/green.gif","img/card_backs/set1/yellow.gif","img/card_backs/set2/blue.gif","img/card_backs/set2/orange.gif","img/card_backs/set2/pink.gif","img/card_backs/set2/gray.gif","""event"",""trial"",""time""
""fullscreenenter"",""1"",""8948""
","
","
","""event"",""trial"",""time""
""fullscreenenter"",""1"",""8948""
","
","","9501.305000158027","True is incorrect. The <i>color</i> of the deck determines how lucky or unlucky it is.","68","","","2021-04-06 03:21:43.898","","","","","false",""
"casino-comp_q","66","404173","0.0-22.1-0.1","A941","false","img/card_backs/set1/purple.gif","img/card_backs/set1/red.gif","img/card_backs/set1/green.gif","img/card_backs/set1/yellow.gif","img/card_backs/set2/blue.gif","img/card_backs/set2/orange.gif","img/card_backs/set2/pink.gif","img/card_backs/set2/gray.gif","""event"",""trial"",""time""
""fullscreenenter"",""1"",""8948""
","
","
","""event"",""trial"",""time""
""fullscreenenter"",""1"",""8948""
","
","","5275.214999914169","True or False: The location of the deck determines how lucky it is.","70","","","2021-04-06 03:21:49.179","","","","","",""
"casino-keyboard-response","67","408536","0.0-22.1-1.1","A941","false","img/card_backs/set1/purple.gif","img/card_backs/set1/red.gif","img/card_backs/set1/green.gif","img/card_backs/set1/yellow.gif","img/card_backs/set2/blue.gif","img/card_backs/set2/orange.gif","img/card_backs/set2/pink.gif","img/card_backs/set2/gray.gif","""event"",""trial"",""time""
""fullscreenenter"",""1"",""8948""
","
","
","""event"",""trial"",""time""
""fullscreenenter"",""1"",""8948""
","
","","4357.49000008218","False is correct! The <i>color</i>  of the deck determines how lucky or unlucky it is.","68","","","2021-04-06 03:21:53.541","","","","","true",""
"casino-keyboard-response","68","414650","0.0-23.0-0.0","A941","false","img/card_backs/set1/purple.gif","img/card_backs/set1/red.gif","img/card_backs/set1/green.gif","img/card_backs/set1/yellow.gif","img/card_backs/set2/blue.gif","img/card_backs/set2/orange.gif","img/card_backs/set2/pink.gif","img/card_backs/set2/gray.gif","""event"",""trial"",""time""
""fullscreenenter"",""1"",""8948""
","
","
","""event"",""trial"",""time""
""fullscreenenter"",""1"",""8948""
","
","","6108.920000027865","Great job! Now it's time to start the real game.","82","","instructions","2021-04-06 03:21:59.656","","","","","",""
"casino-keyboard-response","69","419791","0.0-23.0-0.1","A941","false","img/card_backs/set1/purple.gif","img/card_backs/set1/red.gif","img/card_backs/set1/green.gif","img/card_backs/set1/yellow.gif","img/card_backs/set2/blue.gif","img/card_backs/set2/orange.gif","img/card_backs/set2/pink.gif","img/card_backs/set2/gray.gif","""event"",""trial"",""time""
""fullscreenenter"",""1"",""8948""
","
","
","""event"",""trial"",""time""
""fullscreenenter"",""1"",""8948""
","
","","5135.939999949187","Before we start, we're going to head into a new room of the casino.","86","","instructions","2021-04-06 03:22:04.797","","","","","",""
"casino-keyboard-response","70","425841","0.0-24.0-0.0","A941","false","img/card_backs/set1/purple.gif","img/card_backs/set1/red.gif","img/card_backs/set1/green.gif","img/card_backs/set1/yellow.gif","img/card_backs/set2/blue.gif","img/card_backs/set2/orange.gif","img/card_backs/set2/pink.gif","img/card_backs/set2/gray.gif","""event"",""trial"",""time""
""fullscreenenter"",""1"",""8948""
","
","
","""event"",""trial"",""time""
""fullscreenenter"",""1"",""8948""
","
","","6045.43499997817","Here we are! The real game will use different cards, but the rules will be the same.","71","","instructions","2021-04-06 03:22:10.846","","","","","",""
"casino-keyboard-response","71","434944","0.0-24.0-0.1","A941","false","img/card_backs/set1/purple.gif","img/card_backs/set1/red.gif","img/card_backs/set1/green.gif","img/card_backs/set1/yellow.gif","img/card_backs/set2/blue.gif","img/card_backs/set2/orange.gif","img/card_backs/set2/pink.gif","img/card_backs/set2/gray.gif","""event"",""trial"",""time""
""fullscreenenter"",""1"",""8948""
","
","
","""event"",""trial"",""time""
""fullscreenenter"",""1"",""8948""
","
","","9101.019999943674","Ready? Put your fingers over the '2', '4', 6', and '8' keys so you are ready to play the game. </br> Then press 2 to start.","50","","instructions","2021-04-06 03:22:19.949","","","","","",""
"casino-fixation","72","435457","0.0-25.0-0.0","A941","false","img/card_backs/set1/purple.gif","img/card_backs/set1/red.gif","img/card_backs/set1/green.gif","img/card_backs/set1/yellow.gif","img/card_backs/set2/blue.gif","img/card_backs/set2/orange.gif","img/card_backs/set2/pink.gif","img/card_backs/set2/gray.gif","""event"",""trial"",""time""
""fullscreenenter"",""1"",""8948""
","
","
","""event"",""trial"",""time""
""fullscreenenter"",""1"",""8948""
","
","","null","","null","","fixation","2021-04-06 03:22:20.462","","","","","",""
"card-selection-trial","73","438369","0.0-25.0-1.0","A941","false","img/card_backs/set1/purple.gif","img/card_backs/set1/red.gif","img/card_backs/set1/green.gif","img/card_backs/set1/yellow.gif","img/card_backs/set2/blue.gif","img/card_backs/set2/orange.gif","img/card_backs/set2/pink.gif","img/card_backs/set2/gray.gif","""event"",""trial"",""time""
""fullscreenenter"",""1"",""8948""
","
","
","""event"",""trial"",""time""
""fullscreenenter"",""1"",""8948""
","
","","881.4999999012798","","","","real_trial","2021-04-06 03:22:23.374","img/card_backs/set1/green.gif","0","-60","1","",""
"casino-fixation","74","438873","0.0-25.0-0.1","A941","false","img/card_backs/set1/purple.gif","img/card_backs/set1/red.gif","img/card_backs/set1/green.gif","img/card_backs/set1/yellow.gif","img/card_backs/set2/blue.gif","img/card_backs/set2/orange.gif","img/card_backs/set2/pink.gif","img/card_backs/set2/gray.gif","""event"",""trial"",""time""
""fullscreenenter"",""1"",""8948""
","
","
","""event"",""trial"",""time""
""fullscreenenter"",""1"",""8948""
","
","","null","","null","","fixation","2021-04-06 03:22:23.878","","","","","",""
"card-selection-trial","75","441624","0.0-25.0-1.1","A941","false","img/card_backs/set1/purple.gif","img/card_backs/set1/red.gif","img/card_backs/set1/green.gif","img/card_backs/set1/yellow.gif","img/card_backs/set2/blue.gif","img/card_backs/set2/orange.gif","img/card_backs/set2/pink.gif","img/card_backs/set2/gray.gif","""event"",""trial"",""time""
""fullscreenenter"",""1"",""8948""
","
","
","""event"",""trial"",""time""
""fullscreenenter"",""1"",""8948""
","
","","730.1399998832494","","","","real_trial","2021-04-06 03:22:26.629","img/card_backs/set1/red.gif","1","-230","1","",""
"casino-fixation","76","442136","0.0-25.0-0.2","A941","false","img/card_backs/set1/purple.gif","img/card_backs/set1/red.gif","img/card_backs/set1/green.gif","img/card_backs/set1/yellow.gif","img/card_backs/set2/blue.gif","img/card_backs/set2/orange.gif","img/card_backs/set2/pink.gif","img/card_backs/set2/gray.gif","""event"",""trial"",""time""
""fullscreenenter"",""1"",""8948""
","
","
","""event"",""trial"",""time""
""fullscreenenter"",""1"",""8948""
","
","","null","","null","","fixation","2021-04-06 03:22:27.141","","","","","",""
"card-selection-trial","77","445370","0.0-25.0-1.2","A941","false","img/card_backs/set1/purple.gif","img/card_backs/set1/red.gif","img/card_backs/set1/green.gif","img/card_backs/set1/yellow.gif","img/card_backs/set2/blue.gif","img/card_backs/set2/orange.gif","img/card_backs/set2/pink.gif","img/card_backs/set2/gray.gif","""event"",""trial"",""time""
""fullscreenenter"",""1"",""8948""
","
","
","""event"",""trial"",""time""
""fullscreenenter"",""1"",""8948""
","
","","1203.029999975115","","","","real_trial","2021-04-06 03:22:30.375","img/card_backs/set1/yellow.gif","3","120","1","",""
"casino-fixation","78","445878","0.0-25.0-0.3","A941","false","img/card_backs/set1/purple.gif","img/card_backs/set1/red.gif","img/card_backs/set1/green.gif","img/card_backs/set1/yellow.gif","img/card_backs/set2/blue.gif","img/card_backs/set2/orange.gif","img/card_backs/set2/pink.gif","img/card_backs/set2/gray.gif","""event"",""trial"",""time""
""fullscreenenter"",""1"",""8948""
","
","
","""event"",""trial"",""time""
""fullscreenenter"",""1"",""8948""
","
","","null","","null","","fixation","2021-04-06 03:22:30.883","","","","","",""
"card-selection-trial","79","448375","0.0-25.0-1.3","A941","false","img/card_backs/set1/purple.gif","img/card_backs/set1/red.gif","img/card_backs/set1/green.gif","img/card_backs/set1/yellow.gif","img/card_backs/set2/blue.gif","img/card_backs/set2/orange.gif","img/card_backs/set2/pink.gif","img/card_backs/set2/gray.gif","""event"",""trial"",""time""
""fullscreenenter"",""1"",""8948""
","
","
","""event"",""trial"",""time""
""fullscreenenter"",""1"",""8948""
","
","","478.6549999844283","","","","real_trial","2021-04-06 03:22:33.380","img/card_backs/set1/yellow.gif","3","110","1","",""
"casino-fixation","80","448891","0.0-25.0-0.4","A941","false","img/card_backs/set1/purple.gif","img/card_backs/set1/red.gif","img/card_backs/set1/green.gif","img/card_backs/set1/yellow.gif","img/card_backs/set2/blue.gif","img/card_backs/set2/orange.gif","img/card_backs/set2/pink.gif","img/card_backs/set2/gray.gif","""event"",""trial"",""time""
""fullscreenenter"",""1"",""8948""
","
","
","""event"",""trial"",""time""
""fullscreenenter"",""1"",""8948""
","
","","null","","null","","fixation","2021-04-06 03:22:33.896","","","","","",""
"card-selection-trial","81","452732","0.0-25.0-1.4","A941","false","img/card_backs/set1/purple.gif","img/card_backs/set1/red.gif","img/card_backs/set1/green.gif","img/card_backs/set1/yellow.gif","img/card_backs/set2/blue.gif","img/card_backs/set2/orange.gif","img/card_backs/set2/pink.gif","img/card_backs/set2/gray.gif","""event"",""trial"",""time""
""fullscreenenter"",""1"",""8948""
","
","
","""event"",""trial"",""time""
""fullscreenenter"",""1"",""8948""
","
","","1819.5299999788404","","","","real_trial","2021-04-06 03:22:37.737","img/card_backs/set1/purple.gif","3","-230","1","",""
"casino-fixation","82","453243","0.0-25.0-0.5","A941","false","img/card_backs/set1/purple.gif","img/card_backs/set1/red.gif","img/card_backs/set1/green.gif","img/card_backs/set1/yellow.gif","img/card_backs/set2/blue.gif","img/card_backs/set2/orange.gif","img/card_backs/set2/pink.gif","img/card_backs/set2/gray.gif","""event"",""trial"",""time""
""fullscreenenter"",""1"",""8948""
","
","
","""event"",""trial"",""time""
""fullscreenenter"",""1"",""8948""
","
","","null","","null","","fixation","2021-04-06 03:22:38.248","","","","","",""
"card-selection-trial","83","456293","0.0-25.0-1.5","A941","false","img/card_backs/set1/purple.gif","img/card_backs/set1/red.gif","img/card_backs/set1/green.gif","img/card_backs/set1/yellow.gif","img/card_backs/set2/blue.gif","img/card_backs/set2/orange.gif","img/card_backs/set2/pink.gif","img/card_backs/set2/gray.gif","""event"",""trial"",""time""
""fullscreenenter"",""1"",""8948""
","
","
","""event"",""trial"",""time""
""fullscreenenter"",""1"",""8948""
","
","","1030.7150001171976","","","","real_trial","2021-04-06 03:22:41.298","img/card_backs/set1/yellow.gif","2","110","1","",""
"casino-fixation","84","456805","0.0-25.0-0.6","A941","false","img/card_backs/set1/purple.gif","img/card_backs/set1/red.gif","img/card_backs/set1/green.gif","img/card_backs/set1/yellow.gif","img/card_backs/set2/blue.gif","img/card_backs/set2/orange.gif","img/card_backs/set2/pink.gif","img/card_backs/set2/gray.gif","""event"",""trial"",""time""
""fullscreenenter"",""1"",""8948""
","
","
","""event"",""trial"",""time""
""fullscreenenter"",""1"",""8948""
","
","","null","","null","","fixation","2021-04-06 03:22:41.810","","","","","",""
"card-selection-trial","85","459668","0.0-25.0-1.6","A941","false","img/card_backs/set1/purple.gif","img/card_backs/set1/red.gif","img/card_backs/set1/green.gif","img/card_backs/set1/yellow.gif","img/card_backs/set2/blue.gif","img/card_backs/set2/orange.gif","img/card_backs/set2/pink.gif","img/card_backs/set2/gray.gif","""event"",""trial"",""time""
""fullscreenenter"",""1"",""8948""
","
","
","""event"",""trial"",""time""
""fullscreenenter"",""1"",""8948""
","
","","847.8800000157207","","","","real_trial","2021-04-06 03:22:44.673","img/card_backs/set1/yellow.gif","1","-60","1","",""
"casino-fixation","86","460183","0.0-25.0-0.7","A941","false","img/card_backs/set1/purple.gif","img/card_backs/set1/red.gif","img/card_backs/set1/green.gif","img/card_backs/set1/yellow.gif","img/card_backs/set2/blue.gif","img/card_backs/set2/orange.gif","img/card_backs/set2/pink.gif","img/card_backs/set2/gray.gif","""event"",""trial"",""time""
""fullscreenenter"",""1"",""8948""
","
","
","""event"",""trial"",""time""
""fullscreenenter"",""1"",""8948""
","
","","null","","null","","fixation","2021-04-06 03:22:45.188","","","","","",""
"card-selection-trial","87","463328","0.0-25.0-1.7","A941","false","img/card_backs/set1/purple.gif","img/card_backs/set1/red.gif","img/card_backs/set1/green.gif","img/card_backs/set1/yellow.gif","img/card_backs/set2/blue.gif","img/card_backs/set2/orange.gif","img/card_backs/set2/pink.gif","img/card_backs/set2/gray.gif","""event"",""trial"",""time""
""fullscreenenter"",""1"",""8948""
","
","
","""event"",""trial"",""time""
""fullscreenenter"",""1"",""8948""
","
","","1114.8000000976026","","","","real_trial","2021-04-06 03:22:48.333","img/card_backs/set1/red.gif","0","190","1","",""
"casino-fixation","88","463847","0.0-25.0-0.8","A941","false","img/card_backs/set1/purple.gif","img/card_backs/set1/red.gif","img/card_backs/set1/green.gif","img/card_backs/set1/yellow.gif","img/card_backs/set2/blue.gif","img/card_backs/set2/orange.gif","img/card_backs/set2/pink.gif","img/card_backs/set2/gray.gif","""event"",""trial"",""time""
""fullscreenenter"",""1"",""8948""
","
","
","""event"",""trial"",""time""
""fullscreenenter"",""1"",""8948""
","
","","null","","null","","fixation","2021-04-06 03:22:48.852","","","","","",""
"card-selection-trial","89","467352","0.0-25.0-1.8","A941","false","img/card_backs/set1/purple.gif","img/card_backs/set1/red.gif","img/card_backs/set1/green.gif","img/card_backs/set1/yellow.gif","img/card_backs/set2/blue.gif","img/card_backs/set2/orange.gif","img/card_backs/set2/pink.gif","img/card_backs/set2/gray.gif","""event"",""trial"",""time""
""fullscreenenter"",""1"",""8948""
","
","
","""event"",""trial"",""time""
""fullscreenenter"",""1"",""8948""
","
","","1492.1750000212342","","","","real_trial","2021-04-06 03:22:52.357","img/card_backs/set1/red.gif","2","180","1","",""
"casino-fixation","90","467859","0.0-25.0-0.9","A941","false","img/card_backs/set1/purple.gif","img/card_backs/set1/red.gif","img/card_backs/set1/green.gif","img/card_backs/set1/yellow.gif","img/card_backs/set2/blue.gif","img/card_backs/set2/orange.gif","img/card_backs/set2/pink.gif","img/card_backs/set2/gray.gif","""event"",""trial"",""time""
""fullscreenenter"",""1"",""8948""
","
","
","""event"",""trial"",""time""
""fullscreenenter"",""1"",""8948""
","
","","null","","null","","fixation","2021-04-06 03:22:52.864","","","","","",""
"card-selection-trial","91","470662","0.0-25.0-1.9","A941","false","img/card_backs/set1/purple.gif","img/card_backs/set1/red.gif","img/card_backs/set1/green.gif","img/card_backs/set1/yellow.gif","img/card_backs/set2/blue.gif","img/card_backs/set2/orange.gif","img/card_backs/set2/pink.gif","img/card_backs/set2/gray.gif","""event"",""trial"",""time""
""fullscreenenter"",""1"",""8948""
","
","
","""event"",""trial"",""time""
""fullscreenenter"",""1"",""8948""
","
","","786.8000001180917","","","","real_trial","2021-04-06 03:22:55.667","img/card_backs/set1/red.gif","0","180","1","",""
"casino-fixation","92","471165","0.0-25.0-0.10","A941","false","img/card_backs/set1/purple.gif","img/card_backs/set1/red.gif","img/card_backs/set1/green.gif","img/card_backs/set1/yellow.gif","img/card_backs/set2/blue.gif","img/card_backs/set2/orange.gif","img/card_backs/set2/pink.gif","img/card_backs/set2/gray.gif","""event"",""trial"",""time""
""fullscreenenter"",""1"",""8948""
","
","
","""event"",""trial"",""time""
""fullscreenenter"",""1"",""8948""
","
","","null","","null","","fixation","2021-04-06 03:22:56.170","","","","","",""
"card-selection-trial","93","474416","0.0-25.0-1.10","A941","false","img/card_backs/set1/purple.gif","img/card_backs/set1/red.gif","img/card_backs/set1/green.gif","img/card_backs/set1/yellow.gif","img/card_backs/set2/blue.gif","img/card_backs/set2/orange.gif","img/card_backs/set2/pink.gif","img/card_backs/set2/gray.gif","""event"",""trial"",""time""
""fullscreenenter"",""1"",""8948""
","
","
","""event"",""trial"",""time""
""fullscreenenter"",""1"",""8948""
","
","","1237.6250000670552","","","","real_trial","2021-04-06 03:22:59.422","img/card_backs/set1/red.gif","2","-230","1","",""
"casino-fixation","94","474921","0.0-25.0-0.11","A941","false","img/card_backs/set1/purple.gif","img/card_backs/set1/red.gif","img/card_backs/set1/green.gif","img/card_backs/set1/yellow.gif","img/card_backs/set2/blue.gif","img/card_backs/set2/orange.gif","img/card_backs/set2/pink.gif","img/card_backs/set2/gray.gif","""event"",""trial"",""time""
""fullscreenenter"",""1"",""8948""
","
","
","""event"",""trial"",""time""
""fullscreenenter"",""1"",""8948""
","
","","null","","null","","fixation","2021-04-06 03:22:59.926","","","","","",""
"card-selection-trial","95","478262","0.0-25.0-1.11","A941","false","img/card_backs/set1/purple.gif","img/card_backs/set1/red.gif","img/card_backs/set1/green.gif","img/card_backs/set1/yellow.gif","img/card_backs/set2/blue.gif","img/card_backs/set2/orange.gif","img/card_backs/set2/pink.gif","img/card_backs/set2/gray.gif","""event"",""trial"",""time""
""fullscreenenter"",""1"",""8948""
","
","
","""event"",""trial"",""time""
""fullscreenenter"",""1"",""8948""
","
","","1316.6300000157207","","","","real_trial","2021-04-06 03:23:03.267","img/card_backs/set1/yellow.gif","2","100","1","",""
"casino-fixation","96","478768","0.0-25.0-0.12","A941","false","img/card_backs/set1/purple.gif","img/card_backs/set1/red.gif","img/card_backs/set1/green.gif","img/card_backs/set1/yellow.gif","img/card_backs/set2/blue.gif","img/card_backs/set2/orange.gif","img/card_backs/set2/pink.gif","img/card_backs/set2/gray.gif","""event"",""trial"",""time""
""fullscreenenter"",""1"",""8948""
","
","
","""event"",""trial"",""time""
""fullscreenenter"",""1"",""8948""
","
","","null","","null","","fixation","2021-04-06 03:23:03.773","","","","","",""
"card-selection-trial","97","481863","0.0-25.0-1.12","A941","false","img/card_backs/set1/purple.gif","img/card_backs/set1/red.gif","img/card_backs/set1/green.gif","img/card_backs/set1/yellow.gif","img/card_backs/set2/blue.gif","img/card_backs/set2/orange.gif","img/card_backs/set2/pink.gif","img/card_backs/set2/gray.gif","""event"",""trial"",""time""
""fullscreenenter"",""1"",""8948""
","
","
","""event"",""trial"",""time""
""fullscreenenter"",""1"",""8948""
","
","","1080.695000011474","","","","real_trial","2021-04-06 03:23:06.868","img/card_backs/set1/red.gif","0","180","1","",""
"casino-fixation","98","482369","0.0-25.0-0.13","A941","false","img/card_backs/set1/purple.gif","img/card_backs/set1/red.gif","img/card_backs/set1/green.gif","img/card_backs/set1/yellow.gif","img/card_backs/set2/blue.gif","img/card_backs/set2/orange.gif","img/card_backs/set2/pink.gif","img/card_backs/set2/gray.gif","""event"",""trial"",""time""
""fullscreenenter"",""1"",""8948""
","
","
","""event"",""trial"",""time""
""fullscreenenter"",""1"",""8948""
","
","","null","","null","","fixation","2021-04-06 03:23:07.374","","","","","",""
"card-selection-trial","99","485003","0.0-25.0-1.13","A941","false","img/card_backs/set1/purple.gif","img/card_backs/set1/red.gif","img/card_backs/set1/green.gif","img/card_backs/set1/yellow.gif","img/card_backs/set2/blue.gif","img/card_backs/set2/orange.gif","img/card_backs/set2/pink.gif","img/card_backs/set2/gray.gif","""event"",""trial"",""time""
""fullscreenenter"",""1"",""8948""
","
","
","""event"",""trial"",""time""
""fullscreenenter"",""1"",""8948""
","
","","619.3599998950958","","","","real_trial","2021-04-06 03:23:10.008","img/card_backs/set1/yellow.gif","3","-70","1","",""
"casino-fixation","100","485507","0.0-25.0-0.14","A941","false","img/card_backs/set1/purple.gif","img/card_backs/set1/red.gif","img/card_backs/set1/green.gif","img/card_backs/set1/yellow.gif","img/card_backs/set2/blue.gif","img/card_backs/set2/orange.gif","img/card_backs/set2/pink.gif","img/card_backs/set2/gray.gif","""event"",""trial"",""time""
""fullscreenenter"",""1"",""8948""
","
","
","""event"",""trial"",""time""
""fullscreenenter"",""1"",""8948""
","
","","null","","null","","fixation","2021-04-06 03:23:10.512","","","","","",""
"card-selection-trial","101","488703","0.0-25.0-1.14","A941","false","img/card_backs/set1/purple.gif","img/card_backs/set1/red.gif","img/card_backs/set1/green.gif","img/card_backs/set1/yellow.gif","img/card_backs/set2/blue.gif","img/card_backs/set2/orange.gif","img/card_backs/set2/pink.gif","img/card_backs/set2/gray.gif","""event"",""trial"",""time""
""fullscreenenter"",""1"",""8948""
","
","
","""event"",""trial"",""time""
""fullscreenenter"",""1"",""8948""
","
","","1179.6800000593066","","","","real_trial","2021-04-06 03:23:13.708","img/card_backs/set1/purple.gif","2","190","1","",""
"casino-fixation","102","489215","0.0-25.0-0.15","A941","false","img/card_backs/set1/purple.gif","img/card_backs/set1/red.gif","img/card_backs/set1/green.gif","img/card_backs/set1/yellow.gif","img/card_backs/set2/blue.gif","img/card_backs/set2/orange.gif","img/card_backs/set2/pink.gif","img/card_backs/set2/gray.gif","""event"",""trial"",""time""
""fullscreenenter"",""1"",""8948""
","
","
","""event"",""trial"",""time""
""fullscreenenter"",""1"",""8948""
","
","","null","","null","","fixation","2021-04-06 03:23:14.220","","","","","",""
"card-selection-trial","103","492801","0.0-25.0-1.15","A941","false","img/card_backs/set1/purple.gif","img/card_backs/set1/red.gif","img/card_backs/set1/green.gif","img/card_backs/set1/yellow.gif","img/card_backs/set2/blue.gif","img/card_backs/set2/orange.gif","img/card_backs/set2/pink.gif","img/card_backs/set2/gray.gif","""event"",""trial"",""time""
""fullscreenenter"",""1"",""8948""
","
","
","""event"",""trial"",""time""
""fullscreenenter"",""1"",""8948""
","
","","1549.3350001052022","","","","real_trial","2021-04-06 03:23:17.806","img/card_backs/set1/yellow.gif","3","-70","1","",""
"casino-fixation","104","493305","0.0-25.0-0.16","A941","false","img/card_backs/set1/purple.gif","img/card_backs/set1/red.gif","img/card_backs/set1/green.gif","img/card_backs/set1/yellow.gif","img/card_backs/set2/blue.gif","img/card_backs/set2/orange.gif","img/card_backs/set2/pink.gif","img/card_backs/set2/gray.gif","""event"",""trial"",""time""
""fullscreenenter"",""1"",""8948""
","
","
","""event"",""trial"",""time""
""fullscreenenter"",""1"",""8948""
","
","","null","","null","","fixation","2021-04-06 03:23:18.310","","","","","",""
"card-selection-trial","105","497039","0.0-25.0-1.16","A941","false","img/card_backs/set1/purple.gif","img/card_backs/set1/red.gif","img/card_backs/set1/green.gif","img/card_backs/set1/yellow.gif","img/card_backs/set2/blue.gif","img/card_backs/set2/orange.gif","img/card_backs/set2/pink.gif","img/card_backs/set2/gray.gif","""event"",""trial"",""time""
""fullscreenenter"",""1"",""8948""
","
","
","""event"",""trial"",""time""
""fullscreenenter"",""1"",""8948""
","
","","1716.6999999899417","","","","real_trial","2021-04-06 03:23:22.045","img/card_backs/set1/red.gif","2","180","1","",""
"casino-fixation","106","497543","0.0-25.0-0.17","A941","false","img/card_backs/set1/purple.gif","img/card_backs/set1/red.gif","img/card_backs/set1/green.gif","img/card_backs/set1/yellow.gif","img/card_backs/set2/blue.gif","img/card_backs/set2/orange.gif","img/card_backs/set2/pink.gif","img/card_backs/set2/gray.gif","""event"",""trial"",""time""
""fullscreenenter"",""1"",""8948""
","
","
","""event"",""trial"",""time""
""fullscreenenter"",""1"",""8948""
","
","","null","","null","","fixation","2021-04-06 03:23:22.548","","","","","",""
"card-selection-trial","107","500152","0.0-25.0-1.17","A941","false","img/card_backs/set1/purple.gif","img/card_backs/set1/red.gif","img/card_backs/set1/green.gif","img/card_backs/set1/yellow.gif","img/card_backs/set2/blue.gif","img/card_backs/set2/orange.gif","img/card_backs/set2/pink.gif","img/card_backs/set2/gray.gif","""event"",""trial"",""time""
""fullscreenenter"",""1"",""8948""
","
","
","""event"",""trial"",""time""
""fullscreenenter"",""1"",""8948""
","
","","591.2949999328703","","","","real_trial","2021-04-06 03:23:25.157","img/card_backs/set1/purple.gif","3","200","1","",""
"casino-fixation","108","500657","0.0-25.0-0.18","A941","false","img/card_backs/set1/purple.gif","img/card_backs/set1/red.gif","img/card_backs/set1/green.gif","img/card_backs/set1/yellow.gif","img/card_backs/set2/blue.gif","img/card_backs/set2/orange.gif","img/card_backs/set2/pink.gif","img/card_backs/set2/gray.gif","""event"",""trial"",""time""
""fullscreenenter"",""1"",""8948""
","
","
","""event"",""trial"",""time""
""fullscreenenter"",""1"",""8948""
","
","","null","","null","","fixation","2021-04-06 03:23:25.662","","","","","",""
"card-selection-trial","109","504410","0.0-25.0-1.18","A941","false","img/card_backs/set1/purple.gif","img/card_backs/set1/red.gif","img/card_backs/set1/green.gif","img/card_backs/set1/yellow.gif","img/card_backs/set2/blue.gif","img/card_backs/set2/orange.gif","img/card_backs/set2/pink.gif","img/card_backs/set2/gray.gif","""event"",""trial"",""time""
""fullscreenenter"",""1"",""8948""
","
","
","""event"",""trial"",""time""
""fullscreenenter"",""1"",""8948""
","
","","1738.2300000172108","","","","real_trial","2021-04-06 03:23:29.415","img/card_backs/set1/purple.gif","1","-250","1","",""
"casino-fixation","110","504917","0.0-25.0-0.19","A941","false","img/card_backs/set1/purple.gif","img/card_backs/set1/red.gif","img/card_backs/set1/green.gif","img/card_backs/set1/yellow.gif","img/card_backs/set2/blue.gif","img/card_backs/set2/orange.gif","img/card_backs/set2/pink.gif","img/card_backs/set2/gray.gif","""event"",""trial"",""time""
""fullscreenenter"",""1"",""8948""
","
","
","""event"",""trial"",""time""
""fullscreenenter"",""1"",""8948""
","
","","null","","null","","fixation","2021-04-06 03:23:29.922","","","","","",""
"card-selection-trial","111","509937","0.0-25.0-1.19","A941","false","img/card_backs/set1/purple.gif","img/card_backs/set1/red.gif","img/card_backs/set1/green.gif","img/card_backs/set1/yellow.gif","img/card_backs/set2/blue.gif","img/card_backs/set2/orange.gif","img/card_backs/set2/pink.gif","img/card_backs/set2/gray.gif","""event"",""trial"",""time""
""fullscreenenter"",""1"",""8948""
","
","
","""event"",""trial"",""time""
""fullscreenenter"",""1"",""8948""
","
","","3008.274999912828","","","","real_trial","2021-04-06 03:23:34.942","img/card_backs/set1/red.gif","0","-250","1","",""
"casino-fixation","112","510443","0.0-25.0-0.20","A941","false","img/card_backs/set1/purple.gif","img/card_backs/set1/red.gif","img/card_backs/set1/green.gif","img/card_backs/set1/yellow.gif","img/card_backs/set2/blue.gif","img/card_backs/set2/orange.gif","img/card_backs/set2/pink.gif","img/card_backs/set2/gray.gif","""event"",""trial"",""time""
""fullscreenenter"",""1"",""8948""
","
","
","""event"",""trial"",""time""
""fullscreenenter"",""1"",""8948""
","
","","null","","null","","fixation","2021-04-06 03:23:35.448","","","","","",""
"card-selection-trial","113","513031","0.0-25.0-1.20","A941","false","img/card_backs/set1/purple.gif","img/card_backs/set1/red.gif","img/card_backs/set1/green.gif","img/card_backs/set1/yellow.gif","img/card_backs/set2/blue.gif","img/card_backs/set2/orange.gif","img/card_backs/set2/pink.gif","img/card_backs/set2/gray.gif","""event"",""trial"",""time""
""fullscreenenter"",""1"",""8948""
","
","
","""event"",""trial"",""time""
""fullscreenenter"",""1"",""8948""
","
","","574.894999852404","","","","real_trial","2021-04-06 03:23:38.036","img/card_backs/set1/yellow.gif","0","-70","1","",""
"casino-fixation","114","513535","0.0-25.0-0.21","A941","false","img/card_backs/set1/purple.gif","img/card_backs/set1/red.gif","img/card_backs/set1/green.gif","img/card_backs/set1/yellow.gif","img/card_backs/set2/blue.gif","img/card_backs/set2/orange.gif","img/card_backs/set2/pink.gif","img/card_backs/set2/gray.gif","""event"",""trial"",""time""
""fullscreenenter"",""1"",""8948""
","
","
","""event"",""trial"",""time""
""fullscreenenter"",""1"",""8948""
","
","","null","","null","","fixation","2021-04-06 03:23:38.542","","","","","",""
"card-selection-trial","115","517383","0.0-25.0-1.21","A941","false","img/card_backs/set1/purple.gif","img/card_backs/set1/red.gif","img/card_backs/set1/green.gif","img/card_backs/set1/yellow.gif","img/card_backs/set2/blue.gif","img/card_backs/set2/orange.gif","img/card_backs/set2/pink.gif","img/card_backs/set2/gray.gif","""event"",""trial"",""time""
""fullscreenenter"",""1"",""8948""
","
","
","""event"",""trial"",""time""
""fullscreenenter"",""1"",""8948""
","
","","1832.535000052303","","","","real_trial","2021-04-06 03:23:42.388","img/card_backs/set1/green.gif","2","110","1","",""
"casino-fixation","116","517889","0.0-25.0-0.22","A941","false","img/card_backs/set1/purple.gif","img/card_backs/set1/red.gif","img/card_backs/set1/green.gif","img/card_backs/set1/yellow.gif","img/card_backs/set2/blue.gif","img/card_backs/set2/orange.gif","img/card_backs/set2/pink.gif","img/card_backs/set2/gray.gif","""event"",""trial"",""time""
""fullscreenenter"",""1"",""8948""
","
","
","""event"",""trial"",""time""
""fullscreenenter"",""1"",""8948""
","
","","null","","null","","fixation","2021-04-06 03:23:42.894","","","","","",""
"card-selection-trial","117","522635","0.0-25.0-1.22","A941","false","img/card_backs/set1/purple.gif","img/card_backs/set1/red.gif","img/card_backs/set1/green.gif","img/card_backs/set1/yellow.gif","img/card_backs/set2/blue.gif","img/card_backs/set2/orange.gif","img/card_backs/set2/pink.gif","img/card_backs/set2/gray.gif","""event"",""trial"",""time""
""fullscreenenter"",""1"",""8948""
","
","
","""event"",""trial"",""time""
""fullscreenenter"",""1"",""8948""
","
","","2732.1150000207126","","","","real_trial","2021-04-06 03:23:47.641","img/card_backs/set1/red.gif","1","-230","1","",""
"casino-fixation","118","523172","0.0-25.0-0.23","A941","false","img/card_backs/set1/purple.gif","img/card_backs/set1/red.gif","img/card_backs/set1/green.gif","img/card_backs/set1/yellow.gif","img/card_backs/set2/blue.gif","img/card_backs/set2/orange.gif","img/card_backs/set2/pink.gif","img/card_backs/set2/gray.gif","""event"",""trial"",""time""
""fullscreenenter"",""1"",""8948""
","
","
","""event"",""trial"",""time""
""fullscreenenter"",""1"",""8948""
","
","","null","","null","","fixation","2021-04-06 03:23:48.177","","","","","",""
"card-selection-trial","119","527211","0.0-25.0-1.23","A941","false","img/card_backs/set1/purple.gif","img/card_backs/set1/red.gif","img/card_backs/set1/green.gif","img/card_backs/set1/yellow.gif","img/card_backs/set2/blue.gif","img/card_backs/set2/orange.gif","img/card_backs/set2/pink.gif","img/card_backs/set2/gray.gif","""event"",""trial"",""time""
""fullscreenenter"",""1"",""8948""
","
","
","""event"",""trial"",""time""
""fullscreenenter"",""1"",""8948""
","
","","2026.659999974072","","","","real_trial","2021-04-06 03:23:52.216","img/card_backs/set1/yellow.gif","3","-60","1","",""
"casino-fixation","120","527718","0.0-25.0-0.24","A941","false","img/card_backs/set1/purple.gif","img/card_backs/set1/red.gif","img/card_backs/set1/green.gif","img/card_backs/set1/yellow.gif","img/card_backs/set2/blue.gif","img/card_backs/set2/orange.gif","img/card_backs/set2/pink.gif","img/card_backs/set2/gray.gif","""event"",""trial"",""time""
""fullscreenenter"",""1"",""8948""
","
","
","""event"",""trial"",""time""
""fullscreenenter"",""1"",""8948""
","
","","null","","null","","fixation","2021-04-06 03:23:52.723","","","","","",""
"card-selection-trial","121","530223","0.0-25.0-1.24","A941","false","img/card_backs/set1/purple.gif","img/card_backs/set1/red.gif","img/card_backs/set1/green.gif","img/card_backs/set1/yellow.gif","img/card_backs/set2/blue.gif","img/card_backs/set2/orange.gif","img/card_backs/set2/pink.gif","img/card_backs/set2/gray.gif","""event"",""trial"",""time""
""fullscreenenter"",""1"",""8948""
","
","
","""event"",""trial"",""time""
""fullscreenenter"",""1"",""8948""
","
","","482.5399999972433","","","","real_trial","2021-04-06 03:23:55.228","img/card_backs/set1/yellow.gif","3","-70","1","",""
"casino-fixation","122","530729","0.0-25.0-0.25","A941","false","img/card_backs/set1/purple.gif","img/card_backs/set1/red.gif","img/card_backs/set1/green.gif","img/card_backs/set1/yellow.gif","img/card_backs/set2/blue.gif","img/card_backs/set2/orange.gif","img/card_backs/set2/pink.gif","img/card_backs/set2/gray.gif","""event"",""trial"",""time""
""fullscreenenter"",""1"",""8948""
","
","
","""event"",""trial"",""time""
""fullscreenenter"",""1"",""8948""
","
","","null","","null","","fixation","2021-04-06 03:23:55.735","","","","","",""
"card-selection-trial","123","535530","0.0-25.0-1.25","A941","false","img/card_backs/set1/purple.gif","img/card_backs/set1/red.gif","img/card_backs/set1/green.gif","img/card_backs/set1/yellow.gif","img/card_backs/set2/blue.gif","img/card_backs/set2/orange.gif","img/card_backs/set2/pink.gif","img/card_backs/set2/gray.gif","""event"",""trial"",""time""
""fullscreenenter"",""1"",""8948""
","
","
","""event"",""trial"",""time""
""fullscreenenter"",""1"",""8948""
","
","","2785.274999914691","","","","real_trial","2021-04-06 03:24:00.536","img/card_backs/set1/green.gif","0","-50","1","",""
"casino-fixation","124","536036","0.0-25.0-0.26","A941","false","img/card_backs/set1/purple.gif","img/card_backs/set1/red.gif","img/card_backs/set1/green.gif","img/card_backs/set1/yellow.gif","img/card_backs/set2/blue.gif","img/card_backs/set2/orange.gif","img/card_backs/set2/pink.gif","img/card_backs/set2/gray.gif","""event"",""trial"",""time""
""fullscreenenter"",""1"",""8948""
","
","
","""event"",""trial"",""time""
""fullscreenenter"",""1"",""8948""
","
","","null","","null","","fixation","2021-04-06 03:24:01.041","","","","","",""
"card-selection-trial","125","538940","0.0-25.0-1.26","A941","false","img/card_backs/set1/purple.gif","img/card_backs/set1/red.gif","img/card_backs/set1/green.gif","img/card_backs/set1/yellow.gif","img/card_backs/set2/blue.gif","img/card_backs/set2/orange.gif","img/card_backs/set2/pink.gif","img/card_backs/set2/gray.gif","""event"",""trial"",""time""
""fullscreenenter"",""1"",""8948""
","
","
","""event"",""trial"",""time""
""fullscreenenter"",""1"",""8948""
","
","","888.1750002037734","","","","real_trial","2021-04-06 03:24:03.945","img/card_backs/set1/red.gif","2","-250","1","",""
"casino-fixation","126","539448","0.0-25.0-0.27","A941","false","img/card_backs/set1/purple.gif","img/card_backs/set1/red.gif","img/card_backs/set1/green.gif","img/card_backs/set1/yellow.gif","img/card_backs/set2/blue.gif","img/card_backs/set2/orange.gif","img/card_backs/set2/pink.gif","img/card_backs/set2/gray.gif","""event"",""trial"",""time""
""fullscreenenter"",""1"",""8948""
","
","
","""event"",""trial"",""time""
""fullscreenenter"",""1"",""8948""
","
","","null","","null","","fixation","2021-04-06 03:24:04.453","","","","","",""
"card-selection-trial","127","541906","0.0-25.0-1.27","A941","false","img/card_backs/set1/purple.gif","img/card_backs/set1/red.gif","img/card_backs/set1/green.gif","img/card_backs/set1/yellow.gif","img/card_backs/set2/blue.gif","img/card_backs/set2/orange.gif","img/card_backs/set2/pink.gif","img/card_backs/set2/gray.gif","""event"",""trial"",""time""
""fullscreenenter"",""1"",""8948""
","
","
","""event"",""trial"",""time""
""fullscreenenter"",""1"",""8948""
","
","","444.0999999642372","","","","real_trial","2021-04-06 03:24:06.911","img/card_backs/set1/yellow.gif","0","-70","1","",""
"casino-fixation","128","542409","0.0-25.0-0.28","A941","false","img/card_backs/set1/purple.gif","img/card_backs/set1/red.gif","img/card_backs/set1/green.gif","img/card_backs/set1/yellow.gif","img/card_backs/set2/blue.gif","img/card_backs/set2/orange.gif","img/card_backs/set2/pink.gif","img/card_backs/set2/gray.gif","""event"",""trial"",""time""
""fullscreenenter"",""1"",""8948""
","
","
","""event"",""trial"",""time""
""fullscreenenter"",""1"",""8948""
","
","","null","","null","","fixation","2021-04-06 03:24:07.415","","","","","",""
"card-selection-trial","129","546658","0.0-25.0-1.28","A941","false","img/card_backs/set1/purple.gif","img/card_backs/set1/red.gif","img/card_backs/set1/green.gif","img/card_backs/set1/yellow.gif","img/card_backs/set2/blue.gif","img/card_backs/set2/orange.gif","img/card_backs/set2/pink.gif","img/card_backs/set2/gray.gif","""event"",""trial"",""time""
""fullscreenenter"",""1"",""8948""
","
","
","""event"",""trial"",""time""
""fullscreenenter"",""1"",""8948""
","
","","2234.825000166893","","","","real_trial","2021-04-06 03:24:11.663","img/card_backs/set1/green.gif","3","100","1","",""
"casino-fixation","130","547164","0.0-25.0-0.29","A941","false","img/card_backs/set1/purple.gif","img/card_backs/set1/red.gif","img/card_backs/set1/green.gif","img/card_backs/set1/yellow.gif","img/card_backs/set2/blue.gif","img/card_backs/set2/orange.gif","img/card_backs/set2/pink.gif","img/card_backs/set2/gray.gif","""event"",""trial"",""time""
""fullscreenenter"",""1"",""8948""
","
","
","""event"",""trial"",""time""
""fullscreenenter"",""1"",""8948""
","
","","null","","null","","fixation","2021-04-06 03:24:12.170","","","","","",""
"card-selection-trial","131","550193","0.0-25.0-1.29","A941","false","img/card_backs/set1/purple.gif","img/card_backs/set1/red.gif","img/card_backs/set1/green.gif","img/card_backs/set1/yellow.gif","img/card_backs/set2/blue.gif","img/card_backs/set2/orange.gif","img/card_backs/set2/pink.gif","img/card_backs/set2/gray.gif","""event"",""trial"",""time""
""fullscreenenter"",""1"",""8948""
","
","
","""event"",""trial"",""time""
""fullscreenenter"",""1"",""8948""
","
","","1014.1050000675023","","","","real_trial","2021-04-06 03:24:15.198","img/card_backs/set1/green.gif","2","-60","1","",""
"casino-fixation","132","550698","0.0-25.0-0.30","A941","false","img/card_backs/set1/purple.gif","img/card_backs/set1/red.gif","img/card_backs/set1/green.gif","img/card_backs/set1/yellow.gif","img/card_backs/set2/blue.gif","img/card_backs/set2/orange.gif","img/card_backs/set2/pink.gif","img/card_backs/set2/gray.gif","""event"",""trial"",""time""
""fullscreenenter"",""1"",""8948""
","
","
","""event"",""trial"",""time""
""fullscreenenter"",""1"",""8948""
","
","","null","","null","","fixation","2021-04-06 03:24:15.703","","","","","",""
"card-selection-trial","133","553471","0.0-25.0-1.30","A941","false","img/card_backs/set1/purple.gif","img/card_backs/set1/red.gif","img/card_backs/set1/green.gif","img/card_backs/set1/yellow.gif","img/card_backs/set2/blue.gif","img/card_backs/set2/orange.gif","img/card_backs/set2/pink.gif","img/card_backs/set2/gray.gif","""event"",""trial"",""time""
""fullscreenenter"",""1"",""8948""
","
","
","""event"",""trial"",""time""
""fullscreenenter"",""1"",""8948""
","
","","762.7749999519438","","","","real_trial","2021-04-06 03:24:18.476","img/card_backs/set1/green.gif","3","-50","1","",""
"casino-fixation","134","553986","0.0-25.0-0.31","A941","false","img/card_backs/set1/purple.gif","img/card_backs/set1/red.gif","img/card_backs/set1/green.gif","img/card_backs/set1/yellow.gif","img/card_backs/set2/blue.gif","img/card_backs/set2/orange.gif","img/card_backs/set2/pink.gif","img/card_backs/set2/gray.gif","""event"",""trial"",""time""
""fullscreenenter"",""1"",""8948""
","
","
","""event"",""trial"",""time""
""fullscreenenter"",""1"",""8948""
","
","","null","","null","","fixation","2021-04-06 03:24:18.991","","","","","",""
"card-selection-trial","135","556965","0.0-25.0-1.31","A941","false","img/card_backs/set1/purple.gif","img/card_backs/set1/red.gif","img/card_backs/set1/green.gif","img/card_backs/set1/yellow.gif","img/card_backs/set2/blue.gif","img/card_backs/set2/orange.gif","img/card_backs/set2/pink.gif","img/card_backs/set2/gray.gif","""event"",""trial"",""time""
""fullscreenenter"",""1"",""8948""
","
","
","""event"",""trial"",""time""
""fullscreenenter"",""1"",""8948""
","
","","957.2650000918657","","","","real_trial","2021-04-06 03:24:21.970","img/card_backs/set1/yellow.gif","2","100","1","",""
"casino-fixation","136","557469","0.0-25.0-0.32","A941","false","img/card_backs/set1/purple.gif","img/card_backs/set1/red.gif","img/card_backs/set1/green.gif","img/card_backs/set1/yellow.gif","img/card_backs/set2/blue.gif","img/card_backs/set2/orange.gif","img/card_backs/set2/pink.gif","img/card_backs/set2/gray.gif","""event"",""trial"",""time""
""fullscreenenter"",""1"",""8948""
","
","
","""event"",""trial"",""time""
""fullscreenenter"",""1"",""8948""
","
","","null","","null","","fixation","2021-04-06 03:24:22.474","","","","","",""
"card-selection-trial","137","560808","0.0-25.0-1.32","A941","false","img/card_backs/set1/purple.gif","img/card_backs/set1/red.gif","img/card_backs/set1/green.gif","img/card_backs/set1/yellow.gif","img/card_backs/set2/blue.gif","img/card_backs/set2/orange.gif","img/card_backs/set2/pink.gif","img/card_backs/set2/gray.gif","""event"",""trial"",""time""
""fullscreenenter"",""1"",""8948""
","
","
","""event"",""trial"",""time""
""fullscreenenter"",""1"",""8948""
","
","","1325.474999845028","","","","real_trial","2021-04-06 03:24:25.813","img/card_backs/set1/purple.gif","0","-240","1","",""
"casino-fixation","138","561313","0.0-25.0-0.33","A941","false","img/card_backs/set1/purple.gif","img/card_backs/set1/red.gif","img/card_backs/set1/green.gif","img/card_backs/set1/yellow.gif","img/card_backs/set2/blue.gif","img/card_backs/set2/orange.gif","img/card_backs/set2/pink.gif","img/card_backs/set2/gray.gif","""event"",""trial"",""time""
""fullscreenenter"",""1"",""8948""
","
","
","""event"",""trial"",""time""
""fullscreenenter"",""1"",""8948""
","
","","null","","null","","fixation","2021-04-06 03:24:26.318","","","","","",""
"card-selection-trial","139","563770","0.0-25.0-1.33","A941","false","img/card_backs/set1/purple.gif","img/card_backs/set1/red.gif","img/card_backs/set1/green.gif","img/card_backs/set1/yellow.gif","img/card_backs/set2/blue.gif","img/card_backs/set2/orange.gif","img/card_backs/set2/pink.gif","img/card_backs/set2/gray.gif","""event"",""trial"",""time""
""fullscreenenter"",""1"",""8948""
","
","
","""event"",""trial"",""time""
""fullscreenenter"",""1"",""8948""
","
","","442.9300001356751","","","","real_trial","2021-04-06 03:24:28.775","img/card_backs/set1/yellow.gif","0","-70","1","",""
"casino-fixation","140","564277","0.0-25.0-0.34","A941","false","img/card_backs/set1/purple.gif","img/card_backs/set1/red.gif","img/card_backs/set1/green.gif","img/card_backs/set1/yellow.gif","img/card_backs/set2/blue.gif","img/card_backs/set2/orange.gif","img/card_backs/set2/pink.gif","img/card_backs/set2/gray.gif","""event"",""trial"",""time""
""fullscreenenter"",""1"",""8948""
","
","
","""event"",""trial"",""time""
""fullscreenenter"",""1"",""8948""
","
","","null","","null","","fixation","2021-04-06 03:24:29.282","","","","","",""
"card-selection-trial","141","567191","0.0-25.0-1.34","A941","false","img/card_backs/set1/purple.gif","img/card_backs/set1/red.gif","img/card_backs/set1/green.gif","img/card_backs/set1/yellow.gif","img/card_backs/set2/blue.gif","img/card_backs/set2/orange.gif","img/card_backs/set2/pink.gif","img/card_backs/set2/gray.gif","""event"",""trial"",""time""
""fullscreenenter"",""1"",""8948""
","
","
","""event"",""trial"",""time""
""fullscreenenter"",""1"",""8948""
","
","","900.2149999141693","","","","real_trial","2021-04-06 03:24:32.196","img/card_backs/set1/red.gif","1","190","1","",""
"casino-fixation","142","567696","0.0-25.0-0.35","A941","false","img/card_backs/set1/purple.gif","img/card_backs/set1/red.gif","img/card_backs/set1/green.gif","img/card_backs/set1/yellow.gif","img/card_backs/set2/blue.gif","img/card_backs/set2/orange.gif","img/card_backs/set2/pink.gif","img/card_backs/set2/gray.gif","""event"",""trial"",""time""
""fullscreenenter"",""1"",""8948""
","
","
","""event"",""trial"",""time""
""fullscreenenter"",""1"",""8948""
","
","","null","","null","","fixation","2021-04-06 03:24:32.701","","","","","",""
"card-selection-trial","143","570747","0.0-25.0-1.35","A941","false","img/card_backs/set1/purple.gif","img/card_backs/set1/red.gif","img/card_backs/set1/green.gif","img/card_backs/set1/yellow.gif","img/card_backs/set2/blue.gif","img/card_backs/set2/orange.gif","img/card_backs/set2/pink.gif","img/card_backs/set2/gray.gif","""event"",""trial"",""time""
""fullscreenenter"",""1"",""8948""
","
","
","""event"",""trial"",""time""
""fullscreenenter"",""1"",""8948""
","
","","1037.2050001751631","","","","real_trial","2021-04-06 03:24:35.752","img/card_backs/set1/yellow.gif","0","-70","1","",""
"casino-fixation","144","571253","0.0-25.0-0.36","A941","false","img/card_backs/set1/purple.gif","img/card_backs/set1/red.gif","img/card_backs/set1/green.gif","img/card_backs/set1/yellow.gif","img/card_backs/set2/blue.gif","img/card_backs/set2/orange.gif","img/card_backs/set2/pink.gif","img/card_backs/set2/gray.gif","""event"",""trial"",""time""
""fullscreenenter"",""1"",""8948""
","
","
","""event"",""trial"",""time""
""fullscreenenter"",""1"",""8948""
","
","","null","","null","","fixation","2021-04-06 03:24:36.258","","","","","",""
"card-selection-trial","145","575079","0.0-25.0-1.36","A941","false","img/card_backs/set1/purple.gif","img/card_backs/set1/red.gif","img/card_backs/set1/green.gif","img/card_backs/set1/yellow.gif","img/card_backs/set2/blue.gif","img/card_backs/set2/orange.gif","img/card_backs/set2/pink.gif","img/card_backs/set2/gray.gif","""event"",""trial"",""time""
""fullscreenenter"",""1"",""8948""
","
","
","""event"",""trial"",""time""
""fullscreenenter"",""1"",""8948""
","
","","1812.459999928251","","","","real_trial","2021-04-06 03:24:40.084","img/card_backs/set1/purple.gif","1","-250","1","",""
"casino-fixation","146","575587","0.0-25.0-0.37","A941","false","img/card_backs/set1/purple.gif","img/card_backs/set1/red.gif","img/card_backs/set1/green.gif","img/card_backs/set1/yellow.gif","img/card_backs/set2/blue.gif","img/card_backs/set2/orange.gif","img/card_backs/set2/pink.gif","img/card_backs/set2/gray.gif","""event"",""trial"",""time""
""fullscreenenter"",""1"",""8948""
","
","
","""event"",""trial"",""time""
""fullscreenenter"",""1"",""8948""
","
","","null","","null","","fixation","2021-04-06 03:24:40.593","","","","","",""
"card-selection-trial","147","578332","0.0-25.0-1.37","A941","false","img/card_backs/set1/purple.gif","img/card_backs/set1/red.gif","img/card_backs/set1/green.gif","img/card_backs/set1/yellow.gif","img/card_backs/set2/blue.gif","img/card_backs/set2/orange.gif","img/card_backs/set2/pink.gif","img/card_backs/set2/gray.gif","""event"",""trial"",""time""
""fullscreenenter"",""1"",""8948""
","
","
","""event"",""trial"",""time""
""fullscreenenter"",""1"",""8948""
","
","","729.0100001264364","","","","real_trial","2021-04-06 03:24:43.337","img/card_backs/set1/yellow.gif","1","120","1","",""
"casino-fixation","148","578838","0.0-25.0-0.38","A941","false","img/card_backs/set1/purple.gif","img/card_backs/set1/red.gif","img/card_backs/set1/green.gif","img/card_backs/set1/yellow.gif","img/card_backs/set2/blue.gif","img/card_backs/set2/orange.gif","img/card_backs/set2/pink.gif","img/card_backs/set2/gray.gif","""event"",""trial"",""time""
""fullscreenenter"",""1"",""8948""
","
","
","""event"",""trial"",""time""
""fullscreenenter"",""1"",""8948""
","
","","null","","null","","fixation","2021-04-06 03:24:43.843","","","","","",""
"card-selection-trial","149","582456","0.0-25.0-1.38","A941","false","img/card_backs/set1/purple.gif","img/card_backs/set1/red.gif","img/card_backs/set1/green.gif","img/card_backs/set1/yellow.gif","img/card_backs/set2/blue.gif","img/card_backs/set2/orange.gif","img/card_backs/set2/pink.gif","img/card_backs/set2/gray.gif","""event"",""trial"",""time""
""fullscreenenter"",""1"",""8948""
","
","
","""event"",""trial"",""time""
""fullscreenenter"",""1"",""8948""
","
","","1604.289999930188","","","","real_trial","2021-04-06 03:24:47.461","img/card_backs/set1/yellow.gif","2","-70","1","",""
"casino-fixation","150","582963","0.0-25.0-0.39","A941","false","img/card_backs/set1/purple.gif","img/card_backs/set1/red.gif","img/card_backs/set1/green.gif","img/card_backs/set1/yellow.gif","img/card_backs/set2/blue.gif","img/card_backs/set2/orange.gif","img/card_backs/set2/pink.gif","img/card_backs/set2/gray.gif","""event"",""trial"",""time""
""fullscreenenter"",""1"",""8948""
","
","
","""event"",""trial"",""time""
""fullscreenenter"",""1"",""8948""
","
","","null","","null","","fixation","2021-04-06 03:24:47.968","","","","","",""
"card-selection-trial","151","588454","0.0-25.0-1.39","A941","false","img/card_backs/set1/purple.gif","img/card_backs/set1/red.gif","img/card_backs/set1/green.gif","img/card_backs/set1/yellow.gif","img/card_backs/set2/blue.gif","img/card_backs/set2/orange.gif","img/card_backs/set2/pink.gif","img/card_backs/set2/gray.gif","""event"",""trial"",""time""
""fullscreenenter"",""1"",""8948""
","
","
","""event"",""trial"",""time""
""fullscreenenter"",""1"",""8948""
","
","","3476.164999883622","","","","real_trial","2021-04-06 03:24:53.459","img/card_backs/set1/green.gif","2","100","1","",""
"casino-fixation","152","588963","0.0-25.0-0.40","A941","false","img/card_backs/set1/purple.gif","img/card_backs/set1/red.gif","img/card_backs/set1/green.gif","img/card_backs/set1/yellow.gif","img/card_backs/set2/blue.gif","img/card_backs/set2/orange.gif","img/card_backs/set2/pink.gif","img/card_backs/set2/gray.gif","""event"",""trial"",""time""
""fullscreenenter"",""1"",""8948""
","
","
","""event"",""trial"",""time""
""fullscreenenter"",""1"",""8948""
","
","","null","","null","","fixation","2021-04-06 03:24:53.968","","","","","",""
"card-selection-trial","153","593243","0.0-25.0-1.40","A941","false","img/card_backs/set1/purple.gif","img/card_backs/set1/red.gif","img/card_backs/set1/green.gif","img/card_backs/set1/yellow.gif","img/card_backs/set2/blue.gif","img/card_backs/set2/orange.gif","img/card_backs/set2/pink.gif","img/card_backs/set2/gray.gif","""event"",""trial"",""time""
""fullscreenenter"",""1"",""8948""
","
","
","""event"",""trial"",""time""
""fullscreenenter"",""1"",""8948""
","
","","2269.1899999044836","","","","real_trial","2021-04-06 03:24:58.248","img/card_backs/set1/green.gif","1","120","1","",""
"casino-fixation","154","593750","0.0-25.0-0.41","A941","false","img/card_backs/set1/purple.gif","img/card_backs/set1/red.gif","img/card_backs/set1/green.gif","img/card_backs/set1/yellow.gif","img/card_backs/set2/blue.gif","img/card_backs/set2/orange.gif","img/card_backs/set2/pink.gif","img/card_backs/set2/gray.gif","""event"",""trial"",""time""
""fullscreenenter"",""1"",""8948""
","
","
","""event"",""trial"",""time""
""fullscreenenter"",""1"",""8948""
","
","","null","","null","","fixation","2021-04-06 03:24:58.755","","","","","",""
"card-selection-trial","155","596579","0.0-25.0-1.41","A941","false","img/card_backs/set1/purple.gif","img/card_backs/set1/red.gif","img/card_backs/set1/green.gif","img/card_backs/set1/yellow.gif","img/card_backs/set2/blue.gif","img/card_backs/set2/orange.gif","img/card_backs/set2/pink.gif","img/card_backs/set2/gray.gif","""event"",""trial"",""time""
""fullscreenenter"",""1"",""8948""
","
","
","""event"",""trial"",""time""
""fullscreenenter"",""1"",""8948""
","
","","813.5750000365078","","","","real_trial","2021-04-06 03:25:01.584","img/card_backs/set1/green.gif","3","100","1","",""
"casino-fixation","156","597084","0.0-25.0-0.42","A941","false","img/card_backs/set1/purple.gif","img/card_backs/set1/red.gif","img/card_backs/set1/green.gif","img/card_backs/set1/yellow.gif","img/card_backs/set2/blue.gif","img/card_backs/set2/orange.gif","img/card_backs/set2/pink.gif","img/card_backs/set2/gray.gif","""event"",""trial"",""time""
""fullscreenenter"",""1"",""8948""
","
","
","""event"",""trial"",""time""
""fullscreenenter"",""1"",""8948""
","
","","null","","null","","fixation","2021-04-06 03:25:02.090","","","","","",""
"card-selection-trial","157","599671","0.0-25.0-1.42","A941","false","img/card_backs/set1/purple.gif","img/card_backs/set1/red.gif","img/card_backs/set1/green.gif","img/card_backs/set1/yellow.gif","img/card_backs/set2/blue.gif","img/card_backs/set2/orange.gif","img/card_backs/set2/pink.gif","img/card_backs/set2/gray.gif","""event"",""trial"",""time""
""fullscreenenter"",""1"",""8948""
","
","
","""event"",""trial"",""time""
""fullscreenenter"",""1"",""8948""
","
","","566.5850001387298","","","","real_trial","2021-04-06 03:25:04.676","img/card_backs/set1/green.gif","1","-70","1","",""
"casino-fixation","158","600177","0.0-25.0-0.43","A941","false","img/card_backs/set1/purple.gif","img/card_backs/set1/red.gif","img/card_backs/set1/green.gif","img/card_backs/set1/yellow.gif","img/card_backs/set2/blue.gif","img/card_backs/set2/orange.gif","img/card_backs/set2/pink.gif","img/card_backs/set2/gray.gif","""event"",""trial"",""time""
""fullscreenenter"",""1"",""8948""
","
","
","""event"",""trial"",""time""
""fullscreenenter"",""1"",""8948""
","
","","null","","null","","fixation","2021-04-06 03:25:05.182","","","","","",""
"card-selection-trial","159","603452","0.0-25.0-1.43","A941","false","img/card_backs/set1/purple.gif","img/card_backs/set1/red.gif","img/card_backs/set1/green.gif","img/card_backs/set1/yellow.gif","img/card_backs/set2/blue.gif","img/card_backs/set2/orange.gif","img/card_backs/set2/pink.gif","img/card_backs/set2/gray.gif","""event"",""trial"",""time""
""fullscreenenter"",""1"",""8948""
","
","
","""event"",""trial"",""time""
""fullscreenenter"",""1"",""8948""
","
","","1259.535000193864","","","","real_trial","2021-04-06 03:25:08.457","img/card_backs/set1/green.gif","1","110","1","",""
"casino-fixation","160","603957","0.0-25.0-0.44","A941","false","img/card_backs/set1/purple.gif","img/card_backs/set1/red.gif","img/card_backs/set1/green.gif","img/card_backs/set1/yellow.gif","img/card_backs/set2/blue.gif","img/card_backs/set2/orange.gif","img/card_backs/set2/pink.gif","img/card_backs/set2/gray.gif","""event"",""trial"",""time""
""fullscreenenter"",""1"",""8948""
","
","
","""event"",""trial"",""time""
""fullscreenenter"",""1"",""8948""
","
","","null","","null","","fixation","2021-04-06 03:25:08.962","","","","","",""
"card-selection-trial","161","606549","0.0-25.0-1.44","A941","false","img/card_backs/set1/purple.gif","img/card_backs/set1/red.gif","img/card_backs/set1/green.gif","img/card_backs/set1/yellow.gif","img/card_backs/set2/blue.gif","img/card_backs/set2/orange.gif","img/card_backs/set2/pink.gif","img/card_backs/set2/gray.gif","""event"",""trial"",""time""
""fullscreenenter"",""1"",""8948""
","
","
","""event"",""trial"",""time""
""fullscreenenter"",""1"",""8948""
","
","","574.8450001701713","","","","real_trial","2021-04-06 03:25:11.554","img/card_backs/set1/green.gif","3","120","1","",""
"casino-fixation","162","607055","0.0-25.0-0.45","A941","false","img/card_backs/set1/purple.gif","img/card_backs/set1/red.gif","img/card_backs/set1/green.gif","img/card_backs/set1/yellow.gif","img/card_backs/set2/blue.gif","img/card_backs/set2/orange.gif","img/card_backs/set2/pink.gif","img/card_backs/set2/gray.gif","""event"",""trial"",""time""
""fullscreenenter"",""1"",""8948""
","
","
","""event"",""trial"",""time""
""fullscreenenter"",""1"",""8948""
","
","","null","","null","","fixation","2021-04-06 03:25:12.060","","","","","",""
"card-selection-trial","163","609489","0.0-25.0-1.45","A941","false","img/card_backs/set1/purple.gif","img/card_backs/set1/red.gif","img/card_backs/set1/green.gif","img/card_backs/set1/yellow.gif","img/card_backs/set2/blue.gif","img/card_backs/set2/orange.gif","img/card_backs/set2/pink.gif","img/card_backs/set2/gray.gif","""event"",""trial"",""time""
""fullscreenenter"",""1"",""8948""
","
","
","""event"",""trial"",""time""
""fullscreenenter"",""1"",""8948""
","
","","418.1150000076741","","","","real_trial","2021-04-06 03:25:14.494","img/card_backs/set1/green.gif","3","-60","1","",""
"casino-fixation","164","609993","0.0-25.0-0.46","A941","false","img/card_backs/set1/purple.gif","img/card_backs/set1/red.gif","img/card_backs/set1/green.gif","img/card_backs/set1/yellow.gif","img/card_backs/set2/blue.gif","img/card_backs/set2/orange.gif","img/card_backs/set2/pink.gif","img/card_backs/set2/gray.gif","""event"",""trial"",""time""
""fullscreenenter"",""1"",""8948""
","
","
","""event"",""trial"",""time""
""fullscreenenter"",""1"",""8948""
","
","","null","","null","","fixation","2021-04-06 03:25:14.998","","","","","",""
"card-selection-trial","165","613144","0.0-25.0-1.46","A941","false","img/card_backs/set1/purple.gif","img/card_backs/set1/red.gif","img/card_backs/set1/green.gif","img/card_backs/set1/yellow.gif","img/card_backs/set2/blue.gif","img/card_backs/set2/orange.gif","img/card_backs/set2/pink.gif","img/card_backs/set2/gray.gif","""event"",""trial"",""time""
""fullscreenenter"",""1"",""8948""
","
","
","""event"",""trial"",""time""
""fullscreenenter"",""1"",""8948""
","
","","1135.8500001952052","","","","real_trial","2021-04-06 03:25:18.149","img/card_backs/set1/green.gif","2","-60","1","",""
"casino-fixation","166","613650","0.0-25.0-0.47","A941","false","img/card_backs/set1/purple.gif","img/card_backs/set1/red.gif","img/card_backs/set1/green.gif","img/card_backs/set1/yellow.gif","img/card_backs/set2/blue.gif","img/card_backs/set2/orange.gif","img/card_backs/set2/pink.gif","img/card_backs/set2/gray.gif","""event"",""trial"",""time""
""fullscreenenter"",""1"",""8948""
","
","
","""event"",""trial"",""time""
""fullscreenenter"",""1"",""8948""
","
","","null","","null","","fixation","2021-04-06 03:25:18.655","","","","","",""
