"trial_type","trial_index","time_elapsed","internal_node_id","sub_id","risk_good_first","block1_A","block1_B","block1_C","block1_D","block2_A","block2_B","block2_C","block2_D","interactions","blur_events","focus_events","fullscreenenter_events","fullscreenexit_events","success","rt","stimulus","key_press","button_pressed","task_part","timestamp","card_choice","choice_position","points_earned","block","correct","response"
"pavlovia","0","5","0.0-0.0","A476","false","img/card_backs/set1/green.gif","img/card_backs/set1/yellow.gif","img/card_backs/set1/purple.gif","img/card_backs/set1/red.gif","img/card_backs/set2/blue.gif","img/card_backs/set2/orange.gif","img/card_backs/set2/gray.gif","img/card_backs/set2/pink.gif","""event"",""trial"",""time""
""fullscreenenter"",""1"",""3253""
","
","
","""event"",""trial"",""time""
""fullscreenenter"",""1"",""3253""
","
","","","","","","","","","","","","",""
"fullscreen","1","4243","0.0-1.0","A476","false","img/card_backs/set1/green.gif","img/card_backs/set1/yellow.gif","img/card_backs/set1/purple.gif","img/card_backs/set1/red.gif","img/card_backs/set2/blue.gif","img/card_backs/set2/orange.gif","img/card_backs/set2/gray.gif","img/card_backs/set2/pink.gif","""event"",""trial"",""time""
""fullscreenenter"",""1"",""3253""
","
","
","""event"",""trial"",""time""
""fullscreenenter"",""1"",""3253""
","
","true","","","","","","","","","","","",""
"audio-keyboard-response","2","10394","0.0-2.0","A476","false","img/card_backs/set1/green.gif","img/card_backs/set1/yellow.gif","img/card_backs/set1/purple.gif","img/card_backs/set1/red.gif","img/card_backs/set2/blue.gif","img/card_backs/set2/orange.gif","img/card_backs/set2/gray.gif","img/card_backs/set2/pink.gif","""event"",""trial"",""time""
""fullscreenenter"",""1"",""3253""
","
","
","""event"",""trial"",""time""
""fullscreenenter"",""1"",""3253""
","
","","6031","audio/beep_loop.wav","32","","","","","","","","",""
"audio-button-response","3","13530","0.0-3.0","A476","false","img/card_backs/set1/green.gif","img/card_backs/set1/yellow.gif","img/card_backs/set1/purple.gif","img/card_backs/set1/red.gif","img/card_backs/set2/blue.gif","img/card_backs/set2/orange.gif","img/card_backs/set2/gray.gif","img/card_backs/set2/pink.gif","""event"",""trial"",""time""
""fullscreenenter"",""1"",""3253""
","
","
","""event"",""trial"",""time""
""fullscreenenter"",""1"",""3253""
","
","","NaN","audio/turtle.mp3","","3","","","","","","","",""
"audio-button-response","4","15958","0.0-4.0","A476","false","img/card_backs/set1/green.gif","img/card_backs/set1/yellow.gif","img/card_backs/set1/purple.gif","img/card_backs/set1/red.gif","img/card_backs/set2/blue.gif","img/card_backs/set2/orange.gif","img/card_backs/set2/gray.gif","img/card_backs/set2/pink.gif","""event"",""trial"",""time""
""fullscreenenter"",""1"",""3253""
","
","
","""event"",""trial"",""time""
""fullscreenenter"",""1"",""3253""
","
","","NaN","audio/shark.mp3","","2","","","","","","","",""
"fullscreen","5","19681","0.0-5.0","A476","false","img/card_backs/set1/green.gif","img/card_backs/set1/yellow.gif","img/card_backs/set1/purple.gif","img/card_backs/set1/red.gif","img/card_backs/set2/blue.gif","img/card_backs/set2/orange.gif","img/card_backs/set2/gray.gif","img/card_backs/set2/pink.gif","""event"",""trial"",""time""
""fullscreenenter"",""1"",""3253""
","
","
","""event"",""trial"",""time""
""fullscreenenter"",""1"",""3253""
","
","true","","","","","","","","","","","",""
"casino-keyboard-response","6","23452","0.0-6.0-0.0","A476","false","img/card_backs/set1/green.gif","img/card_backs/set1/yellow.gif","img/card_backs/set1/purple.gif","img/card_backs/set1/red.gif","img/card_backs/set2/blue.gif","img/card_backs/set2/orange.gif","img/card_backs/set2/gray.gif","img/card_backs/set2/pink.gif","""event"",""trial"",""time""
""fullscreenenter"",""1"",""3253""
","
","
","""event"",""trial"",""time""
""fullscreenenter"",""1"",""3253""
","
","","3766.369999968447","Welcome to the casino!","71","","instructions","2021-07-02 17:30:47.294","","","","","",""
"casino-keyboard-response","7","33923","0.0-6.0-0.1","A476","false","img/card_backs/set1/green.gif","img/card_backs/set1/yellow.gif","img/card_backs/set1/purple.gif","img/card_backs/set1/red.gif","img/card_backs/set2/blue.gif","img/card_backs/set2/orange.gif","img/card_backs/set2/gray.gif","img/card_backs/set2/pink.gif","""event"",""trial"",""time""
""fullscreenenter"",""1"",""3253""
","
","
","""event"",""trial"",""time""
""fullscreenenter"",""1"",""3253""
","
","","10468.989999964833","Today you will be playing a game to earn tokens. </br> At the end of the experiment, you will be paid a bonus based on how many tokens you win. ","69","","instructions","2021-07-02 17:30:57.765","","","","","",""
"casino-keyboard-response","8","41930","0.0-6.0-0.2","A476","false","img/card_backs/set1/green.gif","img/card_backs/set1/yellow.gif","img/card_backs/set1/purple.gif","img/card_backs/set1/red.gif","img/card_backs/set2/blue.gif","img/card_backs/set2/orange.gif","img/card_backs/set2/gray.gif","img/card_backs/set2/pink.gif","""event"",""trial"",""time""
""fullscreenenter"",""1"",""3253""
","
","
","""event"",""trial"",""time""
""fullscreenenter"",""1"",""3253""
","
","","8003.8900000508875","On every turn, you will be shown four different decks of cards. </br> You need to select a card from one of the four decks.  ","75","","instructions","2021-07-02 17:31:05.772","","","","","",""
"casino-keyboard-response","9","47416","0.0-6.0-0.3","A476","false","img/card_backs/set1/green.gif","img/card_backs/set1/yellow.gif","img/card_backs/set1/purple.gif","img/card_backs/set1/red.gif","img/card_backs/set2/blue.gif","img/card_backs/set2/orange.gif","img/card_backs/set2/gray.gif","img/card_backs/set2/pink.gif","""event"",""trial"",""time""
""fullscreenenter"",""1"",""3253""
","
","
","""event"",""trial"",""time""
""fullscreenenter"",""1"",""3253""
","
","","5482.7900000382215","On the next screen, you will see what the decks will look like. ","66","","instructions","2021-07-02 17:31:11.258","","","","","",""
"card-selection-trial","10","51422","0.0-7.0-0.0","A476","false","img/card_backs/set1/green.gif","img/card_backs/set1/yellow.gif","img/card_backs/set1/purple.gif","img/card_backs/set1/red.gif","img/card_backs/set2/blue.gif","img/card_backs/set2/orange.gif","img/card_backs/set2/gray.gif","img/card_backs/set2/pink.gif","""event"",""trial"",""time""
""fullscreenenter"",""1"",""3253""
","
","
","""event"",""trial"",""time""
""fullscreenenter"",""1"",""3253""
","
","","null","","","","practice","2021-07-02 17:31:15.264","null","null","null","0","",""
"casino-keyboard-response","11","60346","0.0-8.0-0.0","A476","false","img/card_backs/set1/green.gif","img/card_backs/set1/yellow.gif","img/card_backs/set1/purple.gif","img/card_backs/set1/red.gif","img/card_backs/set2/blue.gif","img/card_backs/set2/orange.gif","img/card_backs/set2/gray.gif","img/card_backs/set2/pink.gif","""event"",""trial"",""time""
""fullscreenenter"",""1"",""3253""
","
","
","""event"",""trial"",""time""
""fullscreenenter"",""1"",""3253""
","
","","8921.519999974407","You should pick a card from a deck using the '2', '4', '6', and '8' keys at the top of the keyboard.","85","","instructions","2021-07-02 17:31:24.188","","","","","",""
"casino-keyboard-response","12","65877","0.0-8.0-0.1","A476","false","img/card_backs/set1/green.gif","img/card_backs/set1/yellow.gif","img/card_backs/set1/purple.gif","img/card_backs/set1/red.gif","img/card_backs/set2/blue.gif","img/card_backs/set2/orange.gif","img/card_backs/set2/gray.gif","img/card_backs/set2/pink.gif","""event"",""trial"",""time""
""fullscreenenter"",""1"",""3253""
","
","
","""event"",""trial"",""time""
""fullscreenenter"",""1"",""3253""
","
","","5527.8449999168515","Once you select a card, it will turn over and you will see how many tokens you earned.","83","","instructions","2021-07-02 17:31:29.719","","","","","",""
"casino-keyboard-response","13","80549","0.0-8.0-0.2","A476","false","img/card_backs/set1/green.gif","img/card_backs/set1/yellow.gif","img/card_backs/set1/purple.gif","img/card_backs/set1/red.gif","img/card_backs/set2/blue.gif","img/card_backs/set2/orange.gif","img/card_backs/set2/gray.gif","img/card_backs/set2/pink.gif","""event"",""trial"",""time""
""fullscreenenter"",""1"",""3253""
","
","
","""event"",""trial"",""time""
""fullscreenenter"",""1"",""3253""
","
","","14668.759999913163","Let's try practicing that! </br> First, try to put your fingers over the '2', '4', '6', and '8' keys. </br>  You can use whatever fingers are most comfortable for you. Try to find a comfortable position now. ","50","","instructions","2021-07-02 17:31:44.391","","","","","",""
"casino-keyboard-response","14","86505","0.0-8.0-0.3","A476","false","img/card_backs/set1/green.gif","img/card_backs/set1/yellow.gif","img/card_backs/set1/purple.gif","img/card_backs/set1/red.gif","img/card_backs/set2/blue.gif","img/card_backs/set2/orange.gif","img/card_backs/set2/gray.gif","img/card_backs/set2/pink.gif","""event"",""trial"",""time""
""fullscreenenter"",""1"",""3253""
","
","
","""event"",""trial"",""time""
""fullscreenenter"",""1"",""3253""
","
","","5952.374999993481","Okay ready? </br> On the next screen, press '2' to select the left deck. ","50","","instructions","2021-07-02 17:31:50.347","","","","","",""
"card-selection-trial","15","89237","0.0-9.0-0.0","A476","false","img/card_backs/set1/green.gif","img/card_backs/set1/yellow.gif","img/card_backs/set1/purple.gif","img/card_backs/set1/red.gif","img/card_backs/set2/blue.gif","img/card_backs/set2/orange.gif","img/card_backs/set2/gray.gif","img/card_backs/set2/pink.gif","""event"",""trial"",""time""
""fullscreenenter"",""1"",""3253""
","
","
","""event"",""trial"",""time""
""fullscreenenter"",""1"",""3253""
","
","","704.9150000093505","","","","practice_card_selection","2021-07-02 17:31:53.079","img/practice_cards/backs/dark_blue.gif","0","-200","","",""
"casino-keyboard-response","16","94791","0.0-10.0-0.0","A476","false","img/card_backs/set1/green.gif","img/card_backs/set1/yellow.gif","img/card_backs/set1/purple.gif","img/card_backs/set1/red.gif","img/card_backs/set2/blue.gif","img/card_backs/set2/orange.gif","img/card_backs/set2/gray.gif","img/card_backs/set2/pink.gif","""event"",""trial"",""time""
""fullscreenenter"",""1"",""3253""
","
","
","""event"",""trial"",""time""
""fullscreenenter"",""1"",""3253""
","
","","5551.8600000068545","Great! Now on the next screen, try pressing '6' to select the third deck.","54","","instructions","2021-07-02 17:31:58.633","","","","","",""
"card-selection-trial","17","97712","0.0-11.0-0.0","A476","false","img/card_backs/set1/green.gif","img/card_backs/set1/yellow.gif","img/card_backs/set1/purple.gif","img/card_backs/set1/red.gif","img/card_backs/set2/blue.gif","img/card_backs/set2/orange.gif","img/card_backs/set2/gray.gif","img/card_backs/set2/pink.gif","""event"",""trial"",""time""
""fullscreenenter"",""1"",""3253""
","
","
","""event"",""trial"",""time""
""fullscreenenter"",""1"",""3253""
","
","","907.3799999896437","","","","practice_card_selection","2021-07-02 17:32:01.554","img/practice_cards/backs/brown.gif","2","100","","",""
"casino-keyboard-response","18","102397","0.0-12.0-0.0","A476","false","img/card_backs/set1/green.gif","img/card_backs/set1/yellow.gif","img/card_backs/set1/purple.gif","img/card_backs/set1/red.gif","img/card_backs/set2/blue.gif","img/card_backs/set2/orange.gif","img/card_backs/set2/gray.gif","img/card_backs/set2/pink.gif","""event"",""trial"",""time""
""fullscreenenter"",""1"",""3253""
","
","
","""event"",""trial"",""time""
""fullscreenenter"",""1"",""3253""
","
","","4682.444999925792","Now on the next screen, try pressing '4' to select the second deck.","52","","instructions","2021-07-02 17:32:06.239","","","","","",""
"card-selection-trial","19","104864","0.0-13.0-0.0","A476","false","img/card_backs/set1/green.gif","img/card_backs/set1/yellow.gif","img/card_backs/set1/purple.gif","img/card_backs/set1/red.gif","img/card_backs/set2/blue.gif","img/card_backs/set2/orange.gif","img/card_backs/set2/gray.gif","img/card_backs/set2/pink.gif","""event"",""trial"",""time""
""fullscreenenter"",""1"",""3253""
","
","
","""event"",""trial"",""time""
""fullscreenenter"",""1"",""3253""
","
","","456.50500000920147","","","","practice_card_selection","2021-07-02 17:32:08.706","img/practice_cards/backs/dark_green.gif","1","-200","","",""
"casino-keyboard-response","20","109266","0.0-14.0-0.0","A476","false","img/card_backs/set1/green.gif","img/card_backs/set1/yellow.gif","img/card_backs/set1/purple.gif","img/card_backs/set1/red.gif","img/card_backs/set2/blue.gif","img/card_backs/set2/orange.gif","img/card_backs/set2/gray.gif","img/card_backs/set2/pink.gif","""event"",""trial"",""time""
""fullscreenenter"",""1"",""3253""
","
","
","""event"",""trial"",""time""
""fullscreenenter"",""1"",""3253""
","
","","4399.949999991804","Finally, try pressing '8' to select the deck all the way on the right.","56","","instructions","2021-07-02 17:32:13.108","","","","","",""
"card-selection-trial","21","111923","0.0-15.0-0.0","A476","false","img/card_backs/set1/green.gif","img/card_backs/set1/yellow.gif","img/card_backs/set1/purple.gif","img/card_backs/set1/red.gif","img/card_backs/set2/blue.gif","img/card_backs/set2/orange.gif","img/card_backs/set2/gray.gif","img/card_backs/set2/pink.gif","""event"",""trial"",""time""
""fullscreenenter"",""1"",""3253""
","
","
","""event"",""trial"",""time""
""fullscreenenter"",""1"",""3253""
","
","","647.4399999715388","","","","practice_card_selection","2021-07-02 17:32:15.765","img/practice_cards/backs/brown.gif","3","-100","","",""
"casino-keyboard-response","22","116724","0.0-16.0-0.0","A476","false","img/card_backs/set1/green.gif","img/card_backs/set1/yellow.gif","img/card_backs/set1/purple.gif","img/card_backs/set1/red.gif","img/card_backs/set2/blue.gif","img/card_backs/set2/orange.gif","img/card_backs/set2/gray.gif","img/card_backs/set2/pink.gif","""event"",""trial"",""time""
""fullscreenenter"",""1"",""3253""
","
","
","""event"",""trial"",""time""
""fullscreenenter"",""1"",""3253""
","
","","4798.59999998007","Great! It seems like you are getting the hang of this.","80","","instructions","2021-07-02 17:32:20.566","","","","","",""
"casino-keyboard-response","23","124512","0.0-16.0-0.1","A476","false","img/card_backs/set1/green.gif","img/card_backs/set1/yellow.gif","img/card_backs/set1/purple.gif","img/card_backs/set1/red.gif","img/card_backs/set2/blue.gif","img/card_backs/set2/orange.gif","img/card_backs/set2/gray.gif","img/card_backs/set2/pink.gif","""event"",""trial"",""time""
""fullscreenenter"",""1"",""3253""
","
","
","""event"",""trial"",""time""
""fullscreenenter"",""1"",""3253""
","
","","7785.489999921992","You may have noticed that some cards will cause you to <b> win </b> tokens while other cards will cause you to <b> lose </b>  tokens.","70","","instructions","2021-07-02 17:32:28.354","","","","","",""
"casino-keyboard-response","24","133020","0.0-16.0-0.2","A476","false","img/card_backs/set1/green.gif","img/card_backs/set1/yellow.gif","img/card_backs/set1/purple.gif","img/card_backs/set1/red.gif","img/card_backs/set2/blue.gif","img/card_backs/set2/orange.gif","img/card_backs/set2/gray.gif","img/card_backs/set2/pink.gif","""event"",""trial"",""time""
""fullscreenenter"",""1"",""3253""
","
","
","""event"",""trial"",""time""
""fullscreenenter"",""1"",""3253""
","
","","8505.940000060946","Each deck has a mix of cards that will cause you to win and lose tokens. </br> However, the cards in each colored deck are different.","73","","instructions","2021-07-02 17:32:36.862","","","","","",""
"casino-keyboard-response","25","142392","0.0-16.0-0.3","A476","false","img/card_backs/set1/green.gif","img/card_backs/set1/yellow.gif","img/card_backs/set1/purple.gif","img/card_backs/set1/red.gif","img/card_backs/set2/blue.gif","img/card_backs/set2/orange.gif","img/card_backs/set2/gray.gif","img/card_backs/set2/pink.gif","""event"",""trial"",""time""
""fullscreenenter"",""1"",""3253""
","
","
","""event"",""trial"",""time""
""fullscreenenter"",""1"",""3253""
","
","","9367.190000019036","Some colored decks are luckier than others. </br> If you choose the lucky decks, you will earn more tokens than if you choose the unlucky decks.","69","","instructions","2021-07-02 17:32:46.234","","","","","",""
"casino-keyboard-response","26","150129","0.0-16.0-0.4","A476","false","img/card_backs/set1/green.gif","img/card_backs/set1/yellow.gif","img/card_backs/set1/purple.gif","img/card_backs/set1/red.gif","img/card_backs/set2/blue.gif","img/card_backs/set2/orange.gif","img/card_backs/set2/gray.gif","img/card_backs/set2/pink.gif","""event"",""trial"",""time""
""fullscreenenter"",""1"",""3253""
","
","
","""event"",""trial"",""time""
""fullscreenenter"",""1"",""3253""
","
","","7733.545000082813","You should try to figure out which decks are lucky. </br> Then, try to choose the lucky decks so you can win the most tokens.","87","","instructions","2021-07-02 17:32:53.971","","","","","",""
"casino-keyboard-response","27","161957","0.0-16.0-0.5","A476","false","img/card_backs/set1/green.gif","img/card_backs/set1/yellow.gif","img/card_backs/set1/purple.gif","img/card_backs/set1/red.gif","img/card_backs/set2/blue.gif","img/card_backs/set2/orange.gif","img/card_backs/set2/gray.gif","img/card_backs/set2/pink.gif","""event"",""trial"",""time""
""fullscreenenter"",""1"",""3253""
","
","
","""event"",""trial"",""time""
""fullscreenenter"",""1"",""3253""
","
","","11825.5750000244","To make it trickier, the casino dealer will switch the locations of the decks on every turn. </br> The color of the deck determines how lucky it is. The location does not matter.","88","","instructions","2021-07-02 17:33:05.799","","","","","",""
"casino-keyboard-response","28","172422","0.0-16.0-0.6","A476","false","img/card_backs/set1/green.gif","img/card_backs/set1/yellow.gif","img/card_backs/set1/purple.gif","img/card_backs/set1/red.gif","img/card_backs/set2/blue.gif","img/card_backs/set2/orange.gif","img/card_backs/set2/gray.gif","img/card_backs/set2/pink.gif","""event"",""trial"",""time""
""fullscreenenter"",""1"",""3253""
","
","
","""event"",""trial"",""time""
""fullscreenenter"",""1"",""3253""
","
","","10462.599999969825","The mix of cards in each colored deck will stay the same throughout the game. </br> That means that a deck that is lucky early on will stay lucky.","79","","instructions","2021-07-02 17:33:16.264","","","","","",""
"casino-keyboard-response","29","181436","0.0-16.0-0.7","A476","false","img/card_backs/set1/green.gif","img/card_backs/set1/yellow.gif","img/card_backs/set1/purple.gif","img/card_backs/set1/red.gif","img/card_backs/set2/blue.gif","img/card_backs/set2/orange.gif","img/card_backs/set2/gray.gif","img/card_backs/set2/pink.gif","""event"",""trial"",""time""
""fullscreenenter"",""1"",""3253""
","
","
","""event"",""trial"",""time""
""fullscreenenter"",""1"",""3253""
","
","","9011.779999942519","Remember though, all the decks have a <b> mix </b> of both <b> good </b> and <b> bad </b> cards so it may take a couple of turns to figure out if a deck is lucky.","69","","instructions","2021-07-02 17:33:25.279","","","","","",""
"casino-keyboard-response","30","190317","0.0-16.0-0.8","A476","false","img/card_backs/set1/green.gif","img/card_backs/set1/yellow.gif","img/card_backs/set1/purple.gif","img/card_backs/set1/red.gif","img/card_backs/set2/blue.gif","img/card_backs/set2/orange.gif","img/card_backs/set2/gray.gif","img/card_backs/set2/pink.gif","""event"",""trial"",""time""
""fullscreenenter"",""1"",""3253""
","
","
","""event"",""trial"",""time""
""fullscreenenter"",""1"",""3253""
","
","","8878.42000008095","At the end of the game, you will be paid bonus money based on how many tokens you win. </br> If you win more tokens, you will earn more money!","72","","instructions","2021-07-02 17:33:34.160","","","","","",""
"casino-keyboard-response","31","201352","0.0-16.0-0.9","A476","false","img/card_backs/set1/green.gif","img/card_backs/set1/yellow.gif","img/card_backs/set1/purple.gif","img/card_backs/set1/red.gif","img/card_backs/set2/blue.gif","img/card_backs/set2/orange.gif","img/card_backs/set2/gray.gif","img/card_backs/set2/pink.gif","""event"",""trial"",""time""
""fullscreenenter"",""1"",""3253""
","
","
","""event"",""trial"",""time""
""fullscreenenter"",""1"",""3253""
","
","","11031.034999992698","You will never <b> lose </b> money. </br> If you end up with fewer than 0 tokens, you will earn $0 of bonus money, but you will still be paid for playing the game.","83","","instructions","2021-07-02 17:33:45.194","","","","","",""
"casino-keyboard-response","32","206640","0.0-16.0-0.10","A476","false","img/card_backs/set1/green.gif","img/card_backs/set1/yellow.gif","img/card_backs/set1/purple.gif","img/card_backs/set1/red.gif","img/card_backs/set2/blue.gif","img/card_backs/set2/orange.gif","img/card_backs/set2/gray.gif","img/card_backs/set2/pink.gif","""event"",""trial"",""time""
""fullscreenenter"",""1"",""3253""
","
","
","""event"",""trial"",""time""
""fullscreenenter"",""1"",""3253""
","
","","5285.585000063293","You will have 10 seconds to make each choice.","82","","instructions","2021-07-02 17:33:50.482","","","","","",""
"casino-keyboard-response","33","216600","0.0-16.0-0.11","A476","false","img/card_backs/set1/green.gif","img/card_backs/set1/yellow.gif","img/card_backs/set1/purple.gif","img/card_backs/set1/red.gif","img/card_backs/set2/blue.gif","img/card_backs/set2/orange.gif","img/card_backs/set2/gray.gif","img/card_backs/set2/pink.gif","""event"",""trial"",""time""
""fullscreenenter"",""1"",""3253""
","
","
","""event"",""trial"",""time""
""fullscreenenter"",""1"",""3253""
","
","","9957.04000000842","Before you play the game for real, you will play with practice decks. </br> The tokens you earn during practice won't count toward your total.","86","","instructions","2021-07-02 17:34:00.442","","","","","",""
"casino-keyboard-response","34","228353","0.0-16.0-0.12","A476","false","img/card_backs/set1/green.gif","img/card_backs/set1/yellow.gif","img/card_backs/set1/purple.gif","img/card_backs/set1/red.gif","img/card_backs/set2/blue.gif","img/card_backs/set2/orange.gif","img/card_backs/set2/gray.gif","img/card_backs/set2/pink.gif","""event"",""trial"",""time""
""fullscreenenter"",""1"",""3253""
","
","
","""event"",""trial"",""time""
""fullscreenenter"",""1"",""3253""
","
","","11749.98000008054","Ready? Remember, use the '2', '4', '6', and '8' keys to select the decks. </br> Put your fingers on those keys now and then press '2' to begin.","50","","instructions","2021-07-02 17:34:12.195","","","","","",""
"casino-fixation","35","228858","0.0-17.0-0.0","A476","false","img/card_backs/set1/green.gif","img/card_backs/set1/yellow.gif","img/card_backs/set1/purple.gif","img/card_backs/set1/red.gif","img/card_backs/set2/blue.gif","img/card_backs/set2/orange.gif","img/card_backs/set2/gray.gif","img/card_backs/set2/pink.gif","""event"",""trial"",""time""
""fullscreenenter"",""1"",""3253""
","
","
","""event"",""trial"",""time""
""fullscreenenter"",""1"",""3253""
","
","","null","","null","","fixation","2021-07-02 17:34:12.700","","","","","",""
"card-selection-trial","36","231743","0.0-17.0-1.0","A476","false","img/card_backs/set1/green.gif","img/card_backs/set1/yellow.gif","img/card_backs/set1/purple.gif","img/card_backs/set1/red.gif","img/card_backs/set2/blue.gif","img/card_backs/set2/orange.gif","img/card_backs/set2/gray.gif","img/card_backs/set2/pink.gif","""event"",""trial"",""time""
""fullscreenenter"",""1"",""3253""
","
","
","""event"",""trial"",""time""
""fullscreenenter"",""1"",""3253""
","
","","873.8049999810755","","","","practice","2021-07-02 17:34:15.586","img/practice_cards/backs/dark_green.gif","0","200","0","",""
"casino-fixation","37","232246","0.0-17.0-0.1","A476","false","img/card_backs/set1/green.gif","img/card_backs/set1/yellow.gif","img/card_backs/set1/purple.gif","img/card_backs/set1/red.gif","img/card_backs/set2/blue.gif","img/card_backs/set2/orange.gif","img/card_backs/set2/gray.gif","img/card_backs/set2/pink.gif","""event"",""trial"",""time""
""fullscreenenter"",""1"",""3253""
","
","
","""event"",""trial"",""time""
""fullscreenenter"",""1"",""3253""
","
","","null","","null","","fixation","2021-07-02 17:34:16.089","","","","","",""
"card-selection-trial","38","235432","0.0-17.0-1.1","A476","false","img/card_backs/set1/green.gif","img/card_backs/set1/yellow.gif","img/card_backs/set1/purple.gif","img/card_backs/set1/red.gif","img/card_backs/set2/blue.gif","img/card_backs/set2/orange.gif","img/card_backs/set2/gray.gif","img/card_backs/set2/pink.gif","""event"",""trial"",""time""
""fullscreenenter"",""1"",""3253""
","
","
","""event"",""trial"",""time""
""fullscreenenter"",""1"",""3253""
","
","","1179.634999949485","","","","practice","2021-07-02 17:34:19.274","img/practice_cards/backs/black.gif","0","-100","0","",""
"casino-fixation","39","235935","0.0-17.0-0.2","A476","false","img/card_backs/set1/green.gif","img/card_backs/set1/yellow.gif","img/card_backs/set1/purple.gif","img/card_backs/set1/red.gif","img/card_backs/set2/blue.gif","img/card_backs/set2/orange.gif","img/card_backs/set2/gray.gif","img/card_backs/set2/pink.gif","""event"",""trial"",""time""
""fullscreenenter"",""1"",""3253""
","
","
","""event"",""trial"",""time""
""fullscreenenter"",""1"",""3253""
","
","","null","","null","","fixation","2021-07-02 17:34:19.777","","","","","",""
"card-selection-trial","40","238493","0.0-17.0-1.2","A476","false","img/card_backs/set1/green.gif","img/card_backs/set1/yellow.gif","img/card_backs/set1/purple.gif","img/card_backs/set1/red.gif","img/card_backs/set2/blue.gif","img/card_backs/set2/orange.gif","img/card_backs/set2/gray.gif","img/card_backs/set2/pink.gif","""event"",""trial"",""time""
""fullscreenenter"",""1"",""3253""
","
","
","""event"",""trial"",""time""
""fullscreenenter"",""1"",""3253""
","
","","547.0849999692291","","","","practice","2021-07-02 17:34:22.335","img/practice_cards/backs/dark_green.gif","2","-200","0","",""
"casino-fixation","41","238998","0.0-17.0-0.3","A476","false","img/card_backs/set1/green.gif","img/card_backs/set1/yellow.gif","img/card_backs/set1/purple.gif","img/card_backs/set1/red.gif","img/card_backs/set2/blue.gif","img/card_backs/set2/orange.gif","img/card_backs/set2/gray.gif","img/card_backs/set2/pink.gif","""event"",""trial"",""time""
""fullscreenenter"",""1"",""3253""
","
","
","""event"",""trial"",""time""
""fullscreenenter"",""1"",""3253""
","
","","null","","null","","fixation","2021-07-02 17:34:22.840","","","","","",""
"card-selection-trial","42","241588","0.0-17.0-1.3","A476","false","img/card_backs/set1/green.gif","img/card_backs/set1/yellow.gif","img/card_backs/set1/purple.gif","img/card_backs/set1/red.gif","img/card_backs/set2/blue.gif","img/card_backs/set2/orange.gif","img/card_backs/set2/gray.gif","img/card_backs/set2/pink.gif","""event"",""trial"",""time""
""fullscreenenter"",""1"",""3253""
","
","
","""event"",""trial"",""time""
""fullscreenenter"",""1"",""3253""
","
","","582.6200000010431","","","","practice","2021-07-02 17:34:25.431","img/practice_cards/backs/black.gif","1","-100","0","",""
"casino-fixation","43","242093","0.0-17.0-0.4","A476","false","img/card_backs/set1/green.gif","img/card_backs/set1/yellow.gif","img/card_backs/set1/purple.gif","img/card_backs/set1/red.gif","img/card_backs/set2/blue.gif","img/card_backs/set2/orange.gif","img/card_backs/set2/gray.gif","img/card_backs/set2/pink.gif","""event"",""trial"",""time""
""fullscreenenter"",""1"",""3253""
","
","
","""event"",""trial"",""time""
""fullscreenenter"",""1"",""3253""
","
","","null","","null","","fixation","2021-07-02 17:34:25.935","","","","","",""
"card-selection-trial","44","244949","0.0-17.0-1.4","A476","false","img/card_backs/set1/green.gif","img/card_backs/set1/yellow.gif","img/card_backs/set1/purple.gif","img/card_backs/set1/red.gif","img/card_backs/set2/blue.gif","img/card_backs/set2/orange.gif","img/card_backs/set2/gray.gif","img/card_backs/set2/pink.gif","""event"",""trial"",""time""
""fullscreenenter"",""1"",""3253""
","
","
","""event"",""trial"",""time""
""fullscreenenter"",""1"",""3253""
","
","","846.5800000121817","","","","practice","2021-07-02 17:34:28.791","img/practice_cards/backs/dark_blue.gif","3","-200","0","",""
"casino-fixation","45","245452","0.0-17.0-0.5","A476","false","img/card_backs/set1/green.gif","img/card_backs/set1/yellow.gif","img/card_backs/set1/purple.gif","img/card_backs/set1/red.gif","img/card_backs/set2/blue.gif","img/card_backs/set2/orange.gif","img/card_backs/set2/gray.gif","img/card_backs/set2/pink.gif","""event"",""trial"",""time""
""fullscreenenter"",""1"",""3253""
","
","
","""event"",""trial"",""time""
""fullscreenenter"",""1"",""3253""
","
","","null","","null","","fixation","2021-07-02 17:34:29.294","","","","","",""
"card-selection-trial","46","249059","0.0-17.0-1.5","A476","false","img/card_backs/set1/green.gif","img/card_backs/set1/yellow.gif","img/card_backs/set1/purple.gif","img/card_backs/set1/red.gif","img/card_backs/set2/blue.gif","img/card_backs/set2/orange.gif","img/card_backs/set2/gray.gif","img/card_backs/set2/pink.gif","""event"",""trial"",""time""
""fullscreenenter"",""1"",""3253""
","
","
","""event"",""trial"",""time""
""fullscreenenter"",""1"",""3253""
","
","","1595.2399999368936","","","","practice","2021-07-02 17:34:32.901","img/practice_cards/backs/brown.gif","1","-100","0","",""
"casino-fixation","47","249564","0.0-17.0-0.6","A476","false","img/card_backs/set1/green.gif","img/card_backs/set1/yellow.gif","img/card_backs/set1/purple.gif","img/card_backs/set1/red.gif","img/card_backs/set2/blue.gif","img/card_backs/set2/orange.gif","img/card_backs/set2/gray.gif","img/card_backs/set2/pink.gif","""event"",""trial"",""time""
""fullscreenenter"",""1"",""3253""
","
","
","""event"",""trial"",""time""
""fullscreenenter"",""1"",""3253""
","
","","null","","null","","fixation","2021-07-02 17:34:33.406","","","","","",""
"card-selection-trial","48","252257","0.0-17.0-1.6","A476","false","img/card_backs/set1/green.gif","img/card_backs/set1/yellow.gif","img/card_backs/set1/purple.gif","img/card_backs/set1/red.gif","img/card_backs/set2/blue.gif","img/card_backs/set2/orange.gif","img/card_backs/set2/gray.gif","img/card_backs/set2/pink.gif","""event"",""trial"",""time""
""fullscreenenter"",""1"",""3253""
","
","
","""event"",""trial"",""time""
""fullscreenenter"",""1"",""3253""
","
","","683.7799999630079","","","","practice","2021-07-02 17:34:36.099","img/practice_cards/backs/dark_green.gif","3","200","0","",""
"casino-fixation","49","252762","0.0-17.0-0.7","A476","false","img/card_backs/set1/green.gif","img/card_backs/set1/yellow.gif","img/card_backs/set1/purple.gif","img/card_backs/set1/red.gif","img/card_backs/set2/blue.gif","img/card_backs/set2/orange.gif","img/card_backs/set2/gray.gif","img/card_backs/set2/pink.gif","""event"",""trial"",""time""
""fullscreenenter"",""1"",""3253""
","
","
","""event"",""trial"",""time""
""fullscreenenter"",""1"",""3253""
","
","","null","","null","","fixation","2021-07-02 17:34:36.604","","","","","",""
"card-selection-trial","50","255328","0.0-17.0-1.7","A476","false","img/card_backs/set1/green.gif","img/card_backs/set1/yellow.gif","img/card_backs/set1/purple.gif","img/card_backs/set1/red.gif","img/card_backs/set2/blue.gif","img/card_backs/set2/orange.gif","img/card_backs/set2/gray.gif","img/card_backs/set2/pink.gif","""event"",""trial"",""time""
""fullscreenenter"",""1"",""3253""
","
","
","""event"",""trial"",""time""
""fullscreenenter"",""1"",""3253""
","
","","554.2800000403076","","","","practice","2021-07-02 17:34:39.170","img/practice_cards/backs/dark_green.gif","0","200","0","",""
"casino-fixation","51","255831","0.0-17.0-0.8","A476","false","img/card_backs/set1/green.gif","img/card_backs/set1/yellow.gif","img/card_backs/set1/purple.gif","img/card_backs/set1/red.gif","img/card_backs/set2/blue.gif","img/card_backs/set2/orange.gif","img/card_backs/set2/gray.gif","img/card_backs/set2/pink.gif","""event"",""trial"",""time""
""fullscreenenter"",""1"",""3253""
","
","
","""event"",""trial"",""time""
""fullscreenenter"",""1"",""3253""
","
","","null","","null","","fixation","2021-07-02 17:34:39.674","","","","","",""
"card-selection-trial","52","258371","0.0-17.0-1.8","A476","false","img/card_backs/set1/green.gif","img/card_backs/set1/yellow.gif","img/card_backs/set1/purple.gif","img/card_backs/set1/red.gif","img/card_backs/set2/blue.gif","img/card_backs/set2/orange.gif","img/card_backs/set2/gray.gif","img/card_backs/set2/pink.gif","""event"",""trial"",""time""
""fullscreenenter"",""1"",""3253""
","
","
","""event"",""trial"",""time""
""fullscreenenter"",""1"",""3253""
","
","","531.7999999970198","","","","practice","2021-07-02 17:34:42.213","img/practice_cards/backs/dark_green.gif","3","-200","0","",""
"casino-fixation","53","258876","0.0-17.0-0.9","A476","false","img/card_backs/set1/green.gif","img/card_backs/set1/yellow.gif","img/card_backs/set1/purple.gif","img/card_backs/set1/red.gif","img/card_backs/set2/blue.gif","img/card_backs/set2/orange.gif","img/card_backs/set2/gray.gif","img/card_backs/set2/pink.gif","""event"",""trial"",""time""
""fullscreenenter"",""1"",""3253""
","
","
","""event"",""trial"",""time""
""fullscreenenter"",""1"",""3253""
","
","","null","","null","","fixation","2021-07-02 17:34:42.718","","","","","",""
"card-selection-trial","54","261436","0.0-17.0-1.9","A476","false","img/card_backs/set1/green.gif","img/card_backs/set1/yellow.gif","img/card_backs/set1/purple.gif","img/card_backs/set1/red.gif","img/card_backs/set2/blue.gif","img/card_backs/set2/orange.gif","img/card_backs/set2/gray.gif","img/card_backs/set2/pink.gif","""event"",""trial"",""time""
""fullscreenenter"",""1"",""3253""
","
","
","""event"",""trial"",""time""
""fullscreenenter"",""1"",""3253""
","
","","548.3750000130385","","","","practice","2021-07-02 17:34:45.278","img/practice_cards/backs/dark_green.gif","1","-200","0","",""
"casino-keyboard-response","55","264967","0.0-18.0","A476","false","img/card_backs/set1/green.gif","img/card_backs/set1/yellow.gif","img/card_backs/set1/purple.gif","img/card_backs/set1/red.gif","img/card_backs/set2/blue.gif","img/card_backs/set2/orange.gif","img/card_backs/set2/gray.gif","img/card_backs/set2/pink.gif","""event"",""trial"",""time""
""fullscreenenter"",""1"",""3253""
","
","
","""event"",""trial"",""time""
""fullscreenenter"",""1"",""3253""
","
","","3529.4149999972433","You earned -500 tokens during the practice round!","82","","","2021-07-02 17:34:48.810","","","","","",""
"casino-keyboard-response","56","269254","0.0-19.0-0.0","A476","false","img/card_backs/set1/green.gif","img/card_backs/set1/yellow.gif","img/card_backs/set1/purple.gif","img/card_backs/set1/red.gif","img/card_backs/set2/blue.gif","img/card_backs/set2/orange.gif","img/card_backs/set2/gray.gif","img/card_backs/set2/pink.gif","""event"",""trial"",""time""
""fullscreenenter"",""1"",""3253""
","
","
","""event"",""trial"",""time""
""fullscreenenter"",""1"",""3253""
","
","","4284.440000075847","Nice job! You are almost ready to play the real game.","86","","instructions","2021-07-02 17:34:53.096","","","","","",""
"casino-keyboard-response","57","276506","0.0-19.0-0.1","A476","false","img/card_backs/set1/green.gif","img/card_backs/set1/yellow.gif","img/card_backs/set1/purple.gif","img/card_backs/set1/red.gif","img/card_backs/set2/blue.gif","img/card_backs/set2/orange.gif","img/card_backs/set2/gray.gif","img/card_backs/set2/pink.gif","""event"",""trial"",""time""
""fullscreenenter"",""1"",""3253""
","
","
","""event"",""trial"",""time""
""fullscreenenter"",""1"",""3253""
","
","","7248.950000037439","You will play two rounds of the real game. In each round, you will pick 100 cards in total.","73","","instructions","2021-07-02 17:35:00.348","","","","","",""
"casino-keyboard-response","58","280935","0.0-19.0-0.2","A476","false","img/card_backs/set1/green.gif","img/card_backs/set1/yellow.gif","img/card_backs/set1/purple.gif","img/card_backs/set1/red.gif","img/card_backs/set2/blue.gif","img/card_backs/set2/orange.gif","img/card_backs/set2/gray.gif","img/card_backs/set2/pink.gif","""event"",""trial"",""time""
""fullscreenenter"",""1"",""3253""
","
","
","""event"",""trial"",""time""
""fullscreenenter"",""1"",""3253""
","
","","4427.395000006072","We are now going to ask you some questions about how the game works.","66","","instructions","2021-07-02 17:35:04.777","","","","","",""
"casino-keyboard-response","59","287137","0.0-19.0-0.3","A476","false","img/card_backs/set1/green.gif","img/card_backs/set1/yellow.gif","img/card_backs/set1/purple.gif","img/card_backs/set1/red.gif","img/card_backs/set2/blue.gif","img/card_backs/set2/orange.gif","img/card_backs/set2/gray.gif","img/card_backs/set2/pink.gif","""event"",""trial"",""time""
""fullscreenenter"",""1"",""3253""
","
","
","""event"",""trial"",""time""
""fullscreenenter"",""1"",""3253""
","
","","6199.309999938123","Answer carefully. You will not be able to begin the game until you answer them correctly.","67","","instructions","2021-07-02 17:35:10.979","","","","","",""
"casino-comp_q","60","294185","0.0-20.0-0.0","A476","false","img/card_backs/set1/green.gif","img/card_backs/set1/yellow.gif","img/card_backs/set1/purple.gif","img/card_backs/set1/red.gif","img/card_backs/set2/blue.gif","img/card_backs/set2/orange.gif","img/card_backs/set2/gray.gif","img/card_backs/set2/pink.gif","""event"",""trial"",""time""
""fullscreenenter"",""1"",""3253""
","
","
","""event"",""trial"",""time""
""fullscreenenter"",""1"",""3253""
","
","","7044.985000044107","True or False: All the decks have some cards that cause you to win tokens and some cards that cause you to lose tokens.","84","","","2021-07-02 17:35:18.027","","","","","",""
"casino-keyboard-response","61","299223","0.0-20.0-1.0","A476","false","img/card_backs/set1/green.gif","img/card_backs/set1/yellow.gif","img/card_backs/set1/purple.gif","img/card_backs/set1/red.gif","img/card_backs/set2/blue.gif","img/card_backs/set2/orange.gif","img/card_backs/set2/gray.gif","img/card_backs/set2/pink.gif","""event"",""trial"",""time""
""fullscreenenter"",""1"",""3253""
","
","
","""event"",""trial"",""time""
""fullscreenenter"",""1"",""3253""
","
","","5034.664999926463","True is correct! All the decks have a mix of winning and losing cards.","77","","","2021-07-02 17:35:23.065","","","","","true",""
"casino-comp_q","62","304533","0.0-21.0-0.0","A476","false","img/card_backs/set1/green.gif","img/card_backs/set1/yellow.gif","img/card_backs/set1/purple.gif","img/card_backs/set1/red.gif","img/card_backs/set2/blue.gif","img/card_backs/set2/orange.gif","img/card_backs/set2/gray.gif","img/card_backs/set2/pink.gif","""event"",""trial"",""time""
""fullscreenenter"",""1"",""3253""
","
","
","""event"",""trial"",""time""
""fullscreenenter"",""1"",""3253""
","
","","5306.605000048876","True or False: You will have as much time as you want to make your response.","70","","","2021-07-02 17:35:28.375","","","","","",""
"casino-keyboard-response","63","308579","0.0-21.0-1.0","A476","false","img/card_backs/set1/green.gif","img/card_backs/set1/yellow.gif","img/card_backs/set1/purple.gif","img/card_backs/set1/red.gif","img/card_backs/set2/blue.gif","img/card_backs/set2/orange.gif","img/card_backs/set2/gray.gif","img/card_backs/set2/pink.gif","""event"",""trial"",""time""
""fullscreenenter"",""1"",""3253""
","
","
","""event"",""trial"",""time""
""fullscreenenter"",""1"",""3253""
","
","","4042.5149999791756","False is correct! You will only have 10 seconds to make each choice.","75","","","2021-07-02 17:35:32.422","","","","","true",""
"casino-comp_q","64","312737","0.0-22.0-0.0","A476","false","img/card_backs/set1/green.gif","img/card_backs/set1/yellow.gif","img/card_backs/set1/purple.gif","img/card_backs/set1/red.gif","img/card_backs/set2/blue.gif","img/card_backs/set2/orange.gif","img/card_backs/set2/gray.gif","img/card_backs/set2/pink.gif","""event"",""trial"",""time""
""fullscreenenter"",""1"",""3253""
","
","
","""event"",""trial"",""time""
""fullscreenenter"",""1"",""3253""
","
","","4154.465000028722","True or False: The location of the deck determines how lucky it is.","70","","","2021-07-02 17:35:36.579","","","","","",""
"casino-keyboard-response","65","317557","0.0-22.0-1.0","A476","false","img/card_backs/set1/green.gif","img/card_backs/set1/yellow.gif","img/card_backs/set1/purple.gif","img/card_backs/set1/red.gif","img/card_backs/set2/blue.gif","img/card_backs/set2/orange.gif","img/card_backs/set2/gray.gif","img/card_backs/set2/pink.gif","""event"",""trial"",""time""
""fullscreenenter"",""1"",""3253""
","
","
","""event"",""trial"",""time""
""fullscreenenter"",""1"",""3253""
","
","","4819.090000004508","False is correct! The <i>color</i>  of the deck determines how lucky or unlucky it is.","68","","","2021-07-02 17:35:41.400","","","","","true",""
"casino-keyboard-response","66","322300","0.0-23.0-0.0","A476","false","img/card_backs/set1/green.gif","img/card_backs/set1/yellow.gif","img/card_backs/set1/purple.gif","img/card_backs/set1/red.gif","img/card_backs/set2/blue.gif","img/card_backs/set2/orange.gif","img/card_backs/set2/gray.gif","img/card_backs/set2/pink.gif","""event"",""trial"",""time""
""fullscreenenter"",""1"",""3253""
","
","
","""event"",""trial"",""time""
""fullscreenenter"",""1"",""3253""
","
","","4740.225000074133","Great job! Now it's time to start the real game.","82","","instructions","2021-07-02 17:35:46.143","","","","","",""
"casino-keyboard-response","67","327433","0.0-23.0-0.1","A476","false","img/card_backs/set1/green.gif","img/card_backs/set1/yellow.gif","img/card_backs/set1/purple.gif","img/card_backs/set1/red.gif","img/card_backs/set2/blue.gif","img/card_backs/set2/orange.gif","img/card_backs/set2/gray.gif","img/card_backs/set2/pink.gif","""event"",""trial"",""time""
""fullscreenenter"",""1"",""3253""
","
","
","""event"",""trial"",""time""
""fullscreenenter"",""1"",""3253""
","
","","5130.629999912344","Before we start, we're going to head into a new room of the casino.","86","","instructions","2021-07-02 17:35:51.275","","","","","",""
"casino-keyboard-response","68","333691","0.0-24.0-0.0","A476","false","img/card_backs/set1/green.gif","img/card_backs/set1/yellow.gif","img/card_backs/set1/purple.gif","img/card_backs/set1/red.gif","img/card_backs/set2/blue.gif","img/card_backs/set2/orange.gif","img/card_backs/set2/gray.gif","img/card_backs/set2/pink.gif","""event"",""trial"",""time""
""fullscreenenter"",""1"",""3253""
","
","
","""event"",""trial"",""time""
""fullscreenenter"",""1"",""3253""
","
","","6255.630000028759","Here we are! The real game will use different cards, but the rules will be the same.","71","","instructions","2021-07-02 17:35:57.533","","","","","",""
"casino-keyboard-response","69","343364","0.0-24.0-0.1","A476","false","img/card_backs/set1/green.gif","img/card_backs/set1/yellow.gif","img/card_backs/set1/purple.gif","img/card_backs/set1/red.gif","img/card_backs/set2/blue.gif","img/card_backs/set2/orange.gif","img/card_backs/set2/gray.gif","img/card_backs/set2/pink.gif","""event"",""trial"",""time""
""fullscreenenter"",""1"",""3253""
","
","
","""event"",""trial"",""time""
""fullscreenenter"",""1"",""3253""
","
","","9669.989999965765","Ready? Put your fingers over the '2', '4', 6', and '8' keys so you are ready to play the game. </br> Then press 2 to start.","50","","instructions","2021-07-02 17:36:07.206","","","","","",""
"casino-fixation","70","343866","0.0-25.0-0.0","A476","false","img/card_backs/set1/green.gif","img/card_backs/set1/yellow.gif","img/card_backs/set1/purple.gif","img/card_backs/set1/red.gif","img/card_backs/set2/blue.gif","img/card_backs/set2/orange.gif","img/card_backs/set2/gray.gif","img/card_backs/set2/pink.gif","""event"",""trial"",""time""
""fullscreenenter"",""1"",""3253""
","
","
","""event"",""trial"",""time""
""fullscreenenter"",""1"",""3253""
","
","","null","","null","","fixation","2021-07-02 17:36:07.708","","","","","",""
"card-selection-trial","71","347448","0.0-25.0-1.0","A476","false","img/card_backs/set1/green.gif","img/card_backs/set1/yellow.gif","img/card_backs/set1/purple.gif","img/card_backs/set1/red.gif","img/card_backs/set2/blue.gif","img/card_backs/set2/orange.gif","img/card_backs/set2/gray.gif","img/card_backs/set2/pink.gif","""event"",""trial"",""time""
""fullscreenenter"",""1"",""3253""
","
","
","""event"",""trial"",""time""
""fullscreenenter"",""1"",""3253""
","
","","1569.9599999934435","","","","real_trial","2021-07-02 17:36:11.290","img/card_backs/set1/purple.gif","2","120","1","",""
"casino-fixation","72","347953","0.0-25.0-0.1","A476","false","img/card_backs/set1/green.gif","img/card_backs/set1/yellow.gif","img/card_backs/set1/purple.gif","img/card_backs/set1/red.gif","img/card_backs/set2/blue.gif","img/card_backs/set2/orange.gif","img/card_backs/set2/gray.gif","img/card_backs/set2/pink.gif","""event"",""trial"",""time""
""fullscreenenter"",""1"",""3253""
","
","
","""event"",""trial"",""time""
""fullscreenenter"",""1"",""3253""
","
","","null","","null","","fixation","2021-07-02 17:36:11.795","","","","","",""
"card-selection-trial","73","350681","0.0-25.0-1.1","A476","false","img/card_backs/set1/green.gif","img/card_backs/set1/yellow.gif","img/card_backs/set1/purple.gif","img/card_backs/set1/red.gif","img/card_backs/set2/blue.gif","img/card_backs/set2/orange.gif","img/card_backs/set2/gray.gif","img/card_backs/set2/pink.gif","""event"",""trial"",""time""
""fullscreenenter"",""1"",""3253""
","
","
","""event"",""trial"",""time""
""fullscreenenter"",""1"",""3253""
","
","","716.8900000397116","","","","real_trial","2021-07-02 17:36:14.523","img/card_backs/set1/purple.gif","0","110","1","",""
"casino-fixation","74","351186","0.0-25.0-0.2","A476","false","img/card_backs/set1/green.gif","img/card_backs/set1/yellow.gif","img/card_backs/set1/purple.gif","img/card_backs/set1/red.gif","img/card_backs/set2/blue.gif","img/card_backs/set2/orange.gif","img/card_backs/set2/gray.gif","img/card_backs/set2/pink.gif","""event"",""trial"",""time""
""fullscreenenter"",""1"",""3253""
","
","
","""event"",""trial"",""time""
""fullscreenenter"",""1"",""3253""
","
","","null","","null","","fixation","2021-07-02 17:36:15.028","","","","","",""
"card-selection-trial","75","354420","0.0-25.0-1.2","A476","false","img/card_backs/set1/green.gif","img/card_backs/set1/yellow.gif","img/card_backs/set1/purple.gif","img/card_backs/set1/red.gif","img/card_backs/set2/blue.gif","img/card_backs/set2/orange.gif","img/card_backs/set2/gray.gif","img/card_backs/set2/pink.gif","""event"",""trial"",""time""
""fullscreenenter"",""1"",""3253""
","
","
","""event"",""trial"",""time""
""fullscreenenter"",""1"",""3253""
","
","","1222.5800000596792","","","","real_trial","2021-07-02 17:36:18.262","img/card_backs/set1/purple.gif","1","-70","1","",""
"casino-fixation","76","354925","0.0-25.0-0.3","A476","false","img/card_backs/set1/green.gif","img/card_backs/set1/yellow.gif","img/card_backs/set1/purple.gif","img/card_backs/set1/red.gif","img/card_backs/set2/blue.gif","img/card_backs/set2/orange.gif","img/card_backs/set2/gray.gif","img/card_backs/set2/pink.gif","""event"",""trial"",""time""
""fullscreenenter"",""1"",""3253""
","
","
","""event"",""trial"",""time""
""fullscreenenter"",""1"",""3253""
","
","","null","","null","","fixation","2021-07-02 17:36:18.767","","","","","",""
"card-selection-trial","77","357984","0.0-25.0-1.3","A476","false","img/card_backs/set1/green.gif","img/card_backs/set1/yellow.gif","img/card_backs/set1/purple.gif","img/card_backs/set1/red.gif","img/card_backs/set2/blue.gif","img/card_backs/set2/orange.gif","img/card_backs/set2/gray.gif","img/card_backs/set2/pink.gif","""event"",""trial"",""time""
""fullscreenenter"",""1"",""3253""
","
","
","""event"",""trial"",""time""
""fullscreenenter"",""1"",""3253""
","
","","1047.6250000065193","","","","real_trial","2021-07-02 17:36:21.826","img/card_backs/set1/yellow.gif","3","-240","1","",""
"casino-fixation","78","358489","0.0-25.0-0.4","A476","false","img/card_backs/set1/green.gif","img/card_backs/set1/yellow.gif","img/card_backs/set1/purple.gif","img/card_backs/set1/red.gif","img/card_backs/set2/blue.gif","img/card_backs/set2/orange.gif","img/card_backs/set2/gray.gif","img/card_backs/set2/pink.gif","""event"",""trial"",""time""
""fullscreenenter"",""1"",""3253""
","
","
","""event"",""trial"",""time""
""fullscreenenter"",""1"",""3253""
","
","","null","","null","","fixation","2021-07-02 17:36:22.331","","","","","",""
"card-selection-trial","79","361019","0.0-25.0-1.4","A476","false","img/card_backs/set1/green.gif","img/card_backs/set1/yellow.gif","img/card_backs/set1/purple.gif","img/card_backs/set1/red.gif","img/card_backs/set2/blue.gif","img/card_backs/set2/orange.gif","img/card_backs/set2/gray.gif","img/card_backs/set2/pink.gif","""event"",""trial"",""time""
""fullscreenenter"",""1"",""3253""
","
","
","""event"",""trial"",""time""
""fullscreenenter"",""1"",""3253""
","
","","522.6499999407679","","","","real_trial","2021-07-02 17:36:24.861","img/card_backs/set1/red.gif","2","100","1","",""
"casino-fixation","80","361525","0.0-25.0-0.5","A476","false","img/card_backs/set1/green.gif","img/card_backs/set1/yellow.gif","img/card_backs/set1/purple.gif","img/card_backs/set1/red.gif","img/card_backs/set2/blue.gif","img/card_backs/set2/orange.gif","img/card_backs/set2/gray.gif","img/card_backs/set2/pink.gif","""event"",""trial"",""time""
""fullscreenenter"",""1"",""3253""
","
","
","""event"",""trial"",""time""
""fullscreenenter"",""1"",""3253""
","
","","null","","null","","fixation","2021-07-02 17:36:25.367","","","","","",""
"card-selection-trial","81","365664","0.0-25.0-1.5","A476","false","img/card_backs/set1/green.gif","img/card_backs/set1/yellow.gif","img/card_backs/set1/purple.gif","img/card_backs/set1/red.gif","img/card_backs/set2/blue.gif","img/card_backs/set2/orange.gif","img/card_backs/set2/gray.gif","img/card_backs/set2/pink.gif","""event"",""trial"",""time""
""fullscreenenter"",""1"",""3253""
","
","
","""event"",""trial"",""time""
""fullscreenenter"",""1"",""3253""
","
","","2127.8049999382347","","","","real_trial","2021-07-02 17:36:29.506","img/card_backs/set1/green.gif","1","-250","1","",""
"casino-fixation","82","366169","0.0-25.0-0.6","A476","false","img/card_backs/set1/green.gif","img/card_backs/set1/yellow.gif","img/card_backs/set1/purple.gif","img/card_backs/set1/red.gif","img/card_backs/set2/blue.gif","img/card_backs/set2/orange.gif","img/card_backs/set2/gray.gif","img/card_backs/set2/pink.gif","""event"",""trial"",""time""
""fullscreenenter"",""1"",""3253""
","
","
","""event"",""trial"",""time""
""fullscreenenter"",""1"",""3253""
","
","","null","","null","","fixation","2021-07-02 17:36:30.011","","","","","",""
"card-selection-trial","83","369542","0.0-25.0-1.6","A476","false","img/card_backs/set1/green.gif","img/card_backs/set1/yellow.gif","img/card_backs/set1/purple.gif","img/card_backs/set1/red.gif","img/card_backs/set2/blue.gif","img/card_backs/set2/orange.gif","img/card_backs/set2/gray.gif","img/card_backs/set2/pink.gif","""event"",""trial"",""time""
""fullscreenenter"",""1"",""3253""
","
","
","""event"",""trial"",""time""
""fullscreenenter"",""1"",""3253""
","
","","1365.7000000821427","","","","real_trial","2021-07-02 17:36:33.384","img/card_backs/set1/green.gif","0","-250","1","",""
"casino-fixation","84","370047","0.0-25.0-0.7","A476","false","img/card_backs/set1/green.gif","img/card_backs/set1/yellow.gif","img/card_backs/set1/purple.gif","img/card_backs/set1/red.gif","img/card_backs/set2/blue.gif","img/card_backs/set2/orange.gif","img/card_backs/set2/gray.gif","img/card_backs/set2/pink.gif","""event"",""trial"",""time""
""fullscreenenter"",""1"",""3253""
","
","
","""event"",""trial"",""time""
""fullscreenenter"",""1"",""3253""
","
","","null","","null","","fixation","2021-07-02 17:36:33.889","","","","","",""
"card-selection-trial","85","372841","0.0-25.0-1.7","A476","false","img/card_backs/set1/green.gif","img/card_backs/set1/yellow.gif","img/card_backs/set1/purple.gif","img/card_backs/set1/red.gif","img/card_backs/set2/blue.gif","img/card_backs/set2/orange.gif","img/card_backs/set2/gray.gif","img/card_backs/set2/pink.gif","""event"",""trial"",""time""
""fullscreenenter"",""1"",""3253""
","
","
","""event"",""trial"",""time""
""fullscreenenter"",""1"",""3253""
","
","","784.830000018701","","","","real_trial","2021-07-02 17:36:36.683","img/card_backs/set1/purple.gif","2","120","1","",""
"casino-fixation","86","373346","0.0-25.0-0.8","A476","false","img/card_backs/set1/green.gif","img/card_backs/set1/yellow.gif","img/card_backs/set1/purple.gif","img/card_backs/set1/red.gif","img/card_backs/set2/blue.gif","img/card_backs/set2/orange.gif","img/card_backs/set2/gray.gif","img/card_backs/set2/pink.gif","""event"",""trial"",""time""
""fullscreenenter"",""1"",""3253""
","
","
","""event"",""trial"",""time""
""fullscreenenter"",""1"",""3253""
","
","","null","","null","","fixation","2021-07-02 17:36:37.188","","","","","",""
"card-selection-trial","87","376468","0.0-25.0-1.8","A476","false","img/card_backs/set1/green.gif","img/card_backs/set1/yellow.gif","img/card_backs/set1/purple.gif","img/card_backs/set1/red.gif","img/card_backs/set2/blue.gif","img/card_backs/set2/orange.gif","img/card_backs/set2/gray.gif","img/card_backs/set2/pink.gif","""event"",""trial"",""time""
""fullscreenenter"",""1"",""3253""
","
","
","""event"",""trial"",""time""
""fullscreenenter"",""1"",""3253""
","
","","1113.7450000969693","","","","real_trial","2021-07-02 17:36:40.310","img/card_backs/set1/purple.gif","3","100","1","",""
"casino-fixation","88","376973","0.0-25.0-0.9","A476","false","img/card_backs/set1/green.gif","img/card_backs/set1/yellow.gif","img/card_backs/set1/purple.gif","img/card_backs/set1/red.gif","img/card_backs/set2/blue.gif","img/card_backs/set2/orange.gif","img/card_backs/set2/gray.gif","img/card_backs/set2/pink.gif","""event"",""trial"",""time""
""fullscreenenter"",""1"",""3253""
","
","
","""event"",""trial"",""time""
""fullscreenenter"",""1"",""3253""
","
","","null","","null","","fixation","2021-07-02 17:36:40.815","","","","","",""
"card-selection-trial","89","379929","0.0-25.0-1.9","A476","false","img/card_backs/set1/green.gif","img/card_backs/set1/yellow.gif","img/card_backs/set1/purple.gif","img/card_backs/set1/red.gif","img/card_backs/set2/blue.gif","img/card_backs/set2/orange.gif","img/card_backs/set2/gray.gif","img/card_backs/set2/pink.gif","""event"",""trial"",""time""
""fullscreenenter"",""1"",""3253""
","
","
","""event"",""trial"",""time""
""fullscreenenter"",""1"",""3253""
","
","","946.0500000277534","","","","real_trial","2021-07-02 17:36:43.771","img/card_backs/set1/red.gif","2","120","1","",""
"casino-fixation","90","380433","0.0-25.0-0.10","A476","false","img/card_backs/set1/green.gif","img/card_backs/set1/yellow.gif","img/card_backs/set1/purple.gif","img/card_backs/set1/red.gif","img/card_backs/set2/blue.gif","img/card_backs/set2/orange.gif","img/card_backs/set2/gray.gif","img/card_backs/set2/pink.gif","""event"",""trial"",""time""
""fullscreenenter"",""1"",""3253""
","
","
","""event"",""trial"",""time""
""fullscreenenter"",""1"",""3253""
","
","","null","","null","","fixation","2021-07-02 17:36:44.275","","","","","",""
"card-selection-trial","91","383261","0.0-25.0-1.10","A476","false","img/card_backs/set1/green.gif","img/card_backs/set1/yellow.gif","img/card_backs/set1/purple.gif","img/card_backs/set1/red.gif","img/card_backs/set2/blue.gif","img/card_backs/set2/orange.gif","img/card_backs/set2/gray.gif","img/card_backs/set2/pink.gif","""event"",""trial"",""time""
""fullscreenenter"",""1"",""3253""
","
","
","""event"",""trial"",""time""
""fullscreenenter"",""1"",""3253""
","
","","819.2699999781325","","","","real_trial","2021-07-02 17:36:47.103","img/card_backs/set1/purple.gif","2","100","1","",""
"casino-fixation","92","383765","0.0-25.0-0.11","A476","false","img/card_backs/set1/green.gif","img/card_backs/set1/yellow.gif","img/card_backs/set1/purple.gif","img/card_backs/set1/red.gif","img/card_backs/set2/blue.gif","img/card_backs/set2/orange.gif","img/card_backs/set2/gray.gif","img/card_backs/set2/pink.gif","""event"",""trial"",""time""
""fullscreenenter"",""1"",""3253""
","
","
","""event"",""trial"",""time""
""fullscreenenter"",""1"",""3253""
","
","","null","","null","","fixation","2021-07-02 17:36:47.608","","","","","",""
"card-selection-trial","93","386372","0.0-25.0-1.11","A476","false","img/card_backs/set1/green.gif","img/card_backs/set1/yellow.gif","img/card_backs/set1/purple.gif","img/card_backs/set1/red.gif","img/card_backs/set2/blue.gif","img/card_backs/set2/orange.gif","img/card_backs/set2/gray.gif","img/card_backs/set2/pink.gif","""event"",""trial"",""time""
""fullscreenenter"",""1"",""3253""
","
","
","""event"",""trial"",""time""
""fullscreenenter"",""1"",""3253""
","
","","600.4399999510497","","","","real_trial","2021-07-02 17:36:50.214","img/card_backs/set1/red.gif","1","100","1","",""
"casino-fixation","94","386877","0.0-25.0-0.12","A476","false","img/card_backs/set1/green.gif","img/card_backs/set1/yellow.gif","img/card_backs/set1/purple.gif","img/card_backs/set1/red.gif","img/card_backs/set2/blue.gif","img/card_backs/set2/orange.gif","img/card_backs/set2/gray.gif","img/card_backs/set2/pink.gif","""event"",""trial"",""time""
""fullscreenenter"",""1"",""3253""
","
","
","""event"",""trial"",""time""
""fullscreenenter"",""1"",""3253""
","
","","null","","null","","fixation","2021-07-02 17:36:50.719","","","","","",""
"card-selection-trial","95","389321","0.0-25.0-1.12","A476","false","img/card_backs/set1/green.gif","img/card_backs/set1/yellow.gif","img/card_backs/set1/purple.gif","img/card_backs/set1/red.gif","img/card_backs/set2/blue.gif","img/card_backs/set2/orange.gif","img/card_backs/set2/gray.gif","img/card_backs/set2/pink.gif","""event"",""trial"",""time""
""fullscreenenter"",""1"",""3253""
","
","
","""event"",""trial"",""time""
""fullscreenenter"",""1"",""3253""
","
","","437.75500007905066","","","","real_trial","2021-07-02 17:36:53.164","img/card_backs/set1/purple.gif","2","-60","1","",""
"casino-fixation","96","389826","0.0-25.0-0.13","A476","false","img/card_backs/set1/green.gif","img/card_backs/set1/yellow.gif","img/card_backs/set1/purple.gif","img/card_backs/set1/red.gif","img/card_backs/set2/blue.gif","img/card_backs/set2/orange.gif","img/card_backs/set2/gray.gif","img/card_backs/set2/pink.gif","""event"",""trial"",""time""
""fullscreenenter"",""1"",""3253""
","
","
","""event"",""trial"",""time""
""fullscreenenter"",""1"",""3253""
","
","","null","","null","","fixation","2021-07-02 17:36:53.668","","","","","",""
"card-selection-trial","97","392449","0.0-25.0-1.13","A476","false","img/card_backs/set1/green.gif","img/card_backs/set1/yellow.gif","img/card_backs/set1/purple.gif","img/card_backs/set1/red.gif","img/card_backs/set2/blue.gif","img/card_backs/set2/orange.gif","img/card_backs/set2/gray.gif","img/card_backs/set2/pink.gif","""event"",""trial"",""time""
""fullscreenenter"",""1"",""3253""
","
","
","""event"",""trial"",""time""
""fullscreenenter"",""1"",""3253""
","
","","613.8150000479072","","","","real_trial","2021-07-02 17:36:56.291","img/card_backs/set1/purple.gif","2","110","1","",""
"casino-fixation","98","392955","0.0-25.0-0.14","A476","false","img/card_backs/set1/green.gif","img/card_backs/set1/yellow.gif","img/card_backs/set1/purple.gif","img/card_backs/set1/red.gif","img/card_backs/set2/blue.gif","img/card_backs/set2/orange.gif","img/card_backs/set2/gray.gif","img/card_backs/set2/pink.gif","""event"",""trial"",""time""
""fullscreenenter"",""1"",""3253""
","
","
","""event"",""trial"",""time""
""fullscreenenter"",""1"",""3253""
","
","","null","","null","","fixation","2021-07-02 17:36:56.797","","","","","",""
"card-selection-trial","99","395707","0.0-25.0-1.14","A476","false","img/card_backs/set1/green.gif","img/card_backs/set1/yellow.gif","img/card_backs/set1/purple.gif","img/card_backs/set1/red.gif","img/card_backs/set2/blue.gif","img/card_backs/set2/orange.gif","img/card_backs/set2/gray.gif","img/card_backs/set2/pink.gif","""event"",""trial"",""time""
""fullscreenenter"",""1"",""3253""
","
","
","""event"",""trial"",""time""
""fullscreenenter"",""1"",""3253""
","
","","742.8450000006706","","","","real_trial","2021-07-02 17:36:59.549","img/card_backs/set1/purple.gif","0","120","1","",""
"casino-fixation","100","396212","0.0-25.0-0.15","A476","false","img/card_backs/set1/green.gif","img/card_backs/set1/yellow.gif","img/card_backs/set1/purple.gif","img/card_backs/set1/red.gif","img/card_backs/set2/blue.gif","img/card_backs/set2/orange.gif","img/card_backs/set2/gray.gif","img/card_backs/set2/pink.gif","""event"",""trial"",""time""
""fullscreenenter"",""1"",""3253""
","
","
","""event"",""trial"",""time""
""fullscreenenter"",""1"",""3253""
","
","","null","","null","","fixation","2021-07-02 17:37:00.054","","","","","",""
"card-selection-trial","101","398703","0.0-25.0-1.15","A476","false","img/card_backs/set1/green.gif","img/card_backs/set1/yellow.gif","img/card_backs/set1/purple.gif","img/card_backs/set1/red.gif","img/card_backs/set2/blue.gif","img/card_backs/set2/orange.gif","img/card_backs/set2/gray.gif","img/card_backs/set2/pink.gif","""event"",""trial"",""time""
""fullscreenenter"",""1"",""3253""
","
","
","""event"",""trial"",""time""
""fullscreenenter"",""1"",""3253""
","
","","483.0599999986589","","","","real_trial","2021-07-02 17:37:02.545","img/card_backs/set1/red.gif","2","-70","1","",""
"casino-fixation","102","399207","0.0-25.0-0.16","A476","false","img/card_backs/set1/green.gif","img/card_backs/set1/yellow.gif","img/card_backs/set1/purple.gif","img/card_backs/set1/red.gif","img/card_backs/set2/blue.gif","img/card_backs/set2/orange.gif","img/card_backs/set2/gray.gif","img/card_backs/set2/pink.gif","""event"",""trial"",""time""
""fullscreenenter"",""1"",""3253""
","
","
","""event"",""trial"",""time""
""fullscreenenter"",""1"",""3253""
","
","","null","","null","","fixation","2021-07-02 17:37:03.049","","","","","",""
"card-selection-trial","103","401727","0.0-25.0-1.16","A476","false","img/card_backs/set1/green.gif","img/card_backs/set1/yellow.gif","img/card_backs/set1/purple.gif","img/card_backs/set1/red.gif","img/card_backs/set2/blue.gif","img/card_backs/set2/orange.gif","img/card_backs/set2/gray.gif","img/card_backs/set2/pink.gif","""event"",""trial"",""time""
""fullscreenenter"",""1"",""3253""
","
","
","""event"",""trial"",""time""
""fullscreenenter"",""1"",""3253""
","
","","510.1599999470636","","","","real_trial","2021-07-02 17:37:05.569","img/card_backs/set1/purple.gif","3","-60","1","",""
"casino-fixation","104","402232","0.0-25.0-0.17","A476","false","img/card_backs/set1/green.gif","img/card_backs/set1/yellow.gif","img/card_backs/set1/purple.gif","img/card_backs/set1/red.gif","img/card_backs/set2/blue.gif","img/card_backs/set2/orange.gif","img/card_backs/set2/gray.gif","img/card_backs/set2/pink.gif","""event"",""trial"",""time""
""fullscreenenter"",""1"",""3253""
","
","
","""event"",""trial"",""time""
""fullscreenenter"",""1"",""3253""
","
","","null","","null","","fixation","2021-07-02 17:37:06.074","","","","","",""
"card-selection-trial","105","404850","0.0-25.0-1.17","A476","false","img/card_backs/set1/green.gif","img/card_backs/set1/yellow.gif","img/card_backs/set1/purple.gif","img/card_backs/set1/red.gif","img/card_backs/set2/blue.gif","img/card_backs/set2/orange.gif","img/card_backs/set2/gray.gif","img/card_backs/set2/pink.gif","""event"",""trial"",""time""
""fullscreenenter"",""1"",""3253""
","
","
","""event"",""trial"",""time""
""fullscreenenter"",""1"",""3253""
","
","","606.4999999944121","","","","real_trial","2021-07-02 17:37:08.692","img/card_backs/set1/purple.gif","2","-60","1","",""
"casino-fixation","106","405355","0.0-25.0-0.18","A476","false","img/card_backs/set1/green.gif","img/card_backs/set1/yellow.gif","img/card_backs/set1/purple.gif","img/card_backs/set1/red.gif","img/card_backs/set2/blue.gif","img/card_backs/set2/orange.gif","img/card_backs/set2/gray.gif","img/card_backs/set2/pink.gif","""event"",""trial"",""time""
""fullscreenenter"",""1"",""3253""
","
","
","""event"",""trial"",""time""
""fullscreenenter"",""1"",""3253""
","
","","null","","null","","fixation","2021-07-02 17:37:09.197","","","","","",""
"card-selection-trial","107","408060","0.0-25.0-1.18","A476","false","img/card_backs/set1/green.gif","img/card_backs/set1/yellow.gif","img/card_backs/set1/purple.gif","img/card_backs/set1/red.gif","img/card_backs/set2/blue.gif","img/card_backs/set2/orange.gif","img/card_backs/set2/gray.gif","img/card_backs/set2/pink.gif","""event"",""trial"",""time""
""fullscreenenter"",""1"",""3253""
","
","
","""event"",""trial"",""time""
""fullscreenenter"",""1"",""3253""
","
","","694.1849999129772","","","","real_trial","2021-07-02 17:37:11.903","img/card_backs/set1/red.gif","1","120","1","",""
"casino-fixation","108","408565","0.0-25.0-0.19","A476","false","img/card_backs/set1/green.gif","img/card_backs/set1/yellow.gif","img/card_backs/set1/purple.gif","img/card_backs/set1/red.gif","img/card_backs/set2/blue.gif","img/card_backs/set2/orange.gif","img/card_backs/set2/gray.gif","img/card_backs/set2/pink.gif","""event"",""trial"",""time""
""fullscreenenter"",""1"",""3253""
","
","
","""event"",""trial"",""time""
""fullscreenenter"",""1"",""3253""
","
","","null","","null","","fixation","2021-07-02 17:37:12.407","","","","","",""
"card-selection-trial","109","411213","0.0-25.0-1.19","A476","false","img/card_backs/set1/green.gif","img/card_backs/set1/yellow.gif","img/card_backs/set1/purple.gif","img/card_backs/set1/red.gif","img/card_backs/set2/blue.gif","img/card_backs/set2/orange.gif","img/card_backs/set2/gray.gif","img/card_backs/set2/pink.gif","""event"",""trial"",""time""
""fullscreenenter"",""1"",""3253""
","
","
","""event"",""trial"",""time""
""fullscreenenter"",""1"",""3253""
","
","","635.9999999403954","","","","real_trial","2021-07-02 17:37:15.055","img/card_backs/set1/red.gif","1","-50","1","",""
"casino-fixation","110","411717","0.0-25.0-0.20","A476","false","img/card_backs/set1/green.gif","img/card_backs/set1/yellow.gif","img/card_backs/set1/purple.gif","img/card_backs/set1/red.gif","img/card_backs/set2/blue.gif","img/card_backs/set2/orange.gif","img/card_backs/set2/gray.gif","img/card_backs/set2/pink.gif","""event"",""trial"",""time""
""fullscreenenter"",""1"",""3253""
","
","
","""event"",""trial"",""time""
""fullscreenenter"",""1"",""3253""
","
","","null","","null","","fixation","2021-07-02 17:37:15.559","","","","","",""
"card-selection-trial","111","414289","0.0-25.0-1.20","A476","false","img/card_backs/set1/green.gif","img/card_backs/set1/yellow.gif","img/card_backs/set1/purple.gif","img/card_backs/set1/red.gif","img/card_backs/set2/blue.gif","img/card_backs/set2/orange.gif","img/card_backs/set2/gray.gif","img/card_backs/set2/pink.gif","""event"",""trial"",""time""
""fullscreenenter"",""1"",""3253""
","
","
","""event"",""trial"",""time""
""fullscreenenter"",""1"",""3253""
","
","","562.305000028573","","","","real_trial","2021-07-02 17:37:18.131","img/card_backs/set1/yellow.gif","3","-240","1","",""
"casino-fixation","112","414794","0.0-25.0-0.21","A476","false","img/card_backs/set1/green.gif","img/card_backs/set1/yellow.gif","img/card_backs/set1/purple.gif","img/card_backs/set1/red.gif","img/card_backs/set2/blue.gif","img/card_backs/set2/orange.gif","img/card_backs/set2/gray.gif","img/card_backs/set2/pink.gif","""event"",""trial"",""time""
""fullscreenenter"",""1"",""3253""
","
","
","""event"",""trial"",""time""
""fullscreenenter"",""1"",""3253""
","
","","null","","null","","fixation","2021-07-02 17:37:18.636","","","","","",""
"card-selection-trial","113","417406","0.0-25.0-1.21","A476","false","img/card_backs/set1/green.gif","img/card_backs/set1/yellow.gif","img/card_backs/set1/purple.gif","img/card_backs/set1/red.gif","img/card_backs/set2/blue.gif","img/card_backs/set2/orange.gif","img/card_backs/set2/gray.gif","img/card_backs/set2/pink.gif","""event"",""trial"",""time""
""fullscreenenter"",""1"",""3253""
","
","
","""event"",""trial"",""time""
""fullscreenenter"",""1"",""3253""
","
","","598.8949999446049","","","","real_trial","2021-07-02 17:37:21.248","img/card_backs/set1/red.gif","2","-70","1","",""
"casino-fixation","114","417912","0.0-25.0-0.22","A476","false","img/card_backs/set1/green.gif","img/card_backs/set1/yellow.gif","img/card_backs/set1/purple.gif","img/card_backs/set1/red.gif","img/card_backs/set2/blue.gif","img/card_backs/set2/orange.gif","img/card_backs/set2/gray.gif","img/card_backs/set2/pink.gif","""event"",""trial"",""time""
""fullscreenenter"",""1"",""3253""
","
","
","""event"",""trial"",""time""
""fullscreenenter"",""1"",""3253""
","
","","null","","null","","fixation","2021-07-02 17:37:21.754","","","","","",""
"card-selection-trial","115","420263","0.0-25.0-1.22","A476","false","img/card_backs/set1/green.gif","img/card_backs/set1/yellow.gif","img/card_backs/set1/purple.gif","img/card_backs/set1/red.gif","img/card_backs/set2/blue.gif","img/card_backs/set2/orange.gif","img/card_backs/set2/gray.gif","img/card_backs/set2/pink.gif","""event"",""trial"",""time""
""fullscreenenter"",""1"",""3253""
","
","
","""event"",""trial"",""time""
""fullscreenenter"",""1"",""3253""
","
","","341.5700000477955","","","","real_trial","2021-07-02 17:37:24.105","img/card_backs/set1/purple.gif","1","110","1","",""
"casino-fixation","116","420768","0.0-25.0-0.23","A476","false","img/card_backs/set1/green.gif","img/card_backs/set1/yellow.gif","img/card_backs/set1/purple.gif","img/card_backs/set1/red.gif","img/card_backs/set2/blue.gif","img/card_backs/set2/orange.gif","img/card_backs/set2/gray.gif","img/card_backs/set2/pink.gif","""event"",""trial"",""time""
""fullscreenenter"",""1"",""3253""
","
","
","""event"",""trial"",""time""
""fullscreenenter"",""1"",""3253""
","
","","null","","null","","fixation","2021-07-02 17:37:24.610","","","","","",""
"card-selection-trial","117","423154","0.0-25.0-1.23","A476","false","img/card_backs/set1/green.gif","img/card_backs/set1/yellow.gif","img/card_backs/set1/purple.gif","img/card_backs/set1/red.gif","img/card_backs/set2/blue.gif","img/card_backs/set2/orange.gif","img/card_backs/set2/gray.gif","img/card_backs/set2/pink.gif","""event"",""trial"",""time""
""fullscreenenter"",""1"",""3253""
","
","
","""event"",""trial"",""time""
""fullscreenenter"",""1"",""3253""
","
","","379.44000004790723","","","","real_trial","2021-07-02 17:37:26.996","img/card_backs/set1/purple.gif","1","100","1","",""
"casino-fixation","118","423659","0.0-25.0-0.24","A476","false","img/card_backs/set1/green.gif","img/card_backs/set1/yellow.gif","img/card_backs/set1/purple.gif","img/card_backs/set1/red.gif","img/card_backs/set2/blue.gif","img/card_backs/set2/orange.gif","img/card_backs/set2/gray.gif","img/card_backs/set2/pink.gif","""event"",""trial"",""time""
""fullscreenenter"",""1"",""3253""
","
","
","""event"",""trial"",""time""
""fullscreenenter"",""1"",""3253""
","
","","null","","null","","fixation","2021-07-02 17:37:27.501","","","","","",""
"card-selection-trial","119","426213","0.0-25.0-1.24","A476","false","img/card_backs/set1/green.gif","img/card_backs/set1/yellow.gif","img/card_backs/set1/purple.gif","img/card_backs/set1/red.gif","img/card_backs/set2/blue.gif","img/card_backs/set2/orange.gif","img/card_backs/set2/gray.gif","img/card_backs/set2/pink.gif","""event"",""trial"",""time""
""fullscreenenter"",""1"",""3253""
","
","
","""event"",""trial"",""time""
""fullscreenenter"",""1"",""3253""
","
","","547.1100000431761","","","","real_trial","2021-07-02 17:37:30.055","img/card_backs/set1/purple.gif","2","100","1","",""
"casino-fixation","120","426718","0.0-25.0-0.25","A476","false","img/card_backs/set1/green.gif","img/card_backs/set1/yellow.gif","img/card_backs/set1/purple.gif","img/card_backs/set1/red.gif","img/card_backs/set2/blue.gif","img/card_backs/set2/orange.gif","img/card_backs/set2/gray.gif","img/card_backs/set2/pink.gif","""event"",""trial"",""time""
""fullscreenenter"",""1"",""3253""
","
","
","""event"",""trial"",""time""
""fullscreenenter"",""1"",""3253""
","
","","null","","null","","fixation","2021-07-02 17:37:30.560","","","","","",""
"card-selection-trial","121","429159","0.0-25.0-1.25","A476","false","img/card_backs/set1/green.gif","img/card_backs/set1/yellow.gif","img/card_backs/set1/purple.gif","img/card_backs/set1/red.gif","img/card_backs/set2/blue.gif","img/card_backs/set2/orange.gif","img/card_backs/set2/gray.gif","img/card_backs/set2/pink.gif","""event"",""trial"",""time""
""fullscreenenter"",""1"",""3253""
","
","
","""event"",""trial"",""time""
""fullscreenenter"",""1"",""3253""
","
","","430.8699999237433","","","","real_trial","2021-07-02 17:37:33.002","img/card_backs/set1/purple.gif","1","-60","1","",""
"casino-fixation","122","429661","0.0-25.0-0.26","A476","false","img/card_backs/set1/green.gif","img/card_backs/set1/yellow.gif","img/card_backs/set1/purple.gif","img/card_backs/set1/red.gif","img/card_backs/set2/blue.gif","img/card_backs/set2/orange.gif","img/card_backs/set2/gray.gif","img/card_backs/set2/pink.gif","""event"",""trial"",""time""
""fullscreenenter"",""1"",""3253""
","
","
","""event"",""trial"",""time""
""fullscreenenter"",""1"",""3253""
","
","","null","","null","","fixation","2021-07-02 17:37:33.503","","","","","",""
"card-selection-trial","123","432361","0.0-25.0-1.26","A476","false","img/card_backs/set1/green.gif","img/card_backs/set1/yellow.gif","img/card_backs/set1/purple.gif","img/card_backs/set1/red.gif","img/card_backs/set2/blue.gif","img/card_backs/set2/orange.gif","img/card_backs/set2/gray.gif","img/card_backs/set2/pink.gif","""event"",""trial"",""time""
""fullscreenenter"",""1"",""3253""
","
","
","""event"",""trial"",""time""
""fullscreenenter"",""1"",""3253""
","
","","691.6699999710545","","","","real_trial","2021-07-02 17:37:36.203","img/card_backs/set1/red.gif","1","-70","1","",""
"casino-fixation","124","432866","0.0-25.0-0.27","A476","false","img/card_backs/set1/green.gif","img/card_backs/set1/yellow.gif","img/card_backs/set1/purple.gif","img/card_backs/set1/red.gif","img/card_backs/set2/blue.gif","img/card_backs/set2/orange.gif","img/card_backs/set2/gray.gif","img/card_backs/set2/pink.gif","""event"",""trial"",""time""
""fullscreenenter"",""1"",""3253""
","
","
","""event"",""trial"",""time""
""fullscreenenter"",""1"",""3253""
","
","","null","","null","","fixation","2021-07-02 17:37:36.708","","","","","",""
"card-selection-trial","125","435565","0.0-25.0-1.27","A476","false","img/card_backs/set1/green.gif","img/card_backs/set1/yellow.gif","img/card_backs/set1/purple.gif","img/card_backs/set1/red.gif","img/card_backs/set2/blue.gif","img/card_backs/set2/orange.gif","img/card_backs/set2/gray.gif","img/card_backs/set2/pink.gif","""event"",""trial"",""time""
""fullscreenenter"",""1"",""3253""
","
","
","""event"",""trial"",""time""
""fullscreenenter"",""1"",""3253""
","
","","690.0650000898167","","","","real_trial","2021-07-02 17:37:39.408","img/card_backs/set1/red.gif","2","100","1","",""
"casino-fixation","126","436071","0.0-25.0-0.28","A476","false","img/card_backs/set1/green.gif","img/card_backs/set1/yellow.gif","img/card_backs/set1/purple.gif","img/card_backs/set1/red.gif","img/card_backs/set2/blue.gif","img/card_backs/set2/orange.gif","img/card_backs/set2/gray.gif","img/card_backs/set2/pink.gif","""event"",""trial"",""time""
""fullscreenenter"",""1"",""3253""
","
","
","""event"",""trial"",""time""
""fullscreenenter"",""1"",""3253""
","
","","null","","null","","fixation","2021-07-02 17:37:39.913","","","","","",""
"card-selection-trial","127","439072","0.0-25.0-1.28","A476","false","img/card_backs/set1/green.gif","img/card_backs/set1/yellow.gif","img/card_backs/set1/purple.gif","img/card_backs/set1/red.gif","img/card_backs/set2/blue.gif","img/card_backs/set2/orange.gif","img/card_backs/set2/gray.gif","img/card_backs/set2/pink.gif","""event"",""trial"",""time""
""fullscreenenter"",""1"",""3253""
","
","
","""event"",""trial"",""time""
""fullscreenenter"",""1"",""3253""
","
","","990.0250000646338","","","","real_trial","2021-07-02 17:37:42.914","img/card_backs/set1/purple.gif","3","110","1","",""
"casino-fixation","128","439577","0.0-25.0-0.29","A476","false","img/card_backs/set1/green.gif","img/card_backs/set1/yellow.gif","img/card_backs/set1/purple.gif","img/card_backs/set1/red.gif","img/card_backs/set2/blue.gif","img/card_backs/set2/orange.gif","img/card_backs/set2/gray.gif","img/card_backs/set2/pink.gif","""event"",""trial"",""time""
""fullscreenenter"",""1"",""3253""
","
","
","""event"",""trial"",""time""
""fullscreenenter"",""1"",""3253""
","
","","null","","null","","fixation","2021-07-02 17:37:43.419","","","","","",""
"card-selection-trial","129","442381","0.0-25.0-1.29","A476","false","img/card_backs/set1/green.gif","img/card_backs/set1/yellow.gif","img/card_backs/set1/purple.gif","img/card_backs/set1/red.gif","img/card_backs/set2/blue.gif","img/card_backs/set2/orange.gif","img/card_backs/set2/gray.gif","img/card_backs/set2/pink.gif","""event"",""trial"",""time""
""fullscreenenter"",""1"",""3253""
","
","
","""event"",""trial"",""time""
""fullscreenenter"",""1"",""3253""
","
","","792.5800000084564","","","","real_trial","2021-07-02 17:37:46.223","img/card_backs/set1/green.gif","2","190","1","",""
"casino-fixation","130","442885","0.0-25.0-0.30","A476","false","img/card_backs/set1/green.gif","img/card_backs/set1/yellow.gif","img/card_backs/set1/purple.gif","img/card_backs/set1/red.gif","img/card_backs/set2/blue.gif","img/card_backs/set2/orange.gif","img/card_backs/set2/gray.gif","img/card_backs/set2/pink.gif","""event"",""trial"",""time""
""fullscreenenter"",""1"",""3253""
","
","
","""event"",""trial"",""time""
""fullscreenenter"",""1"",""3253""
","
","","null","","null","","fixation","2021-07-02 17:37:46.727","","","","","",""
"card-selection-trial","131","445519","0.0-25.0-1.30","A476","false","img/card_backs/set1/green.gif","img/card_backs/set1/yellow.gif","img/card_backs/set1/purple.gif","img/card_backs/set1/red.gif","img/card_backs/set2/blue.gif","img/card_backs/set2/orange.gif","img/card_backs/set2/gray.gif","img/card_backs/set2/pink.gif","""event"",""trial"",""time""
""fullscreenenter"",""1"",""3253""
","
","
","""event"",""trial"",""time""
""fullscreenenter"",""1"",""3253""
","
","","624.5900000212714","","","","real_trial","2021-07-02 17:37:49.361","img/card_backs/set1/green.gif","1","180","1","",""
"casino-fixation","132","446025","0.0-25.0-0.31","A476","false","img/card_backs/set1/green.gif","img/card_backs/set1/yellow.gif","img/card_backs/set1/purple.gif","img/card_backs/set1/red.gif","img/card_backs/set2/blue.gif","img/card_backs/set2/orange.gif","img/card_backs/set2/gray.gif","img/card_backs/set2/pink.gif","""event"",""trial"",""time""
""fullscreenenter"",""1"",""3253""
","
","
","""event"",""trial"",""time""
""fullscreenenter"",""1"",""3253""
","
","","null","","null","","fixation","2021-07-02 17:37:49.867","","","","","",""
"card-selection-trial","133","448697","0.0-25.0-1.31","A476","false","img/card_backs/set1/green.gif","img/card_backs/set1/yellow.gif","img/card_backs/set1/purple.gif","img/card_backs/set1/red.gif","img/card_backs/set2/blue.gif","img/card_backs/set2/orange.gif","img/card_backs/set2/gray.gif","img/card_backs/set2/pink.gif","""event"",""trial"",""time""
""fullscreenenter"",""1"",""3253""
","
","
","""event"",""trial"",""time""
""fullscreenenter"",""1"",""3253""
","
","","660.2549999952316","","","","real_trial","2021-07-02 17:37:52.539","img/card_backs/set1/red.gif","1","-70","1","",""
"casino-fixation","134","449201","0.0-25.0-0.32","A476","false","img/card_backs/set1/green.gif","img/card_backs/set1/yellow.gif","img/card_backs/set1/purple.gif","img/card_backs/set1/red.gif","img/card_backs/set2/blue.gif","img/card_backs/set2/orange.gif","img/card_backs/set2/gray.gif","img/card_backs/set2/pink.gif","""event"",""trial"",""time""
""fullscreenenter"",""1"",""3253""
","
","
","""event"",""trial"",""time""
""fullscreenenter"",""1"",""3253""
","
","","null","","null","","fixation","2021-07-02 17:37:53.043","","","","","",""
"card-selection-trial","135","451611","0.0-25.0-1.32","A476","false","img/card_backs/set1/green.gif","img/card_backs/set1/yellow.gif","img/card_backs/set1/purple.gif","img/card_backs/set1/red.gif","img/card_backs/set2/blue.gif","img/card_backs/set2/orange.gif","img/card_backs/set2/gray.gif","img/card_backs/set2/pink.gif","""event"",""trial"",""time""
""fullscreenenter"",""1"",""3253""
","
","
","""event"",""trial"",""time""
""fullscreenenter"",""1"",""3253""
","
","","399.0999999223277","","","","real_trial","2021-07-02 17:37:55.453","img/card_backs/set1/green.gif","0","-250","1","",""
"casino-fixation","136","452118","0.0-25.0-0.33","A476","false","img/card_backs/set1/green.gif","img/card_backs/set1/yellow.gif","img/card_backs/set1/purple.gif","img/card_backs/set1/red.gif","img/card_backs/set2/blue.gif","img/card_backs/set2/orange.gif","img/card_backs/set2/gray.gif","img/card_backs/set2/pink.gif","""event"",""trial"",""time""
""fullscreenenter"",""1"",""3253""
","
","
","""event"",""trial"",""time""
""fullscreenenter"",""1"",""3253""
","
","","null","","null","","fixation","2021-07-02 17:37:55.960","","","","","",""
"card-selection-trial","137","454891","0.0-25.0-1.33","A476","false","img/card_backs/set1/green.gif","img/card_backs/set1/yellow.gif","img/card_backs/set1/purple.gif","img/card_backs/set1/red.gif","img/card_backs/set2/blue.gif","img/card_backs/set2/orange.gif","img/card_backs/set2/gray.gif","img/card_backs/set2/pink.gif","""event"",""trial"",""time""
""fullscreenenter"",""1"",""3253""
","
","
","""event"",""trial"",""time""
""fullscreenenter"",""1"",""3253""
","
","","765.2600000146776","","","","real_trial","2021-07-02 17:37:58.733","img/card_backs/set1/purple.gif","2","-60","1","",""
"casino-fixation","138","455396","0.0-25.0-0.34","A476","false","img/card_backs/set1/green.gif","img/card_backs/set1/yellow.gif","img/card_backs/set1/purple.gif","img/card_backs/set1/red.gif","img/card_backs/set2/blue.gif","img/card_backs/set2/orange.gif","img/card_backs/set2/gray.gif","img/card_backs/set2/pink.gif","""event"",""trial"",""time""
""fullscreenenter"",""1"",""3253""
","
","
","""event"",""trial"",""time""
""fullscreenenter"",""1"",""3253""
","
","","null","","null","","fixation","2021-07-02 17:37:59.238","","","","","",""
"card-selection-trial","139","457718","0.0-25.0-1.34","A476","false","img/card_backs/set1/green.gif","img/card_backs/set1/yellow.gif","img/card_backs/set1/purple.gif","img/card_backs/set1/red.gif","img/card_backs/set2/blue.gif","img/card_backs/set2/orange.gif","img/card_backs/set2/gray.gif","img/card_backs/set2/pink.gif","""event"",""trial"",""time""
""fullscreenenter"",""1"",""3253""
","
","
","""event"",""trial"",""time""
""fullscreenenter"",""1"",""3253""
","
","","313.2449999684468","","","","real_trial","2021-07-02 17:38:01.560","img/card_backs/set1/purple.gif","2","-70","1","",""
"casino-fixation","140","458223","0.0-25.0-0.35","A476","false","img/card_backs/set1/green.gif","img/card_backs/set1/yellow.gif","img/card_backs/set1/purple.gif","img/card_backs/set1/red.gif","img/card_backs/set2/blue.gif","img/card_backs/set2/orange.gif","img/card_backs/set2/gray.gif","img/card_backs/set2/pink.gif","""event"",""trial"",""time""
""fullscreenenter"",""1"",""3253""
","
","
","""event"",""trial"",""time""
""fullscreenenter"",""1"",""3253""
","
","","null","","null","","fixation","2021-07-02 17:38:02.065","","","","","",""
"card-selection-trial","141","460684","0.0-25.0-1.35","A476","false","img/card_backs/set1/green.gif","img/card_backs/set1/yellow.gif","img/card_backs/set1/purple.gif","img/card_backs/set1/red.gif","img/card_backs/set2/blue.gif","img/card_backs/set2/orange.gif","img/card_backs/set2/gray.gif","img/card_backs/set2/pink.gif","""event"",""trial"",""time""
""fullscreenenter"",""1"",""3253""
","
","
","""event"",""trial"",""time""
""fullscreenenter"",""1"",""3253""
","
","","451.8849999876693","","","","real_trial","2021-07-02 17:38:04.526","img/card_backs/set1/purple.gif","2","110","1","",""
"casino-fixation","142","461189","0.0-25.0-0.36","A476","false","img/card_backs/set1/green.gif","img/card_backs/set1/yellow.gif","img/card_backs/set1/purple.gif","img/card_backs/set1/red.gif","img/card_backs/set2/blue.gif","img/card_backs/set2/orange.gif","img/card_backs/set2/gray.gif","img/card_backs/set2/pink.gif","""event"",""trial"",""time""
""fullscreenenter"",""1"",""3253""
","
","
","""event"",""trial"",""time""
""fullscreenenter"",""1"",""3253""
","
","","null","","null","","fixation","2021-07-02 17:38:05.031","","","","","",""
"card-selection-trial","143","463796","0.0-25.0-1.36","A476","false","img/card_backs/set1/green.gif","img/card_backs/set1/yellow.gif","img/card_backs/set1/purple.gif","img/card_backs/set1/red.gif","img/card_backs/set2/blue.gif","img/card_backs/set2/orange.gif","img/card_backs/set2/gray.gif","img/card_backs/set2/pink.gif","""event"",""trial"",""time""
""fullscreenenter"",""1"",""3253""
","
","
","""event"",""trial"",""time""
""fullscreenenter"",""1"",""3253""
","
","","599.1500000236556","","","","real_trial","2021-07-02 17:38:07.638","img/card_backs/set1/red.gif","0","-70","1","",""
"casino-fixation","144","464302","0.0-25.0-0.37","A476","false","img/card_backs/set1/green.gif","img/card_backs/set1/yellow.gif","img/card_backs/set1/purple.gif","img/card_backs/set1/red.gif","img/card_backs/set2/blue.gif","img/card_backs/set2/orange.gif","img/card_backs/set2/gray.gif","img/card_backs/set2/pink.gif","""event"",""trial"",""time""
""fullscreenenter"",""1"",""3253""
","
","
","""event"",""trial"",""time""
""fullscreenenter"",""1"",""3253""
","
","","null","","null","","fixation","2021-07-02 17:38:08.144","","","","","",""
"card-selection-trial","145","466756","0.0-25.0-1.37","A476","false","img/card_backs/set1/green.gif","img/card_backs/set1/yellow.gif","img/card_backs/set1/purple.gif","img/card_backs/set1/red.gif","img/card_backs/set2/blue.gif","img/card_backs/set2/orange.gif","img/card_backs/set2/gray.gif","img/card_backs/set2/pink.gif","""event"",""trial"",""time""
""fullscreenenter"",""1"",""3253""
","
","
","""event"",""trial"",""time""
""fullscreenenter"",""1"",""3253""
","
","","444.565000012517","","","","real_trial","2021-07-02 17:38:10.599","img/card_backs/set1/red.gif","2","110","1","",""
"casino-fixation","146","467261","0.0-25.0-0.38","A476","false","img/card_backs/set1/green.gif","img/card_backs/set1/yellow.gif","img/card_backs/set1/purple.gif","img/card_backs/set1/red.gif","img/card_backs/set2/blue.gif","img/card_backs/set2/orange.gif","img/card_backs/set2/gray.gif","img/card_backs/set2/pink.gif","""event"",""trial"",""time""
""fullscreenenter"",""1"",""3253""
","
","
","""event"",""trial"",""time""
""fullscreenenter"",""1"",""3253""
","
","","null","","null","","fixation","2021-07-02 17:38:11.103","","","","","",""
"card-selection-trial","147","469688","0.0-25.0-1.38","A476","false","img/card_backs/set1/green.gif","img/card_backs/set1/yellow.gif","img/card_backs/set1/purple.gif","img/card_backs/set1/red.gif","img/card_backs/set2/blue.gif","img/card_backs/set2/orange.gif","img/card_backs/set2/gray.gif","img/card_backs/set2/pink.gif","""event"",""trial"",""time""
""fullscreenenter"",""1"",""3253""
","
","
","""event"",""trial"",""time""
""fullscreenenter"",""1"",""3253""
","
","","416.03500000201166","","","","real_trial","2021-07-02 17:38:13.530","img/card_backs/set1/purple.gif","1","120","1","",""
"casino-fixation","148","470193","0.0-25.0-0.39","A476","false","img/card_backs/set1/green.gif","img/card_backs/set1/yellow.gif","img/card_backs/set1/purple.gif","img/card_backs/set1/red.gif","img/card_backs/set2/blue.gif","img/card_backs/set2/orange.gif","img/card_backs/set2/gray.gif","img/card_backs/set2/pink.gif","""event"",""trial"",""time""
""fullscreenenter"",""1"",""3253""
","
","
","""event"",""trial"",""time""
""fullscreenenter"",""1"",""3253""
","
","","null","","null","","fixation","2021-07-02 17:38:14.035","","","","","",""
"card-selection-trial","149","472724","0.0-25.0-1.39","A476","false","img/card_backs/set1/green.gif","img/card_backs/set1/yellow.gif","img/card_backs/set1/purple.gif","img/card_backs/set1/red.gif","img/card_backs/set2/blue.gif","img/card_backs/set2/orange.gif","img/card_backs/set2/gray.gif","img/card_backs/set2/pink.gif","""event"",""trial"",""time""
""fullscreenenter"",""1"",""3253""
","
","
","""event"",""trial"",""time""
""fullscreenenter"",""1"",""3253""
","
","","523.7450000131503","","","","real_trial","2021-07-02 17:38:16.566","img/card_backs/set1/purple.gif","2","-60","1","",""
"casino-fixation","150","473229","0.0-25.0-0.40","A476","false","img/card_backs/set1/green.gif","img/card_backs/set1/yellow.gif","img/card_backs/set1/purple.gif","img/card_backs/set1/red.gif","img/card_backs/set2/blue.gif","img/card_backs/set2/orange.gif","img/card_backs/set2/gray.gif","img/card_backs/set2/pink.gif","""event"",""trial"",""time""
""fullscreenenter"",""1"",""3253""
","
","
","""event"",""trial"",""time""
""fullscreenenter"",""1"",""3253""
","
","","null","","null","","fixation","2021-07-02 17:38:17.071","","","","","",""
"card-selection-trial","151","475853","0.0-25.0-1.40","A476","false","img/card_backs/set1/green.gif","img/card_backs/set1/yellow.gif","img/card_backs/set1/purple.gif","img/card_backs/set1/red.gif","img/card_backs/set2/blue.gif","img/card_backs/set2/orange.gif","img/card_backs/set2/gray.gif","img/card_backs/set2/pink.gif","""event"",""trial"",""time""
""fullscreenenter"",""1"",""3253""
","
","
","""event"",""trial"",""time""
""fullscreenenter"",""1"",""3253""
","
","","614.1800000332296","","","","real_trial","2021-07-02 17:38:19.695","img/card_backs/set1/red.gif","1","-50","1","",""
"casino-fixation","152","476360","0.0-25.0-0.41","A476","false","img/card_backs/set1/green.gif","img/card_backs/set1/yellow.gif","img/card_backs/set1/purple.gif","img/card_backs/set1/red.gif","img/card_backs/set2/blue.gif","img/card_backs/set2/orange.gif","img/card_backs/set2/gray.gif","img/card_backs/set2/pink.gif","""event"",""trial"",""time""
""fullscreenenter"",""1"",""3253""
","
","
","""event"",""trial"",""time""
""fullscreenenter"",""1"",""3253""
","
","","null","","null","","fixation","2021-07-02 17:38:20.202","","","","","",""
"card-selection-trial","153","479018","0.0-25.0-1.41","A476","false","img/card_backs/set1/green.gif","img/card_backs/set1/yellow.gif","img/card_backs/set1/purple.gif","img/card_backs/set1/red.gif","img/card_backs/set2/blue.gif","img/card_backs/set2/orange.gif","img/card_backs/set2/gray.gif","img/card_backs/set2/pink.gif","""event"",""trial"",""time""
""fullscreenenter"",""1"",""3253""
","
","
","""event"",""trial"",""time""
""fullscreenenter"",""1"",""3253""
","
","","647.3349999869242","","","","real_trial","2021-07-02 17:38:22.860","img/card_backs/set1/purple.gif","2","120","1","",""
"casino-fixation","154","479524","0.0-25.0-0.42","A476","false","img/card_backs/set1/green.gif","img/card_backs/set1/yellow.gif","img/card_backs/set1/purple.gif","img/card_backs/set1/red.gif","img/card_backs/set2/blue.gif","img/card_backs/set2/orange.gif","img/card_backs/set2/gray.gif","img/card_backs/set2/pink.gif","""event"",""trial"",""time""
""fullscreenenter"",""1"",""3253""
","
","
","""event"",""trial"",""time""
""fullscreenenter"",""1"",""3253""
","
","","null","","null","","fixation","2021-07-02 17:38:23.366","","","","","",""
"card-selection-trial","155","482153","0.0-25.0-1.42","A476","false","img/card_backs/set1/green.gif","img/card_backs/set1/yellow.gif","img/card_backs/set1/purple.gif","img/card_backs/set1/red.gif","img/card_backs/set2/blue.gif","img/card_backs/set2/orange.gif","img/card_backs/set2/gray.gif","img/card_backs/set2/pink.gif","""event"",""trial"",""time""
""fullscreenenter"",""1"",""3253""
","
","
","""event"",""trial"",""time""
""fullscreenenter"",""1"",""3253""
","
","","615.7649999950081","","","","real_trial","2021-07-02 17:38:25.995","img/card_backs/set1/red.gif","0","-50","1","",""
"casino-fixation","156","482656","0.0-25.0-0.43","A476","false","img/card_backs/set1/green.gif","img/card_backs/set1/yellow.gif","img/card_backs/set1/purple.gif","img/card_backs/set1/red.gif","img/card_backs/set2/blue.gif","img/card_backs/set2/orange.gif","img/card_backs/set2/gray.gif","img/card_backs/set2/pink.gif","""event"",""trial"",""time""
""fullscreenenter"",""1"",""3253""
","
","
","""event"",""trial"",""time""
""fullscreenenter"",""1"",""3253""
","
","","null","","null","","fixation","2021-07-02 17:38:26.498","","","","","",""
"card-selection-trial","157","486227","0.0-25.0-1.43","A476","false","img/card_backs/set1/green.gif","img/card_backs/set1/yellow.gif","img/card_backs/set1/purple.gif","img/card_backs/set1/red.gif","img/card_backs/set2/blue.gif","img/card_backs/set2/orange.gif","img/card_backs/set2/gray.gif","img/card_backs/set2/pink.gif","""event"",""trial"",""time""
""fullscreenenter"",""1"",""3253""
","
","
","""event"",""trial"",""time""
""fullscreenenter"",""1"",""3253""
","
","","1559.7599999746308","","","","real_trial","2021-07-02 17:38:30.069","img/card_backs/set1/red.gif","1","-50","1","",""
"casino-fixation","158","486732","0.0-25.0-0.44","A476","false","img/card_backs/set1/green.gif","img/card_backs/set1/yellow.gif","img/card_backs/set1/purple.gif","img/card_backs/set1/red.gif","img/card_backs/set2/blue.gif","img/card_backs/set2/orange.gif","img/card_backs/set2/gray.gif","img/card_backs/set2/pink.gif","""event"",""trial"",""time""
""fullscreenenter"",""1"",""3253""
","
","
","""event"",""trial"",""time""
""fullscreenenter"",""1"",""3253""
","
","","null","","null","","fixation","2021-07-02 17:38:30.574","","","","","",""
"card-selection-trial","159","489403","0.0-25.0-1.44","A476","false","img/card_backs/set1/green.gif","img/card_backs/set1/yellow.gif","img/card_backs/set1/purple.gif","img/card_backs/set1/red.gif","img/card_backs/set2/blue.gif","img/card_backs/set2/orange.gif","img/card_backs/set2/gray.gif","img/card_backs/set2/pink.gif","""event"",""trial"",""time""
""fullscreenenter"",""1"",""3253""
","
","
","""event"",""trial"",""time""
""fullscreenenter"",""1"",""3253""
","
","","664.5149999530986","","","","real_trial","2021-07-02 17:38:33.245","img/card_backs/set1/red.gif","3","-70","1","",""
"casino-fixation","160","489907","0.0-25.0-0.45","A476","false","img/card_backs/set1/green.gif","img/card_backs/set1/yellow.gif","img/card_backs/set1/purple.gif","img/card_backs/set1/red.gif","img/card_backs/set2/blue.gif","img/card_backs/set2/orange.gif","img/card_backs/set2/gray.gif","img/card_backs/set2/pink.gif","""event"",""trial"",""time""
""fullscreenenter"",""1"",""3253""
","
","
","""event"",""trial"",""time""
""fullscreenenter"",""1"",""3253""
","
","","null","","null","","fixation","2021-07-02 17:38:33.749","","","","","",""
"card-selection-trial","161","492282","0.0-25.0-1.45","A476","false","img/card_backs/set1/green.gif","img/card_backs/set1/yellow.gif","img/card_backs/set1/purple.gif","img/card_backs/set1/red.gif","img/card_backs/set2/blue.gif","img/card_backs/set2/orange.gif","img/card_backs/set2/gray.gif","img/card_backs/set2/pink.gif","""event"",""trial"",""time""
""fullscreenenter"",""1"",""3253""
","
","
","""event"",""trial"",""time""
""fullscreenenter"",""1"",""3253""
","
","","362.4149999814108","","","","real_trial","2021-07-02 17:38:36.124","img/card_backs/set1/yellow.gif","0","190","1","",""
"casino-fixation","162","492787","0.0-25.0-0.46","A476","false","img/card_backs/set1/green.gif","img/card_backs/set1/yellow.gif","img/card_backs/set1/purple.gif","img/card_backs/set1/red.gif","img/card_backs/set2/blue.gif","img/card_backs/set2/orange.gif","img/card_backs/set2/gray.gif","img/card_backs/set2/pink.gif","""event"",""trial"",""time""
""fullscreenenter"",""1"",""3253""
","
","
","""event"",""trial"",""time""
""fullscreenenter"",""1"",""3253""
","
","","null","","null","","fixation","2021-07-02 17:38:36.629","","","","","",""
"card-selection-trial","163","495312","0.0-25.0-1.46","A476","false","img/card_backs/set1/green.gif","img/card_backs/set1/yellow.gif","img/card_backs/set1/purple.gif","img/card_backs/set1/red.gif","img/card_backs/set2/blue.gif","img/card_backs/set2/orange.gif","img/card_backs/set2/gray.gif","img/card_backs/set2/pink.gif","""event"",""trial"",""time""
""fullscreenenter"",""1"",""3253""
","
","
","""event"",""trial"",""time""
""fullscreenenter"",""1"",""3253""
","
","","517.6350000547245","","","","real_trial","2021-07-02 17:38:39.154","img/card_backs/set1/purple.gif","1","120","1","",""
"casino-fixation","164","495817","0.0-25.0-0.47","A476","false","img/card_backs/set1/green.gif","img/card_backs/set1/yellow.gif","img/card_backs/set1/purple.gif","img/card_backs/set1/red.gif","img/card_backs/set2/blue.gif","img/card_backs/set2/orange.gif","img/card_backs/set2/gray.gif","img/card_backs/set2/pink.gif","""event"",""trial"",""time""
""fullscreenenter"",""1"",""3253""
","
","
","""event"",""trial"",""time""
""fullscreenenter"",""1"",""3253""
","
","","null","","null","","fixation","2021-07-02 17:38:39.659","","","","","",""
"card-selection-trial","165","498232","0.0-25.0-1.47","A476","false","img/card_backs/set1/green.gif","img/card_backs/set1/yellow.gif","img/card_backs/set1/purple.gif","img/card_backs/set1/red.gif","img/card_backs/set2/blue.gif","img/card_backs/set2/orange.gif","img/card_backs/set2/gray.gif","img/card_backs/set2/pink.gif","""event"",""trial"",""time""
""fullscreenenter"",""1"",""3253""
","
","
","""event"",""trial"",""time""
""fullscreenenter"",""1"",""3253""
","
","","407.5400000438094","","","","real_trial","2021-07-02 17:38:42.074","img/card_backs/set1/yellow.gif","3","-240","1","",""
"casino-fixation","166","498737","0.0-25.0-0.48","A476","false","img/card_backs/set1/green.gif","img/card_backs/set1/yellow.gif","img/card_backs/set1/purple.gif","img/card_backs/set1/red.gif","img/card_backs/set2/blue.gif","img/card_backs/set2/orange.gif","img/card_backs/set2/gray.gif","img/card_backs/set2/pink.gif","""event"",""trial"",""time""
""fullscreenenter"",""1"",""3253""
","
","
","""event"",""trial"",""time""
""fullscreenenter"",""1"",""3253""
","
","","null","","null","","fixation","2021-07-02 17:38:42.579","","","","","",""
