"trial_type","trial_index","time_elapsed","internal_node_id","sub_id","risk_good_first","block1_A","block1_B","block1_C","block1_D","block2_A","block2_B","block2_C","block2_D","interactions","blur_events","focus_events","fullscreenenter_events","fullscreenexit_events","success","rt","stimulus","key_press","button_pressed","task_part","timestamp","card_choice","choice_position","points_earned","block","correct","response"
"pavlovia","0","4","0.0-0.0","1069","true","img/card_backs/set1/yellow.gif","img/card_backs/set1/purple.gif","img/card_backs/set1/green.gif","img/card_backs/set1/red.gif","img/card_backs/set2/gray.gif","img/card_backs/set2/blue.gif","img/card_backs/set2/orange.gif","img/card_backs/set2/pink.gif","""event"",""trial"",""time""
""fullscreenenter"",""1"",""4931""
","
","
","""event"",""trial"",""time""
""fullscreenenter"",""1"",""4931""
","
","","","","","","","","","","","","",""
"fullscreen","1","5915","0.0-1.0","1069","true","img/card_backs/set1/yellow.gif","img/card_backs/set1/purple.gif","img/card_backs/set1/green.gif","img/card_backs/set1/red.gif","img/card_backs/set2/gray.gif","img/card_backs/set2/blue.gif","img/card_backs/set2/orange.gif","img/card_backs/set2/pink.gif","""event"",""trial"",""time""
""fullscreenenter"",""1"",""4931""
","
","
","""event"",""trial"",""time""
""fullscreenenter"",""1"",""4931""
","
","true","","","","","","","","","","","",""
"audio-keyboard-response","2","7983","0.0-2.0","1069","true","img/card_backs/set1/yellow.gif","img/card_backs/set1/purple.gif","img/card_backs/set1/green.gif","img/card_backs/set1/red.gif","img/card_backs/set2/gray.gif","img/card_backs/set2/blue.gif","img/card_backs/set2/orange.gif","img/card_backs/set2/pink.gif","""event"",""trial"",""time""
""fullscreenenter"",""1"",""4931""
","
","
","""event"",""trial"",""time""
""fullscreenenter"",""1"",""4931""
","
","","2021","audio/beep_loop.wav","32","","","","","","","","",""
"audio-button-response","3","9476","0.0-3.0","1069","true","img/card_backs/set1/yellow.gif","img/card_backs/set1/purple.gif","img/card_backs/set1/green.gif","img/card_backs/set1/red.gif","img/card_backs/set2/gray.gif","img/card_backs/set2/blue.gif","img/card_backs/set2/orange.gif","img/card_backs/set2/pink.gif","""event"",""trial"",""time""
""fullscreenenter"",""1"",""4931""
","
","
","""event"",""trial"",""time""
""fullscreenenter"",""1"",""4931""
","
","","NaN","audio/turtle.mp3","","3","","","","","","","",""
"audio-button-response","4","11542","0.0-4.0","1069","true","img/card_backs/set1/yellow.gif","img/card_backs/set1/purple.gif","img/card_backs/set1/green.gif","img/card_backs/set1/red.gif","img/card_backs/set2/gray.gif","img/card_backs/set2/blue.gif","img/card_backs/set2/orange.gif","img/card_backs/set2/pink.gif","""event"",""trial"",""time""
""fullscreenenter"",""1"",""4931""
","
","
","""event"",""trial"",""time""
""fullscreenenter"",""1"",""4931""
","
","","NaN","audio/shark.mp3","","2","","","","","","","",""
"fullscreen","5","14791","0.0-5.0","1069","true","img/card_backs/set1/yellow.gif","img/card_backs/set1/purple.gif","img/card_backs/set1/green.gif","img/card_backs/set1/red.gif","img/card_backs/set2/gray.gif","img/card_backs/set2/blue.gif","img/card_backs/set2/orange.gif","img/card_backs/set2/pink.gif","""event"",""trial"",""time""
""fullscreenenter"",""1"",""4931""
","
","
","""event"",""trial"",""time""
""fullscreenenter"",""1"",""4931""
","
","true","","","","","","","","","","","",""
"casino-keyboard-response","6","18599","0.0-6.0-0.0","1069","true","img/card_backs/set1/yellow.gif","img/card_backs/set1/purple.gif","img/card_backs/set1/green.gif","img/card_backs/set1/red.gif","img/card_backs/set2/gray.gif","img/card_backs/set2/blue.gif","img/card_backs/set2/orange.gif","img/card_backs/set2/pink.gif","""event"",""trial"",""time""
""fullscreenenter"",""1"",""4931""
","
","
","""event"",""trial"",""time""
""fullscreenenter"",""1"",""4931""
","
","","3805.2000000476837","Welcome to the casino!","71","","instructions","2021-08-17 01:43:25.634","","","","","",""
"casino-keyboard-response","7","27798","0.0-6.0-0.1","1069","true","img/card_backs/set1/yellow.gif","img/card_backs/set1/purple.gif","img/card_backs/set1/green.gif","img/card_backs/set1/red.gif","img/card_backs/set2/gray.gif","img/card_backs/set2/blue.gif","img/card_backs/set2/orange.gif","img/card_backs/set2/pink.gif","""event"",""trial"",""time""
""fullscreenenter"",""1"",""4931""
","
","
","""event"",""trial"",""time""
""fullscreenenter"",""1"",""4931""
","
","","9198","Today you will be playing a game to earn tokens. </br> At the end of the experiment, you will be paid a bonus based on how many tokens you win. ","69","","instructions","2021-08-17 01:43:34.833","","","","","",""
"casino-keyboard-response","8","35150","0.0-6.0-0.2","1069","true","img/card_backs/set1/yellow.gif","img/card_backs/set1/purple.gif","img/card_backs/set1/green.gif","img/card_backs/set1/red.gif","img/card_backs/set2/gray.gif","img/card_backs/set2/blue.gif","img/card_backs/set2/orange.gif","img/card_backs/set2/pink.gif","""event"",""trial"",""time""
""fullscreenenter"",""1"",""4931""
","
","
","""event"",""trial"",""time""
""fullscreenenter"",""1"",""4931""
","
","","7350.599999964237","On every turn, you will be shown four different decks of cards. </br> You need to select a card from one of the four decks.  ","75","","instructions","2021-08-17 01:43:42.185","","","","","",""
"casino-keyboard-response","9","39646","0.0-6.0-0.3","1069","true","img/card_backs/set1/yellow.gif","img/card_backs/set1/purple.gif","img/card_backs/set1/green.gif","img/card_backs/set1/red.gif","img/card_backs/set2/gray.gif","img/card_backs/set2/blue.gif","img/card_backs/set2/orange.gif","img/card_backs/set2/pink.gif","""event"",""trial"",""time""
""fullscreenenter"",""1"",""4931""
","
","
","""event"",""trial"",""time""
""fullscreenenter"",""1"",""4931""
","
","","4494.399999976158","On the next screen, you will see what the decks will look like. ","66","","instructions","2021-08-17 01:43:46.681","","","","","",""
"card-selection-trial","10","43651","0.0-7.0-0.0","1069","true","img/card_backs/set1/yellow.gif","img/card_backs/set1/purple.gif","img/card_backs/set1/green.gif","img/card_backs/set1/red.gif","img/card_backs/set2/gray.gif","img/card_backs/set2/blue.gif","img/card_backs/set2/orange.gif","img/card_backs/set2/pink.gif","""event"",""trial"",""time""
""fullscreenenter"",""1"",""4931""
","
","
","""event"",""trial"",""time""
""fullscreenenter"",""1"",""4931""
","
","","null","","","","practice","2021-08-17 01:43:50.686","null","null","null","0","",""
"casino-keyboard-response","11","51102","0.0-8.0-0.0","1069","true","img/card_backs/set1/yellow.gif","img/card_backs/set1/purple.gif","img/card_backs/set1/green.gif","img/card_backs/set1/red.gif","img/card_backs/set2/gray.gif","img/card_backs/set2/blue.gif","img/card_backs/set2/orange.gif","img/card_backs/set2/pink.gif","""event"",""trial"",""time""
""fullscreenenter"",""1"",""4931""
","
","
","""event"",""trial"",""time""
""fullscreenenter"",""1"",""4931""
","
","","7450.199999988079","You should pick a card from a deck using the '2', '4', '6', and '8' keys at the top of the keyboard.","85","","instructions","2021-08-17 01:43:58.137","","","","","",""
"casino-keyboard-response","12","57150","0.0-8.0-0.1","1069","true","img/card_backs/set1/yellow.gif","img/card_backs/set1/purple.gif","img/card_backs/set1/green.gif","img/card_backs/set1/red.gif","img/card_backs/set2/gray.gif","img/card_backs/set2/blue.gif","img/card_backs/set2/orange.gif","img/card_backs/set2/pink.gif","""event"",""trial"",""time""
""fullscreenenter"",""1"",""4931""
","
","
","""event"",""trial"",""time""
""fullscreenenter"",""1"",""4931""
","
","","6046.899999976158","Once you select a card, it will turn over and you will see how many tokens you earned.","83","","instructions","2021-08-17 01:44:04.185","","","","","",""
"casino-keyboard-response","13","71582","0.0-8.0-0.2","1069","true","img/card_backs/set1/yellow.gif","img/card_backs/set1/purple.gif","img/card_backs/set1/green.gif","img/card_backs/set1/red.gif","img/card_backs/set2/gray.gif","img/card_backs/set2/blue.gif","img/card_backs/set2/orange.gif","img/card_backs/set2/pink.gif","""event"",""trial"",""time""
""fullscreenenter"",""1"",""4931""
","
","
","""event"",""trial"",""time""
""fullscreenenter"",""1"",""4931""
","
","","14430.699999988079","Let's try practicing that! </br> First, try to put your fingers over the '2', '4', '6', and '8' keys. </br>  You can use whatever fingers are most comfortable for you. Try to find a comfortable position now. ","50","","instructions","2021-08-17 01:44:18.617","","","","","",""
"casino-keyboard-response","14","77222","0.0-8.0-0.3","1069","true","img/card_backs/set1/yellow.gif","img/card_backs/set1/purple.gif","img/card_backs/set1/green.gif","img/card_backs/set1/red.gif","img/card_backs/set2/gray.gif","img/card_backs/set2/blue.gif","img/card_backs/set2/orange.gif","img/card_backs/set2/pink.gif","""event"",""trial"",""time""
""fullscreenenter"",""1"",""4931""
","
","
","""event"",""trial"",""time""
""fullscreenenter"",""1"",""4931""
","
","","5638.699999988079","Okay ready? </br> On the next screen, press '2' to select the left deck. ","50","","instructions","2021-08-17 01:44:24.257","","","","","",""
"card-selection-trial","15","80111","0.0-9.0-0.0","1069","true","img/card_backs/set1/yellow.gif","img/card_backs/set1/purple.gif","img/card_backs/set1/green.gif","img/card_backs/set1/red.gif","img/card_backs/set2/gray.gif","img/card_backs/set2/blue.gif","img/card_backs/set2/orange.gif","img/card_backs/set2/pink.gif","""event"",""trial"",""time""
""fullscreenenter"",""1"",""4931""
","
","
","""event"",""trial"",""time""
""fullscreenenter"",""1"",""4931""
","
","","878.8000000119209","","","","practice_card_selection","2021-08-17 01:44:27.146","img/practice_cards/backs/brown.gif","0","100","","",""
"casino-keyboard-response","16","85638","0.0-10.0-0.0","1069","true","img/card_backs/set1/yellow.gif","img/card_backs/set1/purple.gif","img/card_backs/set1/green.gif","img/card_backs/set1/red.gif","img/card_backs/set2/gray.gif","img/card_backs/set2/blue.gif","img/card_backs/set2/orange.gif","img/card_backs/set2/pink.gif","""event"",""trial"",""time""
""fullscreenenter"",""1"",""4931""
","
","
","""event"",""trial"",""time""
""fullscreenenter"",""1"",""4931""
","
","","5525.699999988079","Great! Now on the next screen, try pressing '6' to select the third deck.","54","","instructions","2021-08-17 01:44:32.673","","","","","",""
"card-selection-trial","17","87956","0.0-11.0-0.0","1069","true","img/card_backs/set1/yellow.gif","img/card_backs/set1/purple.gif","img/card_backs/set1/green.gif","img/card_backs/set1/red.gif","img/card_backs/set2/gray.gif","img/card_backs/set2/blue.gif","img/card_backs/set2/orange.gif","img/card_backs/set2/pink.gif","""event"",""trial"",""time""
""fullscreenenter"",""1"",""4931""
","
","
","""event"",""trial"",""time""
""fullscreenenter"",""1"",""4931""
","
","","300.5","","","","practice_card_selection","2021-08-17 01:44:34.991","img/practice_cards/backs/black.gif","2","-100","","",""
"casino-keyboard-response","18","92494","0.0-12.0-0.0","1069","true","img/card_backs/set1/yellow.gif","img/card_backs/set1/purple.gif","img/card_backs/set1/green.gif","img/card_backs/set1/red.gif","img/card_backs/set2/gray.gif","img/card_backs/set2/blue.gif","img/card_backs/set2/orange.gif","img/card_backs/set2/pink.gif","""event"",""trial"",""time""
""fullscreenenter"",""1"",""4931""
","
","
","""event"",""trial"",""time""
""fullscreenenter"",""1"",""4931""
","
","","4536.399999976158","Now on the next screen, try pressing '4' to select the second deck.","52","","instructions","2021-08-17 01:44:39.529","","","","","",""
"card-selection-trial","19","94724","0.0-13.0-0.0","1069","true","img/card_backs/set1/yellow.gif","img/card_backs/set1/purple.gif","img/card_backs/set1/green.gif","img/card_backs/set1/red.gif","img/card_backs/set2/gray.gif","img/card_backs/set2/blue.gif","img/card_backs/set2/orange.gif","img/card_backs/set2/pink.gif","""event"",""trial"",""time""
""fullscreenenter"",""1"",""4931""
","
","
","""event"",""trial"",""time""
""fullscreenenter"",""1"",""4931""
","
","","221","","","","practice_card_selection","2021-08-17 01:44:41.759","img/practice_cards/backs/dark_green.gif","1","-200","","",""
"casino-keyboard-response","20","98966","0.0-14.0-0.0","1069","true","img/card_backs/set1/yellow.gif","img/card_backs/set1/purple.gif","img/card_backs/set1/green.gif","img/card_backs/set1/red.gif","img/card_backs/set2/gray.gif","img/card_backs/set2/blue.gif","img/card_backs/set2/orange.gif","img/card_backs/set2/pink.gif","""event"",""trial"",""time""
""fullscreenenter"",""1"",""4931""
","
","
","""event"",""trial"",""time""
""fullscreenenter"",""1"",""4931""
","
","","4240.899999976158","Finally, try pressing '8' to select the deck all the way on the right.","56","","instructions","2021-08-17 01:44:46.001","","","","","",""
"card-selection-trial","21","101399","0.0-15.0-0.0","1069","true","img/card_backs/set1/yellow.gif","img/card_backs/set1/purple.gif","img/card_backs/set1/green.gif","img/card_backs/set1/red.gif","img/card_backs/set2/gray.gif","img/card_backs/set2/blue.gif","img/card_backs/set2/orange.gif","img/card_backs/set2/pink.gif","""event"",""trial"",""time""
""fullscreenenter"",""1"",""4931""
","
","
","""event"",""trial"",""time""
""fullscreenenter"",""1"",""4931""
","
","","413.60000002384186","","","","practice_card_selection","2021-08-17 01:44:48.434","img/practice_cards/backs/black.gif","3","100","","",""
"casino-keyboard-response","22","105198","0.0-16.0-0.0","1069","true","img/card_backs/set1/yellow.gif","img/card_backs/set1/purple.gif","img/card_backs/set1/green.gif","img/card_backs/set1/red.gif","img/card_backs/set2/gray.gif","img/card_backs/set2/blue.gif","img/card_backs/set2/orange.gif","img/card_backs/set2/pink.gif","""event"",""trial"",""time""
""fullscreenenter"",""1"",""4931""
","
","
","""event"",""trial"",""time""
""fullscreenenter"",""1"",""4931""
","
","","3798.300000011921","Great! It seems like you are getting the hang of this.","80","","instructions","2021-08-17 01:44:52.233","","","","","",""
"casino-keyboard-response","23","112486","0.0-16.0-0.1","1069","true","img/card_backs/set1/yellow.gif","img/card_backs/set1/purple.gif","img/card_backs/set1/green.gif","img/card_backs/set1/red.gif","img/card_backs/set2/gray.gif","img/card_backs/set2/blue.gif","img/card_backs/set2/orange.gif","img/card_backs/set2/pink.gif","""event"",""trial"",""time""
""fullscreenenter"",""1"",""4931""
","
","
","""event"",""trial"",""time""
""fullscreenenter"",""1"",""4931""
","
","","7287.100000023842","You may have noticed that some cards will cause you to <b> win </b> tokens while other cards will cause you to <b> lose </b>  tokens.","70","","instructions","2021-08-17 01:44:59.521","","","","","",""
"casino-keyboard-response","24","121510","0.0-16.0-0.2","1069","true","img/card_backs/set1/yellow.gif","img/card_backs/set1/purple.gif","img/card_backs/set1/green.gif","img/card_backs/set1/red.gif","img/card_backs/set2/gray.gif","img/card_backs/set2/blue.gif","img/card_backs/set2/orange.gif","img/card_backs/set2/pink.gif","""event"",""trial"",""time""
""fullscreenenter"",""1"",""4931""
","
","
","""event"",""trial"",""time""
""fullscreenenter"",""1"",""4931""
","
","","9022.5","Each deck has a mix of cards that will cause you to win and lose tokens. </br> However, the cards in each colored deck are different.","73","","instructions","2021-08-17 01:45:08.545","","","","","",""
"casino-keyboard-response","25","141246","0.0-16.0-0.3","1069","true","img/card_backs/set1/yellow.gif","img/card_backs/set1/purple.gif","img/card_backs/set1/green.gif","img/card_backs/set1/red.gif","img/card_backs/set2/gray.gif","img/card_backs/set2/blue.gif","img/card_backs/set2/orange.gif","img/card_backs/set2/pink.gif","""event"",""trial"",""time""
""fullscreenenter"",""1"",""4931""
","
","
","""event"",""trial"",""time""
""fullscreenenter"",""1"",""4931""
","
","","19735.200000047684","Some colored decks are luckier than others. </br> If you choose the lucky decks, you will earn more tokens than if you choose the unlucky decks.","69","","instructions","2021-08-17 01:45:28.281","","","","","",""
"casino-keyboard-response","26","149110","0.0-16.0-0.4","1069","true","img/card_backs/set1/yellow.gif","img/card_backs/set1/purple.gif","img/card_backs/set1/green.gif","img/card_backs/set1/red.gif","img/card_backs/set2/gray.gif","img/card_backs/set2/blue.gif","img/card_backs/set2/orange.gif","img/card_backs/set2/pink.gif","""event"",""trial"",""time""
""fullscreenenter"",""1"",""4931""
","
","
","""event"",""trial"",""time""
""fullscreenenter"",""1"",""4931""
","
","","7862.600000023842","You should try to figure out which decks are lucky. </br> Then, try to choose the lucky decks so you can win the most tokens.","87","","instructions","2021-08-17 01:45:36.145","","","","","",""
"casino-keyboard-response","27","161526","0.0-16.0-0.5","1069","true","img/card_backs/set1/yellow.gif","img/card_backs/set1/purple.gif","img/card_backs/set1/green.gif","img/card_backs/set1/red.gif","img/card_backs/set2/gray.gif","img/card_backs/set2/blue.gif","img/card_backs/set2/orange.gif","img/card_backs/set2/pink.gif","""event"",""trial"",""time""
""fullscreenenter"",""1"",""4931""
","
","
","""event"",""trial"",""time""
""fullscreenenter"",""1"",""4931""
","
","","12415.199999988079","To make it trickier, the casino dealer will switch the locations of the decks on every turn. </br> The color of the deck determines how lucky it is. The location does not matter.","88","","instructions","2021-08-17 01:45:48.561","","","","","",""
"casino-keyboard-response","28","171222","0.0-16.0-0.6","1069","true","img/card_backs/set1/yellow.gif","img/card_backs/set1/purple.gif","img/card_backs/set1/green.gif","img/card_backs/set1/red.gif","img/card_backs/set2/gray.gif","img/card_backs/set2/blue.gif","img/card_backs/set2/orange.gif","img/card_backs/set2/pink.gif","""event"",""trial"",""time""
""fullscreenenter"",""1"",""4931""
","
","
","""event"",""trial"",""time""
""fullscreenenter"",""1"",""4931""
","
","","9694.5","The mix of cards in each colored deck will stay the same throughout the game. </br> That means that a deck that is lucky early on will stay lucky.","79","","instructions","2021-08-17 01:45:58.257","","","","","",""
"casino-keyboard-response","29","179638","0.0-16.0-0.7","1069","true","img/card_backs/set1/yellow.gif","img/card_backs/set1/purple.gif","img/card_backs/set1/green.gif","img/card_backs/set1/red.gif","img/card_backs/set2/gray.gif","img/card_backs/set2/blue.gif","img/card_backs/set2/orange.gif","img/card_backs/set2/pink.gif","""event"",""trial"",""time""
""fullscreenenter"",""1"",""4931""
","
","
","""event"",""trial"",""time""
""fullscreenenter"",""1"",""4931""
","
","","8414.699999988079","Remember though, all the decks have a <b> mix </b> of both <b> good </b> and <b> bad </b> cards so it may take a couple of turns to figure out if a deck is lucky.","69","","instructions","2021-08-17 01:46:06.673","","","","","",""
"casino-keyboard-response","30","188358","0.0-16.0-0.8","1069","true","img/card_backs/set1/yellow.gif","img/card_backs/set1/purple.gif","img/card_backs/set1/green.gif","img/card_backs/set1/red.gif","img/card_backs/set2/gray.gif","img/card_backs/set2/blue.gif","img/card_backs/set2/orange.gif","img/card_backs/set2/pink.gif","""event"",""trial"",""time""
""fullscreenenter"",""1"",""4931""
","
","
","""event"",""trial"",""time""
""fullscreenenter"",""1"",""4931""
","
","","8718.5","At the end of the game, you will be paid bonus money based on how many tokens you win. </br> If you win more tokens, you will earn more money!","72","","instructions","2021-08-17 01:46:15.393","","","","","",""
"casino-keyboard-response","31","198534","0.0-16.0-0.9","1069","true","img/card_backs/set1/yellow.gif","img/card_backs/set1/purple.gif","img/card_backs/set1/green.gif","img/card_backs/set1/red.gif","img/card_backs/set2/gray.gif","img/card_backs/set2/blue.gif","img/card_backs/set2/orange.gif","img/card_backs/set2/pink.gif","""event"",""trial"",""time""
""fullscreenenter"",""1"",""4931""
","
","
","""event"",""trial"",""time""
""fullscreenenter"",""1"",""4931""
","
","","10174.800000011921","You will never <b> lose </b> money. </br> If you end up with fewer than 0 tokens, you will earn $0 of bonus money, but you will still be paid for playing the game.","83","","instructions","2021-08-17 01:46:25.569","","","","","",""
"casino-keyboard-response","32","202646","0.0-16.0-0.10","1069","true","img/card_backs/set1/yellow.gif","img/card_backs/set1/purple.gif","img/card_backs/set1/green.gif","img/card_backs/set1/red.gif","img/card_backs/set2/gray.gif","img/card_backs/set2/blue.gif","img/card_backs/set2/orange.gif","img/card_backs/set2/pink.gif","""event"",""trial"",""time""
""fullscreenenter"",""1"",""4931""
","
","
","""event"",""trial"",""time""
""fullscreenenter"",""1"",""4931""
","
","","4110.800000011921","You will have 10 seconds to make each choice.","82","","instructions","2021-08-17 01:46:29.681","","","","","",""
"casino-keyboard-response","33","210822","0.0-16.0-0.11","1069","true","img/card_backs/set1/yellow.gif","img/card_backs/set1/purple.gif","img/card_backs/set1/green.gif","img/card_backs/set1/red.gif","img/card_backs/set2/gray.gif","img/card_backs/set2/blue.gif","img/card_backs/set2/orange.gif","img/card_backs/set2/pink.gif","""event"",""trial"",""time""
""fullscreenenter"",""1"",""4931""
","
","
","""event"",""trial"",""time""
""fullscreenenter"",""1"",""4931""
","
","","8174.699999988079","Before you play the game for real, you will play with practice decks. </br> The tokens you earn during practice won't count toward your total.","86","","instructions","2021-08-17 01:46:37.857","","","","","",""
"casino-keyboard-response","34","218374","0.0-16.0-0.12","1069","true","img/card_backs/set1/yellow.gif","img/card_backs/set1/purple.gif","img/card_backs/set1/green.gif","img/card_backs/set1/red.gif","img/card_backs/set2/gray.gif","img/card_backs/set2/blue.gif","img/card_backs/set2/orange.gif","img/card_backs/set2/pink.gif","""event"",""trial"",""time""
""fullscreenenter"",""1"",""4931""
","
","
","""event"",""trial"",""time""
""fullscreenenter"",""1"",""4931""
","
","","7550.699999988079","Ready? Remember, use the '2', '4', '6', and '8' keys to select the decks. </br> Put your fingers on those keys now and then press '2' to begin.","50","","instructions","2021-08-17 01:46:45.409","","","","","",""
"casino-fixation","35","218887","0.0-17.0-0.0","1069","true","img/card_backs/set1/yellow.gif","img/card_backs/set1/purple.gif","img/card_backs/set1/green.gif","img/card_backs/set1/red.gif","img/card_backs/set2/gray.gif","img/card_backs/set2/blue.gif","img/card_backs/set2/orange.gif","img/card_backs/set2/pink.gif","""event"",""trial"",""time""
""fullscreenenter"",""1"",""4931""
","
","
","""event"",""trial"",""time""
""fullscreenenter"",""1"",""4931""
","
","","null","","null","","fixation","2021-08-17 01:46:45.923","","","","","",""
"card-selection-trial","36","223472","0.0-17.0-1.0","1069","true","img/card_backs/set1/yellow.gif","img/card_backs/set1/purple.gif","img/card_backs/set1/green.gif","img/card_backs/set1/red.gif","img/card_backs/set2/gray.gif","img/card_backs/set2/blue.gif","img/card_backs/set2/orange.gif","img/card_backs/set2/pink.gif","""event"",""trial"",""time""
""fullscreenenter"",""1"",""4931""
","
","
","""event"",""trial"",""time""
""fullscreenenter"",""1"",""4931""
","
","","2580.5","","","","practice","2021-08-17 01:46:50.507","img/practice_cards/backs/black.gif","2","100","0","",""
"casino-fixation","37","223987","0.0-17.0-0.1","1069","true","img/card_backs/set1/yellow.gif","img/card_backs/set1/purple.gif","img/card_backs/set1/green.gif","img/card_backs/set1/red.gif","img/card_backs/set2/gray.gif","img/card_backs/set2/blue.gif","img/card_backs/set2/orange.gif","img/card_backs/set2/pink.gif","""event"",""trial"",""time""
""fullscreenenter"",""1"",""4931""
","
","
","""event"",""trial"",""time""
""fullscreenenter"",""1"",""4931""
","
","","null","","null","","fixation","2021-08-17 01:46:51.022","","","","","",""
"card-selection-trial","38","227779","0.0-17.0-1.1","1069","true","img/card_backs/set1/yellow.gif","img/card_backs/set1/purple.gif","img/card_backs/set1/green.gif","img/card_backs/set1/red.gif","img/card_backs/set2/gray.gif","img/card_backs/set2/blue.gif","img/card_backs/set2/orange.gif","img/card_backs/set2/pink.gif","""event"",""trial"",""time""
""fullscreenenter"",""1"",""4931""
","
","
","""event"",""trial"",""time""
""fullscreenenter"",""1"",""4931""
","
","","1776.3999999761581","","","","practice","2021-08-17 01:46:54.814","img/practice_cards/backs/dark_green.gif","0","-200","0","",""
"casino-fixation","39","228292","0.0-17.0-0.2","1069","true","img/card_backs/set1/yellow.gif","img/card_backs/set1/purple.gif","img/card_backs/set1/green.gif","img/card_backs/set1/red.gif","img/card_backs/set2/gray.gif","img/card_backs/set2/blue.gif","img/card_backs/set2/orange.gif","img/card_backs/set2/pink.gif","""event"",""trial"",""time""
""fullscreenenter"",""1"",""4931""
","
","
","""event"",""trial"",""time""
""fullscreenenter"",""1"",""4931""
","
","","null","","null","","fixation","2021-08-17 01:46:55.327","","","","","",""
"card-selection-trial","40","231903","0.0-17.0-1.2","1069","true","img/card_backs/set1/yellow.gif","img/card_backs/set1/purple.gif","img/card_backs/set1/green.gif","img/card_backs/set1/red.gif","img/card_backs/set2/gray.gif","img/card_backs/set2/blue.gif","img/card_backs/set2/orange.gif","img/card_backs/set2/pink.gif","""event"",""trial"",""time""
""fullscreenenter"",""1"",""4931""
","
","
","""event"",""trial"",""time""
""fullscreenenter"",""1"",""4931""
","
","","1607.7000000476837","","","","practice","2021-08-17 01:46:58.938","img/practice_cards/backs/brown.gif","3","100","0","",""
"casino-fixation","41","232417","0.0-17.0-0.3","1069","true","img/card_backs/set1/yellow.gif","img/card_backs/set1/purple.gif","img/card_backs/set1/green.gif","img/card_backs/set1/red.gif","img/card_backs/set2/gray.gif","img/card_backs/set2/blue.gif","img/card_backs/set2/orange.gif","img/card_backs/set2/pink.gif","""event"",""trial"",""time""
""fullscreenenter"",""1"",""4931""
","
","
","""event"",""trial"",""time""
""fullscreenenter"",""1"",""4931""
","
","","null","","null","","fixation","2021-08-17 01:46:59.453","","","","","",""
"card-selection-trial","42","235372","0.0-17.0-1.3","1069","true","img/card_backs/set1/yellow.gif","img/card_backs/set1/purple.gif","img/card_backs/set1/green.gif","img/card_backs/set1/red.gif","img/card_backs/set2/gray.gif","img/card_backs/set2/blue.gif","img/card_backs/set2/orange.gif","img/card_backs/set2/pink.gif","""event"",""trial"",""time""
""fullscreenenter"",""1"",""4931""
","
","
","""event"",""trial"",""time""
""fullscreenenter"",""1"",""4931""
","
","","946.5999999642372","","","","practice","2021-08-17 01:47:02.407","img/practice_cards/backs/dark_blue.gif","2","-200","0","",""
"casino-fixation","43","235874","0.0-17.0-0.4","1069","true","img/card_backs/set1/yellow.gif","img/card_backs/set1/purple.gif","img/card_backs/set1/green.gif","img/card_backs/set1/red.gif","img/card_backs/set2/gray.gif","img/card_backs/set2/blue.gif","img/card_backs/set2/orange.gif","img/card_backs/set2/pink.gif","""event"",""trial"",""time""
""fullscreenenter"",""1"",""4931""
","
","
","""event"",""trial"",""time""
""fullscreenenter"",""1"",""4931""
","
","","null","","null","","fixation","2021-08-17 01:47:02.909","","","","","",""
"card-selection-trial","44","239819","0.0-17.0-1.4","1069","true","img/card_backs/set1/yellow.gif","img/card_backs/set1/purple.gif","img/card_backs/set1/green.gif","img/card_backs/set1/red.gif","img/card_backs/set2/gray.gif","img/card_backs/set2/blue.gif","img/card_backs/set2/orange.gif","img/card_backs/set2/pink.gif","""event"",""trial"",""time""
""fullscreenenter"",""1"",""4931""
","
","
","""event"",""trial"",""time""
""fullscreenenter"",""1"",""4931""
","
","","1937.5999999642372","","","","practice","2021-08-17 01:47:06.854","img/practice_cards/backs/black.gif","1","100","0","",""
"casino-fixation","45","240335","0.0-17.0-0.5","1069","true","img/card_backs/set1/yellow.gif","img/card_backs/set1/purple.gif","img/card_backs/set1/green.gif","img/card_backs/set1/red.gif","img/card_backs/set2/gray.gif","img/card_backs/set2/blue.gif","img/card_backs/set2/orange.gif","img/card_backs/set2/pink.gif","""event"",""trial"",""time""
""fullscreenenter"",""1"",""4931""
","
","
","""event"",""trial"",""time""
""fullscreenenter"",""1"",""4931""
","
","","null","","null","","fixation","2021-08-17 01:47:07.370","","","","","",""
"card-selection-trial","46","243778","0.0-17.0-1.5","1069","true","img/card_backs/set1/yellow.gif","img/card_backs/set1/purple.gif","img/card_backs/set1/green.gif","img/card_backs/set1/red.gif","img/card_backs/set2/gray.gif","img/card_backs/set2/blue.gif","img/card_backs/set2/orange.gif","img/card_backs/set2/pink.gif","""event"",""trial"",""time""
""fullscreenenter"",""1"",""4931""
","
","
","""event"",""trial"",""time""
""fullscreenenter"",""1"",""4931""
","
","","1428.199999988079","","","","practice","2021-08-17 01:47:10.813","img/practice_cards/backs/brown.gif","3","-100","0","",""
"casino-fixation","47","244289","0.0-17.0-0.6","1069","true","img/card_backs/set1/yellow.gif","img/card_backs/set1/purple.gif","img/card_backs/set1/green.gif","img/card_backs/set1/red.gif","img/card_backs/set2/gray.gif","img/card_backs/set2/blue.gif","img/card_backs/set2/orange.gif","img/card_backs/set2/pink.gif","""event"",""trial"",""time""
""fullscreenenter"",""1"",""4931""
","
","
","""event"",""trial"",""time""
""fullscreenenter"",""1"",""4931""
","
","","null","","null","","fixation","2021-08-17 01:47:11.325","","","","","",""
"card-selection-trial","48","248650","0.0-17.0-1.6","1069","true","img/card_backs/set1/yellow.gif","img/card_backs/set1/purple.gif","img/card_backs/set1/green.gif","img/card_backs/set1/red.gif","img/card_backs/set2/gray.gif","img/card_backs/set2/blue.gif","img/card_backs/set2/orange.gif","img/card_backs/set2/pink.gif","""event"",""trial"",""time""
""fullscreenenter"",""1"",""4931""
","
","
","""event"",""trial"",""time""
""fullscreenenter"",""1"",""4931""
","
","","2351.199999988079","","","","practice","2021-08-17 01:47:15.686","img/practice_cards/backs/black.gif","2","100","0","",""
"casino-fixation","49","249154","0.0-17.0-0.7","1069","true","img/card_backs/set1/yellow.gif","img/card_backs/set1/purple.gif","img/card_backs/set1/green.gif","img/card_backs/set1/red.gif","img/card_backs/set2/gray.gif","img/card_backs/set2/blue.gif","img/card_backs/set2/orange.gif","img/card_backs/set2/pink.gif","""event"",""trial"",""time""
""fullscreenenter"",""1"",""4931""
","
","
","""event"",""trial"",""time""
""fullscreenenter"",""1"",""4931""
","
","","null","","null","","fixation","2021-08-17 01:47:16.189","","","","","",""
"card-selection-trial","50","252216","0.0-17.0-1.7","1069","true","img/card_backs/set1/yellow.gif","img/card_backs/set1/purple.gif","img/card_backs/set1/green.gif","img/card_backs/set1/red.gif","img/card_backs/set2/gray.gif","img/card_backs/set2/blue.gif","img/card_backs/set2/orange.gif","img/card_backs/set2/pink.gif","""event"",""trial"",""time""
""fullscreenenter"",""1"",""4931""
","
","
","""event"",""trial"",""time""
""fullscreenenter"",""1"",""4931""
","
","","1056.0999999642372","","","","practice","2021-08-17 01:47:19.251","img/practice_cards/backs/dark_green.gif","0","-200","0","",""
"casino-fixation","51","252725","0.0-17.0-0.8","1069","true","img/card_backs/set1/yellow.gif","img/card_backs/set1/purple.gif","img/card_backs/set1/green.gif","img/card_backs/set1/red.gif","img/card_backs/set2/gray.gif","img/card_backs/set2/blue.gif","img/card_backs/set2/orange.gif","img/card_backs/set2/pink.gif","""event"",""trial"",""time""
""fullscreenenter"",""1"",""4931""
","
","
","""event"",""trial"",""time""
""fullscreenenter"",""1"",""4931""
","
","","null","","null","","fixation","2021-08-17 01:47:19.760","","","","","",""
"card-selection-trial","52","256335","0.0-17.0-1.8","1069","true","img/card_backs/set1/yellow.gif","img/card_backs/set1/purple.gif","img/card_backs/set1/green.gif","img/card_backs/set1/red.gif","img/card_backs/set2/gray.gif","img/card_backs/set2/blue.gif","img/card_backs/set2/orange.gif","img/card_backs/set2/pink.gif","""event"",""trial"",""time""
""fullscreenenter"",""1"",""4931""
","
","
","""event"",""trial"",""time""
""fullscreenenter"",""1"",""4931""
","
","","1598.6000000238419","","","","practice","2021-08-17 01:47:23.370","img/practice_cards/backs/black.gif","0","-100","0","",""
"casino-fixation","53","256838","0.0-17.0-0.9","1069","true","img/card_backs/set1/yellow.gif","img/card_backs/set1/purple.gif","img/card_backs/set1/green.gif","img/card_backs/set1/red.gif","img/card_backs/set2/gray.gif","img/card_backs/set2/blue.gif","img/card_backs/set2/orange.gif","img/card_backs/set2/pink.gif","""event"",""trial"",""time""
""fullscreenenter"",""1"",""4931""
","
","
","""event"",""trial"",""time""
""fullscreenenter"",""1"",""4931""
","
","","null","","null","","fixation","2021-08-17 01:47:23.873","","","","","",""
"card-selection-trial","54","260032","0.0-17.0-1.9","1069","true","img/card_backs/set1/yellow.gif","img/card_backs/set1/purple.gif","img/card_backs/set1/green.gif","img/card_backs/set1/red.gif","img/card_backs/set2/gray.gif","img/card_backs/set2/blue.gif","img/card_backs/set2/orange.gif","img/card_backs/set2/pink.gif","""event"",""trial"",""time""
""fullscreenenter"",""1"",""4931""
","
","
","""event"",""trial"",""time""
""fullscreenenter"",""1"",""4931""
","
","","1189.5","","","","practice","2021-08-17 01:47:27.067","img/practice_cards/backs/brown.gif","0","100","0","",""
"casino-keyboard-response","55","264662","0.0-18.0","1069","true","img/card_backs/set1/yellow.gif","img/card_backs/set1/purple.gif","img/card_backs/set1/green.gif","img/card_backs/set1/red.gif","img/card_backs/set2/gray.gif","img/card_backs/set2/blue.gif","img/card_backs/set2/orange.gif","img/card_backs/set2/pink.gif","""event"",""trial"",""time""
""fullscreenenter"",""1"",""4931""
","
","
","""event"",""trial"",""time""
""fullscreenenter"",""1"",""4931""
","
","","4628.600000023842","You earned -300 tokens during the practice round!","82","","","2021-08-17 01:47:31.697","","","","","",""
"casino-keyboard-response","56","271006","0.0-19.0-0.0","1069","true","img/card_backs/set1/yellow.gif","img/card_backs/set1/purple.gif","img/card_backs/set1/green.gif","img/card_backs/set1/red.gif","img/card_backs/set2/gray.gif","img/card_backs/set2/blue.gif","img/card_backs/set2/orange.gif","img/card_backs/set2/pink.gif","""event"",""trial"",""time""
""fullscreenenter"",""1"",""4931""
","
","
","""event"",""trial"",""time""
""fullscreenenter"",""1"",""4931""
","
","","6342.899999976158","Nice job! You are almost ready to play the real game.","86","","instructions","2021-08-17 01:47:38.041","","","","","",""
"casino-keyboard-response","57","277550","0.0-19.0-0.1","1069","true","img/card_backs/set1/yellow.gif","img/card_backs/set1/purple.gif","img/card_backs/set1/green.gif","img/card_backs/set1/red.gif","img/card_backs/set2/gray.gif","img/card_backs/set2/blue.gif","img/card_backs/set2/orange.gif","img/card_backs/set2/pink.gif","""event"",""trial"",""time""
""fullscreenenter"",""1"",""4931""
","
","
","""event"",""trial"",""time""
""fullscreenenter"",""1"",""4931""
","
","","6542.699999988079","You will play two rounds of the real game. In each round, you will pick 100 cards in total.","73","","instructions","2021-08-17 01:47:44.585","","","","","",""
"casino-keyboard-response","58","282070","0.0-19.0-0.2","1069","true","img/card_backs/set1/yellow.gif","img/card_backs/set1/purple.gif","img/card_backs/set1/green.gif","img/card_backs/set1/red.gif","img/card_backs/set2/gray.gif","img/card_backs/set2/blue.gif","img/card_backs/set2/orange.gif","img/card_backs/set2/pink.gif","""event"",""trial"",""time""
""fullscreenenter"",""1"",""4931""
","
","
","""event"",""trial"",""time""
""fullscreenenter"",""1"",""4931""
","
","","4519","We are now going to ask you some questions about how the game works.","66","","instructions","2021-08-17 01:47:49.105","","","","","",""
"casino-keyboard-response","59","288334","0.0-19.0-0.3","1069","true","img/card_backs/set1/yellow.gif","img/card_backs/set1/purple.gif","img/card_backs/set1/green.gif","img/card_backs/set1/red.gif","img/card_backs/set2/gray.gif","img/card_backs/set2/blue.gif","img/card_backs/set2/orange.gif","img/card_backs/set2/pink.gif","""event"",""trial"",""time""
""fullscreenenter"",""1"",""4931""
","
","
","""event"",""trial"",""time""
""fullscreenenter"",""1"",""4931""
","
","","6262.699999988079","Answer carefully. You will not be able to begin the game until you answer them correctly.","67","","instructions","2021-08-17 01:47:55.369","","","","","",""
"casino-comp_q","60","294870","0.0-20.0-0.0","1069","true","img/card_backs/set1/yellow.gif","img/card_backs/set1/purple.gif","img/card_backs/set1/green.gif","img/card_backs/set1/red.gif","img/card_backs/set2/gray.gif","img/card_backs/set2/blue.gif","img/card_backs/set2/orange.gif","img/card_backs/set2/pink.gif","""event"",""trial"",""time""
""fullscreenenter"",""1"",""4931""
","
","
","""event"",""trial"",""time""
""fullscreenenter"",""1"",""4931""
","
","","6534.699999988079","True or False: All the decks have some cards that cause you to win tokens and some cards that cause you to lose tokens.","84","","","2021-08-17 01:48:01.905","","","","","",""
"casino-keyboard-response","61","299526","0.0-20.0-1.0","1069","true","img/card_backs/set1/yellow.gif","img/card_backs/set1/purple.gif","img/card_backs/set1/green.gif","img/card_backs/set1/red.gif","img/card_backs/set2/gray.gif","img/card_backs/set2/blue.gif","img/card_backs/set2/orange.gif","img/card_backs/set2/pink.gif","""event"",""trial"",""time""
""fullscreenenter"",""1"",""4931""
","
","
","""event"",""trial"",""time""
""fullscreenenter"",""1"",""4931""
","
","","4654.199999988079","True is correct! All the decks have a mix of winning and losing cards.","77","","","2021-08-17 01:48:06.561","","","","","true",""
"casino-comp_q","62","303366","0.0-21.0-0.0","1069","true","img/card_backs/set1/yellow.gif","img/card_backs/set1/purple.gif","img/card_backs/set1/green.gif","img/card_backs/set1/red.gif","img/card_backs/set2/gray.gif","img/card_backs/set2/blue.gif","img/card_backs/set2/orange.gif","img/card_backs/set2/pink.gif","""event"",""trial"",""time""
""fullscreenenter"",""1"",""4931""
","
","
","""event"",""trial"",""time""
""fullscreenenter"",""1"",""4931""
","
","","3838.800000011921","True or False: You will have as much time as you want to make your response.","70","","","2021-08-17 01:48:10.401","","","","","",""
"casino-keyboard-response","63","306718","0.0-21.0-1.0","1069","true","img/card_backs/set1/yellow.gif","img/card_backs/set1/purple.gif","img/card_backs/set1/green.gif","img/card_backs/set1/red.gif","img/card_backs/set2/gray.gif","img/card_backs/set2/blue.gif","img/card_backs/set2/orange.gif","img/card_backs/set2/pink.gif","""event"",""trial"",""time""
""fullscreenenter"",""1"",""4931""
","
","
","""event"",""trial"",""time""
""fullscreenenter"",""1"",""4931""
","
","","3350.399999976158","False is correct! You will only have 10 seconds to make each choice.","75","","","2021-08-17 01:48:13.753","","","","","true",""
"casino-comp_q","64","310614","0.0-22.0-0.0","1069","true","img/card_backs/set1/yellow.gif","img/card_backs/set1/purple.gif","img/card_backs/set1/green.gif","img/card_backs/set1/red.gif","img/card_backs/set2/gray.gif","img/card_backs/set2/blue.gif","img/card_backs/set2/orange.gif","img/card_backs/set2/pink.gif","""event"",""trial"",""time""
""fullscreenenter"",""1"",""4931""
","
","
","""event"",""trial"",""time""
""fullscreenenter"",""1"",""4931""
","
","","3894.600000023842","True or False: The location of the deck determines how lucky it is.","70","","","2021-08-17 01:48:17.649","","","","","",""
"casino-keyboard-response","65","316950","0.0-22.0-1.0","1069","true","img/card_backs/set1/yellow.gif","img/card_backs/set1/purple.gif","img/card_backs/set1/green.gif","img/card_backs/set1/red.gif","img/card_backs/set2/gray.gif","img/card_backs/set2/blue.gif","img/card_backs/set2/orange.gif","img/card_backs/set2/pink.gif","""event"",""trial"",""time""
""fullscreenenter"",""1"",""4931""
","
","
","""event"",""trial"",""time""
""fullscreenenter"",""1"",""4931""
","
","","6335.200000047684","False is correct! The <i>color</i>  of the deck determines how lucky or unlucky it is.","68","","","2021-08-17 01:48:23.985","","","","","true",""
"casino-keyboard-response","66","322534","0.0-23.0-0.0","1069","true","img/card_backs/set1/yellow.gif","img/card_backs/set1/purple.gif","img/card_backs/set1/green.gif","img/card_backs/set1/red.gif","img/card_backs/set2/gray.gif","img/card_backs/set2/blue.gif","img/card_backs/set2/orange.gif","img/card_backs/set2/pink.gif","""event"",""trial"",""time""
""fullscreenenter"",""1"",""4931""
","
","
","""event"",""trial"",""time""
""fullscreenenter"",""1"",""4931""
","
","","5582.699999988079","Great job! Now it's time to start the real game.","82","","instructions","2021-08-17 01:48:29.569","","","","","",""
"casino-keyboard-response","67","329278","0.0-23.0-0.1","1069","true","img/card_backs/set1/yellow.gif","img/card_backs/set1/purple.gif","img/card_backs/set1/green.gif","img/card_backs/set1/red.gif","img/card_backs/set2/gray.gif","img/card_backs/set2/blue.gif","img/card_backs/set2/orange.gif","img/card_backs/set2/pink.gif","""event"",""trial"",""time""
""fullscreenenter"",""1"",""4931""
","
","
","""event"",""trial"",""time""
""fullscreenenter"",""1"",""4931""
","
","","6743.300000011921","Before we start, we're going to head into a new room of the casino.","86","","instructions","2021-08-17 01:48:36.313","","","","","",""
"casino-keyboard-response","68","335414","0.0-24.0-0.0","1069","true","img/card_backs/set1/yellow.gif","img/card_backs/set1/purple.gif","img/card_backs/set1/green.gif","img/card_backs/set1/red.gif","img/card_backs/set2/gray.gif","img/card_backs/set2/blue.gif","img/card_backs/set2/orange.gif","img/card_backs/set2/pink.gif","""event"",""trial"",""time""
""fullscreenenter"",""1"",""4931""
","
","
","""event"",""trial"",""time""
""fullscreenenter"",""1"",""4931""
","
","","6134.799999952316","Here we are! The real game will use different cards, but the rules will be the same.","71","","instructions","2021-08-17 01:48:42.449","","","","","",""
"casino-keyboard-response","69","344518","0.0-24.0-0.1","1069","true","img/card_backs/set1/yellow.gif","img/card_backs/set1/purple.gif","img/card_backs/set1/green.gif","img/card_backs/set1/red.gif","img/card_backs/set2/gray.gif","img/card_backs/set2/blue.gif","img/card_backs/set2/orange.gif","img/card_backs/set2/pink.gif","""event"",""trial"",""time""
""fullscreenenter"",""1"",""4931""
","
","
","""event"",""trial"",""time""
""fullscreenenter"",""1"",""4931""
","
","","9103.099999964237","Ready? Put your fingers over the '2', '4', 6', and '8' keys so you are ready to play the game. </br> Then press 2 to start.","50","","instructions","2021-08-17 01:48:51.553","","","","","",""
"casino-fixation","70","345019","0.0-25.0-0.0","1069","true","img/card_backs/set1/yellow.gif","img/card_backs/set1/purple.gif","img/card_backs/set1/green.gif","img/card_backs/set1/red.gif","img/card_backs/set2/gray.gif","img/card_backs/set2/blue.gif","img/card_backs/set2/orange.gif","img/card_backs/set2/pink.gif","""event"",""trial"",""time""
""fullscreenenter"",""1"",""4931""
","
","
","""event"",""trial"",""time""
""fullscreenenter"",""1"",""4931""
","
","","null","","null","","fixation","2021-08-17 01:48:52.054","","","","","",""
"card-selection-trial","71","348762","0.0-25.0-1.0","1069","true","img/card_backs/set1/yellow.gif","img/card_backs/set1/purple.gif","img/card_backs/set1/green.gif","img/card_backs/set1/red.gif","img/card_backs/set2/gray.gif","img/card_backs/set2/blue.gif","img/card_backs/set2/orange.gif","img/card_backs/set2/pink.gif","""event"",""trial"",""time""
""fullscreenenter"",""1"",""4931""
","
","
","""event"",""trial"",""time""
""fullscreenenter"",""1"",""4931""
","
","","1727.6000000238419","","","","real_trial","2021-08-17 01:48:55.797","img/card_backs/set1/purple.gif","3","-200","1","",""
"casino-fixation","72","349263","0.0-25.0-0.1","1069","true","img/card_backs/set1/yellow.gif","img/card_backs/set1/purple.gif","img/card_backs/set1/green.gif","img/card_backs/set1/red.gif","img/card_backs/set2/gray.gif","img/card_backs/set2/blue.gif","img/card_backs/set2/orange.gif","img/card_backs/set2/pink.gif","""event"",""trial"",""time""
""fullscreenenter"",""1"",""4931""
","
","
","""event"",""trial"",""time""
""fullscreenenter"",""1"",""4931""
","
","","null","","null","","fixation","2021-08-17 01:48:56.298","","","","","",""
"card-selection-trial","73","353343","0.0-25.0-1.1","1069","true","img/card_backs/set1/yellow.gif","img/card_backs/set1/purple.gif","img/card_backs/set1/green.gif","img/card_backs/set1/red.gif","img/card_backs/set2/gray.gif","img/card_backs/set2/blue.gif","img/card_backs/set2/orange.gif","img/card_backs/set2/pink.gif","""event"",""trial"",""time""
""fullscreenenter"",""1"",""4931""
","
","
","""event"",""trial"",""time""
""fullscreenenter"",""1"",""4931""
","
","","2067.7999999523163","","","","real_trial","2021-08-17 01:49:00.378","img/card_backs/set1/purple.gif","1","-210","1","",""
"casino-fixation","74","353845","0.0-25.0-0.2","1069","true","img/card_backs/set1/yellow.gif","img/card_backs/set1/purple.gif","img/card_backs/set1/green.gif","img/card_backs/set1/red.gif","img/card_backs/set2/gray.gif","img/card_backs/set2/blue.gif","img/card_backs/set2/orange.gif","img/card_backs/set2/pink.gif","""event"",""trial"",""time""
""fullscreenenter"",""1"",""4931""
","
","
","""event"",""trial"",""time""
""fullscreenenter"",""1"",""4931""
","
","","null","","null","","fixation","2021-08-17 01:49:00.880","","","","","",""
"card-selection-trial","75","358567","0.0-25.0-1.2","1069","true","img/card_backs/set1/yellow.gif","img/card_backs/set1/purple.gif","img/card_backs/set1/green.gif","img/card_backs/set1/red.gif","img/card_backs/set2/gray.gif","img/card_backs/set2/blue.gif","img/card_backs/set2/orange.gif","img/card_backs/set2/pink.gif","""event"",""trial"",""time""
""fullscreenenter"",""1"",""4931""
","
","
","""event"",""trial"",""time""
""fullscreenenter"",""1"",""4931""
","
","","2718.800000011921","","","","real_trial","2021-08-17 01:49:05.602","img/card_backs/set1/purple.gif","2","-190","1","",""
"casino-fixation","76","359070","0.0-25.0-0.3","1069","true","img/card_backs/set1/yellow.gif","img/card_backs/set1/purple.gif","img/card_backs/set1/green.gif","img/card_backs/set1/red.gif","img/card_backs/set2/gray.gif","img/card_backs/set2/blue.gif","img/card_backs/set2/orange.gif","img/card_backs/set2/pink.gif","""event"",""trial"",""time""
""fullscreenenter"",""1"",""4931""
","
","
","""event"",""trial"",""time""
""fullscreenenter"",""1"",""4931""
","
","","null","","null","","fixation","2021-08-17 01:49:06.105","","","","","",""
"card-selection-trial","77","361393","0.0-25.0-1.3","1069","true","img/card_backs/set1/yellow.gif","img/card_backs/set1/purple.gif","img/card_backs/set1/green.gif","img/card_backs/set1/red.gif","img/card_backs/set2/gray.gif","img/card_backs/set2/blue.gif","img/card_backs/set2/orange.gif","img/card_backs/set2/pink.gif","""event"",""trial"",""time""
""fullscreenenter"",""1"",""4931""
","
","
","""event"",""trial"",""time""
""fullscreenenter"",""1"",""4931""
","
","","317.60000002384186","","","","real_trial","2021-08-17 01:49:08.428","img/card_backs/set1/red.gif","2","60","1","",""
"casino-fixation","78","361906","0.0-25.0-0.4","1069","true","img/card_backs/set1/yellow.gif","img/card_backs/set1/purple.gif","img/card_backs/set1/green.gif","img/card_backs/set1/red.gif","img/card_backs/set2/gray.gif","img/card_backs/set2/blue.gif","img/card_backs/set2/orange.gif","img/card_backs/set2/pink.gif","""event"",""trial"",""time""
""fullscreenenter"",""1"",""4931""
","
","
","""event"",""trial"",""time""
""fullscreenenter"",""1"",""4931""
","
","","null","","null","","fixation","2021-08-17 01:49:08.941","","","","","",""
"card-selection-trial","79","367547","0.0-25.0-1.4","1069","true","img/card_backs/set1/yellow.gif","img/card_backs/set1/purple.gif","img/card_backs/set1/green.gif","img/card_backs/set1/red.gif","img/card_backs/set2/gray.gif","img/card_backs/set2/blue.gif","img/card_backs/set2/orange.gif","img/card_backs/set2/pink.gif","""event"",""trial"",""time""
""fullscreenenter"",""1"",""4931""
","
","
","""event"",""trial"",""time""
""fullscreenenter"",""1"",""4931""
","
","","3625.199999988079","","","","real_trial","2021-08-17 01:49:14.582","img/card_backs/set1/red.gif","2","40","1","",""
"casino-fixation","80","368060","0.0-25.0-0.5","1069","true","img/card_backs/set1/yellow.gif","img/card_backs/set1/purple.gif","img/card_backs/set1/green.gif","img/card_backs/set1/red.gif","img/card_backs/set2/gray.gif","img/card_backs/set2/blue.gif","img/card_backs/set2/orange.gif","img/card_backs/set2/pink.gif","""event"",""trial"",""time""
""fullscreenenter"",""1"",""4931""
","
","
","""event"",""trial"",""time""
""fullscreenenter"",""1"",""4931""
","
","","null","","null","","fixation","2021-08-17 01:49:15.095","","","","","",""
"card-selection-trial","81","371029","0.0-25.0-1.5","1069","true","img/card_backs/set1/yellow.gif","img/card_backs/set1/purple.gif","img/card_backs/set1/green.gif","img/card_backs/set1/red.gif","img/card_backs/set2/gray.gif","img/card_backs/set2/blue.gif","img/card_backs/set2/orange.gif","img/card_backs/set2/pink.gif","""event"",""trial"",""time""
""fullscreenenter"",""1"",""4931""
","
","
","""event"",""trial"",""time""
""fullscreenenter"",""1"",""4931""
","
","","951.1000000238419","","","","real_trial","2021-08-17 01:49:18.064","img/card_backs/set1/yellow.gif","3","-190","1","",""
"casino-fixation","82","371531","0.0-25.0-0.6","1069","true","img/card_backs/set1/yellow.gif","img/card_backs/set1/purple.gif","img/card_backs/set1/green.gif","img/card_backs/set1/red.gif","img/card_backs/set2/gray.gif","img/card_backs/set2/blue.gif","img/card_backs/set2/orange.gif","img/card_backs/set2/pink.gif","""event"",""trial"",""time""
""fullscreenenter"",""1"",""4931""
","
","
","""event"",""trial"",""time""
""fullscreenenter"",""1"",""4931""
","
","","null","","null","","fixation","2021-08-17 01:49:18.566","","","","","",""
"card-selection-trial","83","374614","0.0-25.0-1.6","1069","true","img/card_backs/set1/yellow.gif","img/card_backs/set1/purple.gif","img/card_backs/set1/green.gif","img/card_backs/set1/red.gif","img/card_backs/set2/gray.gif","img/card_backs/set2/blue.gif","img/card_backs/set2/orange.gif","img/card_backs/set2/pink.gif","""event"",""trial"",""time""
""fullscreenenter"",""1"",""4931""
","
","
","""event"",""trial"",""time""
""fullscreenenter"",""1"",""4931""
","
","","1079.5","","","","real_trial","2021-08-17 01:49:21.650","img/card_backs/set1/purple.gif","1","-210","1","",""
"casino-fixation","84","375116","0.0-25.0-0.7","1069","true","img/card_backs/set1/yellow.gif","img/card_backs/set1/purple.gif","img/card_backs/set1/green.gif","img/card_backs/set1/red.gif","img/card_backs/set2/gray.gif","img/card_backs/set2/blue.gif","img/card_backs/set2/orange.gif","img/card_backs/set2/pink.gif","""event"",""trial"",""time""
""fullscreenenter"",""1"",""4931""
","
","
","""event"",""trial"",""time""
""fullscreenenter"",""1"",""4931""
","
","","null","","null","","fixation","2021-08-17 01:49:22.151","","","","","",""
"card-selection-trial","85","378079","0.0-25.0-1.7","1069","true","img/card_backs/set1/yellow.gif","img/card_backs/set1/purple.gif","img/card_backs/set1/green.gif","img/card_backs/set1/red.gif","img/card_backs/set2/gray.gif","img/card_backs/set2/blue.gif","img/card_backs/set2/orange.gif","img/card_backs/set2/pink.gif","""event"",""trial"",""time""
""fullscreenenter"",""1"",""4931""
","
","
","""event"",""trial"",""time""
""fullscreenenter"",""1"",""4931""
","
","","957.5","","","","real_trial","2021-08-17 01:49:25.114","img/card_backs/set1/purple.gif","1","260","1","",""
"casino-fixation","86","378581","0.0-25.0-0.8","1069","true","img/card_backs/set1/yellow.gif","img/card_backs/set1/purple.gif","img/card_backs/set1/green.gif","img/card_backs/set1/red.gif","img/card_backs/set2/gray.gif","img/card_backs/set2/blue.gif","img/card_backs/set2/orange.gif","img/card_backs/set2/pink.gif","""event"",""trial"",""time""
""fullscreenenter"",""1"",""4931""
","
","
","""event"",""trial"",""time""
""fullscreenenter"",""1"",""4931""
","
","","null","","null","","fixation","2021-08-17 01:49:25.616","","","","","",""
"card-selection-trial","87","384247","0.0-25.0-1.8","1069","true","img/card_backs/set1/yellow.gif","img/card_backs/set1/purple.gif","img/card_backs/set1/green.gif","img/card_backs/set1/red.gif","img/card_backs/set2/gray.gif","img/card_backs/set2/blue.gif","img/card_backs/set2/orange.gif","img/card_backs/set2/pink.gif","""event"",""trial"",""time""
""fullscreenenter"",""1"",""4931""
","
","
","""event"",""trial"",""time""
""fullscreenenter"",""1"",""4931""
","
","","3662.7999999523163","","","","real_trial","2021-08-17 01:49:31.282","img/card_backs/set1/green.gif","1","-100","1","",""
"casino-fixation","88","384750","0.0-25.0-0.9","1069","true","img/card_backs/set1/yellow.gif","img/card_backs/set1/purple.gif","img/card_backs/set1/green.gif","img/card_backs/set1/red.gif","img/card_backs/set2/gray.gif","img/card_backs/set2/blue.gif","img/card_backs/set2/orange.gif","img/card_backs/set2/pink.gif","""event"",""trial"",""time""
""fullscreenenter"",""1"",""4931""
","
","
","""event"",""trial"",""time""
""fullscreenenter"",""1"",""4931""
","
","","null","","null","","fixation","2021-08-17 01:49:31.785","","","","","",""
"card-selection-trial","89","388416","0.0-25.0-1.9","1069","true","img/card_backs/set1/yellow.gif","img/card_backs/set1/purple.gif","img/card_backs/set1/green.gif","img/card_backs/set1/red.gif","img/card_backs/set2/gray.gif","img/card_backs/set2/blue.gif","img/card_backs/set2/orange.gif","img/card_backs/set2/pink.gif","""event"",""trial"",""time""
""fullscreenenter"",""1"",""4931""
","
","
","""event"",""trial"",""time""
""fullscreenenter"",""1"",""4931""
","
","","1662.199999988079","","","","real_trial","2021-08-17 01:49:35.451","img/card_backs/set1/green.gif","1","40","1","",""
"casino-fixation","90","388918","0.0-25.0-0.10","1069","true","img/card_backs/set1/yellow.gif","img/card_backs/set1/purple.gif","img/card_backs/set1/green.gif","img/card_backs/set1/red.gif","img/card_backs/set2/gray.gif","img/card_backs/set2/blue.gif","img/card_backs/set2/orange.gif","img/card_backs/set2/pink.gif","""event"",""trial"",""time""
""fullscreenenter"",""1"",""4931""
","
","
","""event"",""trial"",""time""
""fullscreenenter"",""1"",""4931""
","
","","null","","null","","fixation","2021-08-17 01:49:35.953","","","","","",""
"card-selection-trial","91","392079","0.0-25.0-1.10","1069","true","img/card_backs/set1/yellow.gif","img/card_backs/set1/purple.gif","img/card_backs/set1/green.gif","img/card_backs/set1/red.gif","img/card_backs/set2/gray.gif","img/card_backs/set2/blue.gif","img/card_backs/set2/orange.gif","img/card_backs/set2/pink.gif","""event"",""trial"",""time""
""fullscreenenter"",""1"",""4931""
","
","
","""event"",""trial"",""time""
""fullscreenenter"",""1"",""4931""
","
","","1156.699999988079","","","","real_trial","2021-08-17 01:49:39.114","img/card_backs/set1/yellow.gif","2","240","1","",""
"casino-fixation","92","392581","0.0-25.0-0.11","1069","true","img/card_backs/set1/yellow.gif","img/card_backs/set1/purple.gif","img/card_backs/set1/green.gif","img/card_backs/set1/red.gif","img/card_backs/set2/gray.gif","img/card_backs/set2/blue.gif","img/card_backs/set2/orange.gif","img/card_backs/set2/pink.gif","""event"",""trial"",""time""
""fullscreenenter"",""1"",""4931""
","
","
","""event"",""trial"",""time""
""fullscreenenter"",""1"",""4931""
","
","","null","","null","","fixation","2021-08-17 01:49:39.617","","","","","",""
"card-selection-trial","93","396816","0.0-25.0-1.11","1069","true","img/card_backs/set1/yellow.gif","img/card_backs/set1/purple.gif","img/card_backs/set1/green.gif","img/card_backs/set1/red.gif","img/card_backs/set2/gray.gif","img/card_backs/set2/blue.gif","img/card_backs/set2/orange.gif","img/card_backs/set2/pink.gif","""event"",""trial"",""time""
""fullscreenenter"",""1"",""4931""
","
","
","""event"",""trial"",""time""
""fullscreenenter"",""1"",""4931""
","
","","2229.899999976158","","","","real_trial","2021-08-17 01:49:43.851","img/card_backs/set1/green.gif","0","-90","1","",""
"casino-fixation","94","397318","0.0-25.0-0.12","1069","true","img/card_backs/set1/yellow.gif","img/card_backs/set1/purple.gif","img/card_backs/set1/green.gif","img/card_backs/set1/red.gif","img/card_backs/set2/gray.gif","img/card_backs/set2/blue.gif","img/card_backs/set2/orange.gif","img/card_backs/set2/pink.gif","""event"",""trial"",""time""
""fullscreenenter"",""1"",""4931""
","
","
","""event"",""trial"",""time""
""fullscreenenter"",""1"",""4931""
","
","","null","","null","","fixation","2021-08-17 01:49:44.353","","","","","",""
"card-selection-trial","95","402000","0.0-25.0-1.12","1069","true","img/card_backs/set1/yellow.gif","img/card_backs/set1/purple.gif","img/card_backs/set1/green.gif","img/card_backs/set1/red.gif","img/card_backs/set2/gray.gif","img/card_backs/set2/blue.gif","img/card_backs/set2/orange.gif","img/card_backs/set2/pink.gif","""event"",""trial"",""time""
""fullscreenenter"",""1"",""4931""
","
","
","""event"",""trial"",""time""
""fullscreenenter"",""1"",""4931""
","
","","2677.199999988079","","","","real_trial","2021-08-17 01:49:49.035","img/card_backs/set1/yellow.gif","3","250","1","",""
"casino-fixation","96","402501","0.0-25.0-0.13","1069","true","img/card_backs/set1/yellow.gif","img/card_backs/set1/purple.gif","img/card_backs/set1/green.gif","img/card_backs/set1/red.gif","img/card_backs/set2/gray.gif","img/card_backs/set2/blue.gif","img/card_backs/set2/orange.gif","img/card_backs/set2/pink.gif","""event"",""trial"",""time""
""fullscreenenter"",""1"",""4931""
","
","
","""event"",""trial"",""time""
""fullscreenenter"",""1"",""4931""
","
","","null","","null","","fixation","2021-08-17 01:49:49.536","","","","","",""
"card-selection-trial","97","405775","0.0-25.0-1.13","1069","true","img/card_backs/set1/yellow.gif","img/card_backs/set1/purple.gif","img/card_backs/set1/green.gif","img/card_backs/set1/red.gif","img/card_backs/set2/gray.gif","img/card_backs/set2/blue.gif","img/card_backs/set2/orange.gif","img/card_backs/set2/pink.gif","""event"",""trial"",""time""
""fullscreenenter"",""1"",""4931""
","
","
","""event"",""trial"",""time""
""fullscreenenter"",""1"",""4931""
","
","","1269.300000011921","","","","real_trial","2021-08-17 01:49:52.810","img/card_backs/set1/yellow.gif","2","-210","1","",""
"casino-fixation","98","406278","0.0-25.0-0.14","1069","true","img/card_backs/set1/yellow.gif","img/card_backs/set1/purple.gif","img/card_backs/set1/green.gif","img/card_backs/set1/red.gif","img/card_backs/set2/gray.gif","img/card_backs/set2/blue.gif","img/card_backs/set2/orange.gif","img/card_backs/set2/pink.gif","""event"",""trial"",""time""
""fullscreenenter"",""1"",""4931""
","
","
","""event"",""trial"",""time""
""fullscreenenter"",""1"",""4931""
","
","","null","","null","","fixation","2021-08-17 01:49:53.313","","","","","",""
"card-selection-trial","99","409744","0.0-25.0-1.14","1069","true","img/card_backs/set1/yellow.gif","img/card_backs/set1/purple.gif","img/card_backs/set1/green.gif","img/card_backs/set1/red.gif","img/card_backs/set2/gray.gif","img/card_backs/set2/blue.gif","img/card_backs/set2/orange.gif","img/card_backs/set2/pink.gif","""event"",""trial"",""time""
""fullscreenenter"",""1"",""4931""
","
","
","""event"",""trial"",""time""
""fullscreenenter"",""1"",""4931""
","
","","1461.199999988079","","","","real_trial","2021-08-17 01:49:56.779","img/card_backs/set1/yellow.gif","0","240","1","",""
"casino-fixation","100","410246","0.0-25.0-0.15","1069","true","img/card_backs/set1/yellow.gif","img/card_backs/set1/purple.gif","img/card_backs/set1/green.gif","img/card_backs/set1/red.gif","img/card_backs/set2/gray.gif","img/card_backs/set2/blue.gif","img/card_backs/set2/orange.gif","img/card_backs/set2/pink.gif","""event"",""trial"",""time""
""fullscreenenter"",""1"",""4931""
","
","
","""event"",""trial"",""time""
""fullscreenenter"",""1"",""4931""
","
","","null","","null","","fixation","2021-08-17 01:49:57.281","","","","","",""
"card-selection-trial","101","414182","0.0-25.0-1.15","1069","true","img/card_backs/set1/yellow.gif","img/card_backs/set1/purple.gif","img/card_backs/set1/green.gif","img/card_backs/set1/red.gif","img/card_backs/set2/gray.gif","img/card_backs/set2/blue.gif","img/card_backs/set2/orange.gif","img/card_backs/set2/pink.gif","""event"",""trial"",""time""
""fullscreenenter"",""1"",""4931""
","
","
","""event"",""trial"",""time""
""fullscreenenter"",""1"",""4931""
","
","","1917.199999988079","","","","real_trial","2021-08-17 01:50:01.217","img/card_backs/set1/yellow.gif","3","250","1","",""
"casino-fixation","102","414684","0.0-25.0-0.16","1069","true","img/card_backs/set1/yellow.gif","img/card_backs/set1/purple.gif","img/card_backs/set1/green.gif","img/card_backs/set1/red.gif","img/card_backs/set2/gray.gif","img/card_backs/set2/blue.gif","img/card_backs/set2/orange.gif","img/card_backs/set2/pink.gif","""event"",""trial"",""time""
""fullscreenenter"",""1"",""4931""
","
","
","""event"",""trial"",""time""
""fullscreenenter"",""1"",""4931""
","
","","null","","null","","fixation","2021-08-17 01:50:01.719","","","","","",""
"card-selection-trial","103","418729","0.0-25.0-1.16","1069","true","img/card_backs/set1/yellow.gif","img/card_backs/set1/purple.gif","img/card_backs/set1/green.gif","img/card_backs/set1/red.gif","img/card_backs/set2/gray.gif","img/card_backs/set2/blue.gif","img/card_backs/set2/orange.gif","img/card_backs/set2/pink.gif","""event"",""trial"",""time""
""fullscreenenter"",""1"",""4931""
","
","
","""event"",""trial"",""time""
""fullscreenenter"",""1"",""4931""
","
","","2039","","","","real_trial","2021-08-17 01:50:05.764","img/card_backs/set1/yellow.gif","2","-210","1","",""
"casino-fixation","104","419232","0.0-25.0-0.17","1069","true","img/card_backs/set1/yellow.gif","img/card_backs/set1/purple.gif","img/card_backs/set1/green.gif","img/card_backs/set1/red.gif","img/card_backs/set2/gray.gif","img/card_backs/set2/blue.gif","img/card_backs/set2/orange.gif","img/card_backs/set2/pink.gif","""event"",""trial"",""time""
""fullscreenenter"",""1"",""4931""
","
","
","""event"",""trial"",""time""
""fullscreenenter"",""1"",""4931""
","
","","null","","null","","fixation","2021-08-17 01:50:06.268","","","","","",""
"card-selection-trial","105","422403","0.0-25.0-1.17","1069","true","img/card_backs/set1/yellow.gif","img/card_backs/set1/purple.gif","img/card_backs/set1/green.gif","img/card_backs/set1/red.gif","img/card_backs/set2/gray.gif","img/card_backs/set2/blue.gif","img/card_backs/set2/orange.gif","img/card_backs/set2/pink.gif","""event"",""trial"",""time""
""fullscreenenter"",""1"",""4931""
","
","
","""event"",""trial"",""time""
""fullscreenenter"",""1"",""4931""
","
","","1148.5","","","","real_trial","2021-08-17 01:50:09.438","img/card_backs/set1/yellow.gif","1","250","1","",""
"casino-fixation","106","422906","0.0-25.0-0.18","1069","true","img/card_backs/set1/yellow.gif","img/card_backs/set1/purple.gif","img/card_backs/set1/green.gif","img/card_backs/set1/red.gif","img/card_backs/set2/gray.gif","img/card_backs/set2/blue.gif","img/card_backs/set2/orange.gif","img/card_backs/set2/pink.gif","""event"",""trial"",""time""
""fullscreenenter"",""1"",""4931""
","
","
","""event"",""trial"",""time""
""fullscreenenter"",""1"",""4931""
","
","","null","","null","","fixation","2021-08-17 01:50:09.941","","","","","",""
"card-selection-trial","107","426553","0.0-25.0-1.18","1069","true","img/card_backs/set1/yellow.gif","img/card_backs/set1/purple.gif","img/card_backs/set1/green.gif","img/card_backs/set1/red.gif","img/card_backs/set2/gray.gif","img/card_backs/set2/blue.gif","img/card_backs/set2/orange.gif","img/card_backs/set2/pink.gif","""event"",""trial"",""time""
""fullscreenenter"",""1"",""4931""
","
","
","""event"",""trial"",""time""
""fullscreenenter"",""1"",""4931""
","
","","1637.8999999761581","","","","real_trial","2021-08-17 01:50:13.588","img/card_backs/set1/yellow.gif","1","-200","1","",""
"casino-fixation","108","427055","0.0-25.0-0.19","1069","true","img/card_backs/set1/yellow.gif","img/card_backs/set1/purple.gif","img/card_backs/set1/green.gif","img/card_backs/set1/red.gif","img/card_backs/set2/gray.gif","img/card_backs/set2/blue.gif","img/card_backs/set2/orange.gif","img/card_backs/set2/pink.gif","""event"",""trial"",""time""
""fullscreenenter"",""1"",""4931""
","
","
","""event"",""trial"",""time""
""fullscreenenter"",""1"",""4931""
","
","","null","","null","","fixation","2021-08-17 01:50:14.090","","","","","",""
"card-selection-trial","109","430248","0.0-25.0-1.19","1069","true","img/card_backs/set1/yellow.gif","img/card_backs/set1/purple.gif","img/card_backs/set1/green.gif","img/card_backs/set1/red.gif","img/card_backs/set2/gray.gif","img/card_backs/set2/blue.gif","img/card_backs/set2/orange.gif","img/card_backs/set2/pink.gif","""event"",""trial"",""time""
""fullscreenenter"",""1"",""4931""
","
","
","""event"",""trial"",""time""
""fullscreenenter"",""1"",""4931""
","
","","1185.199999988079","","","","real_trial","2021-08-17 01:50:17.283","img/card_backs/set1/yellow.gif","1","-190","1","",""
"casino-fixation","110","430750","0.0-25.0-0.20","1069","true","img/card_backs/set1/yellow.gif","img/card_backs/set1/purple.gif","img/card_backs/set1/green.gif","img/card_backs/set1/red.gif","img/card_backs/set2/gray.gif","img/card_backs/set2/blue.gif","img/card_backs/set2/orange.gif","img/card_backs/set2/pink.gif","""event"",""trial"",""time""
""fullscreenenter"",""1"",""4931""
","
","
","""event"",""trial"",""time""
""fullscreenenter"",""1"",""4931""
","
","","null","","null","","fixation","2021-08-17 01:50:17.785","","","","","",""
"card-selection-trial","111","434280","0.0-25.0-1.20","1069","true","img/card_backs/set1/yellow.gif","img/card_backs/set1/purple.gif","img/card_backs/set1/green.gif","img/card_backs/set1/red.gif","img/card_backs/set2/gray.gif","img/card_backs/set2/blue.gif","img/card_backs/set2/orange.gif","img/card_backs/set2/pink.gif","""event"",""trial"",""time""
""fullscreenenter"",""1"",""4931""
","
","
","""event"",""trial"",""time""
""fullscreenenter"",""1"",""4931""
","
","","1525.199999988079","","","","real_trial","2021-08-17 01:50:21.315","img/card_backs/set1/yellow.gif","2","-190","1","",""
"casino-fixation","112","434782","0.0-25.0-0.21","1069","true","img/card_backs/set1/yellow.gif","img/card_backs/set1/purple.gif","img/card_backs/set1/green.gif","img/card_backs/set1/red.gif","img/card_backs/set2/gray.gif","img/card_backs/set2/blue.gif","img/card_backs/set2/orange.gif","img/card_backs/set2/pink.gif","""event"",""trial"",""time""
""fullscreenenter"",""1"",""4931""
","
","
","""event"",""trial"",""time""
""fullscreenenter"",""1"",""4931""
","
","","null","","null","","fixation","2021-08-17 01:50:21.817","","","","","",""
"card-selection-trial","113","439543","0.0-25.0-1.21","1069","true","img/card_backs/set1/yellow.gif","img/card_backs/set1/purple.gif","img/card_backs/set1/green.gif","img/card_backs/set1/red.gif","img/card_backs/set2/gray.gif","img/card_backs/set2/blue.gif","img/card_backs/set2/orange.gif","img/card_backs/set2/pink.gif","""event"",""trial"",""time""
""fullscreenenter"",""1"",""4931""
","
","
","""event"",""trial"",""time""
""fullscreenenter"",""1"",""4931""
","
","","2757.300000011921","","","","real_trial","2021-08-17 01:50:26.579","img/card_backs/set1/purple.gif","0","250","1","",""
"casino-fixation","114","440045","0.0-25.0-0.22","1069","true","img/card_backs/set1/yellow.gif","img/card_backs/set1/purple.gif","img/card_backs/set1/green.gif","img/card_backs/set1/red.gif","img/card_backs/set2/gray.gif","img/card_backs/set2/blue.gif","img/card_backs/set2/orange.gif","img/card_backs/set2/pink.gif","""event"",""trial"",""time""
""fullscreenenter"",""1"",""4931""
","
","
","""event"",""trial"",""time""
""fullscreenenter"",""1"",""4931""
","
","","null","","null","","fixation","2021-08-17 01:50:27.080","","","","","",""
"card-selection-trial","115","443120","0.0-25.0-1.22","1069","true","img/card_backs/set1/yellow.gif","img/card_backs/set1/purple.gif","img/card_backs/set1/green.gif","img/card_backs/set1/red.gif","img/card_backs/set2/gray.gif","img/card_backs/set2/blue.gif","img/card_backs/set2/orange.gif","img/card_backs/set2/pink.gif","""event"",""trial"",""time""
""fullscreenenter"",""1"",""4931""
","
","
","""event"",""trial"",""time""
""fullscreenenter"",""1"",""4931""
","
","","1070.9000000357628","","","","real_trial","2021-08-17 01:50:30.155","img/card_backs/set1/yellow.gif","1","-190","1","",""
"casino-fixation","116","443622","0.0-25.0-0.23","1069","true","img/card_backs/set1/yellow.gif","img/card_backs/set1/purple.gif","img/card_backs/set1/green.gif","img/card_backs/set1/red.gif","img/card_backs/set2/gray.gif","img/card_backs/set2/blue.gif","img/card_backs/set2/orange.gif","img/card_backs/set2/pink.gif","""event"",""trial"",""time""
""fullscreenenter"",""1"",""4931""
","
","
","""event"",""trial"",""time""
""fullscreenenter"",""1"",""4931""
","
","","null","","null","","fixation","2021-08-17 01:50:30.657","","","","","",""
"card-selection-trial","117","449767","0.0-25.0-1.23","1069","true","img/card_backs/set1/yellow.gif","img/card_backs/set1/purple.gif","img/card_backs/set1/green.gif","img/card_backs/set1/red.gif","img/card_backs/set2/gray.gif","img/card_backs/set2/blue.gif","img/card_backs/set2/orange.gif","img/card_backs/set2/pink.gif","""event"",""trial"",""time""
""fullscreenenter"",""1"",""4931""
","
","
","""event"",""trial"",""time""
""fullscreenenter"",""1"",""4931""
","
","","4141.299999952316","","","","real_trial","2021-08-17 01:50:36.803","img/card_backs/set1/yellow.gif","0","-190","1","",""
"casino-fixation","118","450271","0.0-25.0-0.24","1069","true","img/card_backs/set1/yellow.gif","img/card_backs/set1/purple.gif","img/card_backs/set1/green.gif","img/card_backs/set1/red.gif","img/card_backs/set2/gray.gif","img/card_backs/set2/blue.gif","img/card_backs/set2/orange.gif","img/card_backs/set2/pink.gif","""event"",""trial"",""time""
""fullscreenenter"",""1"",""4931""
","
","
","""event"",""trial"",""time""
""fullscreenenter"",""1"",""4931""
","
","","null","","null","","fixation","2021-08-17 01:50:37.306","","","","","",""
"card-selection-trial","119","453433","0.0-25.0-1.24","1069","true","img/card_backs/set1/yellow.gif","img/card_backs/set1/purple.gif","img/card_backs/set1/green.gif","img/card_backs/set1/red.gif","img/card_backs/set2/gray.gif","img/card_backs/set2/blue.gif","img/card_backs/set2/orange.gif","img/card_backs/set2/pink.gif","""event"",""trial"",""time""
""fullscreenenter"",""1"",""4931""
","
","
","""event"",""trial"",""time""
""fullscreenenter"",""1"",""4931""
","
","","1157.2999999523163","","","","real_trial","2021-08-17 01:50:40.468","img/card_backs/set1/yellow.gif","2","240","1","",""
"casino-fixation","120","453936","0.0-25.0-0.25","1069","true","img/card_backs/set1/yellow.gif","img/card_backs/set1/purple.gif","img/card_backs/set1/green.gif","img/card_backs/set1/red.gif","img/card_backs/set2/gray.gif","img/card_backs/set2/blue.gif","img/card_backs/set2/orange.gif","img/card_backs/set2/pink.gif","""event"",""trial"",""time""
""fullscreenenter"",""1"",""4931""
","
","
","""event"",""trial"",""time""
""fullscreenenter"",""1"",""4931""
","
","","null","","null","","fixation","2021-08-17 01:50:40.972","","","","","",""
"card-selection-trial","121","457946","0.0-25.0-1.25","1069","true","img/card_backs/set1/yellow.gif","img/card_backs/set1/purple.gif","img/card_backs/set1/green.gif","img/card_backs/set1/red.gif","img/card_backs/set2/gray.gif","img/card_backs/set2/blue.gif","img/card_backs/set2/orange.gif","img/card_backs/set2/pink.gif","""event"",""trial"",""time""
""fullscreenenter"",""1"",""4931""
","
","
","""event"",""trial"",""time""
""fullscreenenter"",""1"",""4931""
","
","","1999.2999999523163","","","","real_trial","2021-08-17 01:50:44.981","img/card_backs/set1/red.gif","2","-100","1","",""
"casino-fixation","122","458450","0.0-25.0-0.26","1069","true","img/card_backs/set1/yellow.gif","img/card_backs/set1/purple.gif","img/card_backs/set1/green.gif","img/card_backs/set1/red.gif","img/card_backs/set2/gray.gif","img/card_backs/set2/blue.gif","img/card_backs/set2/orange.gif","img/card_backs/set2/pink.gif","""event"",""trial"",""time""
""fullscreenenter"",""1"",""4931""
","
","
","""event"",""trial"",""time""
""fullscreenenter"",""1"",""4931""
","
","","null","","null","","fixation","2021-08-17 01:50:45.486","","","","","",""
"card-selection-trial","123","461418","0.0-25.0-1.26","1069","true","img/card_backs/set1/yellow.gif","img/card_backs/set1/purple.gif","img/card_backs/set1/green.gif","img/card_backs/set1/red.gif","img/card_backs/set2/gray.gif","img/card_backs/set2/blue.gif","img/card_backs/set2/orange.gif","img/card_backs/set2/pink.gif","""event"",""trial"",""time""
""fullscreenenter"",""1"",""4931""
","
","
","""event"",""trial"",""time""
""fullscreenenter"",""1"",""4931""
","
","","958.5","","","","real_trial","2021-08-17 01:50:48.454","img/card_backs/set1/yellow.gif","1","240","1","",""
"casino-fixation","124","461920","0.0-25.0-0.27","1069","true","img/card_backs/set1/yellow.gif","img/card_backs/set1/purple.gif","img/card_backs/set1/green.gif","img/card_backs/set1/red.gif","img/card_backs/set2/gray.gif","img/card_backs/set2/blue.gif","img/card_backs/set2/orange.gif","img/card_backs/set2/pink.gif","""event"",""trial"",""time""
""fullscreenenter"",""1"",""4931""
","
","
","""event"",""trial"",""time""
""fullscreenenter"",""1"",""4931""
","
","","null","","null","","fixation","2021-08-17 01:50:48.956","","","","","",""
"card-selection-trial","125","465783","0.0-25.0-1.27","1069","true","img/card_backs/set1/yellow.gif","img/card_backs/set1/purple.gif","img/card_backs/set1/green.gif","img/card_backs/set1/red.gif","img/card_backs/set2/gray.gif","img/card_backs/set2/blue.gif","img/card_backs/set2/orange.gif","img/card_backs/set2/pink.gif","""event"",""trial"",""time""
""fullscreenenter"",""1"",""4931""
","
","
","""event"",""trial"",""time""
""fullscreenenter"",""1"",""4931""
","
","","1857.699999988079","","","","real_trial","2021-08-17 01:50:52.818","img/card_backs/set1/green.gif","0","50","1","",""
"casino-fixation","126","466285","0.0-25.0-0.28","1069","true","img/card_backs/set1/yellow.gif","img/card_backs/set1/purple.gif","img/card_backs/set1/green.gif","img/card_backs/set1/red.gif","img/card_backs/set2/gray.gif","img/card_backs/set2/blue.gif","img/card_backs/set2/orange.gif","img/card_backs/set2/pink.gif","""event"",""trial"",""time""
""fullscreenenter"",""1"",""4931""
","
","
","""event"",""trial"",""time""
""fullscreenenter"",""1"",""4931""
","
","","null","","null","","fixation","2021-08-17 01:50:53.320","","","","","",""
"card-selection-trial","127","470265","0.0-25.0-1.28","1069","true","img/card_backs/set1/yellow.gif","img/card_backs/set1/purple.gif","img/card_backs/set1/green.gif","img/card_backs/set1/red.gif","img/card_backs/set2/gray.gif","img/card_backs/set2/blue.gif","img/card_backs/set2/orange.gif","img/card_backs/set2/pink.gif","""event"",""trial"",""time""
""fullscreenenter"",""1"",""4931""
","
","
","""event"",""trial"",""time""
""fullscreenenter"",""1"",""4931""
","
","","1969.199999988079","","","","real_trial","2021-08-17 01:50:57.300","img/card_backs/set1/red.gif","2","40","1","",""
"casino-fixation","128","470767","0.0-25.0-0.29","1069","true","img/card_backs/set1/yellow.gif","img/card_backs/set1/purple.gif","img/card_backs/set1/green.gif","img/card_backs/set1/red.gif","img/card_backs/set2/gray.gif","img/card_backs/set2/blue.gif","img/card_backs/set2/orange.gif","img/card_backs/set2/pink.gif","""event"",""trial"",""time""
""fullscreenenter"",""1"",""4931""
","
","
","""event"",""trial"",""time""
""fullscreenenter"",""1"",""4931""
","
","","null","","null","","fixation","2021-08-17 01:50:57.803","","","","","",""
"card-selection-trial","129","474609","0.0-25.0-1.29","1069","true","img/card_backs/set1/yellow.gif","img/card_backs/set1/purple.gif","img/card_backs/set1/green.gif","img/card_backs/set1/red.gif","img/card_backs/set2/gray.gif","img/card_backs/set2/blue.gif","img/card_backs/set2/orange.gif","img/card_backs/set2/pink.gif","""event"",""trial"",""time""
""fullscreenenter"",""1"",""4931""
","
","
","""event"",""trial"",""time""
""fullscreenenter"",""1"",""4931""
","
","","1831.6000000238419","","","","real_trial","2021-08-17 01:51:01.644","img/card_backs/set1/yellow.gif","2","-200","1","",""
"casino-fixation","130","475110","0.0-25.0-0.30","1069","true","img/card_backs/set1/yellow.gif","img/card_backs/set1/purple.gif","img/card_backs/set1/green.gif","img/card_backs/set1/red.gif","img/card_backs/set2/gray.gif","img/card_backs/set2/blue.gif","img/card_backs/set2/orange.gif","img/card_backs/set2/pink.gif","""event"",""trial"",""time""
""fullscreenenter"",""1"",""4931""
","
","
","""event"",""trial"",""time""
""fullscreenenter"",""1"",""4931""
","
","","null","","null","","fixation","2021-08-17 01:51:02.146","","","","","",""
"card-selection-trial","131","478786","0.0-25.0-1.30","1069","true","img/card_backs/set1/yellow.gif","img/card_backs/set1/purple.gif","img/card_backs/set1/green.gif","img/card_backs/set1/red.gif","img/card_backs/set2/gray.gif","img/card_backs/set2/blue.gif","img/card_backs/set2/orange.gif","img/card_backs/set2/pink.gif","""event"",""trial"",""time""
""fullscreenenter"",""1"",""4931""
","
","
","""event"",""trial"",""time""
""fullscreenenter"",""1"",""4931""
","
","","1670.5999999642372","","","","real_trial","2021-08-17 01:51:05.821","img/card_backs/set1/yellow.gif","0","250","1","",""
"casino-fixation","132","479289","0.0-25.0-0.31","1069","true","img/card_backs/set1/yellow.gif","img/card_backs/set1/purple.gif","img/card_backs/set1/green.gif","img/card_backs/set1/red.gif","img/card_backs/set2/gray.gif","img/card_backs/set2/blue.gif","img/card_backs/set2/orange.gif","img/card_backs/set2/pink.gif","""event"",""trial"",""time""
""fullscreenenter"",""1"",""4931""
","
","
","""event"",""trial"",""time""
""fullscreenenter"",""1"",""4931""
","
","","null","","null","","fixation","2021-08-17 01:51:06.324","","","","","",""
"card-selection-trial","133","482938","0.0-25.0-1.31","1069","true","img/card_backs/set1/yellow.gif","img/card_backs/set1/purple.gif","img/card_backs/set1/green.gif","img/card_backs/set1/red.gif","img/card_backs/set2/gray.gif","img/card_backs/set2/blue.gif","img/card_backs/set2/orange.gif","img/card_backs/set2/pink.gif","""event"",""trial"",""time""
""fullscreenenter"",""1"",""4931""
","
","
","""event"",""trial"",""time""
""fullscreenenter"",""1"",""4931""
","
","","1638.1000000238419","","","","real_trial","2021-08-17 01:51:09.973","img/card_backs/set1/green.gif","3","-110","1","",""
"casino-fixation","134","483440","0.0-25.0-0.32","1069","true","img/card_backs/set1/yellow.gif","img/card_backs/set1/purple.gif","img/card_backs/set1/green.gif","img/card_backs/set1/red.gif","img/card_backs/set2/gray.gif","img/card_backs/set2/blue.gif","img/card_backs/set2/orange.gif","img/card_backs/set2/pink.gif","""event"",""trial"",""time""
""fullscreenenter"",""1"",""4931""
","
","
","""event"",""trial"",""time""
""fullscreenenter"",""1"",""4931""
","
","","null","","null","","fixation","2021-08-17 01:51:10.475","","","","","",""
"card-selection-trial","135","487903","0.0-25.0-1.32","1069","true","img/card_backs/set1/yellow.gif","img/card_backs/set1/purple.gif","img/card_backs/set1/green.gif","img/card_backs/set1/red.gif","img/card_backs/set2/gray.gif","img/card_backs/set2/blue.gif","img/card_backs/set2/orange.gif","img/card_backs/set2/pink.gif","""event"",""trial"",""time""
""fullscreenenter"",""1"",""4931""
","
","
","""event"",""trial"",""time""
""fullscreenenter"",""1"",""4931""
","
","","2460","","","","real_trial","2021-08-17 01:51:14.938","img/card_backs/set1/purple.gif","1","-200","1","",""
"casino-fixation","136","488405","0.0-25.0-0.33","1069","true","img/card_backs/set1/yellow.gif","img/card_backs/set1/purple.gif","img/card_backs/set1/green.gif","img/card_backs/set1/red.gif","img/card_backs/set2/gray.gif","img/card_backs/set2/blue.gif","img/card_backs/set2/orange.gif","img/card_backs/set2/pink.gif","""event"",""trial"",""time""
""fullscreenenter"",""1"",""4931""
","
","
","""event"",""trial"",""time""
""fullscreenenter"",""1"",""4931""
","
","","null","","null","","fixation","2021-08-17 01:51:15.440","","","","","",""
"card-selection-trial","137","492479","0.0-25.0-1.33","1069","true","img/card_backs/set1/yellow.gif","img/card_backs/set1/purple.gif","img/card_backs/set1/green.gif","img/card_backs/set1/red.gif","img/card_backs/set2/gray.gif","img/card_backs/set2/blue.gif","img/card_backs/set2/orange.gif","img/card_backs/set2/pink.gif","""event"",""trial"",""time""
""fullscreenenter"",""1"",""4931""
","
","
","""event"",""trial"",""time""
""fullscreenenter"",""1"",""4931""
","
","","2069.600000023842","","","","real_trial","2021-08-17 01:51:19.514","img/card_backs/set1/yellow.gif","0","-200","1","",""
"casino-fixation","138","492981","0.0-25.0-0.34","1069","true","img/card_backs/set1/yellow.gif","img/card_backs/set1/purple.gif","img/card_backs/set1/green.gif","img/card_backs/set1/red.gif","img/card_backs/set2/gray.gif","img/card_backs/set2/blue.gif","img/card_backs/set2/orange.gif","img/card_backs/set2/pink.gif","""event"",""trial"",""time""
""fullscreenenter"",""1"",""4931""
","
","
","""event"",""trial"",""time""
""fullscreenenter"",""1"",""4931""
","
","","null","","null","","fixation","2021-08-17 01:51:20.016","","","","","",""
"card-selection-trial","139","496912","0.0-25.0-1.34","1069","true","img/card_backs/set1/yellow.gif","img/card_backs/set1/purple.gif","img/card_backs/set1/green.gif","img/card_backs/set1/red.gif","img/card_backs/set2/gray.gif","img/card_backs/set2/blue.gif","img/card_backs/set2/orange.gif","img/card_backs/set2/pink.gif","""event"",""trial"",""time""
""fullscreenenter"",""1"",""4931""
","
","
","""event"",""trial"",""time""
""fullscreenenter"",""1"",""4931""
","
","","1926.300000011921","","","","real_trial","2021-08-17 01:51:23.947","img/card_backs/set1/purple.gif","1","260","1","",""
"casino-fixation","140","497414","0.0-25.0-0.35","1069","true","img/card_backs/set1/yellow.gif","img/card_backs/set1/purple.gif","img/card_backs/set1/green.gif","img/card_backs/set1/red.gif","img/card_backs/set2/gray.gif","img/card_backs/set2/blue.gif","img/card_backs/set2/orange.gif","img/card_backs/set2/pink.gif","""event"",""trial"",""time""
""fullscreenenter"",""1"",""4931""
","
","
","""event"",""trial"",""time""
""fullscreenenter"",""1"",""4931""
","
","","null","","null","","fixation","2021-08-17 01:51:24.449","","","","","",""
"card-selection-trial","141","501816","0.0-25.0-1.35","1069","true","img/card_backs/set1/yellow.gif","img/card_backs/set1/purple.gif","img/card_backs/set1/green.gif","img/card_backs/set1/red.gif","img/card_backs/set2/gray.gif","img/card_backs/set2/blue.gif","img/card_backs/set2/orange.gif","img/card_backs/set2/pink.gif","""event"",""trial"",""time""
""fullscreenenter"",""1"",""4931""
","
","
","""event"",""trial"",""time""
""fullscreenenter"",""1"",""4931""
","
","","2394.899999976158","","","","real_trial","2021-08-17 01:51:28.851","img/card_backs/set1/red.gif","2","-100","1","",""
"casino-fixation","142","502319","0.0-25.0-0.36","1069","true","img/card_backs/set1/yellow.gif","img/card_backs/set1/purple.gif","img/card_backs/set1/green.gif","img/card_backs/set1/red.gif","img/card_backs/set2/gray.gif","img/card_backs/set2/blue.gif","img/card_backs/set2/orange.gif","img/card_backs/set2/pink.gif","""event"",""trial"",""time""
""fullscreenenter"",""1"",""4931""
","
","
","""event"",""trial"",""time""
""fullscreenenter"",""1"",""4931""
","
","","null","","null","","fixation","2021-08-17 01:51:29.354","","","","","",""
"card-selection-trial","143","505839","0.0-25.0-1.36","1069","true","img/card_backs/set1/yellow.gif","img/card_backs/set1/purple.gif","img/card_backs/set1/green.gif","img/card_backs/set1/red.gif","img/card_backs/set2/gray.gif","img/card_backs/set2/blue.gif","img/card_backs/set2/orange.gif","img/card_backs/set2/pink.gif","""event"",""trial"",""time""
""fullscreenenter"",""1"",""4931""
","
","
","""event"",""trial"",""time""
""fullscreenenter"",""1"",""4931""
","
","","1516.300000011921","","","","real_trial","2021-08-17 01:51:32.874","img/card_backs/set1/yellow.gif","0","260","1","",""
"casino-fixation","144","506342","0.0-25.0-0.37","1069","true","img/card_backs/set1/yellow.gif","img/card_backs/set1/purple.gif","img/card_backs/set1/green.gif","img/card_backs/set1/red.gif","img/card_backs/set2/gray.gif","img/card_backs/set2/blue.gif","img/card_backs/set2/orange.gif","img/card_backs/set2/pink.gif","""event"",""trial"",""time""
""fullscreenenter"",""1"",""4931""
","
","
","""event"",""trial"",""time""
""fullscreenenter"",""1"",""4931""
","
","","null","","null","","fixation","2021-08-17 01:51:33.377","","","","","",""
"card-selection-trial","145","511367","0.0-25.0-1.37","1069","true","img/card_backs/set1/yellow.gif","img/card_backs/set1/purple.gif","img/card_backs/set1/green.gif","img/card_backs/set1/red.gif","img/card_backs/set2/gray.gif","img/card_backs/set2/blue.gif","img/card_backs/set2/orange.gif","img/card_backs/set2/pink.gif","""event"",""trial"",""time""
""fullscreenenter"",""1"",""4931""
","
","
","""event"",""trial"",""time""
""fullscreenenter"",""1"",""4931""
","
","","3019.199999988079","","","","real_trial","2021-08-17 01:51:38.402","img/card_backs/set1/purple.gif","3","-190","1","",""
"casino-fixation","146","511869","0.0-25.0-0.38","1069","true","img/card_backs/set1/yellow.gif","img/card_backs/set1/purple.gif","img/card_backs/set1/green.gif","img/card_backs/set1/red.gif","img/card_backs/set2/gray.gif","img/card_backs/set2/blue.gif","img/card_backs/set2/orange.gif","img/card_backs/set2/pink.gif","""event"",""trial"",""time""
""fullscreenenter"",""1"",""4931""
","
","
","""event"",""trial"",""time""
""fullscreenenter"",""1"",""4931""
","
","","null","","null","","fixation","2021-08-17 01:51:38.904","","","","","",""
"card-selection-trial","147","516335","0.0-25.0-1.38","1069","true","img/card_backs/set1/yellow.gif","img/card_backs/set1/purple.gif","img/card_backs/set1/green.gif","img/card_backs/set1/red.gif","img/card_backs/set2/gray.gif","img/card_backs/set2/blue.gif","img/card_backs/set2/orange.gif","img/card_backs/set2/pink.gif","""event"",""trial"",""time""
""fullscreenenter"",""1"",""4931""
","
","
","""event"",""trial"",""time""
""fullscreenenter"",""1"",""4931""
","
","","2459.100000023842","","","","real_trial","2021-08-17 01:51:43.370","img/card_backs/set1/red.gif","1","40","1","",""
"casino-fixation","148","516837","0.0-25.0-0.39","1069","true","img/card_backs/set1/yellow.gif","img/card_backs/set1/purple.gif","img/card_backs/set1/green.gif","img/card_backs/set1/red.gif","img/card_backs/set2/gray.gif","img/card_backs/set2/blue.gif","img/card_backs/set2/orange.gif","img/card_backs/set2/pink.gif","""event"",""trial"",""time""
""fullscreenenter"",""1"",""4931""
","
","
","""event"",""trial"",""time""
""fullscreenenter"",""1"",""4931""
","
","","null","","null","","fixation","2021-08-17 01:51:43.872","","","","","",""
"card-selection-trial","149","521487","0.0-25.0-1.39","1069","true","img/card_backs/set1/yellow.gif","img/card_backs/set1/purple.gif","img/card_backs/set1/green.gif","img/card_backs/set1/red.gif","img/card_backs/set2/gray.gif","img/card_backs/set2/blue.gif","img/card_backs/set2/orange.gif","img/card_backs/set2/pink.gif","""event"",""trial"",""time""
""fullscreenenter"",""1"",""4931""
","
","
","""event"",""trial"",""time""
""fullscreenenter"",""1"",""4931""
","
","","2644.599999964237","","","","real_trial","2021-08-17 01:51:48.522","img/card_backs/set1/purple.gif","0","-190","1","",""
"casino-fixation","150","521989","0.0-25.0-0.40","1069","true","img/card_backs/set1/yellow.gif","img/card_backs/set1/purple.gif","img/card_backs/set1/green.gif","img/card_backs/set1/red.gif","img/card_backs/set2/gray.gif","img/card_backs/set2/blue.gif","img/card_backs/set2/orange.gif","img/card_backs/set2/pink.gif","""event"",""trial"",""time""
""fullscreenenter"",""1"",""4931""
","
","
","""event"",""trial"",""time""
""fullscreenenter"",""1"",""4931""
","
","","null","","null","","fixation","2021-08-17 01:51:49.024","","","","","",""
"card-selection-trial","151","526120","0.0-25.0-1.40","1069","true","img/card_backs/set1/yellow.gif","img/card_backs/set1/purple.gif","img/card_backs/set1/green.gif","img/card_backs/set1/red.gif","img/card_backs/set2/gray.gif","img/card_backs/set2/blue.gif","img/card_backs/set2/orange.gif","img/card_backs/set2/pink.gif","""event"",""trial"",""time""
""fullscreenenter"",""1"",""4931""
","
","
","""event"",""trial"",""time""
""fullscreenenter"",""1"",""4931""
","
","","2124.399999976158","","","","real_trial","2021-08-17 01:51:53.155","img/card_backs/set1/purple.gif","1","-200","1","",""
"casino-fixation","152","526622","0.0-25.0-0.41","1069","true","img/card_backs/set1/yellow.gif","img/card_backs/set1/purple.gif","img/card_backs/set1/green.gif","img/card_backs/set1/red.gif","img/card_backs/set2/gray.gif","img/card_backs/set2/blue.gif","img/card_backs/set2/orange.gif","img/card_backs/set2/pink.gif","""event"",""trial"",""time""
""fullscreenenter"",""1"",""4931""
","
","
","""event"",""trial"",""time""
""fullscreenenter"",""1"",""4931""
","
","","null","","null","","fixation","2021-08-17 01:51:53.657","","","","","",""
"card-selection-trial","153","529873","0.0-25.0-1.41","1069","true","img/card_backs/set1/yellow.gif","img/card_backs/set1/purple.gif","img/card_backs/set1/green.gif","img/card_backs/set1/red.gif","img/card_backs/set2/gray.gif","img/card_backs/set2/blue.gif","img/card_backs/set2/orange.gif","img/card_backs/set2/pink.gif","""event"",""trial"",""time""
""fullscreenenter"",""1"",""4931""
","
","
","""event"",""trial"",""time""
""fullscreenenter"",""1"",""4931""
","
","","1243.9000000357628","","","","real_trial","2021-08-17 01:51:56.908","img/card_backs/set1/yellow.gif","3","-190","1","",""
"casino-fixation","154","530376","0.0-25.0-0.42","1069","true","img/card_backs/set1/yellow.gif","img/card_backs/set1/purple.gif","img/card_backs/set1/green.gif","img/card_backs/set1/red.gif","img/card_backs/set2/gray.gif","img/card_backs/set2/blue.gif","img/card_backs/set2/orange.gif","img/card_backs/set2/pink.gif","""event"",""trial"",""time""
""fullscreenenter"",""1"",""4931""
","
","
","""event"",""trial"",""time""
""fullscreenenter"",""1"",""4931""
","
","","null","","null","","fixation","2021-08-17 01:51:57.411","","","","","",""
"card-selection-trial","155","535242","0.0-25.0-1.42","1069","true","img/card_backs/set1/yellow.gif","img/card_backs/set1/purple.gif","img/card_backs/set1/green.gif","img/card_backs/set1/red.gif","img/card_backs/set2/gray.gif","img/card_backs/set2/blue.gif","img/card_backs/set2/orange.gif","img/card_backs/set2/pink.gif","""event"",""trial"",""time""
""fullscreenenter"",""1"",""4931""
","
","
","""event"",""trial"",""time""
""fullscreenenter"",""1"",""4931""
","
","","2860.800000011921","","","","real_trial","2021-08-17 01:52:02.277","img/card_backs/set1/green.gif","2","40","1","",""
"casino-fixation","156","535746","0.0-25.0-0.43","1069","true","img/card_backs/set1/yellow.gif","img/card_backs/set1/purple.gif","img/card_backs/set1/green.gif","img/card_backs/set1/red.gif","img/card_backs/set2/gray.gif","img/card_backs/set2/blue.gif","img/card_backs/set2/orange.gif","img/card_backs/set2/pink.gif","""event"",""trial"",""time""
""fullscreenenter"",""1"",""4931""
","
","
","""event"",""trial"",""time""
""fullscreenenter"",""1"",""4931""
","
","","null","","null","","fixation","2021-08-17 01:52:02.781","","","","","",""
"card-selection-trial","157","538529","0.0-25.0-1.43","1069","true","img/card_backs/set1/yellow.gif","img/card_backs/set1/purple.gif","img/card_backs/set1/green.gif","img/card_backs/set1/red.gif","img/card_backs/set2/gray.gif","img/card_backs/set2/blue.gif","img/card_backs/set2/orange.gif","img/card_backs/set2/pink.gif","""event"",""trial"",""time""
""fullscreenenter"",""1"",""4931""
","
","
","""event"",""trial"",""time""
""fullscreenenter"",""1"",""4931""
","
","","776.1000000238419","","","","real_trial","2021-08-17 01:52:05.564","img/card_backs/set1/yellow.gif","0","240","1","",""
"casino-fixation","158","539031","0.0-25.0-0.44","1069","true","img/card_backs/set1/yellow.gif","img/card_backs/set1/purple.gif","img/card_backs/set1/green.gif","img/card_backs/set1/red.gif","img/card_backs/set2/gray.gif","img/card_backs/set2/blue.gif","img/card_backs/set2/orange.gif","img/card_backs/set2/pink.gif","""event"",""trial"",""time""
""fullscreenenter"",""1"",""4931""
","
","
","""event"",""trial"",""time""
""fullscreenenter"",""1"",""4931""
","
","","null","","null","","fixation","2021-08-17 01:52:06.066","","","","","",""
"card-selection-trial","159","543392","0.0-25.0-1.44","1069","true","img/card_backs/set1/yellow.gif","img/card_backs/set1/purple.gif","img/card_backs/set1/green.gif","img/card_backs/set1/red.gif","img/card_backs/set2/gray.gif","img/card_backs/set2/blue.gif","img/card_backs/set2/orange.gif","img/card_backs/set2/pink.gif","""event"",""trial"",""time""
""fullscreenenter"",""1"",""4931""
","
","
","""event"",""trial"",""time""
""fullscreenenter"",""1"",""4931""
","
","","2356.899999976158","","","","real_trial","2021-08-17 01:52:10.427","img/card_backs/set1/green.gif","3","-90","1","",""
"casino-fixation","160","543897","0.0-25.0-0.45","1069","true","img/card_backs/set1/yellow.gif","img/card_backs/set1/purple.gif","img/card_backs/set1/green.gif","img/card_backs/set1/red.gif","img/card_backs/set2/gray.gif","img/card_backs/set2/blue.gif","img/card_backs/set2/orange.gif","img/card_backs/set2/pink.gif","""event"",""trial"",""time""
""fullscreenenter"",""1"",""4931""
","
","
","""event"",""trial"",""time""
""fullscreenenter"",""1"",""4931""
","
","","null","","null","","fixation","2021-08-17 01:52:10.932","","","","","",""
"card-selection-trial","161","547078","0.0-25.0-1.45","1069","true","img/card_backs/set1/yellow.gif","img/card_backs/set1/purple.gif","img/card_backs/set1/green.gif","img/card_backs/set1/red.gif","img/card_backs/set2/gray.gif","img/card_backs/set2/blue.gif","img/card_backs/set2/orange.gif","img/card_backs/set2/pink.gif","""event"",""trial"",""time""
""fullscreenenter"",""1"",""4931""
","
","
","""event"",""trial"",""time""
""fullscreenenter"",""1"",""4931""
","
","","1168.699999988079","","","","real_trial","2021-08-17 01:52:14.113","img/card_backs/set1/purple.gif","1","250","1","",""
"casino-fixation","162","547581","0.0-25.0-0.46","1069","true","img/card_backs/set1/yellow.gif","img/card_backs/set1/purple.gif","img/card_backs/set1/green.gif","img/card_backs/set1/red.gif","img/card_backs/set2/gray.gif","img/card_backs/set2/blue.gif","img/card_backs/set2/orange.gif","img/card_backs/set2/pink.gif","""event"",""trial"",""time""
""fullscreenenter"",""1"",""4931""
","
","
","""event"",""trial"",""time""
""fullscreenenter"",""1"",""4931""
","
","","null","","null","","fixation","2021-08-17 01:52:14.616","","","","","",""
"card-selection-trial","163","550897","0.0-25.0-1.46","1069","true","img/card_backs/set1/yellow.gif","img/card_backs/set1/purple.gif","img/card_backs/set1/green.gif","img/card_backs/set1/red.gif","img/card_backs/set2/gray.gif","img/card_backs/set2/blue.gif","img/card_backs/set2/orange.gif","img/card_backs/set2/pink.gif","""event"",""trial"",""time""
""fullscreenenter"",""1"",""4931""
","
","
","""event"",""trial"",""time""
""fullscreenenter"",""1"",""4931""
","
","","1311.3999999761581","","","","real_trial","2021-08-17 01:52:17.932","img/card_backs/set1/red.gif","1","40","1","",""
"casino-fixation","164","551399","0.0-25.0-0.47","1069","true","img/card_backs/set1/yellow.gif","img/card_backs/set1/purple.gif","img/card_backs/set1/green.gif","img/card_backs/set1/red.gif","img/card_backs/set2/gray.gif","img/card_backs/set2/blue.gif","img/card_backs/set2/orange.gif","img/card_backs/set2/pink.gif","""event"",""trial"",""time""
""fullscreenenter"",""1"",""4931""
","
","
","""event"",""trial"",""time""
""fullscreenenter"",""1"",""4931""
","
","","null","","null","","fixation","2021-08-17 01:52:18.435","","","","","",""
"card-selection-trial","165","555889","0.0-25.0-1.47","1069","true","img/card_backs/set1/yellow.gif","img/card_backs/set1/purple.gif","img/card_backs/set1/green.gif","img/card_backs/set1/red.gif","img/card_backs/set2/gray.gif","img/card_backs/set2/blue.gif","img/card_backs/set2/orange.gif","img/card_backs/set2/pink.gif","""event"",""trial"",""time""
""fullscreenenter"",""1"",""4931""
","
","
","""event"",""trial"",""time""
""fullscreenenter"",""1"",""4931""
","
","","2483.2000000476837","","","","real_trial","2021-08-17 01:52:22.925","img/card_backs/set1/green.gif","1","50","1","",""
"casino-fixation","166","556392","0.0-25.0-0.48","1069","true","img/card_backs/set1/yellow.gif","img/card_backs/set1/purple.gif","img/card_backs/set1/green.gif","img/card_backs/set1/red.gif","img/card_backs/set2/gray.gif","img/card_backs/set2/blue.gif","img/card_backs/set2/orange.gif","img/card_backs/set2/pink.gif","""event"",""trial"",""time""
""fullscreenenter"",""1"",""4931""
","
","
","""event"",""trial"",""time""
""fullscreenenter"",""1"",""4931""
","
","","null","","null","","fixation","2021-08-17 01:52:23.427","","","","","",""
"card-selection-trial","167","560399","0.0-25.0-1.48","1069","true","img/card_backs/set1/yellow.gif","img/card_backs/set1/purple.gif","img/card_backs/set1/green.gif","img/card_backs/set1/red.gif","img/card_backs/set2/gray.gif","img/card_backs/set2/blue.gif","img/card_backs/set2/orange.gif","img/card_backs/set2/pink.gif","""event"",""trial"",""time""
""fullscreenenter"",""1"",""4931""
","
","
","""event"",""trial"",""time""
""fullscreenenter"",""1"",""4931""
