"trial_type","trial_index","time_elapsed","internal_node_id","sub_id","risk_good_first","block1_A","block1_B","block1_C","block1_D","block2_A","block2_B","block2_C","block2_D","interactions","blur_events","focus_events","fullscreenenter_events","fullscreenexit_events","success","rt","stimulus","key_press","button_pressed","task_part","timestamp","card_choice","choice_position","points_earned","block","correct","response"
"pavlovia","0","3","0.0-0.0","1046","true","img/card_backs/set1/yellow.gif","img/card_backs/set1/red.gif","img/card_backs/set1/purple.gif","img/card_backs/set1/green.gif","img/card_backs/set2/pink.gif","img/card_backs/set2/blue.gif","img/card_backs/set2/orange.gif","img/card_backs/set2/gray.gif","""event"",""trial"",""time""
""fullscreenenter"",""1"",""3828""
","
","
","""event"",""trial"",""time""
""fullscreenenter"",""1"",""3828""
","
","","","","","","","","","","","","",""
"fullscreen","1","4819","0.0-1.0","1046","true","img/card_backs/set1/yellow.gif","img/card_backs/set1/red.gif","img/card_backs/set1/purple.gif","img/card_backs/set1/green.gif","img/card_backs/set2/pink.gif","img/card_backs/set2/blue.gif","img/card_backs/set2/orange.gif","img/card_backs/set2/gray.gif","""event"",""trial"",""time""
""fullscreenenter"",""1"",""3828""
","
","
","""event"",""trial"",""time""
""fullscreenenter"",""1"",""3828""
","
","true","","","","","","","","","","","",""
"audio-keyboard-response","2","9577","0.0-2.0","1046","true","img/card_backs/set1/yellow.gif","img/card_backs/set1/red.gif","img/card_backs/set1/purple.gif","img/card_backs/set1/green.gif","img/card_backs/set2/pink.gif","img/card_backs/set2/blue.gif","img/card_backs/set2/orange.gif","img/card_backs/set2/gray.gif","""event"",""trial"",""time""
""fullscreenenter"",""1"",""3828""
","
","
","""event"",""trial"",""time""
""fullscreenenter"",""1"",""3828""
","
","","4709","audio/beep_loop.wav","32","","","","","","","","",""
"audio-button-response","3","11405","0.0-3.0","1046","true","img/card_backs/set1/yellow.gif","img/card_backs/set1/red.gif","img/card_backs/set1/purple.gif","img/card_backs/set1/green.gif","img/card_backs/set2/pink.gif","img/card_backs/set2/blue.gif","img/card_backs/set2/orange.gif","img/card_backs/set2/gray.gif","""event"",""trial"",""time""
""fullscreenenter"",""1"",""3828""
","
","
","""event"",""trial"",""time""
""fullscreenenter"",""1"",""3828""
","
","","NaN","audio/turtle.mp3","","3","","","","","","","",""
"audio-button-response","4","13549","0.0-4.0","1046","true","img/card_backs/set1/yellow.gif","img/card_backs/set1/red.gif","img/card_backs/set1/purple.gif","img/card_backs/set1/green.gif","img/card_backs/set2/pink.gif","img/card_backs/set2/blue.gif","img/card_backs/set2/orange.gif","img/card_backs/set2/gray.gif","""event"",""trial"",""time""
""fullscreenenter"",""1"",""3828""
","
","
","""event"",""trial"",""time""
""fullscreenenter"",""1"",""3828""
","
","","NaN","audio/shark.mp3","","2","","","","","","","",""
"fullscreen","5","16696","0.0-5.0","1046","true","img/card_backs/set1/yellow.gif","img/card_backs/set1/red.gif","img/card_backs/set1/purple.gif","img/card_backs/set1/green.gif","img/card_backs/set2/pink.gif","img/card_backs/set2/blue.gif","img/card_backs/set2/orange.gif","img/card_backs/set2/gray.gif","""event"",""trial"",""time""
""fullscreenenter"",""1"",""3828""
","
","
","""event"",""trial"",""time""
""fullscreenenter"",""1"",""3828""
","
","true","","","","","","","","","","","",""
"casino-keyboard-response","6","19780","0.0-6.0-0.0","1046","true","img/card_backs/set1/yellow.gif","img/card_backs/set1/red.gif","img/card_backs/set1/purple.gif","img/card_backs/set1/green.gif","img/card_backs/set2/pink.gif","img/card_backs/set2/blue.gif","img/card_backs/set2/orange.gif","img/card_backs/set2/gray.gif","""event"",""trial"",""time""
""fullscreenenter"",""1"",""3828""
","
","
","""event"",""trial"",""time""
""fullscreenenter"",""1"",""3828""
","
","","3078.699999988079","Welcome to the casino!","71","","instructions","2021-07-22 22:05:04.339","","","","","",""
"casino-keyboard-response","7","29474","0.0-6.0-0.1","1046","true","img/card_backs/set1/yellow.gif","img/card_backs/set1/red.gif","img/card_backs/set1/purple.gif","img/card_backs/set1/green.gif","img/card_backs/set2/pink.gif","img/card_backs/set2/blue.gif","img/card_backs/set2/orange.gif","img/card_backs/set2/gray.gif","""event"",""trial"",""time""
""fullscreenenter"",""1"",""3828""
","
","
","""event"",""trial"",""time""
""fullscreenenter"",""1"",""3828""
","
","","9690.90000000596","Today you will be playing a game to earn tokens. </br> At the end of the experiment, you will be paid a bonus based on how many tokens you win. ","69","","instructions","2021-07-22 22:05:14.033","","","","","",""
"casino-keyboard-response","8","36439","0.0-6.0-0.2","1046","true","img/card_backs/set1/yellow.gif","img/card_backs/set1/red.gif","img/card_backs/set1/purple.gif","img/card_backs/set1/green.gif","img/card_backs/set2/pink.gif","img/card_backs/set2/blue.gif","img/card_backs/set2/orange.gif","img/card_backs/set2/gray.gif","""event"",""trial"",""time""
""fullscreenenter"",""1"",""3828""
","
","
","""event"",""trial"",""time""
""fullscreenenter"",""1"",""3828""
","
","","6963.4000000059605","On every turn, you will be shown four different decks of cards. </br> You need to select a card from one of the four decks.  ","75","","instructions","2021-07-22 22:05:20.998","","","","","",""
"casino-keyboard-response","9","40943","0.0-6.0-0.3","1046","true","img/card_backs/set1/yellow.gif","img/card_backs/set1/red.gif","img/card_backs/set1/purple.gif","img/card_backs/set1/green.gif","img/card_backs/set2/pink.gif","img/card_backs/set2/blue.gif","img/card_backs/set2/orange.gif","img/card_backs/set2/gray.gif","""event"",""trial"",""time""
""fullscreenenter"",""1"",""3828""
","
","
","""event"",""trial"",""time""
""fullscreenenter"",""1"",""3828""
","
","","4501","On the next screen, you will see what the decks will look like. ","66","","instructions","2021-07-22 22:05:25.502","","","","","",""
"card-selection-trial","10","44953","0.0-7.0-0.0","1046","true","img/card_backs/set1/yellow.gif","img/card_backs/set1/red.gif","img/card_backs/set1/purple.gif","img/card_backs/set1/green.gif","img/card_backs/set2/pink.gif","img/card_backs/set2/blue.gif","img/card_backs/set2/orange.gif","img/card_backs/set2/gray.gif","""event"",""trial"",""time""
""fullscreenenter"",""1"",""3828""
","
","
","""event"",""trial"",""time""
""fullscreenenter"",""1"",""3828""
","
","","null","","","","practice","2021-07-22 22:05:29.512","null","null","null","0","",""
"casino-keyboard-response","11","52074","0.0-8.0-0.0","1046","true","img/card_backs/set1/yellow.gif","img/card_backs/set1/red.gif","img/card_backs/set1/purple.gif","img/card_backs/set1/green.gif","img/card_backs/set2/pink.gif","img/card_backs/set2/blue.gif","img/card_backs/set2/orange.gif","img/card_backs/set2/gray.gif","""event"",""trial"",""time""
""fullscreenenter"",""1"",""3828""
","
","
","""event"",""trial"",""time""
""fullscreenenter"",""1"",""3828""
","
","","7118.300000011921","You should pick a card from a deck using the '2', '4', '6', and '8' keys at the top of the keyboard.","85","","instructions","2021-07-22 22:05:36.633","","","","","",""
"casino-keyboard-response","12","57140","0.0-8.0-0.1","1046","true","img/card_backs/set1/yellow.gif","img/card_backs/set1/red.gif","img/card_backs/set1/purple.gif","img/card_backs/set1/green.gif","img/card_backs/set2/pink.gif","img/card_backs/set2/blue.gif","img/card_backs/set2/orange.gif","img/card_backs/set2/gray.gif","""event"",""trial"",""time""
""fullscreenenter"",""1"",""3828""
","
","
","""event"",""trial"",""time""
""fullscreenenter"",""1"",""3828""
","
","","5062.9000000059605","Once you select a card, it will turn over and you will see how many tokens you earned.","83","","instructions","2021-07-22 22:05:41.699","","","","","",""
"casino-keyboard-response","13","62842","0.0-8.0-0.2","1046","true","img/card_backs/set1/yellow.gif","img/card_backs/set1/red.gif","img/card_backs/set1/purple.gif","img/card_backs/set1/green.gif","img/card_backs/set2/pink.gif","img/card_backs/set2/blue.gif","img/card_backs/set2/orange.gif","img/card_backs/set2/gray.gif","""event"",""trial"",""time""
""fullscreenenter"",""1"",""3828""
","
","
","""event"",""trial"",""time""
""fullscreenenter"",""1"",""3828""
","
","","5698.79999999702","Let's try practicing that! </br> First, try to put your fingers over the '2', '4', '6', and '8' keys. </br>  You can use whatever fingers are most comfortable for you. Try to find a comfortable position now. ","50","","instructions","2021-07-22 22:05:47.401","","","","","",""
"casino-keyboard-response","14","68663","0.0-8.0-0.3","1046","true","img/card_backs/set1/yellow.gif","img/card_backs/set1/red.gif","img/card_backs/set1/purple.gif","img/card_backs/set1/green.gif","img/card_backs/set2/pink.gif","img/card_backs/set2/blue.gif","img/card_backs/set2/orange.gif","img/card_backs/set2/gray.gif","""event"",""trial"",""time""
""fullscreenenter"",""1"",""3828""
","
","
","""event"",""trial"",""time""
""fullscreenenter"",""1"",""3828""
","
","","5818.600000008941","Okay ready? </br> On the next screen, press '2' to select the left deck. ","50","","instructions","2021-07-22 22:05:53.222","","","","","",""
"card-selection-trial","15","71487","0.0-9.0-0.0","1046","true","img/card_backs/set1/yellow.gif","img/card_backs/set1/red.gif","img/card_backs/set1/purple.gif","img/card_backs/set1/green.gif","img/card_backs/set2/pink.gif","img/card_backs/set2/blue.gif","img/card_backs/set2/orange.gif","img/card_backs/set2/gray.gif","""event"",""trial"",""time""
""fullscreenenter"",""1"",""3828""
","
","
","""event"",""trial"",""time""
""fullscreenenter"",""1"",""3828""
","
","","810.1000000089407","","","","practice_card_selection","2021-07-22 22:05:56.046","img/practice_cards/backs/dark_blue.gif","0","-200","","",""
"casino-keyboard-response","16","77112","0.0-10.0-0.0","1046","true","img/card_backs/set1/yellow.gif","img/card_backs/set1/red.gif","img/card_backs/set1/purple.gif","img/card_backs/set1/green.gif","img/card_backs/set2/pink.gif","img/card_backs/set2/blue.gif","img/card_backs/set2/orange.gif","img/card_backs/set2/gray.gif","""event"",""trial"",""time""
""fullscreenenter"",""1"",""3828""
","
","
","""event"",""trial"",""time""
""fullscreenenter"",""1"",""3828""
","
","","5622.20000000298","Great! Now on the next screen, try pressing '6' to select the third deck.","54","","instructions","2021-07-22 22:06:01.671","","","","","",""
"card-selection-trial","17","79847","0.0-11.0-0.0","1046","true","img/card_backs/set1/yellow.gif","img/card_backs/set1/red.gif","img/card_backs/set1/purple.gif","img/card_backs/set1/green.gif","img/card_backs/set2/pink.gif","img/card_backs/set2/blue.gif","img/card_backs/set2/orange.gif","img/card_backs/set2/gray.gif","""event"",""trial"",""time""
""fullscreenenter"",""1"",""3828""
","
","
","""event"",""trial"",""time""
""fullscreenenter"",""1"",""3828""
","
","","726.7999999970198","","","","practice_card_selection","2021-07-22 22:06:04.407","img/practice_cards/backs/dark_blue.gif","2","200","","",""
"casino-keyboard-response","18","84360","0.0-12.0-0.0","1046","true","img/card_backs/set1/yellow.gif","img/card_backs/set1/red.gif","img/card_backs/set1/purple.gif","img/card_backs/set1/green.gif","img/card_backs/set2/pink.gif","img/card_backs/set2/blue.gif","img/card_backs/set2/orange.gif","img/card_backs/set2/gray.gif","""event"",""trial"",""time""
""fullscreenenter"",""1"",""3828""
","
","
","""event"",""trial"",""time""
""fullscreenenter"",""1"",""3828""
","
","","4509.5","Now on the next screen, try pressing '4' to select the second deck.","52","","instructions","2021-07-22 22:06:08.919","","","","","",""
"card-selection-trial","19","87044","0.0-13.0-0.0","1046","true","img/card_backs/set1/yellow.gif","img/card_backs/set1/red.gif","img/card_backs/set1/purple.gif","img/card_backs/set1/green.gif","img/card_backs/set2/pink.gif","img/card_backs/set2/blue.gif","img/card_backs/set2/orange.gif","img/card_backs/set2/gray.gif","""event"",""trial"",""time""
""fullscreenenter"",""1"",""3828""
","
","
","""event"",""trial"",""time""
""fullscreenenter"",""1"",""3828""
","
","","676","","","","practice_card_selection","2021-07-22 22:06:11.604","img/practice_cards/backs/dark_blue.gif","1","200","","",""
"casino-keyboard-response","20","91462","0.0-14.0-0.0","1046","true","img/card_backs/set1/yellow.gif","img/card_backs/set1/red.gif","img/card_backs/set1/purple.gif","img/card_backs/set1/green.gif","img/card_backs/set2/pink.gif","img/card_backs/set2/blue.gif","img/card_backs/set2/orange.gif","img/card_backs/set2/gray.gif","""event"",""trial"",""time""
""fullscreenenter"",""1"",""3828""
","
","
","""event"",""trial"",""time""
""fullscreenenter"",""1"",""3828""
","
","","4415.4000000059605","Finally, try pressing '8' to select the deck all the way on the right.","56","","instructions","2021-07-22 22:06:16.021","","","","","",""
"card-selection-trial","21","94011","0.0-15.0-0.0","1046","true","img/card_backs/set1/yellow.gif","img/card_backs/set1/red.gif","img/card_backs/set1/purple.gif","img/card_backs/set1/green.gif","img/card_backs/set2/pink.gif","img/card_backs/set2/blue.gif","img/card_backs/set2/orange.gif","img/card_backs/set2/gray.gif","""event"",""trial"",""time""
""fullscreenenter"",""1"",""3828""
","
","
","""event"",""trial"",""time""
""fullscreenenter"",""1"",""3828""
","
","","540.1999999880791","","","","practice_card_selection","2021-07-22 22:06:18.570","img/practice_cards/backs/dark_blue.gif","3","-200","","",""
"casino-keyboard-response","22","97974","0.0-16.0-0.0","1046","true","img/card_backs/set1/yellow.gif","img/card_backs/set1/red.gif","img/card_backs/set1/purple.gif","img/card_backs/set1/green.gif","img/card_backs/set2/pink.gif","img/card_backs/set2/blue.gif","img/card_backs/set2/orange.gif","img/card_backs/set2/gray.gif","""event"",""trial"",""time""
""fullscreenenter"",""1"",""3828""
","
","
","""event"",""trial"",""time""
""fullscreenenter"",""1"",""3828""
","
","","3959.2000000029802","Great! It seems like you are getting the hang of this.","80","","instructions","2021-07-22 22:06:22.533","","","","","",""
"casino-keyboard-response","23","104725","0.0-16.0-0.1","1046","true","img/card_backs/set1/yellow.gif","img/card_backs/set1/red.gif","img/card_backs/set1/purple.gif","img/card_backs/set1/green.gif","img/card_backs/set2/pink.gif","img/card_backs/set2/blue.gif","img/card_backs/set2/orange.gif","img/card_backs/set2/gray.gif","""event"",""trial"",""time""
""fullscreenenter"",""1"",""3828""
","
","
","""event"",""trial"",""time""
""fullscreenenter"",""1"",""3828""
","
","","6748.20000000298","You may have noticed that some cards will cause you to <b> win </b> tokens while other cards will cause you to <b> lose </b>  tokens.","70","","instructions","2021-07-22 22:06:29.284","","","","","",""
"casino-keyboard-response","24","112754","0.0-16.0-0.2","1046","true","img/card_backs/set1/yellow.gif","img/card_backs/set1/red.gif","img/card_backs/set1/purple.gif","img/card_backs/set1/green.gif","img/card_backs/set2/pink.gif","img/card_backs/set2/blue.gif","img/card_backs/set2/orange.gif","img/card_backs/set2/gray.gif","""event"",""trial"",""time""
""fullscreenenter"",""1"",""3828""
","
","
","""event"",""trial"",""time""
""fullscreenenter"",""1"",""3828""
","
","","8027","Each deck has a mix of cards that will cause you to win and lose tokens. </br> However, the cards in each colored deck are different.","73","","instructions","2021-07-22 22:06:37.314","","","","","",""
"casino-keyboard-response","25","120895","0.0-16.0-0.3","1046","true","img/card_backs/set1/yellow.gif","img/card_backs/set1/red.gif","img/card_backs/set1/purple.gif","img/card_backs/set1/green.gif","img/card_backs/set2/pink.gif","img/card_backs/set2/blue.gif","img/card_backs/set2/orange.gif","img/card_backs/set2/gray.gif","""event"",""trial"",""time""
""fullscreenenter"",""1"",""3828""
","
","
","""event"",""trial"",""time""
""fullscreenenter"",""1"",""3828""
","
","","8138.29999999702","Some colored decks are luckier than others. </br> If you choose the lucky decks, you will earn more tokens than if you choose the unlucky decks.","69","","instructions","2021-07-22 22:06:45.455","","","","","",""
"casino-keyboard-response","26","127708","0.0-16.0-0.4","1046","true","img/card_backs/set1/yellow.gif","img/card_backs/set1/red.gif","img/card_backs/set1/purple.gif","img/card_backs/set1/green.gif","img/card_backs/set2/pink.gif","img/card_backs/set2/blue.gif","img/card_backs/set2/orange.gif","img/card_backs/set2/gray.gif","""event"",""trial"",""time""
""fullscreenenter"",""1"",""3828""
","
","
","""event"",""trial"",""time""
""fullscreenenter"",""1"",""3828""
","
","","6810.0999999940395","You should try to figure out which decks are lucky. </br> Then, try to choose the lucky decks so you can win the most tokens.","87","","instructions","2021-07-22 22:06:52.267","","","","","",""
"casino-keyboard-response","27","138525","0.0-16.0-0.5","1046","true","img/card_backs/set1/yellow.gif","img/card_backs/set1/red.gif","img/card_backs/set1/purple.gif","img/card_backs/set1/green.gif","img/card_backs/set2/pink.gif","img/card_backs/set2/blue.gif","img/card_backs/set2/orange.gif","img/card_backs/set2/gray.gif","""event"",""trial"",""time""
""fullscreenenter"",""1"",""3828""
","
","
","""event"",""trial"",""time""
""fullscreenenter"",""1"",""3828""
","
","","10814.29999999702","To make it trickier, the casino dealer will switch the locations of the decks on every turn. </br> The color of the deck determines how lucky it is. The location does not matter.","88","","instructions","2021-07-22 22:07:03.084","","","","","",""
"casino-keyboard-response","28","147441","0.0-16.0-0.6","1046","true","img/card_backs/set1/yellow.gif","img/card_backs/set1/red.gif","img/card_backs/set1/purple.gif","img/card_backs/set1/green.gif","img/card_backs/set2/pink.gif","img/card_backs/set2/blue.gif","img/card_backs/set2/orange.gif","img/card_backs/set2/gray.gif","""event"",""trial"",""time""
""fullscreenenter"",""1"",""3828""
","
","
","""event"",""trial"",""time""
""fullscreenenter"",""1"",""3828""
","
","","8913.60000000894","The mix of cards in each colored deck will stay the same throughout the game. </br> That means that a deck that is lucky early on will stay lucky.","79","","instructions","2021-07-22 22:07:12.000","","","","","",""
"casino-keyboard-response","29","155261","0.0-16.0-0.7","1046","true","img/card_backs/set1/yellow.gif","img/card_backs/set1/red.gif","img/card_backs/set1/purple.gif","img/card_backs/set1/green.gif","img/card_backs/set2/pink.gif","img/card_backs/set2/blue.gif","img/card_backs/set2/orange.gif","img/card_backs/set2/gray.gif","""event"",""trial"",""time""
""fullscreenenter"",""1"",""3828""
","
","
","""event"",""trial"",""time""
""fullscreenenter"",""1"",""3828""
","
","","7817.300000011921","Remember though, all the decks have a <b> mix </b> of both <b> good </b> and <b> bad </b> cards so it may take a couple of turns to figure out if a deck is lucky.","69","","instructions","2021-07-22 22:07:19.820","","","","","",""
"casino-keyboard-response","30","163080","0.0-16.0-0.8","1046","true","img/card_backs/set1/yellow.gif","img/card_backs/set1/red.gif","img/card_backs/set1/purple.gif","img/card_backs/set1/green.gif","img/card_backs/set2/pink.gif","img/card_backs/set2/blue.gif","img/card_backs/set2/orange.gif","img/card_backs/set2/gray.gif","""event"",""trial"",""time""
""fullscreenenter"",""1"",""3828""
","
","
","""event"",""trial"",""time""
""fullscreenenter"",""1"",""3828""
","
","","7815.79999999702","At the end of the game, you will be paid bonus money based on how many tokens you win. </br> If you win more tokens, you will earn more money!","72","","instructions","2021-07-22 22:07:27.639","","","","","",""
"casino-keyboard-response","31","172959","0.0-16.0-0.9","1046","true","img/card_backs/set1/yellow.gif","img/card_backs/set1/red.gif","img/card_backs/set1/purple.gif","img/card_backs/set1/green.gif","img/card_backs/set2/pink.gif","img/card_backs/set2/blue.gif","img/card_backs/set2/orange.gif","img/card_backs/set2/gray.gif","""event"",""trial"",""time""
""fullscreenenter"",""1"",""3828""
","
","
","""event"",""trial"",""time""
""fullscreenenter"",""1"",""3828""
","
","","9876.20000000298","You will never <b> lose </b> money. </br> If you end up with fewer than 0 tokens, you will earn $0 of bonus money, but you will still be paid for playing the game.","83","","instructions","2021-07-22 22:07:37.518","","","","","",""
"casino-keyboard-response","32","176877","0.0-16.0-0.10","1046","true","img/card_backs/set1/yellow.gif","img/card_backs/set1/red.gif","img/card_backs/set1/purple.gif","img/card_backs/set1/green.gif","img/card_backs/set2/pink.gif","img/card_backs/set2/blue.gif","img/card_backs/set2/orange.gif","img/card_backs/set2/gray.gif","""event"",""trial"",""time""
""fullscreenenter"",""1"",""3828""
","
","
","""event"",""trial"",""time""
""fullscreenenter"",""1"",""3828""
","
","","3916.0999999940395","You will have 10 seconds to make each choice.","82","","instructions","2021-07-22 22:07:41.437","","","","","",""
"casino-keyboard-response","33","184715","0.0-16.0-0.11","1046","true","img/card_backs/set1/yellow.gif","img/card_backs/set1/red.gif","img/card_backs/set1/purple.gif","img/card_backs/set1/green.gif","img/card_backs/set2/pink.gif","img/card_backs/set2/blue.gif","img/card_backs/set2/orange.gif","img/card_backs/set2/gray.gif","""event"",""trial"",""time""
""fullscreenenter"",""1"",""3828""
","
","
","""event"",""trial"",""time""
""fullscreenenter"",""1"",""3828""
","
","","7833.4000000059605","Before you play the game for real, you will play with practice decks. </br> The tokens you earn during practice won't count toward your total.","86","","instructions","2021-07-22 22:07:49.274","","","","","",""
"casino-keyboard-response","34","189802","0.0-16.0-0.12","1046","true","img/card_backs/set1/yellow.gif","img/card_backs/set1/red.gif","img/card_backs/set1/purple.gif","img/card_backs/set1/green.gif","img/card_backs/set2/pink.gif","img/card_backs/set2/blue.gif","img/card_backs/set2/orange.gif","img/card_backs/set2/gray.gif","""event"",""trial"",""time""
""fullscreenenter"",""1"",""3828""
","
","
","""event"",""trial"",""time""
""fullscreenenter"",""1"",""3828""
","
","","5085.70000000298","Ready? Remember, use the '2', '4', '6', and '8' keys to select the decks. </br> Put your fingers on those keys now and then press '2' to begin.","50","","instructions","2021-07-22 22:07:54.362","","","","","",""
"casino-fixation","35","190306","0.0-17.0-0.0","1046","true","img/card_backs/set1/yellow.gif","img/card_backs/set1/red.gif","img/card_backs/set1/purple.gif","img/card_backs/set1/green.gif","img/card_backs/set2/pink.gif","img/card_backs/set2/blue.gif","img/card_backs/set2/orange.gif","img/card_backs/set2/gray.gif","""event"",""trial"",""time""
""fullscreenenter"",""1"",""3828""
","
","
","""event"",""trial"",""time""
""fullscreenenter"",""1"",""3828""
","
","","null","","null","","fixation","2021-07-22 22:07:54.865","","","","","",""
"card-selection-trial","36","193302","0.0-17.0-1.0","1046","true","img/card_backs/set1/yellow.gif","img/card_backs/set1/red.gif","img/card_backs/set1/purple.gif","img/card_backs/set1/green.gif","img/card_backs/set2/pink.gif","img/card_backs/set2/blue.gif","img/card_backs/set2/orange.gif","img/card_backs/set2/gray.gif","""event"",""trial"",""time""
""fullscreenenter"",""1"",""3828""
","
","
","""event"",""trial"",""time""
""fullscreenenter"",""1"",""3828""
","
","","985.5","","","","practice","2021-07-22 22:07:57.861","img/practice_cards/backs/brown.gif","0","100","0","",""
"casino-fixation","37","193807","0.0-17.0-0.1","1046","true","img/card_backs/set1/yellow.gif","img/card_backs/set1/red.gif","img/card_backs/set1/purple.gif","img/card_backs/set1/green.gif","img/card_backs/set2/pink.gif","img/card_backs/set2/blue.gif","img/card_backs/set2/orange.gif","img/card_backs/set2/gray.gif","""event"",""trial"",""time""
""fullscreenenter"",""1"",""3828""
","
","
","""event"",""trial"",""time""
""fullscreenenter"",""1"",""3828""
","
","","null","","null","","fixation","2021-07-22 22:07:58.366","","","","","",""
"card-selection-trial","38","196836","0.0-17.0-1.1","1046","true","img/card_backs/set1/yellow.gif","img/card_backs/set1/red.gif","img/card_backs/set1/purple.gif","img/card_backs/set1/green.gif","img/card_backs/set2/pink.gif","img/card_backs/set2/blue.gif","img/card_backs/set2/orange.gif","img/card_backs/set2/gray.gif","""event"",""trial"",""time""
""fullscreenenter"",""1"",""3828""
","
","
","""event"",""trial"",""time""
""fullscreenenter"",""1"",""3828""
","
","","1017","","","","practice","2021-07-22 22:08:01.395","img/practice_cards/backs/dark_green.gif","1","-200","0","",""
"casino-fixation","39","197343","0.0-17.0-0.2","1046","true","img/card_backs/set1/yellow.gif","img/card_backs/set1/red.gif","img/card_backs/set1/purple.gif","img/card_backs/set1/green.gif","img/card_backs/set2/pink.gif","img/card_backs/set2/blue.gif","img/card_backs/set2/orange.gif","img/card_backs/set2/gray.gif","""event"",""trial"",""time""
""fullscreenenter"",""1"",""3828""
","
","
","""event"",""trial"",""time""
""fullscreenenter"",""1"",""3828""
","
","","null","","null","","fixation","2021-07-22 22:08:01.902","","","","","",""
"card-selection-trial","40","200011","0.0-17.0-1.2","1046","true","img/card_backs/set1/yellow.gif","img/card_backs/set1/red.gif","img/card_backs/set1/purple.gif","img/card_backs/set1/green.gif","img/card_backs/set2/pink.gif","img/card_backs/set2/blue.gif","img/card_backs/set2/orange.gif","img/card_backs/set2/gray.gif","""event"",""trial"",""time""
""fullscreenenter"",""1"",""3828""
","
","
","""event"",""trial"",""time""
""fullscreenenter"",""1"",""3828""
","
","","653.9000000059605","","","","practice","2021-07-22 22:08:04.570","img/practice_cards/backs/black.gif","0","100","0","",""
"casino-fixation","41","200513","0.0-17.0-0.3","1046","true","img/card_backs/set1/yellow.gif","img/card_backs/set1/red.gif","img/card_backs/set1/purple.gif","img/card_backs/set1/green.gif","img/card_backs/set2/pink.gif","img/card_backs/set2/blue.gif","img/card_backs/set2/orange.gif","img/card_backs/set2/gray.gif","""event"",""trial"",""time""
""fullscreenenter"",""1"",""3828""
","
","
","""event"",""trial"",""time""
""fullscreenenter"",""1"",""3828""
","
","","null","","null","","fixation","2021-07-22 22:08:05.072","","","","","",""
"card-selection-trial","42","203544","0.0-17.0-1.3","1046","true","img/card_backs/set1/yellow.gif","img/card_backs/set1/red.gif","img/card_backs/set1/purple.gif","img/card_backs/set1/green.gif","img/card_backs/set2/pink.gif","img/card_backs/set2/blue.gif","img/card_backs/set2/orange.gif","img/card_backs/set2/gray.gif","""event"",""trial"",""time""
""fullscreenenter"",""1"",""3828""
","
","
","""event"",""trial"",""time""
""fullscreenenter"",""1"",""3828""
","
","","1019","","","","practice","2021-07-22 22:08:08.103","img/practice_cards/backs/dark_blue.gif","1","200","0","",""
"casino-fixation","43","204048","0.0-17.0-0.4","1046","true","img/card_backs/set1/yellow.gif","img/card_backs/set1/red.gif","img/card_backs/set1/purple.gif","img/card_backs/set1/green.gif","img/card_backs/set2/pink.gif","img/card_backs/set2/blue.gif","img/card_backs/set2/orange.gif","img/card_backs/set2/gray.gif","""event"",""trial"",""time""
""fullscreenenter"",""1"",""3828""
","
","
","""event"",""trial"",""time""
""fullscreenenter"",""1"",""3828""
","
","","null","","null","","fixation","2021-07-22 22:08:08.607","","","","","",""
"card-selection-trial","44","207141","0.0-17.0-1.4","1046","true","img/card_backs/set1/yellow.gif","img/card_backs/set1/red.gif","img/card_backs/set1/purple.gif","img/card_backs/set1/green.gif","img/card_backs/set2/pink.gif","img/card_backs/set2/blue.gif","img/card_backs/set2/orange.gif","img/card_backs/set2/gray.gif","""event"",""trial"",""time""
""fullscreenenter"",""1"",""3828""
","
","
","""event"",""trial"",""time""
""fullscreenenter"",""1"",""3828""
","
","","1079.4000000059605","","","","practice","2021-07-22 22:08:11.700","img/practice_cards/backs/dark_blue.gif","2","200","0","",""
"casino-fixation","45","207645","0.0-17.0-0.5","1046","true","img/card_backs/set1/yellow.gif","img/card_backs/set1/red.gif","img/card_backs/set1/purple.gif","img/card_backs/set1/green.gif","img/card_backs/set2/pink.gif","img/card_backs/set2/blue.gif","img/card_backs/set2/orange.gif","img/card_backs/set2/gray.gif","""event"",""trial"",""time""
""fullscreenenter"",""1"",""3828""
","
","
","""event"",""trial"",""time""
""fullscreenenter"",""1"",""3828""
","
","","null","","null","","fixation","2021-07-22 22:08:12.204","","","","","",""
"card-selection-trial","46","210300","0.0-17.0-1.5","1046","true","img/card_backs/set1/yellow.gif","img/card_backs/set1/red.gif","img/card_backs/set1/purple.gif","img/card_backs/set1/green.gif","img/card_backs/set2/pink.gif","img/card_backs/set2/blue.gif","img/card_backs/set2/orange.gif","img/card_backs/set2/gray.gif","""event"",""trial"",""time""
""fullscreenenter"",""1"",""3828""
","
","
","""event"",""trial"",""time""
""fullscreenenter"",""1"",""3828""
","
","","645.2000000029802","","","","practice","2021-07-22 22:08:14.860","img/practice_cards/backs/dark_blue.gif","0","-200","0","",""
"casino-fixation","47","210808","0.0-17.0-0.6","1046","true","img/card_backs/set1/yellow.gif","img/card_backs/set1/red.gif","img/card_backs/set1/purple.gif","img/card_backs/set1/green.gif","img/card_backs/set2/pink.gif","img/card_backs/set2/blue.gif","img/card_backs/set2/orange.gif","img/card_backs/set2/gray.gif","""event"",""trial"",""time""
""fullscreenenter"",""1"",""3828""
","
","
","""event"",""trial"",""time""
""fullscreenenter"",""1"",""3828""
","
","","null","","null","","fixation","2021-07-22 22:08:15.367","","","","","",""
"card-selection-trial","48","213727","0.0-17.0-1.6","1046","true","img/card_backs/set1/yellow.gif","img/card_backs/set1/red.gif","img/card_backs/set1/purple.gif","img/card_backs/set1/green.gif","img/card_backs/set2/pink.gif","img/card_backs/set2/blue.gif","img/card_backs/set2/orange.gif","img/card_backs/set2/gray.gif","""event"",""trial"",""time""
""fullscreenenter"",""1"",""3828""
","
","
","""event"",""trial"",""time""
""fullscreenenter"",""1"",""3828""
","
","","909.8999999910593","","","","practice","2021-07-22 22:08:18.286","img/practice_cards/backs/dark_blue.gif","2","-200","0","",""
"casino-fixation","49","214235","0.0-17.0-0.7","1046","true","img/card_backs/set1/yellow.gif","img/card_backs/set1/red.gif","img/card_backs/set1/purple.gif","img/card_backs/set1/green.gif","img/card_backs/set2/pink.gif","img/card_backs/set2/blue.gif","img/card_backs/set2/orange.gif","img/card_backs/set2/gray.gif","""event"",""trial"",""time""
""fullscreenenter"",""1"",""3828""
","
","
","""event"",""trial"",""time""
""fullscreenenter"",""1"",""3828""
","
","","null","","null","","fixation","2021-07-22 22:08:18.794","","","","","",""
"card-selection-trial","50","216909","0.0-17.0-1.7","1046","true","img/card_backs/set1/yellow.gif","img/card_backs/set1/red.gif","img/card_backs/set1/purple.gif","img/card_backs/set1/green.gif","img/card_backs/set2/pink.gif","img/card_backs/set2/blue.gif","img/card_backs/set2/orange.gif","img/card_backs/set2/gray.gif","""event"",""trial"",""time""
""fullscreenenter"",""1"",""3828""
","
","
","""event"",""trial"",""time""
""fullscreenenter"",""1"",""3828""
","
","","664.6000000089407","","","","practice","2021-07-22 22:08:21.468","img/practice_cards/backs/black.gif","0","-100","0","",""
"casino-fixation","51","217416","0.0-17.0-0.8","1046","true","img/card_backs/set1/yellow.gif","img/card_backs/set1/red.gif","img/card_backs/set1/purple.gif","img/card_backs/set1/green.gif","img/card_backs/set2/pink.gif","img/card_backs/set2/blue.gif","img/card_backs/set2/orange.gif","img/card_backs/set2/gray.gif","""event"",""trial"",""time""
""fullscreenenter"",""1"",""3828""
","
","
","""event"",""trial"",""time""
""fullscreenenter"",""1"",""3828""
","
","","null","","null","","fixation","2021-07-22 22:08:21.975","","","","","",""
"card-selection-trial","52","220177","0.0-17.0-1.8","1046","true","img/card_backs/set1/yellow.gif","img/card_backs/set1/red.gif","img/card_backs/set1/purple.gif","img/card_backs/set1/green.gif","img/card_backs/set2/pink.gif","img/card_backs/set2/blue.gif","img/card_backs/set2/orange.gif","img/card_backs/set2/gray.gif","""event"",""trial"",""time""
""fullscreenenter"",""1"",""3828""
","
","
","""event"",""trial"",""time""
""fullscreenenter"",""1"",""3828""
","
","","751","","","","practice","2021-07-22 22:08:24.736","img/practice_cards/backs/brown.gif","0","-100","0","",""
"casino-fixation","53","220683","0.0-17.0-0.9","1046","true","img/card_backs/set1/yellow.gif","img/card_backs/set1/red.gif","img/card_backs/set1/purple.gif","img/card_backs/set1/green.gif","img/card_backs/set2/pink.gif","img/card_backs/set2/blue.gif","img/card_backs/set2/orange.gif","img/card_backs/set2/gray.gif","""event"",""trial"",""time""
""fullscreenenter"",""1"",""3828""
","
","
","""event"",""trial"",""time""
""fullscreenenter"",""1"",""3828""
","
","","null","","null","","fixation","2021-07-22 22:08:25.242","","","","","",""
"card-selection-trial","54","223403","0.0-17.0-1.9","1046","true","img/card_backs/set1/yellow.gif","img/card_backs/set1/red.gif","img/card_backs/set1/purple.gif","img/card_backs/set1/green.gif","img/card_backs/set2/pink.gif","img/card_backs/set2/blue.gif","img/card_backs/set2/orange.gif","img/card_backs/set2/gray.gif","""event"",""trial"",""time""
""fullscreenenter"",""1"",""3828""
","
","
","""event"",""trial"",""time""
""fullscreenenter"",""1"",""3828""
","
","","706.7999999970198","","","","practice","2021-07-22 22:08:27.962","img/practice_cards/backs/dark_green.gif","3","-200","0","",""
"casino-keyboard-response","55","226152","0.0-18.0","1046","true","img/card_backs/set1/yellow.gif","img/card_backs/set1/red.gif","img/card_backs/set1/purple.gif","img/card_backs/set1/green.gif","img/card_backs/set2/pink.gif","img/card_backs/set2/blue.gif","img/card_backs/set2/orange.gif","img/card_backs/set2/gray.gif","""event"",""trial"",""time""
""fullscreenenter"",""1"",""3828""
","
","
","""event"",""trial"",""time""
""fullscreenenter"",""1"",""3828""
","
","","2746.199999988079","You earned -400 tokens during the practice round!","82","","","2021-07-22 22:08:30.711","","","","","",""
"casino-keyboard-response","56","230407","0.0-19.0-0.0","1046","true","img/card_backs/set1/yellow.gif","img/card_backs/set1/red.gif","img/card_backs/set1/purple.gif","img/card_backs/set1/green.gif","img/card_backs/set2/pink.gif","img/card_backs/set2/blue.gif","img/card_backs/set2/orange.gif","img/card_backs/set2/gray.gif","""event"",""trial"",""time""
""fullscreenenter"",""1"",""3828""
","
","
","""event"",""trial"",""time""
""fullscreenenter"",""1"",""3828""
","
","","4250.5999999940395","Nice job! You are almost ready to play the real game.","86","","instructions","2021-07-22 22:08:34.966","","","","","",""
"casino-keyboard-response","57","236698","0.0-19.0-0.1","1046","true","img/card_backs/set1/yellow.gif","img/card_backs/set1/red.gif","img/card_backs/set1/purple.gif","img/card_backs/set1/green.gif","img/card_backs/set2/pink.gif","img/card_backs/set2/blue.gif","img/card_backs/set2/orange.gif","img/card_backs/set2/gray.gif","""event"",""trial"",""time""
""fullscreenenter"",""1"",""3828""
","
","
","""event"",""trial"",""time""
""fullscreenenter"",""1"",""3828""
","
","","6288.899999991059","You will play two rounds of the real game. In each round, you will pick 100 cards in total.","73","","instructions","2021-07-22 22:08:41.257","","","","","",""
"casino-keyboard-response","58","240623","0.0-19.0-0.2","1046","true","img/card_backs/set1/yellow.gif","img/card_backs/set1/red.gif","img/card_backs/set1/purple.gif","img/card_backs/set1/green.gif","img/card_backs/set2/pink.gif","img/card_backs/set2/blue.gif","img/card_backs/set2/orange.gif","img/card_backs/set2/gray.gif","""event"",""trial"",""time""
""fullscreenenter"",""1"",""3828""
","
","
","""event"",""trial"",""time""
""fullscreenenter"",""1"",""3828""
","
","","3922.2000000029802","We are now going to ask you some questions about how the game works.","66","","instructions","2021-07-22 22:08:45.182","","","","","",""
"casino-keyboard-response","59","246479","0.0-19.0-0.3","1046","true","img/card_backs/set1/yellow.gif","img/card_backs/set1/red.gif","img/card_backs/set1/purple.gif","img/card_backs/set1/green.gif","img/card_backs/set2/pink.gif","img/card_backs/set2/blue.gif","img/card_backs/set2/orange.gif","img/card_backs/set2/gray.gif","""event"",""trial"",""time""
""fullscreenenter"",""1"",""3828""
","
","
","""event"",""trial"",""time""
""fullscreenenter"",""1"",""3828""
","
","","5853.70000000298","Answer carefully. You will not be able to begin the game until you answer them correctly.","67","","instructions","2021-07-22 22:08:51.038","","","","","",""
"casino-comp_q","60","251492","0.0-20.0-0.0","1046","true","img/card_backs/set1/yellow.gif","img/card_backs/set1/red.gif","img/card_backs/set1/purple.gif","img/card_backs/set1/green.gif","img/card_backs/set2/pink.gif","img/card_backs/set2/blue.gif","img/card_backs/set2/orange.gif","img/card_backs/set2/gray.gif","""event"",""trial"",""time""
""fullscreenenter"",""1"",""3828""
","
","
","""event"",""trial"",""time""
""fullscreenenter"",""1"",""3828""
","
","","5010.29999999702","True or False: All the decks have some cards that cause you to win tokens and some cards that cause you to lose tokens.","84","","","2021-07-22 22:08:56.051","","","","","",""
"casino-keyboard-response","61","254117","0.0-20.0-1.0","1046","true","img/card_backs/set1/yellow.gif","img/card_backs/set1/red.gif","img/card_backs/set1/purple.gif","img/card_backs/set1/green.gif","img/card_backs/set2/pink.gif","img/card_backs/set2/blue.gif","img/card_backs/set2/orange.gif","img/card_backs/set2/gray.gif","""event"",""trial"",""time""
""fullscreenenter"",""1"",""3828""
","
","
","""event"",""trial"",""time""
""fullscreenenter"",""1"",""3828""
","
","","2622","True is correct! All the decks have a mix of winning and losing cards.","77","","","2021-07-22 22:08:58.676","","","","","true",""
"casino-comp_q","62","256607","0.0-21.0-0.0","1046","true","img/card_backs/set1/yellow.gif","img/card_backs/set1/red.gif","img/card_backs/set1/purple.gif","img/card_backs/set1/green.gif","img/card_backs/set2/pink.gif","img/card_backs/set2/blue.gif","img/card_backs/set2/orange.gif","img/card_backs/set2/gray.gif","""event"",""trial"",""time""
""fullscreenenter"",""1"",""3828""
","
","
","""event"",""trial"",""time""
""fullscreenenter"",""1"",""3828""
","
","","2487.3999999910593","True or False: You will have as much time as you want to make your response.","70","","","2021-07-22 22:09:01.166","","","","","",""
"casino-keyboard-response","63","259024","0.0-21.0-1.0","1046","true","img/card_backs/set1/yellow.gif","img/card_backs/set1/red.gif","img/card_backs/set1/purple.gif","img/card_backs/set1/green.gif","img/card_backs/set2/pink.gif","img/card_backs/set2/blue.gif","img/card_backs/set2/orange.gif","img/card_backs/set2/gray.gif","""event"",""trial"",""time""
""fullscreenenter"",""1"",""3828""
","
","
","""event"",""trial"",""time""
""fullscreenenter"",""1"",""3828""
","
","","2413.2000000029802","False is correct! You will only have 10 seconds to make each choice.","75","","","2021-07-22 22:09:03.584","","","","","true",""
"casino-comp_q","64","261674","0.0-22.0-0.0","1046","true","img/card_backs/set1/yellow.gif","img/card_backs/set1/red.gif","img/card_backs/set1/purple.gif","img/card_backs/set1/green.gif","img/card_backs/set2/pink.gif","img/card_backs/set2/blue.gif","img/card_backs/set2/orange.gif","img/card_backs/set2/gray.gif","""event"",""trial"",""time""
""fullscreenenter"",""1"",""3828""
","
","
","""event"",""trial"",""time""
""fullscreenenter"",""1"",""3828""
","
","","2647","True or False: The location of the deck determines how lucky it is.","70","","","2021-07-22 22:09:06.233","","","","","",""
"casino-keyboard-response","65","264106","0.0-22.0-1.0","1046","true","img/card_backs/set1/yellow.gif","img/card_backs/set1/red.gif","img/card_backs/set1/purple.gif","img/card_backs/set1/green.gif","img/card_backs/set2/pink.gif","img/card_backs/set2/blue.gif","img/card_backs/set2/orange.gif","img/card_backs/set2/gray.gif","""event"",""trial"",""time""
""fullscreenenter"",""1"",""3828""
","
","
","""event"",""trial"",""time""
""fullscreenenter"",""1"",""3828""
","
","","2429.5","False is correct! The <i>color</i>  of the deck determines how lucky or unlucky it is.","68","","","2021-07-22 22:09:08.665","","","","","true",""
"casino-keyboard-response","66","268258","0.0-23.0-0.0","1046","true","img/card_backs/set1/yellow.gif","img/card_backs/set1/red.gif","img/card_backs/set1/purple.gif","img/card_backs/set1/green.gif","img/card_backs/set2/pink.gif","img/card_backs/set2/blue.gif","img/card_backs/set2/orange.gif","img/card_backs/set2/gray.gif","""event"",""trial"",""time""
""fullscreenenter"",""1"",""3828""
","
","
","""event"",""trial"",""time""
""fullscreenenter"",""1"",""3828""
","
","","4150.20000000298","Great job! Now it's time to start the real game.","82","","instructions","2021-07-22 22:09:12.817","","","","","",""
"casino-keyboard-response","67","272997","0.0-23.0-0.1","1046","true","img/card_backs/set1/yellow.gif","img/card_backs/set1/red.gif","img/card_backs/set1/purple.gif","img/card_backs/set1/green.gif","img/card_backs/set2/pink.gif","img/card_backs/set2/blue.gif","img/card_backs/set2/orange.gif","img/card_backs/set2/gray.gif","""event"",""trial"",""time""
""fullscreenenter"",""1"",""3828""
","
","
","""event"",""trial"",""time""
""fullscreenenter"",""1"",""3828""
","
","","4736.4000000059605","Before we start, we're going to head into a new room of the casino.","86","","instructions","2021-07-22 22:09:17.556","","","","","",""
"casino-keyboard-response","68","278960","0.0-24.0-0.0","1046","true","img/card_backs/set1/yellow.gif","img/card_backs/set1/red.gif","img/card_backs/set1/purple.gif","img/card_backs/set1/green.gif","img/card_backs/set2/pink.gif","img/card_backs/set2/blue.gif","img/card_backs/set2/orange.gif","img/card_backs/set2/gray.gif","""event"",""trial"",""time""
""fullscreenenter"",""1"",""3828""
","
","
","""event"",""trial"",""time""
""fullscreenenter"",""1"",""3828""
","
","","5960.399999991059","Here we are! The real game will use different cards, but the rules will be the same.","71","","instructions","2021-07-22 22:09:23.519","","","","","",""
"casino-keyboard-response","69","283775","0.0-24.0-0.1","1046","true","img/card_backs/set1/yellow.gif","img/card_backs/set1/red.gif","img/card_backs/set1/purple.gif","img/card_backs/set1/green.gif","img/card_backs/set2/pink.gif","img/card_backs/set2/blue.gif","img/card_backs/set2/orange.gif","img/card_backs/set2/gray.gif","""event"",""trial"",""time""
""fullscreenenter"",""1"",""3828""
","
","
","""event"",""trial"",""time""
""fullscreenenter"",""1"",""3828""
","
","","4812.0999999940395","Ready? Put your fingers over the '2', '4', 6', and '8' keys so you are ready to play the game. </br> Then press 2 to start.","50","","instructions","2021-07-22 22:09:28.334","","","","","",""
"casino-fixation","70","284277","0.0-25.0-0.0","1046","true","img/card_backs/set1/yellow.gif","img/card_backs/set1/red.gif","img/card_backs/set1/purple.gif","img/card_backs/set1/green.gif","img/card_backs/set2/pink.gif","img/card_backs/set2/blue.gif","img/card_backs/set2/orange.gif","img/card_backs/set2/gray.gif","""event"",""trial"",""time""
""fullscreenenter"",""1"",""3828""
","
","
","""event"",""trial"",""time""
""fullscreenenter"",""1"",""3828""
","
","","null","","null","","fixation","2021-07-22 22:09:28.837","","","","","",""
"card-selection-trial","71","287013","0.0-25.0-1.0","1046","true","img/card_backs/set1/yellow.gif","img/card_backs/set1/red.gif","img/card_backs/set1/purple.gif","img/card_backs/set1/green.gif","img/card_backs/set2/pink.gif","img/card_backs/set2/blue.gif","img/card_backs/set2/orange.gif","img/card_backs/set2/gray.gif","""event"",""trial"",""time""
""fullscreenenter"",""1"",""3828""
","
","
","""event"",""trial"",""time""
""fullscreenenter"",""1"",""3828""
","
","","726.2000000029802","","","","real_trial","2021-07-22 22:09:31.572","img/card_backs/set1/purple.gif","0","-90","1","",""
"casino-fixation","72","287517","0.0-25.0-0.1","1046","true","img/card_backs/set1/yellow.gif","img/card_backs/set1/red.gif","img/card_backs/set1/purple.gif","img/card_backs/set1/green.gif","img/card_backs/set2/pink.gif","img/card_backs/set2/blue.gif","img/card_backs/set2/orange.gif","img/card_backs/set2/gray.gif","""event"",""trial"",""time""
""fullscreenenter"",""1"",""3828""
","
","
","""event"",""trial"",""time""
""fullscreenenter"",""1"",""3828""
","
","","null","","null","","fixation","2021-07-22 22:09:32.076","","","","","",""
"card-selection-trial","73","290149","0.0-25.0-1.1","1046","true","img/card_backs/set1/yellow.gif","img/card_backs/set1/red.gif","img/card_backs/set1/purple.gif","img/card_backs/set1/green.gif","img/card_backs/set2/pink.gif","img/card_backs/set2/blue.gif","img/card_backs/set2/orange.gif","img/card_backs/set2/gray.gif","""event"",""trial"",""time""
""fullscreenenter"",""1"",""3828""
","
","
","""event"",""trial"",""time""
""fullscreenenter"",""1"",""3828""
","
","","622","","","","real_trial","2021-07-22 22:09:34.708","img/card_backs/set1/yellow.gif","1","250","1","",""
"casino-fixation","74","290653","0.0-25.0-0.2","1046","true","img/card_backs/set1/yellow.gif","img/card_backs/set1/red.gif","img/card_backs/set1/purple.gif","img/card_backs/set1/green.gif","img/card_backs/set2/pink.gif","img/card_backs/set2/blue.gif","img/card_backs/set2/orange.gif","img/card_backs/set2/gray.gif","""event"",""trial"",""time""
""fullscreenenter"",""1"",""3828""
","
","
","""event"",""trial"",""time""
""fullscreenenter"",""1"",""3828""
","
","","null","","null","","fixation","2021-07-22 22:09:35.212","","","","","",""
"card-selection-trial","75","293510","0.0-25.0-1.2","1046","true","img/card_backs/set1/yellow.gif","img/card_backs/set1/red.gif","img/card_backs/set1/purple.gif","img/card_backs/set1/green.gif","img/card_backs/set2/pink.gif","img/card_backs/set2/blue.gif","img/card_backs/set2/orange.gif","img/card_backs/set2/gray.gif","""event"",""trial"",""time""
""fullscreenenter"",""1"",""3828""
","
","
","""event"",""trial"",""time""
""fullscreenenter"",""1"",""3828""
","
","","846.8999999910593","","","","real_trial","2021-07-22 22:09:38.069","img/card_backs/set1/green.gif","0","40","1","",""
"casino-fixation","76","294016","0.0-25.0-0.3","1046","true","img/card_backs/set1/yellow.gif","img/card_backs/set1/red.gif","img/card_backs/set1/purple.gif","img/card_backs/set1/green.gif","img/card_backs/set2/pink.gif","img/card_backs/set2/blue.gif","img/card_backs/set2/orange.gif","img/card_backs/set2/gray.gif","""event"",""trial"",""time""
""fullscreenenter"",""1"",""3828""
","
","
","""event"",""trial"",""time""
""fullscreenenter"",""1"",""3828""
","
","","null","","null","","fixation","2021-07-22 22:09:38.575","","","","","",""
"card-selection-trial","77","296919","0.0-25.0-1.3","1046","true","img/card_backs/set1/yellow.gif","img/card_backs/set1/red.gif","img/card_backs/set1/purple.gif","img/card_backs/set1/green.gif","img/card_backs/set2/pink.gif","img/card_backs/set2/blue.gif","img/card_backs/set2/orange.gif","img/card_backs/set2/gray.gif","""event"",""trial"",""time""
""fullscreenenter"",""1"",""3828""
","
","
","""event"",""trial"",""time""
""fullscreenenter"",""1"",""3828""
","
","","890.5","","","","real_trial","2021-07-22 22:09:41.478","img/card_backs/set1/red.gif","1","-200","1","",""
"casino-fixation","78","297426","0.0-25.0-0.4","1046","true","img/card_backs/set1/yellow.gif","img/card_backs/set1/red.gif","img/card_backs/set1/purple.gif","img/card_backs/set1/green.gif","img/card_backs/set2/pink.gif","img/card_backs/set2/blue.gif","img/card_backs/set2/orange.gif","img/card_backs/set2/gray.gif","""event"",""trial"",""time""
""fullscreenenter"",""1"",""3828""
","
","
","""event"",""trial"",""time""
""fullscreenenter"",""1"",""3828""
","
","","null","","null","","fixation","2021-07-22 22:09:41.985","","","","","",""
"card-selection-trial","79","299983","0.0-25.0-1.4","1046","true","img/card_backs/set1/yellow.gif","img/card_backs/set1/red.gif","img/card_backs/set1/purple.gif","img/card_backs/set1/green.gif","img/card_backs/set2/pink.gif","img/card_backs/set2/blue.gif","img/card_backs/set2/orange.gif","img/card_backs/set2/gray.gif","""event"",""trial"",""time""
""fullscreenenter"",""1"",""3828""
","
","
","""event"",""trial"",""time""
""fullscreenenter"",""1"",""3828""
","
","","543.7000000029802","","","","real_trial","2021-07-22 22:09:44.542","img/card_backs/set1/purple.gif","1","-110","1","",""
"casino-fixation","80","300490","0.0-25.0-0.5","1046","true","img/card_backs/set1/yellow.gif","img/card_backs/set1/red.gif","img/card_backs/set1/purple.gif","img/card_backs/set1/green.gif","img/card_backs/set2/pink.gif","img/card_backs/set2/blue.gif","img/card_backs/set2/orange.gif","img/card_backs/set2/gray.gif","""event"",""trial"",""time""
""fullscreenenter"",""1"",""3828""
","
","
","""event"",""trial"",""time""
""fullscreenenter"",""1"",""3828""
","
","","null","","null","","fixation","2021-07-22 22:09:45.049","","","","","",""
"card-selection-trial","81","303366","0.0-25.0-1.5","1046","true","img/card_backs/set1/yellow.gif","img/card_backs/set1/red.gif","img/card_backs/set1/purple.gif","img/card_backs/set1/green.gif","img/card_backs/set2/pink.gif","img/card_backs/set2/blue.gif","img/card_backs/set2/orange.gif","img/card_backs/set2/gray.gif","""event"",""trial"",""time""
""fullscreenenter"",""1"",""3828""
","
","
","""event"",""trial"",""time""
""fullscreenenter"",""1"",""3828""
","
","","866","","","","real_trial","2021-07-22 22:09:47.925","img/card_backs/set1/green.gif","2","50","1","",""
"casino-fixation","82","303870","0.0-25.0-0.6","1046","true","img/card_backs/set1/yellow.gif","img/card_backs/set1/red.gif","img/card_backs/set1/purple.gif","img/card_backs/set1/green.gif","img/card_backs/set2/pink.gif","img/card_backs/set2/blue.gif","img/card_backs/set2/orange.gif","img/card_backs/set2/gray.gif","""event"",""trial"",""time""
""fullscreenenter"",""1"",""3828""
","
","
","""event"",""trial"",""time""
""fullscreenenter"",""1"",""3828""
","
","","null","","null","","fixation","2021-07-22 22:09:48.429","","","","","",""
"card-selection-trial","83","306605","0.0-25.0-1.6","1046","true","img/card_backs/set1/yellow.gif","img/card_backs/set1/red.gif","img/card_backs/set1/purple.gif","img/card_backs/set1/green.gif","img/card_backs/set2/pink.gif","img/card_backs/set2/blue.gif","img/card_backs/set2/orange.gif","img/card_backs/set2/gray.gif","""event"",""trial"",""time""
""fullscreenenter"",""1"",""3828""
","
","
","""event"",""trial"",""time""
""fullscreenenter"",""1"",""3828""
","
","","726.1000000089407","","","","real_trial","2021-07-22 22:09:51.164","img/card_backs/set1/yellow.gif","1","240","1","",""
"casino-fixation","84","307110","0.0-25.0-0.7","1046","true","img/card_backs/set1/yellow.gif","img/card_backs/set1/red.gif","img/card_backs/set1/purple.gif","img/card_backs/set1/green.gif","img/card_backs/set2/pink.gif","img/card_backs/set2/blue.gif","img/card_backs/set2/orange.gif","img/card_backs/set2/gray.gif","""event"",""trial"",""time""
""fullscreenenter"",""1"",""3828""
","
","
","""event"",""trial"",""time""
""fullscreenenter"",""1"",""3828""
","
","","null","","null","","fixation","2021-07-22 22:09:51.669","","","","","",""
"card-selection-trial","85","309723","0.0-25.0-1.7","1046","true","img/card_backs/set1/yellow.gif","img/card_backs/set1/red.gif","img/card_backs/set1/purple.gif","img/card_backs/set1/green.gif","img/card_backs/set2/pink.gif","img/card_backs/set2/blue.gif","img/card_backs/set2/orange.gif","img/card_backs/set2/gray.gif","""event"",""trial"",""time""
""fullscreenenter"",""1"",""3828""
","
","
","""event"",""trial"",""time""
""fullscreenenter"",""1"",""3828""
","
","","602.2000000029802","","","","real_trial","2021-07-22 22:09:54.283","img/card_backs/set1/yellow.gif","2","-200","1","",""
"casino-fixation","86","310226","0.0-25.0-0.8","1046","true","img/card_backs/set1/yellow.gif","img/card_backs/set1/red.gif","img/card_backs/set1/purple.gif","img/card_backs/set1/green.gif","img/card_backs/set2/pink.gif","img/card_backs/set2/blue.gif","img/card_backs/set2/orange.gif","img/card_backs/set2/gray.gif","""event"",""trial"",""time""
""fullscreenenter"",""1"",""3828""
","
","
","""event"",""trial"",""time""
""fullscreenenter"",""1"",""3828""
","
","","null","","null","","fixation","2021-07-22 22:09:54.785","","","","","",""
"card-selection-trial","87","313099","0.0-25.0-1.8","1046","true","img/card_backs/set1/yellow.gif","img/card_backs/set1/red.gif","img/card_backs/set1/purple.gif","img/card_backs/set1/green.gif","img/card_backs/set2/pink.gif","img/card_backs/set2/blue.gif","img/card_backs/set2/orange.gif","img/card_backs/set2/gray.gif","""event"",""trial"",""time""
""fullscreenenter"",""1"",""3828""
","
","
","""event"",""trial"",""time""
""fullscreenenter"",""1"",""3828""
","
","","859.0999999940395","","","","real_trial","2021-07-22 22:09:57.658","img/card_backs/set1/yellow.gif","2","-190","1","",""
"casino-fixation","88","313606","0.0-25.0-0.9","1046","true","img/card_backs/set1/yellow.gif","img/card_backs/set1/red.gif","img/card_backs/set1/purple.gif","img/card_backs/set1/green.gif","img/card_backs/set2/pink.gif","img/card_backs/set2/blue.gif","img/card_backs/set2/orange.gif","img/card_backs/set2/gray.gif","""event"",""trial"",""time""
""fullscreenenter"",""1"",""3828""
","
","
","""event"",""trial"",""time""
""fullscreenenter"",""1"",""3828""
","
","","null","","null","","fixation","2021-07-22 22:09:58.165","","","","","",""
"card-selection-trial","89","316079","0.0-25.0-1.9","1046","true","img/card_backs/set1/yellow.gif","img/card_backs/set1/red.gif","img/card_backs/set1/purple.gif","img/card_backs/set1/green.gif","img/card_backs/set2/pink.gif","img/card_backs/set2/blue.gif","img/card_backs/set2/orange.gif","img/card_backs/set2/gray.gif","""event"",""trial"",""time""
""fullscreenenter"",""1"",""3828""
","
","
","""event"",""trial"",""time""
""fullscreenenter"",""1"",""3828""
","
","","463.8999999910593","","","","real_trial","2021-07-22 22:10:00.639","img/card_backs/set1/yellow.gif","2","250","1","",""
"casino-fixation","90","316586","0.0-25.0-0.10","1046","true","img/card_backs/set1/yellow.gif","img/card_backs/set1/red.gif","img/card_backs/set1/purple.gif","img/card_backs/set1/green.gif","img/card_backs/set2/pink.gif","img/card_backs/set2/blue.gif","img/card_backs/set2/orange.gif","img/card_backs/set2/gray.gif","""event"",""trial"",""time""
""fullscreenenter"",""1"",""3828""
","
","
","""event"",""trial"",""time""
""fullscreenenter"",""1"",""3828""
","
","","null","","null","","fixation","2021-07-22 22:10:01.145","","","","","",""
"card-selection-trial","91","319039","0.0-25.0-1.10","1046","true","img/card_backs/set1/yellow.gif","img/card_backs/set1/red.gif","img/card_backs/set1/purple.gif","img/card_backs/set1/green.gif","img/card_backs/set2/pink.gif","img/card_backs/set2/blue.gif","img/card_backs/set2/orange.gif","img/card_backs/set2/gray.gif","""event"",""trial"",""time""
""fullscreenenter"",""1"",""3828""
","
","
","""event"",""trial"",""time""
""fullscreenenter"",""1"",""3828""
","
","","441.3999999910593","","","","real_trial","2021-07-22 22:10:03.599","img/card_backs/set1/yellow.gif","2","-210","1","",""
"casino-fixation","92","319546","0.0-25.0-0.11","1046","true","img/card_backs/set1/yellow.gif","img/card_backs/set1/red.gif","img/card_backs/set1/purple.gif","img/card_backs/set1/green.gif","img/card_backs/set2/pink.gif","img/card_backs/set2/blue.gif","img/card_backs/set2/orange.gif","img/card_backs/set2/gray.gif","""event"",""trial"",""time""
""fullscreenenter"",""1"",""3828""
","
","
","""event"",""trial"",""time""
""fullscreenenter"",""1"",""3828""
","
","","null","","null","","fixation","2021-07-22 22:10:04.105","","","","","",""
"card-selection-trial","93","322314","0.0-25.0-1.11","1046","true","img/card_backs/set1/yellow.gif","img/card_backs/set1/red.gif","img/card_backs/set1/purple.gif","img/card_backs/set1/green.gif","img/card_backs/set2/pink.gif","img/card_backs/set2/blue.gif","img/card_backs/set2/orange.gif","img/card_backs/set2/gray.gif","""event"",""trial"",""time""
""fullscreenenter"",""1"",""3828""
","
","
","""event"",""trial"",""time""
""fullscreenenter"",""1"",""3828""
","
","","756.2000000029802","","","","real_trial","2021-07-22 22:10:06.873","img/card_backs/set1/red.gif","0","240","1","",""
"casino-fixation","94","322820","0.0-25.0-0.12","1046","true","img/card_backs/set1/yellow.gif","img/card_backs/set1/red.gif","img/card_backs/set1/purple.gif","img/card_backs/set1/green.gif","img/card_backs/set2/pink.gif","img/card_backs/set2/blue.gif","img/card_backs/set2/orange.gif","img/card_backs/set2/gray.gif","""event"",""trial"",""time""
""fullscreenenter"",""1"",""3828""
","
","
","""event"",""trial"",""time""
""fullscreenenter"",""1"",""3828""
","
","","null","","null","","fixation","2021-07-22 22:10:07.380","","","","","",""
"card-selection-trial","95","325578","0.0-25.0-1.12","1046","true","img/card_backs/set1/yellow.gif","img/card_backs/set1/red.gif","img/card_backs/set1/purple.gif","img/card_backs/set1/green.gif","img/card_backs/set2/pink.gif","img/card_backs/set2/blue.gif","img/card_backs/set2/orange.gif","img/card_backs/set2/gray.gif","""event"",""trial"",""time""
""fullscreenenter"",""1"",""3828""
","
","
","""event"",""trial"",""time""
""fullscreenenter"",""1"",""3828""
","
","","744.2999999970198","","","","real_trial","2021-07-22 22:10:10.137","img/card_backs/set1/red.gif","3","-210","1","",""
"casino-fixation","96","326084","0.0-25.0-0.13","1046","true","img/card_backs/set1/yellow.gif","img/card_backs/set1/red.gif","img/card_backs/set1/purple.gif","img/card_backs/set1/green.gif","img/card_backs/set2/pink.gif","img/card_backs/set2/blue.gif","img/card_backs/set2/orange.gif","img/card_backs/set2/gray.gif","""event"",""trial"",""time""
""fullscreenenter"",""1"",""3828""
","
","
","""event"",""trial"",""time""
""fullscreenenter"",""1"",""3828""
","
","","null","","null","","fixation","2021-07-22 22:10:10.644","","","","","",""
"card-selection-trial","97","328554","0.0-25.0-1.13","1046","true","img/card_backs/set1/yellow.gif","img/card_backs/set1/red.gif","img/card_backs/set1/purple.gif","img/card_backs/set1/green.gif","img/card_backs/set2/pink.gif","img/card_backs/set2/blue.gif","img/card_backs/set2/orange.gif","img/card_backs/set2/gray.gif","""event"",""trial"",""time""
""fullscreenenter"",""1"",""3828""
","
","
","""event"",""trial"",""time""
""fullscreenenter"",""1"",""3828""
","
","","460.70000000298023","","","","real_trial","2021-07-22 22:10:13.113","img/card_backs/set1/red.gif","0","260","1","",""
"casino-fixation","98","329060","0.0-25.0-0.14","1046","true","img/card_backs/set1/yellow.gif","img/card_backs/set1/red.gif","img/card_backs/set1/purple.gif","img/card_backs/set1/green.gif","img/card_backs/set2/pink.gif","img/card_backs/set2/blue.gif","img/card_backs/set2/orange.gif","img/card_backs/set2/gray.gif","""event"",""trial"",""time""
""fullscreenenter"",""1"",""3828""
","
","
","""event"",""trial"",""time""
""fullscreenenter"",""1"",""3828""
","
","","null","","null","","fixation","2021-07-22 22:10:13.620","","","","","",""
"card-selection-trial","99","331882","0.0-25.0-1.14","1046","true","img/card_backs/set1/yellow.gif","img/card_backs/set1/red.gif","img/card_backs/set1/purple.gif","img/card_backs/set1/green.gif","img/card_backs/set2/pink.gif","img/card_backs/set2/blue.gif","img/card_backs/set2/orange.gif","img/card_backs/set2/gray.gif","""event"",""trial"",""time""
""fullscreenenter"",""1"",""3828""
","
","
","""event"",""trial"",""time""
""fullscreenenter"",""1"",""3828""
","
","","810.2999999970198","","","","real_trial","2021-07-22 22:10:16.442","img/card_backs/set1/red.gif","2","-190","1","",""
"casino-fixation","100","332388","0.0-25.0-0.15","1046","true","img/card_backs/set1/yellow.gif","img/card_backs/set1/red.gif","img/card_backs/set1/purple.gif","img/card_backs/set1/green.gif","img/card_backs/set2/pink.gif","img/card_backs/set2/blue.gif","img/card_backs/set2/orange.gif","img/card_backs/set2/gray.gif","""event"",""trial"",""time""
""fullscreenenter"",""1"",""3828""
","
","
","""event"",""trial"",""time""
""fullscreenenter"",""1"",""3828""
","
","","null","","null","","fixation","2021-07-22 22:10:16.947","","","","","",""
"card-selection-trial","101","335326","0.0-25.0-1.15","1046","true","img/card_backs/set1/yellow.gif","img/card_backs/set1/red.gif","img/card_backs/set1/purple.gif","img/card_backs/set1/green.gif","img/card_backs/set2/pink.gif","img/card_backs/set2/blue.gif","img/card_backs/set2/orange.gif","img/card_backs/set2/gray.gif","""event"",""trial"",""time""
""fullscreenenter"",""1"",""3828""
","
","
","""event"",""trial"",""time""
""fullscreenenter"",""1"",""3828""
","
","","924.7000000029802","","","","real_trial","2021-07-22 22:10:19.886","img/card_backs/set1/red.gif","1","240","1","",""
"casino-fixation","102","335833","0.0-25.0-0.16","1046","true","img/card_backs/set1/yellow.gif","img/card_backs/set1/red.gif","img/card_backs/set1/purple.gif","img/card_backs/set1/green.gif","img/card_backs/set2/pink.gif","img/card_backs/set2/blue.gif","img/card_backs/set2/orange.gif","img/card_backs/set2/gray.gif","""event"",""trial"",""time""
""fullscreenenter"",""1"",""3828""
","
","
","""event"",""trial"",""time""
""fullscreenenter"",""1"",""3828""
","
","","null","","null","","fixation","2021-07-22 22:10:20.392","","","","","",""
"card-selection-trial","103","338460","0.0-25.0-1.16","1046","true","img/card_backs/set1/yellow.gif","img/card_backs/set1/red.gif","img/card_backs/set1/purple.gif","img/card_backs/set1/green.gif","img/card_backs/set2/pink.gif","img/card_backs/set2/blue.gif","img/card_backs/set2/orange.gif","img/card_backs/set2/gray.gif","""event"",""trial"",""time""
""fullscreenenter"",""1"",""3828""
","
","
","""event"",""trial"",""time""
""fullscreenenter"",""1"",""3828""
","
","","619.2000000029802","","","","real_trial","2021-07-22 22:10:23.019","img/card_backs/set1/red.gif","3","260","1","",""
"casino-fixation","104","338964","0.0-25.0-0.17","1046","true","img/card_backs/set1/yellow.gif","img/card_backs/set1/red.gif","img/card_backs/set1/purple.gif","img/card_backs/set1/green.gif","img/card_backs/set2/pink.gif","img/card_backs/set2/blue.gif","img/card_backs/set2/orange.gif","img/card_backs/set2/gray.gif","""event"",""trial"",""time""
""fullscreenenter"",""1"",""3828""
","
","
","""event"",""trial"",""time""
""fullscreenenter"",""1"",""3828""
","
","","null","","null","","fixation","2021-07-22 22:10:23.524","","","","","",""
"card-selection-trial","105","341610","0.0-25.0-1.17","1046","true","img/card_backs/set1/yellow.gif","img/card_backs/set1/red.gif","img/card_backs/set1/purple.gif","img/card_backs/set1/green.gif","img/card_backs/set2/pink.gif","img/card_backs/set2/blue.gif","img/card_backs/set2/orange.gif","img/card_backs/set2/gray.gif","""event"",""trial"",""time""
""fullscreenenter"",""1"",""3828""
","
","
","""event"",""trial"",""time""
""fullscreenenter"",""1"",""3828""
","
","","633","","","","real_trial","2021-07-22 22:10:26.169","img/card_backs/set1/red.gif","0","250","1","",""
"casino-fixation","106","342116","0.0-25.0-0.18","1046","true","img/card_backs/set1/yellow.gif","img/card_backs/set1/red.gif","img/card_backs/set1/purple.gif","img/card_backs/set1/green.gif","img/card_backs/set2/pink.gif","img/card_backs/set2/blue.gif","img/card_backs/set2/orange.gif","img/card_backs/set2/gray.gif","""event"",""trial"",""time""
""fullscreenenter"",""1"",""3828""
","
","
","""event"",""trial"",""time""
""fullscreenenter"",""1"",""3828""
","
","","null","","null","","fixation","2021-07-22 22:10:26.676","","","","","",""
"card-selection-trial","107","345078","0.0-25.0-1.18","1046","true","img/card_backs/set1/yellow.gif","img/card_backs/set1/red.gif","img/card_backs/set1/purple.gif","img/card_backs/set1/green.gif","img/card_backs/set2/pink.gif","img/card_backs/set2/blue.gif","img/card_backs/set2/orange.gif","img/card_backs/set2/gray.gif","""event"",""trial"",""time""
""fullscreenenter"",""1"",""3828""
","
","
","""event"",""trial"",""time""
""fullscreenenter"",""1"",""3828""
","
","","948.2999999970198","","","","real_trial","2021-07-22 22:10:29.637","img/card_backs/set1/red.gif","2","250","1","",""
"casino-fixation","108","345583","0.0-25.0-0.19","1046","true","img/card_backs/set1/yellow.gif","img/card_backs/set1/red.gif","img/card_backs/set1/purple.gif","img/card_backs/set1/green.gif","img/card_backs/set2/pink.gif","img/card_backs/set2/blue.gif","img/card_backs/set2/orange.gif","img/card_backs/set2/gray.gif","""event"",""trial"",""time""
""fullscreenenter"",""1"",""3828""
","
","
","""event"",""trial"",""time""
""fullscreenenter"",""1"",""3828""
","
","","null","","null","","fixation","2021-07-22 22:10:30.142","","","","","",""
"card-selection-trial","109","348253","0.0-25.0-1.19","1046","true","img/card_backs/set1/yellow.gif","img/card_backs/set1/red.gif","img/card_backs/set1/purple.gif","img/card_backs/set1/green.gif","img/card_backs/set2/pink.gif","img/card_backs/set2/blue.gif","img/card_backs/set2/orange.gif","img/card_backs/set2/gray.gif","""event"",""trial"",""time""
""fullscreenenter"",""1"",""3828""
","
","
","""event"",""trial"",""time""
""fullscreenenter"",""1"",""3828""
","
","","657.8000000119209","","","","real_trial","2021-07-22 22:10:32.812","img/card_backs/set1/red.gif","1","-210","1","",""
"casino-fixation","110","348759","0.0-25.0-0.20","1046","true","img/card_backs/set1/yellow.gif","img/card_backs/set1/red.gif","img/card_backs/set1/purple.gif","img/card_backs/set1/green.gif","img/card_backs/set2/pink.gif","img/card_backs/set2/blue.gif","img/card_backs/set2/orange.gif","img/card_backs/set2/gray.gif","""event"",""trial"",""time""
""fullscreenenter"",""1"",""3828""
","
","
","""event"",""trial"",""time""
""fullscreenenter"",""1"",""3828""
","
","","null","","null","","fixation","2021-07-22 22:10:33.319","","","","","",""
"card-selection-trial","111","351162","0.0-25.0-1.20","1046","true","img/card_backs/set1/yellow.gif","img/card_backs/set1/red.gif","img/card_backs/set1/purple.gif","img/card_backs/set1/green.gif","img/card_backs/set2/pink.gif","img/card_backs/set2/blue.gif","img/card_backs/set2/orange.gif","img/card_backs/set2/gray.gif","""event"",""trial"",""time""
""fullscreenenter"",""1"",""3828""
","
","
","""event"",""trial"",""time""
""fullscreenenter"",""1"",""3828""
","
","","389","","","","real_trial","2021-07-22 22:10:35.721","img/card_backs/set1/red.gif","1","260","1","",""
"casino-fixation","112","351668","0.0-25.0-0.21","1046","true","img/card_backs/set1/yellow.gif","img/card_backs/set1/red.gif","img/card_backs/set1/purple.gif","img/card_backs/set1/green.gif","img/card_backs/set2/pink.gif","img/card_backs/set2/blue.gif","img/card_backs/set2/orange.gif","img/card_backs/set2/gray.gif","""event"",""trial"",""time""
""fullscreenenter"",""1"",""3828""
","
","
","""event"",""trial"",""time""
""fullscreenenter"",""1"",""3828""
","
","","null","","null","","fixation","2021-07-22 22:10:36.227","","","","","",""
"card-selection-trial","113","354255","0.0-25.0-1.21","1046","true","img/card_backs/set1/yellow.gif","img/card_backs/set1/red.gif","img/card_backs/set1/purple.gif","img/card_backs/set1/green.gif","img/card_backs/set2/pink.gif","img/card_backs/set2/blue.gif","img/card_backs/set2/orange.gif","img/card_backs/set2/gray.gif","""event"",""trial"",""time""
""fullscreenenter"",""1"",""3828""
","
","
","""event"",""trial"",""time""
""fullscreenenter"",""1"",""3828""
","
","","573.7999999970198","","","","real_trial","2021-07-22 22:10:38.814","img/card_backs/set1/red.gif","2","250","1","",""
"casino-fixation","114","354759","0.0-25.0-0.22","1046","true","img/card_backs/set1/yellow.gif","img/card_backs/set1/red.gif","img/card_backs/set1/purple.gif","img/card_backs/set1/green.gif","img/card_backs/set2/pink.gif","img/card_backs/set2/blue.gif","img/card_backs/set2/orange.gif","img/card_backs/set2/gray.gif","""event"",""trial"",""time""
""fullscreenenter"",""1"",""3828""
","
","
","""event"",""trial"",""time""
""fullscreenenter"",""1"",""3828""
","
","","null","","null","","fixation","2021-07-22 22:10:39.318","","","","","",""
"card-selection-trial","115","357226","0.0-25.0-1.22","1046","true","img/card_backs/set1/yellow.gif","img/card_backs/set1/red.gif","img/card_backs/set1/purple.gif","img/card_backs/set1/green.gif","img/card_backs/set2/pink.gif","img/card_backs/set2/blue.gif","img/card_backs/set2/orange.gif","img/card_backs/set2/gray.gif","""event"",""trial"",""time""
""fullscreenenter"",""1"",""3828""
","
","
","""event"",""trial"",""time""
""fullscreenenter"",""1"",""3828""
","
","","453.79999999701977","","","","real_trial","2021-07-22 22:10:41.786","img/card_backs/set1/red.gif","1","-210","1","",""
"casino-fixation","116","357732","0.0-25.0-0.23","1046","true","img/card_backs/set1/yellow.gif","img/card_backs/set1/red.gif","img/card_backs/set1/purple.gif","img/card_backs/set1/green.gif","img/card_backs/set2/pink.gif","img/card_backs/set2/blue.gif","img/card_backs/set2/orange.gif","img/card_backs/set2/gray.gif","""event"",""trial"",""time""
""fullscreenenter"",""1"",""3828""
","
","
","""event"",""trial"",""time""
""fullscreenenter"",""1"",""3828""
","
","","null","","null","","fixation","2021-07-22 22:10:42.291","","","","","",""
"card-selection-trial","117","360276","0.0-25.0-1.23","1046","true","img/card_backs/set1/yellow.gif","img/card_backs/set1/red.gif","img/card_backs/set1/purple.gif","img/card_backs/set1/green.gif","img/card_backs/set2/pink.gif","img/card_backs/set2/blue.gif","img/card_backs/set2/orange.gif","img/card_backs/set2/gray.gif","""event"",""trial"",""time""
""fullscreenenter"",""1"",""3828""
","
","
","""event"",""trial"",""time""
""fullscreenenter"",""1"",""3828""
","
","","534.4000000059605","","","","real_trial","2021-07-22 22:10:44.836","img/card_backs/set1/red.gif","3","240","1","",""
"casino-fixation","118","360783","0.0-25.0-0.24","1046","true","img/card_backs/set1/yellow.gif","img/card_backs/set1/red.gif","img/card_backs/set1/purple.gif","img/card_backs/set1/green.gif","img/card_backs/set2/pink.gif","img/card_backs/set2/blue.gif","img/card_backs/set2/orange.gif","img/card_backs/set2/gray.gif","""event"",""trial"",""time""
""fullscreenenter"",""1"",""3828""
","
","
","""event"",""trial"",""time""
""fullscreenenter"",""1"",""3828""
","
","","null","","null","","fixation","2021-07-22 22:10:45.342","","","","","",""
"card-selection-trial","119","363408","0.0-25.0-1.24","1046","true","img/card_backs/set1/yellow.gif","img/card_backs/set1/red.gif","img/card_backs/set1/purple.gif","img/card_backs/set1/green.gif","img/card_backs/set2/pink.gif","img/card_backs/set2/blue.gif","img/card_backs/set2/orange.gif","img/card_backs/set2/gray.gif","""event"",""trial"",""time""
""fullscreenenter"",""1"",""3828""
","
","
","""event"",""trial"",""time""
""fullscreenenter"",""1"",""3828""
","
","","612.6000000089407","","","","real_trial","2021-07-22 22:10:47.967","img/card_backs/set1/red.gif","3","-210","1","",""
"casino-fixation","120","363914","0.0-25.0-0.25","1046","true","img/card_backs/set1/yellow.gif","img/card_backs/set1/red.gif","img/card_backs/set1/purple.gif","img/card_backs/set1/green.gif","img/card_backs/set2/pink.gif","img/card_backs/set2/blue.gif","img/card_backs/set2/orange.gif","img/card_backs/set2/gray.gif","""event"",""trial"",""time""
""fullscreenenter"",""1"",""3828""
","
","
","""event"",""trial"",""time""
""fullscreenenter"",""1"",""3828""
","
","","null","","null","","fixation","2021-07-22 22:10:48.473","","","","","",""
"card-selection-trial","121","366453","0.0-25.0-1.25","1046","true","img/card_backs/set1/yellow.gif","img/card_backs/set1/red.gif","img/card_backs/set1/purple.gif","img/card_backs/set1/green.gif","img/card_backs/set2/pink.gif","img/card_backs/set2/blue.gif","img/card_backs/set2/orange.gif","img/card_backs/set2/gray.gif","""event"",""trial"",""time""
""fullscreenenter"",""1"",""3828""
","
","
","""event"",""trial"",""time""
""fullscreenenter"",""1"",""3828""
","
","","528.6999999880791","","","","real_trial","2021-07-22 22:10:51.012","img/card_backs/set1/red.gif","1","250","1","",""
"casino-fixation","122","366959","0.0-25.0-0.26","1046","true","img/card_backs/set1/yellow.gif","img/card_backs/set1/red.gif","img/card_backs/set1/purple.gif","img/card_backs/set1/green.gif","img/card_backs/set2/pink.gif","img/card_backs/set2/blue.gif","img/card_backs/set2/orange.gif","img/card_backs/set2/gray.gif","""event"",""trial"",""time""
""fullscreenenter"",""1"",""3828""
","
","
","""event"",""trial"",""time""
""fullscreenenter"",""1"",""3828""
","
","","null","","null","","fixation","2021-07-22 22:10:51.518","","","","","",""
"card-selection-trial","123","369402","0.0-25.0-1.26","1046","true","img/card_backs/set1/yellow.gif","img/card_backs/set1/red.gif","img/card_backs/set1/purple.gif","img/card_backs/set1/green.gif","img/card_backs/set2/pink.gif","img/card_backs/set2/blue.gif","img/card_backs/set2/orange.gif","img/card_backs/set2/gray.gif","""event"",""trial"",""time""
""fullscreenenter"",""1"",""3828""
","
","
","""event"",""trial"",""time""
""fullscreenenter"",""1"",""3828""
","
","","435.20000000298023","","","","real_trial","2021-07-22 22:10:53.961","img/card_backs/set1/red.gif","1","-190","1","",""
"casino-fixation","124","369909","0.0-25.0-0.27","1046","true","img/card_backs/set1/yellow.gif","img/card_backs/set1/red.gif","img/card_backs/set1/purple.gif","img/card_backs/set1/green.gif","img/card_backs/set2/pink.gif","img/card_backs/set2/blue.gif","img/card_backs/set2/orange.gif","img/card_backs/set2/gray.gif","""event"",""trial"",""time""
""fullscreenenter"",""1"",""3828""
","
","
","""event"",""trial"",""time""
""fullscreenenter"",""1"",""3828""
","
","","null","","null","","fixation","2021-07-22 22:10:54.468","","","","","",""
"card-selection-trial","125","372339","0.0-25.0-1.27","1046","true","img/card_backs/set1/yellow.gif","img/card_backs/set1/red.gif","img/card_backs/set1/purple.gif","img/card_backs/set1/green.gif","img/card_backs/set2/pink.gif","img/card_backs/set2/blue.gif","img/card_backs/set2/orange.gif","img/card_backs/set2/gray.gif","""event"",""trial"",""time""
""fullscreenenter"",""1"",""3828""
","
","
","""event"",""trial"",""time""
""fullscreenenter"",""1"",""3828""
","
","","416","","","","real_trial","2021-07-22 22:10:56.898","img/card_backs/set1/red.gif","3","-200","1","",""
"casino-fixation","126","372843","0.0-25.0-0.28","1046","true","img/card_backs/set1/yellow.gif","img/card_backs/set1/red.gif","img/card_backs/set1/purple.gif","img/card_backs/set1/green.gif","img/card_backs/set2/pink.gif","img/card_backs/set2/blue.gif","img/card_backs/set2/orange.gif","img/card_backs/set2/gray.gif","""event"",""trial"",""time""
""fullscreenenter"",""1"",""3828""
","
","
","""event"",""trial"",""time""
""fullscreenenter"",""1"",""3828""
","
","","null","","null","","fixation","2021-07-22 22:10:57.402","","","","","",""
"card-selection-trial","127","375498","0.0-25.0-1.28","1046","true","img/card_backs/set1/yellow.gif","img/card_backs/set1/red.gif","img/card_backs/set1/purple.gif","img/card_backs/set1/green.gif","img/card_backs/set2/pink.gif","img/card_backs/set2/blue.gif","img/card_backs/set2/orange.gif","img/card_backs/set2/gray.gif","""event"",""trial"",""time""
""fullscreenenter"",""1"",""3828""
","
","
","""event"",""trial"",""time""
""fullscreenenter"",""1"",""3828""
","
","","644.2999999970198","","","","real_trial","2021-07-22 22:11:00.057","img/card_backs/set1/red.gif","0","250","1","",""
"casino-fixation","128","376004","0.0-25.0-0.29","1046","true","img/card_backs/set1/yellow.gif","img/card_backs/set1/red.gif","img/card_backs/set1/purple.gif","img/card_backs/set1/green.gif","img/card_backs/set2/pink.gif","img/card_backs/set2/blue.gif","img/card_backs/set2/orange.gif","img/card_backs/set2/gray.gif","""event"",""trial"",""time""
""fullscreenenter"",""1"",""3828""
","
","
","""event"",""trial"",""time""
""fullscreenenter"",""1"",""3828""
","
","","null","","null","","fixation","2021-07-22 22:11:00.564","","","","","",""
"card-selection-trial","129","379279","0.0-25.0-1.29","1046","true","img/card_backs/set1/yellow.gif","img/card_backs/set1/red.gif","img/card_backs/set1/purple.gif","img/card_backs/set1/green.gif","img/card_backs/set2/pink.gif","img/card_backs/set2/blue.gif","img/card_backs/set2/orange.gif","img/card_backs/set2/gray.gif","""event"",""trial"",""time""
""fullscreenenter"",""1"",""3828""
","
","
","""event"",""trial"",""time""
""fullscreenenter"",""1"",""3828""
","
","","1265.2000000029802","","","","real_trial","2021-07-22 22:11:03.839","img/card_backs/set1/green.gif","2","60","1","",""
"casino-fixation","130","379786","0.0-25.0-0.30","1046","true","img/card_backs/set1/yellow.gif","img/card_backs/set1/red.gif","img/card_backs/set1/purple.gif","img/card_backs/set1/green.gif","img/card_backs/set2/pink.gif","img/card_backs/set2/blue.gif","img/card_backs/set2/orange.gif","img/card_backs/set2/gray.gif","""event"",""trial"",""time""
""fullscreenenter"",""1"",""3828""
","
","
","""event"",""trial"",""time""
""fullscreenenter"",""1"",""3828""
","
","","null","","null","","fixation","2021-07-22 22:11:04.345","","","","","",""
"card-selection-trial","131","382295","0.0-25.0-1.30","1046","true","img/card_backs/set1/yellow.gif","img/card_backs/set1/red.gif","img/card_backs/set1/purple.gif","img/card_backs/set1/green.gif","img/card_backs/set2/pink.gif","img/card_backs/set2/blue.gif","img/card_backs/set2/orange.gif","img/card_backs/set2/gray.gif","""event"",""trial"",""time""
""fullscreenenter"",""1"",""3828""
","
","
","""event"",""trial"",""time""
""fullscreenenter"",""1"",""3828""
","
","","498.30000001192093","","","","real_trial","2021-07-22 22:11:06.854","img/card_backs/set1/green.gif","0","-110","1","",""
"casino-fixation","132","382799","0.0-25.0-0.31","1046","true","img/card_backs/set1/yellow.gif","img/card_backs/set1/red.gif","img/card_backs/set1/purple.gif","img/card_backs/set1/green.gif","img/card_backs/set2/pink.gif","img/card_backs/set2/blue.gif","img/card_backs/set2/orange.gif","img/card_backs/set2/gray.gif","""event"",""trial"",""time""
""fullscreenenter"",""1"",""3828""
","
","
","""event"",""trial"",""time""
""fullscreenenter"",""1"",""3828""
","
","","null","","null","","fixation","2021-07-22 22:11:07.358","","","","","",""
"card-selection-trial","133","385530","0.0-25.0-1.31","1046","true","img/card_backs/set1/yellow.gif","img/card_backs/set1/red.gif","img/card_backs/set1/purple.gif","img/card_backs/set1/green.gif","img/card_backs/set2/pink.gif","img/card_backs/set2/blue.gif","img/card_backs/set2/orange.gif","img/card_backs/set2/gray.gif","""event"",""trial"",""time""
""fullscreenenter"",""1"",""3828""
","
","
","""event"",""trial"",""time""
""fullscreenenter"",""1"",""3828""
","
","","718.1000000089407","","","","real_trial","2021-07-22 22:11:10.089","img/card_backs/set1/green.gif","2","-90","1","",""
"casino-fixation","134","386036","0.0-25.0-0.32","1046","true","img/card_backs/set1/yellow.gif","img/card_backs/set1/red.gif","img/card_backs/set1/purple.gif","img/card_backs/set1/green.gif","img/card_backs/set2/pink.gif","img/card_backs/set2/blue.gif","img/card_backs/set2/orange.gif","img/card_backs/set2/gray.gif","""event"",""trial"",""time""
""fullscreenenter"",""1"",""3828""
","
","
","""event"",""trial"",""time""
""fullscreenenter"",""1"",""3828""
","
","","null","","null","","fixation","2021-07-22 22:11:10.596","","","","","",""
"card-selection-trial","135","388639","0.0-25.0-1.32","1046","true","img/card_backs/set1/yellow.gif","img/card_backs/set1/red.gif","img/card_backs/set1/purple.gif","img/card_backs/set1/green.gif","img/card_backs/set2/pink.gif","img/card_backs/set2/blue.gif","img/card_backs/set2/orange.gif","img/card_backs/set2/gray.gif","""event"",""trial"",""time""
""fullscreenenter"",""1"",""3828""
","
","
","""event"",""trial"",""time""
""fullscreenenter"",""1"",""3828""
","
","","592.3999999910593","","","","real_trial","2021-07-22 22:11:13.199","img/card_backs/set1/green.gif","3","-110","1","",""
"casino-fixation","136","389146","0.0-25.0-0.33","1046","true","img/card_backs/set1/yellow.gif","img/card_backs/set1/red.gif","img/card_backs/set1/purple.gif","img/card_backs/set1/green.gif","img/card_backs/set2/pink.gif","img/card_backs/set2/blue.gif","img/card_backs/set2/orange.gif","img/card_backs/set2/gray.gif","""event"",""trial"",""time""
""fullscreenenter"",""1"",""3828""
","
","
","""event"",""trial"",""time""
""fullscreenenter"",""1"",""3828""
","
","","null","","null","","fixation","2021-07-22 22:11:13.705","","","","","",""
"card-selection-trial","137","391818","0.0-25.0-1.33","1046","true","img/card_backs/set1/yellow.gif","img/card_backs/set1/red.gif","img/card_backs/set1/purple.gif","img/card_backs/set1/green.gif","img/card_backs/set2/pink.gif","img/card_backs/set2/blue.gif","img/card_backs/set2/orange.gif","img/card_backs/set2/gray.gif","""event"",""trial"",""time""
""fullscreenenter"",""1"",""3828""
","
","
","""event"",""trial"",""time""
""fullscreenenter"",""1"",""3828""
","
","","657.4000000059605","","","","real_trial","2021-07-22 22:11:16.377","img/card_backs/set1/green.gif","1","-90","1","",""
"casino-fixation","138","392324","0.0-25.0-0.34","1046","true","img/card_backs/set1/yellow.gif","img/card_backs/set1/red.gif","img/card_backs/set1/purple.gif","img/card_backs/set1/green.gif","img/card_backs/set2/pink.gif","img/card_backs/set2/blue.gif","img/card_backs/set2/orange.gif","img/card_backs/set2/gray.gif","""event"",""trial"",""time""
""fullscreenenter"",""1"",""3828""
","
","
","""event"",""trial"",""time""
""fullscreenenter"",""1"",""3828""
","
","","null","","null","","fixation","2021-07-22 22:11:16.883","","","","","",""
"card-selection-trial","139","394799","0.0-25.0-1.34","1046","true","img/card_backs/set1/yellow.gif","img/card_backs/set1/red.gif","img/card_backs/set1/purple.gif","img/card_backs/set1/green.gif","img/card_backs/set2/pink.gif","img/card_backs/set2/blue.gif","img/card_backs/set2/orange.gif","img/card_backs/set2/gray.gif","""event"",""trial"",""time""
""fullscreenenter"",""1"",""3828""
","
","
","""event"",""trial"",""time""
""fullscreenenter"",""1"",""3828""
","
","","466.09999999403954","","","","real_trial","2021-07-22 22:11:19.359","img/card_backs/set1/green.gif","1","-90","1","",""
"casino-fixation","140","395302","0.0-25.0-0.35","1046","true","img/card_backs/set1/yellow.gif","img/card_backs/set1/red.gif","img/card_backs/set1/purple.gif","img/card_backs/set1/green.gif","img/card_backs/set2/pink.gif","img/card_backs/set2/blue.gif","img/card_backs/set2/orange.gif","img/card_backs/set2/gray.gif","""event"",""trial"",""time""
""fullscreenenter"",""1"",""3828""
","
","
","""event"",""trial"",""time""
""fullscreenenter"",""1"",""3828""
","
","","null","","null","","fixation","2021-07-22 22:11:19.861","","","","","",""
"card-selection-trial","141","397887","0.0-25.0-1.35","1046","true","img/card_backs/set1/yellow.gif","img/card_backs/set1/red.gif","img/card_backs/set1/purple.gif","img/card_backs/set1/green.gif","img/card_backs/set2/pink.gif","img/card_backs/set2/blue.gif","img/card_backs/set2/orange.gif","img/card_backs/set2/gray.gif","""event"",""trial"",""time""
""fullscreenenter"",""1"",""3828""
","
","
","""event"",""trial"",""time""
""fullscreenenter"",""1"",""3828""
","
","","575.7999999970198","","","","real_trial","2021-07-22 22:11:22.447","img/card_backs/set1/green.gif","3","40","1","",""
"casino-fixation","142","398394","0.0-25.0-0.36","1046","true","img/card_backs/set1/yellow.gif","img/card_backs/set1/red.gif","img/card_backs/set1/purple.gif","img/card_backs/set1/green.gif","img/card_backs/set2/pink.gif","img/card_backs/set2/blue.gif","img/card_backs/set2/orange.gif","img/card_backs/set2/gray.gif","""event"",""trial"",""time""
""fullscreenenter"",""1"",""3828""
","
","
","""event"",""trial"",""time""
""fullscreenenter"",""1"",""3828""
","
","","null","","null","","fixation","2021-07-22 22:11:22.953","","","","","",""
"card-selection-trial","143","400954","0.0-25.0-1.36","1046","true","img/card_backs/set1/yellow.gif","img/card_backs/set1/red.gif","img/card_backs/set1/purple.gif","img/card_backs/set1/green.gif","img/card_backs/set2/pink.gif","img/card_backs/set2/blue.gif","img/card_backs/set2/orange.gif","img/card_backs/set2/gray.gif","""event"",""trial"",""time""
""fullscreenenter"",""1"",""3828""
","
","
","""event"",""trial"",""time""
""fullscreenenter"",""1"",""3828""
","
","","550.2000000029802","","","","real_trial","2021-07-22 22:11:25.513","img/card_backs/set1/red.gif","3","-200","1","",""
"casino-fixation","144","401460","0.0-25.0-0.37","1046","true","img/card_backs/set1/yellow.gif","img/card_backs/set1/red.gif","img/card_backs/set1/purple.gif","img/card_backs/set1/green.gif","img/card_backs/set2/pink.gif","img/card_backs/set2/blue.gif","img/card_backs/set2/orange.gif","img/card_backs/set2/gray.gif","""event"",""trial"",""time""
""fullscreenenter"",""1"",""3828""
","
","
","""event"",""trial"",""time""
""fullscreenenter"",""1"",""3828""
","
","","null","","null","","fixation","2021-07-22 22:11:26.019","","","","","",""
"card-selection-trial","145","404602","0.0-25.0-1.37","1046","true","img/card_backs/set1/yellow.gif","img/card_backs/set1/red.gif","img/card_backs/set1/purple.gif","img/card_backs/set1/green.gif","img/card_backs/set2/pink.gif","img/card_backs/set2/blue.gif","img/card_backs/set2/orange.gif","img/card_backs/set2/gray.gif","""event"",""trial"",""time""
""fullscreenenter"",""1"",""3828""
","
","
","""event"",""trial"",""time""
""fullscreenenter"",""1"",""3828""
","
","","1132.5","","","","real_trial","2021-07-22 22:11:29.161","img/card_backs/set1/red.gif","2","250","1","",""
"casino-fixation","146","405108","0.0-25.0-0.38","1046","true","img/card_backs/set1/yellow.gif","img/card_backs/set1/red.gif","img/card_backs/set1/purple.gif","img/card_backs/set1/green.gif","img/card_backs/set2/pink.gif","img/card_backs/set2/blue.gif","img/card_backs/set2/orange.gif","img/card_backs/set2/gray.gif","""event"",""trial"",""time""
""fullscreenenter"",""1"",""3828""
","
","
","""event"",""trial"",""time""
""fullscreenenter"",""1"",""3828""
","
","","null","","null","","fixation","2021-07-22 22:11:29.668","","","","","",""
"card-selection-trial","147","407589","0.0-25.0-1.38","1046","true","img/card_backs/set1/yellow.gif","img/card_backs/set1/red.gif","img/card_backs/set1/purple.gif","img/card_backs/set1/green.gif","img/card_backs/set2/pink.gif","img/card_backs/set2/blue.gif","img/card_backs/set2/orange.gif","img/card_backs/set2/gray.gif","""event"",""trial"",""time""
""fullscreenenter"",""1"",""3828""
","
","
","""event"",""trial"",""time""
""fullscreenenter"",""1"",""3828""
","
","","466.5","","","","real_trial","2021-07-22 22:11:32.148","img/card_backs/set1/red.gif","1","260","1","",""
"casino-fixation","148","408095","0.0-25.0-0.39","1046","true","img/card_backs/set1/yellow.gif","img/card_backs/set1/red.gif","img/card_backs/set1/purple.gif","img/card_backs/set1/green.gif","img/card_backs/set2/pink.gif","img/card_backs/set2/blue.gif","img/card_backs/set2/orange.gif","img/card_backs/set2/gray.gif","""event"",""trial"",""time""
""fullscreenenter"",""1"",""3828""
","
","
","""event"",""trial"",""time""
""fullscreenenter"",""1"",""3828""
","
","","null","","null","","fixation","2021-07-22 22:11:32.654","","","","","",""
"card-selection-trial","149","410805","0.0-25.0-1.39","1046","true","img/card_backs/set1/yellow.gif","img/card_backs/set1/red.gif","img/card_backs/set1/purple.gif","img/card_backs/set1/green.gif","img/card_backs/set2/pink.gif","img/card_backs/set2/blue.gif","img/card_backs/set2/orange.gif","img/card_backs/set2/gray.gif","""event"",""trial"",""time""
""fullscreenenter"",""1"",""3828""
","
","
","""event"",""trial"",""time""
""fullscreenenter"",""1"",""3828""
","
","","698.1000000089407","","","","real_trial","2021-07-22 22:11:35.364","img/card_backs/set1/red.gif","2","-210","1","",""
"casino-fixation","150","411309","0.0-25.0-0.40","1046","true","img/card_backs/set1/yellow.gif","img/card_backs/set1/red.gif","img/card_backs/set1/purple.gif","img/card_backs/set1/green.gif","img/card_backs/set2/pink.gif","img/card_backs/set2/blue.gif","img/card_backs/set2/orange.gif","img/card_backs/set2/gray.gif","""event"",""trial"",""time""
""fullscreenenter"",""1"",""3828""
","
","
","""event"",""trial"",""time""
""fullscreenenter"",""1"",""3828""
","
","","null","","null","","fixation","2021-07-22 22:11:35.868","","","","","",""
"card-selection-trial","151","413909","0.0-25.0-1.40","1046","true","img/card_backs/set1/yellow.gif","img/card_backs/set1/red.gif","img/card_backs/set1/purple.gif","img/card_backs/set1/green.gif","img/card_backs/set2/pink.gif","img/card_backs/set2/blue.gif","img/card_backs/set2/orange.gif","img/card_backs/set2/gray.gif","""event"",""trial"",""time""
""fullscreenenter"",""1"",""3828""
","
","
","""event"",""trial"",""time""
""fullscreenenter"",""1"",""3828""
","
","","588","","","","real_trial","2021-07-22 22:11:38.468","img/card_backs/set1/red.gif","0","240","1","",""
"casino-fixation","152","414415","0.0-25.0-0.41","1046","true","img/card_backs/set1/yellow.gif","img/card_backs/set1/red.gif","img/card_backs/set1/purple.gif","img/card_backs/set1/green.gif","img/card_backs/set2/pink.gif","img/card_backs/set2/blue.gif","img/card_backs/set2/orange.gif","img/card_backs/set2/gray.gif","""event"",""trial"",""time""
""fullscreenenter"",""1"",""3828""
","
","
","""event"",""trial"",""time""
""fullscreenenter"",""1"",""3828""
","
","","null","","null","","fixation","2021-07-22 22:11:38.974","","","","","",""
"card-selection-trial","153","417096","0.0-25.0-1.41","1046","true","img/card_backs/set1/yellow.gif","img/card_backs/set1/red.gif","img/card_backs/set1/purple.gif","img/card_backs/set1/green.gif","img/card_backs/set2/pink.gif","img/card_backs/set2/blue.gif","img/card_backs/set2/orange.gif","img/card_backs/set2/gray.gif","""event"",""trial"",""time""
""fullscreenenter"",""1"",""3828""
","
","
","""event"",""trial"",""time""
""fullscreenenter"",""1"",""3828""
","
","","673.1999999880791","","","","real_trial","2021-07-22 22:11:41.657","img/card_backs/set1/red.gif","2","-210","1","",""
"casino-fixation","154","417599","0.0-25.0-0.42","1046","true","img/card_backs/set1/yellow.gif","img/card_backs/set1/red.gif","img/card_backs/set1/purple.gif","img/card_backs/set1/green.gif","img/card_backs/set2/pink.gif","img/card_backs/set2/blue.gif","img/card_backs/set2/orange.gif","img/card_backs/set2/gray.gif","""event"",""trial"",""time""
""fullscreenenter"",""1"",""3828""
","
","
","""event"",""trial"",""time""
""fullscreenenter"",""1"",""3828""
","
","","null","","null","","fixation","2021-07-22 22:11:42.159","","","","","",""
"card-selection-trial","155","420111","0.0-25.0-1.42","1046","true","img/card_backs/set1/yellow.gif","img/card_backs/set1/red.gif","img/card_backs/set1/purple.gif","img/card_backs/set1/green.gif","img/card_backs/set2/pink.gif","img/card_backs/set2/blue.gif","img/card_backs/set2/orange.gif","img/card_backs/set2/gray.gif","""event"",""trial"",""time""
""fullscreenenter"",""1"",""3828""
","
","
","""event"",""trial"",""time""
""fullscreenenter"",""1"",""3828""
","
","","497.79999999701977","","","","real_trial","2021-07-22 22:11:44.671","img/card_backs/set1/red.gif","1","240","1","",""
"casino-fixation","156","420618","0.0-25.0-0.43","1046","true","img/card_backs/set1/yellow.gif","img/card_backs/set1/red.gif","img/card_backs/set1/purple.gif","img/card_backs/set1/green.gif","img/card_backs/set2/pink.gif","img/card_backs/set2/blue.gif","img/card_backs/set2/orange.gif","img/card_backs/set2/gray.gif","""event"",""trial"",""time""
""fullscreenenter"",""1"",""3828""
","
","
","""event"",""trial"",""time""
""fullscreenenter"",""1"",""3828""
","
","","null","","null","","fixation","2021-07-22 22:11:45.177","","","","","",""
"card-selection-trial","157","423299","0.0-25.0-1.43","1046","true","img/card_backs/set1/yellow.gif","img/card_backs/set1/red.gif","img/card_backs/set1/purple.gif","img/card_backs/set1/green.gif","img/card_backs/set2/pink.gif","img/card_backs/set2/blue.gif","img/card_backs/set2/orange.gif","img/card_backs/set2/gray.gif","""event"",""trial"",""time""
""fullscreenenter"",""1"",""3828""
","
","
","""event"",""trial"",""time""
""fullscreenenter"",""1"",""3828""
","
","","670","","","","real_trial","2021-07-22 22:11:47.858","img/card_backs/set1/red.gif","1","-210","1","",""
"casino-fixation","158","423802","0.0-25.0-0.44","1046","true","img/card_backs/set1/yellow.gif","img/card_backs/set1/red.gif","img/card_backs/set1/purple.gif","img/card_backs/set1/green.gif","img/card_backs/set2/pink.gif","img/card_backs/set2/blue.gif","img/card_backs/set2/orange.gif","img/card_backs/set2/gray.gif","""event"",""trial"",""time""
""fullscreenenter"",""1"",""3828""
","
","
","""event"",""trial"",""time""
""fullscreenenter"",""1"",""3828""
","
","","null","","null","","fixation","2021-07-22 22:11:48.361","","","","","",""
"card-selection-trial","159","426271","0.0-25.0-1.44","1046","true","img/card_backs/set1/yellow.gif","img/card_backs/set1/red.gif","img/card_backs/set1/purple.gif","img/card_backs/set1/green.gif","img/card_backs/set2/pink.gif","img/card_backs/set2/blue.gif","img/card_backs/set2/orange.gif","img/card_backs/set2/gray.gif","""event"",""trial"",""time""
""fullscreenenter"",""1"",""3828""
","
","
","""event"",""trial"",""time""
""fullscreenenter"",""1"",""3828""
","
","","458.40000000596046","","","","real_trial","2021-07-22 22:11:50.831","img/card_backs/set1/red.gif","1","250","1","",""
"casino-fixation","160","426778","0.0-25.0-0.45","1046","true","img/card_backs/set1/yellow.gif","img/card_backs/set1/red.gif","img/card_backs/set1/purple.gif","img/card_backs/set1/green.gif","img/card_backs/set2/pink.gif","img/card_backs/set2/blue.gif","img/card_backs/set2/orange.gif","img/card_backs/set2/gray.gif","""event"",""trial"",""time""
""fullscreenenter"",""1"",""3828""
","
","
","""event"",""trial"",""time""
""fullscreenenter"",""1"",""3828""
","
","","null","","null","","fixation","2021-07-22 22:11:51.337","","","","","",""
"card-selection-trial","161","429269","0.0-25.0-1.45","1046","true","img/card_backs/set1/yellow.gif","img/card_backs/set1/red.gif","img/card_backs/set1/purple.gif","img/card_backs/set1/green.gif","img/card_backs/set2/pink.gif","img/card_backs/set2/blue.gif","img/card_backs/set2/orange.gif","img/card_backs/set2/gray.gif","""event"",""trial"",""time""
""fullscreenenter"",""1"",""3828""
","
","
","""event"",""trial"",""time""
""fullscreenenter"",""1"",""3828""
","
","","479.30000001192093","","","","real_trial","2021-07-22 22:11:53.828","img/card_backs/set1/red.gif","3","-210","1","",""
"casino-fixation","162","429776","0.0-25.0-0.46","1046","true","img/card_backs/set1/yellow.gif","img/card_backs/set1/red.gif","img/card_backs/set1/purple.gif","img/card_backs/set1/green.gif","img/card_backs/set2/pink.gif","img/card_backs/set2/blue.gif","img/card_backs/set2/orange.gif","img/card_backs/set2/gray.gif","""event"",""trial"",""time""
""fullscreenenter"",""1"",""3828""
","
","
","""event"",""trial"",""time""
""fullscreenenter"",""1"",""3828""
","
","","null","","null","","fixation","2021-07-22 22:11:54.335","","","","","",""
"card-selection-trial","163","432319","0.0-25.0-1.46","1046","true","img/card_backs/set1/yellow.gif","img/card_backs/set1/red.gif","img/card_backs/set1/purple.gif","img/card_backs/set1/green.gif","img/card_backs/set2/pink.gif","img/card_backs/set2/blue.gif","img/card_backs/set2/orange.gif","img/card_backs/set2/gray.gif","""event"",""trial"",""time""
""fullscreenenter"",""1"",""3828""
","
","
","""event"",""trial"",""time""
""fullscreenenter"",""1"",""3828""
","
","","533.5","","","","real_trial","2021-07-22 22:11:56.879","img/card_backs/set1/red.gif","0","-200","1","",""
"casino-fixation","164","432826","0.0-25.0-0.47","1046","true","img/card_backs/set1/yellow.gif","img/card_backs/set1/red.gif","img/card_backs/set1/purple.gif","img/card_backs/set1/green.gif","img/card_backs/set2/pink.gif","img/card_backs/set2/blue.gif","img/card_backs/set2/orange.gif","img/card_backs/set2/gray.gif","""event"",""trial"",""time""
""fullscreenenter"",""1"",""3828""
","
","
","""event"",""trial"",""time""
""fullscreenenter"",""1"",""3828""
","
","","null","","null","","fixation","2021-07-22 22:11:57.385","","","","","",""
"card-selection-trial","165","435514","0.0-25.0-1.47","1046","true","img/card_backs/set1/yellow.gif","img/card_backs/set1/red.gif","img/card_backs/set1/purple.gif","img/card_backs/set1/green.gif","img/card_backs/set2/pink.gif","img/card_backs/set2/blue.gif","img/card_backs/set2/orange.gif","img/card_backs/set2/gray.gif","""event"",""trial"",""time""
""fullscreenenter"",""1"",""3828""
","
","
","""event"",""trial"",""time""
""fullscreenenter"",""1"",""3828""
","
","","677.7999999970198","","","","real_trial","2021-07-22 22:12:00.073","img/card_backs/set1/yellow.gif","3","250","1","",""
"casino-fixation","166","436020","0.0-25.0-0.48","1046","true","img/card_backs/set1/yellow.gif","img/card_backs/set1/red.gif","img/card_backs/set1/purple.gif","img/card_backs/set1/green.gif","img/card_backs/set2/pink.gif","img/card_backs/set2/blue.gif","img/card_backs/set2/orange.gif","img/card_backs/set2/gray.gif","""event"",""trial"",""time""
""fullscreenenter"",""1"",""3828""
","
","
","""event"",""trial"",""time""
""fullscreenenter"",""1"",""3828""
","
","","null","","null","","fixation","2021-07-22 22:12:00.580","","","","","",""
"card-selection-trial","167","438543","0.0-25.0-1.48","1046","true","img/card_backs/set1/yellow.gif","img/card_backs/set1/red.gif","img/card_backs/set1/purple.gif","img/card_backs/set1/green.gif","img/card_backs/set2/pink.gif","img/card_backs/set2/blue.gif","img/card_backs/set2/orange.gif","img/card_backs/set2/gray.gif","""event"",""trial"",""time""
""fullscreenenter"",""1"",""3828""
","
","
","""event"",""trial"",""time""
""fullscreenenter"",""1"",""3828""
","
","","512.5","","","","real_trial","2021-07-22 22:12:03.102","img/card_backs/set1/yellow.gif","1","-200","1","",""
