"trial_type","trial_index","time_elapsed","internal_node_id","sub_id","risk_good_first","block1_A","block1_B","block1_C","block1_D","block2_A","block2_B","block2_C","block2_D","interactions","blur_events","focus_events","fullscreenenter_events","fullscreenexit_events","success","rt","stimulus","key_press","button_pressed","task_part","timestamp","card_choice","choice_position","points_earned","block","correct","response"
"pavlovia","0","4","0.0-0.0","A106","true","img/card_backs/set1/yellow.gif","img/card_backs/set1/purple.gif","img/card_backs/set1/green.gif","img/card_backs/set1/red.gif","img/card_backs/set2/orange.gif","img/card_backs/set2/blue.gif","img/card_backs/set2/gray.gif","img/card_backs/set2/pink.gif","""event"",""trial"",""time""
""fullscreenenter"",""1"",""1405""
","
","
","""event"",""trial"",""time""
""fullscreenenter"",""1"",""1405""
","
","","","","","","","","","","","","",""
"fullscreen","1","2276","0.0-1.0","A106","true","img/card_backs/set1/yellow.gif","img/card_backs/set1/purple.gif","img/card_backs/set1/green.gif","img/card_backs/set1/red.gif","img/card_backs/set2/orange.gif","img/card_backs/set2/blue.gif","img/card_backs/set2/gray.gif","img/card_backs/set2/pink.gif","""event"",""trial"",""time""
""fullscreenenter"",""1"",""1405""
","
","
","""event"",""trial"",""time""
""fullscreenenter"",""1"",""1405""
","
","true","","","","","","","","","","","",""
"audio-keyboard-response","2","4959","0.0-2.0","A106","true","img/card_backs/set1/yellow.gif","img/card_backs/set1/purple.gif","img/card_backs/set1/green.gif","img/card_backs/set1/red.gif","img/card_backs/set2/orange.gif","img/card_backs/set2/blue.gif","img/card_backs/set2/gray.gif","img/card_backs/set2/pink.gif","""event"",""trial"",""time""
""fullscreenenter"",""1"",""1405""
","
","
","""event"",""trial"",""time""
""fullscreenenter"",""1"",""1405""
","
","","2400","audio/beep_loop.wav","32","","","","","","","","",""
"audio-button-response","3","6108","0.0-3.0","A106","true","img/card_backs/set1/yellow.gif","img/card_backs/set1/purple.gif","img/card_backs/set1/green.gif","img/card_backs/set1/red.gif","img/card_backs/set2/orange.gif","img/card_backs/set2/blue.gif","img/card_backs/set2/gray.gif","img/card_backs/set2/pink.gif","""event"",""trial"",""time""
""fullscreenenter"",""1"",""1405""
","
","
","""event"",""trial"",""time""
""fullscreenenter"",""1"",""1405""
","
","","NaN","audio/turtle.mp3","","3","","","","","","","",""
"audio-button-response","4","8145","0.0-4.0","A106","true","img/card_backs/set1/yellow.gif","img/card_backs/set1/purple.gif","img/card_backs/set1/green.gif","img/card_backs/set1/red.gif","img/card_backs/set2/orange.gif","img/card_backs/set2/blue.gif","img/card_backs/set2/gray.gif","img/card_backs/set2/pink.gif","""event"",""trial"",""time""
""fullscreenenter"",""1"",""1405""
","
","
","""event"",""trial"",""time""
""fullscreenenter"",""1"",""1405""
","
","","NaN","audio/shark.mp3","","2","","","","","","","",""
"fullscreen","5","12624","0.0-5.0","A106","true","img/card_backs/set1/yellow.gif","img/card_backs/set1/purple.gif","img/card_backs/set1/green.gif","img/card_backs/set1/red.gif","img/card_backs/set2/orange.gif","img/card_backs/set2/blue.gif","img/card_backs/set2/gray.gif","img/card_backs/set2/pink.gif","""event"",""trial"",""time""
""fullscreenenter"",""1"",""1405""
","
","
","""event"",""trial"",""time""
""fullscreenenter"",""1"",""1405""
","
","true","","","","","","","","","","","",""
"casino-keyboard-response","6","15494","0.0-6.0-0.0","A106","true","img/card_backs/set1/yellow.gif","img/card_backs/set1/purple.gif","img/card_backs/set1/green.gif","img/card_backs/set1/red.gif","img/card_backs/set2/orange.gif","img/card_backs/set2/blue.gif","img/card_backs/set2/gray.gif","img/card_backs/set2/pink.gif","""event"",""trial"",""time""
""fullscreenenter"",""1"",""1405""
","
","
","""event"",""trial"",""time""
""fullscreenenter"",""1"",""1405""
","
","","2864.9099999747705","Welcome to the casino!","71","","instructions","2021-04-03 20:21:13.262","","","","","",""
"casino-keyboard-response","7","24671","0.0-6.0-0.1","A106","true","img/card_backs/set1/yellow.gif","img/card_backs/set1/purple.gif","img/card_backs/set1/green.gif","img/card_backs/set1/red.gif","img/card_backs/set2/orange.gif","img/card_backs/set2/blue.gif","img/card_backs/set2/gray.gif","img/card_backs/set2/pink.gif","""event"",""trial"",""time""
""fullscreenenter"",""1"",""1405""
","
","
","""event"",""trial"",""time""
""fullscreenenter"",""1"",""1405""
","
","","9174.650000000838","Today you will be playing a game to earn tokens. </br> At the end of the experiment, you will be paid a bonus based on how many tokens you win. ","69","","instructions","2021-04-03 20:21:22.439","","","","","",""
"casino-keyboard-response","8","32456","0.0-6.0-0.2","A106","true","img/card_backs/set1/yellow.gif","img/card_backs/set1/purple.gif","img/card_backs/set1/green.gif","img/card_backs/set1/red.gif","img/card_backs/set2/orange.gif","img/card_backs/set2/blue.gif","img/card_backs/set2/gray.gif","img/card_backs/set2/pink.gif","""event"",""trial"",""time""
""fullscreenenter"",""1"",""1405""
","
","
","""event"",""trial"",""time""
""fullscreenenter"",""1"",""1405""
","
","","7782.449999998789","On every turn, you will be shown four different decks of cards. </br> You need to select a card from one of the four decks.  ","75","","instructions","2021-04-03 20:21:30.224","","","","","",""
"casino-keyboard-response","9","37119","0.0-6.0-0.3","A106","true","img/card_backs/set1/yellow.gif","img/card_backs/set1/purple.gif","img/card_backs/set1/green.gif","img/card_backs/set1/red.gif","img/card_backs/set2/orange.gif","img/card_backs/set2/blue.gif","img/card_backs/set2/gray.gif","img/card_backs/set2/pink.gif","""event"",""trial"",""time""
""fullscreenenter"",""1"",""1405""
","
","
","""event"",""trial"",""time""
""fullscreenenter"",""1"",""1405""
","
","","4659.9000000278465","On the next screen, you will see what the decks will look like. ","66","","instructions","2021-04-03 20:21:34.887","","","","","",""
"card-selection-trial","10","41126","0.0-7.0-0.0","A106","true","img/card_backs/set1/yellow.gif","img/card_backs/set1/purple.gif","img/card_backs/set1/green.gif","img/card_backs/set1/red.gif","img/card_backs/set2/orange.gif","img/card_backs/set2/blue.gif","img/card_backs/set2/gray.gif","img/card_backs/set2/pink.gif","""event"",""trial"",""time""
""fullscreenenter"",""1"",""1405""
","
","
","""event"",""trial"",""time""
""fullscreenenter"",""1"",""1405""
","
","","null","","","","practice","2021-04-03 20:21:38.894","null","null","null","0","",""
"casino-keyboard-response","11","48335","0.0-8.0-0.0","A106","true","img/card_backs/set1/yellow.gif","img/card_backs/set1/purple.gif","img/card_backs/set1/green.gif","img/card_backs/set1/red.gif","img/card_backs/set2/orange.gif","img/card_backs/set2/blue.gif","img/card_backs/set2/gray.gif","img/card_backs/set2/pink.gif","""event"",""trial"",""time""
""fullscreenenter"",""1"",""1405""
","
","
","""event"",""trial"",""time""
""fullscreenenter"",""1"",""1405""
","
","","7206.630000000587","You should pick a card from a deck using the '2', '4', '6', and '8' keys at the top of the keyboard.","85","","instructions","2021-04-03 20:21:46.103","","","","","",""
"casino-keyboard-response","12","53967","0.0-8.0-0.1","A106","true","img/card_backs/set1/yellow.gif","img/card_backs/set1/purple.gif","img/card_backs/set1/green.gif","img/card_backs/set1/red.gif","img/card_backs/set2/orange.gif","img/card_backs/set2/blue.gif","img/card_backs/set2/gray.gif","img/card_backs/set2/pink.gif","""event"",""trial"",""time""
""fullscreenenter"",""1"",""1405""
","
","
","""event"",""trial"",""time""
""fullscreenenter"",""1"",""1405""
","
","","5629.334999975981","Once you select a card, it will turn over and you will see how many tokens you earned.","83","","instructions","2021-04-03 20:21:51.735","","","","","",""
"casino-keyboard-response","13","68675","0.0-8.0-0.2","A106","true","img/card_backs/set1/yellow.gif","img/card_backs/set1/purple.gif","img/card_backs/set1/green.gif","img/card_backs/set1/red.gif","img/card_backs/set2/orange.gif","img/card_backs/set2/blue.gif","img/card_backs/set2/gray.gif","img/card_backs/set2/pink.gif","""event"",""trial"",""time""
""fullscreenenter"",""1"",""1405""
","
","
","""event"",""trial"",""time""
""fullscreenenter"",""1"",""1405""
","
","","14705.509999999776","Let's try practicing that! </br> First, try to put your fingers over the '2', '4', '6', and '8' keys. </br>  You can use whatever fingers are most comfortable for you. Try to find a comfortable position now. ","50","","instructions","2021-04-03 20:22:06.443","","","","","",""
"casino-keyboard-response","14","74426","0.0-8.0-0.3","A106","true","img/card_backs/set1/yellow.gif","img/card_backs/set1/purple.gif","img/card_backs/set1/green.gif","img/card_backs/set1/red.gif","img/card_backs/set2/orange.gif","img/card_backs/set2/blue.gif","img/card_backs/set2/gray.gif","img/card_backs/set2/pink.gif","""event"",""trial"",""time""
""fullscreenenter"",""1"",""1405""
","
","
","""event"",""trial"",""time""
""fullscreenenter"",""1"",""1405""
","
","","5749.20000002021","Okay ready? </br> On the next screen, press '2' to select the left deck. ","50","","instructions","2021-04-03 20:22:12.194","","","","","",""
"card-selection-trial","15","77412","0.0-9.0-0.0","A106","true","img/card_backs/set1/yellow.gif","img/card_backs/set1/purple.gif","img/card_backs/set1/green.gif","img/card_backs/set1/red.gif","img/card_backs/set2/orange.gif","img/card_backs/set2/blue.gif","img/card_backs/set2/gray.gif","img/card_backs/set2/pink.gif","""event"",""trial"",""time""
""fullscreenenter"",""1"",""1405""
","
","
","""event"",""trial"",""time""
""fullscreenenter"",""1"",""1405""
","
","","964.5350000064354","","","","practice_card_selection","2021-04-03 20:22:15.181","img/practice_cards/backs/dark_blue.gif","0","200","","",""
"casino-keyboard-response","16","82955","0.0-10.0-0.0","A106","true","img/card_backs/set1/yellow.gif","img/card_backs/set1/purple.gif","img/card_backs/set1/green.gif","img/card_backs/set1/red.gif","img/card_backs/set2/orange.gif","img/card_backs/set2/blue.gif","img/card_backs/set2/gray.gif","img/card_backs/set2/pink.gif","""event"",""trial"",""time""
""fullscreenenter"",""1"",""1405""
","
","
","""event"",""trial"",""time""
""fullscreenenter"",""1"",""1405""
","
","","5539.584999991348","Great! Now on the next screen, try pressing '6' to select the third deck.","54","","instructions","2021-04-03 20:22:20.723","","","","","",""
"card-selection-trial","17","85417","0.0-11.0-0.0","A106","true","img/card_backs/set1/yellow.gif","img/card_backs/set1/purple.gif","img/card_backs/set1/green.gif","img/card_backs/set1/red.gif","img/card_backs/set2/orange.gif","img/card_backs/set2/blue.gif","img/card_backs/set2/gray.gif","img/card_backs/set2/pink.gif","""event"",""trial"",""time""
""fullscreenenter"",""1"",""1405""
","
","
","""event"",""trial"",""time""
""fullscreenenter"",""1"",""1405""
","
","","453.7150000105612","","","","practice_card_selection","2021-04-03 20:22:23.185","img/practice_cards/backs/dark_green.gif","2","-200","","",""
"casino-keyboard-response","18","90030","0.0-12.0-0.0","A106","true","img/card_backs/set1/yellow.gif","img/card_backs/set1/purple.gif","img/card_backs/set1/green.gif","img/card_backs/set1/red.gif","img/card_backs/set2/orange.gif","img/card_backs/set2/blue.gif","img/card_backs/set2/gray.gif","img/card_backs/set2/pink.gif","""event"",""trial"",""time""
""fullscreenenter"",""1"",""1405""
","
","
","""event"",""trial"",""time""
""fullscreenenter"",""1"",""1405""
","
","","4610.399999975925","Now on the next screen, try pressing '4' to select the second deck.","52","","instructions","2021-04-03 20:22:27.798","","","","","",""
"card-selection-trial","19","92585","0.0-13.0-0.0","A106","true","img/card_backs/set1/yellow.gif","img/card_backs/set1/purple.gif","img/card_backs/set1/green.gif","img/card_backs/set1/red.gif","img/card_backs/set2/orange.gif","img/card_backs/set2/blue.gif","img/card_backs/set2/gray.gif","img/card_backs/set2/pink.gif","""event"",""trial"",""time""
""fullscreenenter"",""1"",""1405""
","
","
","""event"",""trial"",""time""
""fullscreenenter"",""1"",""1405""
","
","","545.4800000006799","","","","practice_card_selection","2021-04-03 20:22:30.353","img/practice_cards/backs/dark_blue.gif","1","200","","",""
"casino-keyboard-response","20","97609","0.0-14.0-0.0","A106","true","img/card_backs/set1/yellow.gif","img/card_backs/set1/purple.gif","img/card_backs/set1/green.gif","img/card_backs/set1/red.gif","img/card_backs/set2/orange.gif","img/card_backs/set2/blue.gif","img/card_backs/set2/gray.gif","img/card_backs/set2/pink.gif","""event"",""trial"",""time""
""fullscreenenter"",""1"",""1405""
","
","
","""event"",""trial"",""time""
""fullscreenenter"",""1"",""1405""
","
","","5022.484999994049","Finally, try pressing '8' to select the deck all the way on the right.","56","","instructions","2021-04-03 20:22:35.377","","","","","",""
"card-selection-trial","21","105203","0.0-15.0-0.0","A106","true","img/card_backs/set1/yellow.gif","img/card_backs/set1/purple.gif","img/card_backs/set1/green.gif","img/card_backs/set1/red.gif","img/card_backs/set2/orange.gif","img/card_backs/set2/blue.gif","img/card_backs/set2/gray.gif","img/card_backs/set2/pink.gif","""event"",""trial"",""time""
""fullscreenenter"",""1"",""1405""
","
","
","""event"",""trial"",""time""
""fullscreenenter"",""1"",""1405""
","
","","5584.564999997383","","","","practice_card_selection","2021-04-03 20:22:42.971","img/practice_cards/backs/brown.gif","3","100","","",""
"casino-keyboard-response","22","110980","0.0-16.0-0.0","A106","true","img/card_backs/set1/yellow.gif","img/card_backs/set1/purple.gif","img/card_backs/set1/green.gif","img/card_backs/set1/red.gif","img/card_backs/set2/orange.gif","img/card_backs/set2/blue.gif","img/card_backs/set2/gray.gif","img/card_backs/set2/pink.gif","""event"",""trial"",""time""
""fullscreenenter"",""1"",""1405""
","
","
","""event"",""trial"",""time""
""fullscreenenter"",""1"",""1405""
","
","","5774.520000006305","Great! It seems like you are getting the hang of this.","80","","instructions","2021-04-03 20:22:48.748","","","","","",""
"casino-keyboard-response","23","123707","0.0-16.0-0.1","A106","true","img/card_backs/set1/yellow.gif","img/card_backs/set1/purple.gif","img/card_backs/set1/green.gif","img/card_backs/set1/red.gif","img/card_backs/set2/orange.gif","img/card_backs/set2/blue.gif","img/card_backs/set2/gray.gif","img/card_backs/set2/pink.gif","""event"",""trial"",""time""
""fullscreenenter"",""1"",""1405""
","
","
","""event"",""trial"",""time""
""fullscreenenter"",""1"",""1405""
","
","","12725.220000022091","You may have noticed that some cards will cause you to <b> win </b> tokens while other cards will cause you to <b> lose </b>  tokens.","70","","instructions","2021-04-03 20:23:01.475","","","","","",""
"casino-keyboard-response","24","132565","0.0-16.0-0.2","A106","true","img/card_backs/set1/yellow.gif","img/card_backs/set1/purple.gif","img/card_backs/set1/green.gif","img/card_backs/set1/red.gif","img/card_backs/set2/orange.gif","img/card_backs/set2/blue.gif","img/card_backs/set2/gray.gif","img/card_backs/set2/pink.gif","""event"",""trial"",""time""
""fullscreenenter"",""1"",""1405""
","
","
","""event"",""trial"",""time""
""fullscreenenter"",""1"",""1405""
","
","","8855.869999999413","Each deck has a mix of cards that will cause you to win and lose tokens. </br> However, the cards in each colored deck are different.","73","","instructions","2021-04-03 20:23:10.333","","","","","",""
"casino-keyboard-response","25","144313","0.0-16.0-0.3","A106","true","img/card_backs/set1/yellow.gif","img/card_backs/set1/purple.gif","img/card_backs/set1/green.gif","img/card_backs/set1/red.gif","img/card_backs/set2/orange.gif","img/card_backs/set2/blue.gif","img/card_backs/set2/gray.gif","img/card_backs/set2/pink.gif","""event"",""trial"",""time""
""fullscreenenter"",""1"",""1405""
","
","
","""event"",""trial"",""time""
""fullscreenenter"",""1"",""1405""
","
","","11746.38500000583","Some colored decks are luckier than others. </br> If you choose the lucky decks, you will earn more tokens than if you choose the unlucky decks.","69","","instructions","2021-04-03 20:23:22.081","","","","","",""
"casino-keyboard-response","26","151850","0.0-16.0-0.4","A106","true","img/card_backs/set1/yellow.gif","img/card_backs/set1/purple.gif","img/card_backs/set1/green.gif","img/card_backs/set1/red.gif","img/card_backs/set2/orange.gif","img/card_backs/set2/blue.gif","img/card_backs/set2/gray.gif","img/card_backs/set2/pink.gif","""event"",""trial"",""time""
""fullscreenenter"",""1"",""1405""
","
","
","""event"",""trial"",""time""
""fullscreenenter"",""1"",""1405""
","
","","7534.930000023451","You should try to figure out which decks are lucky. </br> Then, try to choose the lucky decks so you can win the most tokens.","87","","instructions","2021-04-03 20:23:29.618","","","","","",""
"casino-keyboard-response","27","164095","0.0-16.0-0.5","A106","true","img/card_backs/set1/yellow.gif","img/card_backs/set1/purple.gif","img/card_backs/set1/green.gif","img/card_backs/set1/red.gif","img/card_backs/set2/orange.gif","img/card_backs/set2/blue.gif","img/card_backs/set2/gray.gif","img/card_backs/set2/pink.gif","""event"",""trial"",""time""
""fullscreenenter"",""1"",""1405""
","
","
","""event"",""trial"",""time""
""fullscreenenter"",""1"",""1405""
","
","","12242.389999999432","To make it trickier, the casino dealer will switch the locations of the decks on every turn. </br> The color of the deck determines how lucky it is. The location does not matter.","88","","instructions","2021-04-03 20:23:41.863","","","","","",""
"casino-keyboard-response","28","175438","0.0-16.0-0.6","A106","true","img/card_backs/set1/yellow.gif","img/card_backs/set1/purple.gif","img/card_backs/set1/green.gif","img/card_backs/set1/red.gif","img/card_backs/set2/orange.gif","img/card_backs/set2/blue.gif","img/card_backs/set2/gray.gif","img/card_backs/set2/pink.gif","""event"",""trial"",""time""
""fullscreenenter"",""1"",""1405""
","
","
","""event"",""trial"",""time""
""fullscreenenter"",""1"",""1405""
","
","","11341.119999997318","The mix of cards in each colored deck will stay the same throughout the game. </br> That means that a deck that is lucky early on will stay lucky.","79","","instructions","2021-04-03 20:23:53.206","","","","","",""
"casino-keyboard-response","29","183685","0.0-16.0-0.7","A106","true","img/card_backs/set1/yellow.gif","img/card_backs/set1/purple.gif","img/card_backs/set1/green.gif","img/card_backs/set1/red.gif","img/card_backs/set2/orange.gif","img/card_backs/set2/blue.gif","img/card_backs/set2/gray.gif","img/card_backs/set2/pink.gif","""event"",""trial"",""time""
""fullscreenenter"",""1"",""1405""
","
","
","""event"",""trial"",""time""
""fullscreenenter"",""1"",""1405""
","
","","8245.775000017602","Remember though, all the decks have a <b> mix </b> of both <b> good </b> and <b> bad </b> cards so it may take a couple of turns to figure out if a deck is lucky.","69","","instructions","2021-04-03 20:24:01.454","","","","","",""
"casino-keyboard-response","30","194025","0.0-16.0-0.8","A106","true","img/card_backs/set1/yellow.gif","img/card_backs/set1/purple.gif","img/card_backs/set1/green.gif","img/card_backs/set1/red.gif","img/card_backs/set2/orange.gif","img/card_backs/set2/blue.gif","img/card_backs/set2/gray.gif","img/card_backs/set2/pink.gif","""event"",""trial"",""time""
""fullscreenenter"",""1"",""1405""
","
","
","""event"",""trial"",""time""
""fullscreenenter"",""1"",""1405""
","
","","10338.105000002543","At the end of the game, you will be paid bonus money based on how many tokens you win. </br> If you win more tokens, you will earn more money!","72","","instructions","2021-04-03 20:24:11.794","","","","","",""
"casino-keyboard-response","31","204158","0.0-16.0-0.9","A106","true","img/card_backs/set1/yellow.gif","img/card_backs/set1/purple.gif","img/card_backs/set1/green.gif","img/card_backs/set1/red.gif","img/card_backs/set2/orange.gif","img/card_backs/set2/blue.gif","img/card_backs/set2/gray.gif","img/card_backs/set2/pink.gif","""event"",""trial"",""time""
""fullscreenenter"",""1"",""1405""
","
","
","""event"",""trial"",""time""
""fullscreenenter"",""1"",""1405""
","
","","10130.730000004405","You will never <b> lose </b> money. </br> If you end up with fewer than 0 tokens, you will earn $0 of bonus money, but you will still be paid for playing the game.","83","","instructions","2021-04-03 20:24:21.926","","","","","",""
"casino-keyboard-response","32","208518","0.0-16.0-0.10","A106","true","img/card_backs/set1/yellow.gif","img/card_backs/set1/purple.gif","img/card_backs/set1/green.gif","img/card_backs/set1/red.gif","img/card_backs/set2/orange.gif","img/card_backs/set2/blue.gif","img/card_backs/set2/gray.gif","img/card_backs/set2/pink.gif","""event"",""trial"",""time""
""fullscreenenter"",""1"",""1405""
","
","
","""event"",""trial"",""time""
""fullscreenenter"",""1"",""1405""
","
","","4354.675000009593","You will have 10 seconds to make each choice.","82","","instructions","2021-04-03 20:24:26.286","","","","","",""
"casino-keyboard-response","33","216836","0.0-16.0-0.11","A106","true","img/card_backs/set1/yellow.gif","img/card_backs/set1/purple.gif","img/card_backs/set1/green.gif","img/card_backs/set1/red.gif","img/card_backs/set2/orange.gif","img/card_backs/set2/blue.gif","img/card_backs/set2/gray.gif","img/card_backs/set2/pink.gif","""event"",""trial"",""time""
""fullscreenenter"",""1"",""1405""
","
","
","""event"",""trial"",""time""
""fullscreenenter"",""1"",""1405""
","
","","8316.015000018524","Before you play the game for real, you will play with practice decks. </br> The tokens you earn during practice won't count toward your total.","86","","instructions","2021-04-03 20:24:34.604","","","","","",""
"casino-keyboard-response","34","228122","0.0-16.0-0.12","A106","true","img/card_backs/set1/yellow.gif","img/card_backs/set1/purple.gif","img/card_backs/set1/green.gif","img/card_backs/set1/red.gif","img/card_backs/set2/orange.gif","img/card_backs/set2/blue.gif","img/card_backs/set2/gray.gif","img/card_backs/set2/pink.gif","""event"",""trial"",""time""
""fullscreenenter"",""1"",""1405""
","
","
","""event"",""trial"",""time""
""fullscreenenter"",""1"",""1405""
","
","","11284.799999993993","Ready? Remember, use the '2', '4', '6', and '8' keys to select the decks. </br> Put your fingers on those keys now and then press '2' to begin.","50","","instructions","2021-04-03 20:24:45.890","","","","","",""
"casino-fixation","35","228626","0.0-17.0-0.0","A106","true","img/card_backs/set1/yellow.gif","img/card_backs/set1/purple.gif","img/card_backs/set1/green.gif","img/card_backs/set1/red.gif","img/card_backs/set2/orange.gif","img/card_backs/set2/blue.gif","img/card_backs/set2/gray.gif","img/card_backs/set2/pink.gif","""event"",""trial"",""time""
""fullscreenenter"",""1"",""1405""
","
","
","""event"",""trial"",""time""
""fullscreenenter"",""1"",""1405""
","
","","null","","null","","fixation","2021-04-03 20:24:46.394","","","","","",""
"card-selection-trial","36","231159","0.0-17.0-1.0","A106","true","img/card_backs/set1/yellow.gif","img/card_backs/set1/purple.gif","img/card_backs/set1/green.gif","img/card_backs/set1/red.gif","img/card_backs/set2/orange.gif","img/card_backs/set2/blue.gif","img/card_backs/set2/gray.gif","img/card_backs/set2/pink.gif","""event"",""trial"",""time""
""fullscreenenter"",""1"",""1405""
","
","
","""event"",""trial"",""time""
""fullscreenenter"",""1"",""1405""
","
","","525.0700000033248","","","","practice","2021-04-03 20:24:48.928","img/practice_cards/backs/black.gif","0","100","0","",""
"casino-fixation","37","231662","0.0-17.0-0.1","A106","true","img/card_backs/set1/yellow.gif","img/card_backs/set1/purple.gif","img/card_backs/set1/green.gif","img/card_backs/set1/red.gif","img/card_backs/set2/orange.gif","img/card_backs/set2/blue.gif","img/card_backs/set2/gray.gif","img/card_backs/set2/pink.gif","""event"",""trial"",""time""
""fullscreenenter"",""1"",""1405""
","
","
","""event"",""trial"",""time""
""fullscreenenter"",""1"",""1405""
","
","","null","","null","","fixation","2021-04-03 20:24:49.431","","","","","",""
"card-selection-trial","38","234110","0.0-17.0-1.1","A106","true","img/card_backs/set1/yellow.gif","img/card_backs/set1/purple.gif","img/card_backs/set1/green.gif","img/card_backs/set1/red.gif","img/card_backs/set2/orange.gif","img/card_backs/set2/blue.gif","img/card_backs/set2/gray.gif","img/card_backs/set2/pink.gif","""event"",""trial"",""time""
""fullscreenenter"",""1"",""1405""
","
","
","""event"",""trial"",""time""
""fullscreenenter"",""1"",""1405""
","
","","437.67000001389533","","","","practice","2021-04-03 20:24:51.879","img/practice_cards/backs/black.gif","0","100","0","",""
"casino-fixation","39","234617","0.0-17.0-0.2","A106","true","img/card_backs/set1/yellow.gif","img/card_backs/set1/purple.gif","img/card_backs/set1/green.gif","img/card_backs/set1/red.gif","img/card_backs/set2/orange.gif","img/card_backs/set2/blue.gif","img/card_backs/set2/gray.gif","img/card_backs/set2/pink.gif","""event"",""trial"",""time""
""fullscreenenter"",""1"",""1405""
","
","
","""event"",""trial"",""time""
""fullscreenenter"",""1"",""1405""
","
","","null","","null","","fixation","2021-04-03 20:24:52.385","","","","","",""
"card-selection-trial","40","238428","0.0-17.0-1.2","A106","true","img/card_backs/set1/yellow.gif","img/card_backs/set1/purple.gif","img/card_backs/set1/green.gif","img/card_backs/set1/red.gif","img/card_backs/set2/orange.gif","img/card_backs/set2/blue.gif","img/card_backs/set2/gray.gif","img/card_backs/set2/pink.gif","""event"",""trial"",""time""
""fullscreenenter"",""1"",""1405""
","
","
","""event"",""trial"",""time""
""fullscreenenter"",""1"",""1405""
","
","","1803.2700000039767","","","","practice","2021-04-03 20:24:56.196","img/practice_cards/backs/black.gif","1","100","0","",""
"casino-fixation","41","238931","0.0-17.0-0.3","A106","true","img/card_backs/set1/yellow.gif","img/card_backs/set1/purple.gif","img/card_backs/set1/green.gif","img/card_backs/set1/red.gif","img/card_backs/set2/orange.gif","img/card_backs/set2/blue.gif","img/card_backs/set2/gray.gif","img/card_backs/set2/pink.gif","""event"",""trial"",""time""
""fullscreenenter"",""1"",""1405""
","
","
","""event"",""trial"",""time""
""fullscreenenter"",""1"",""1405""
","
","","null","","null","","fixation","2021-04-03 20:24:56.699","","","","","",""
"card-selection-trial","42","241985","0.0-17.0-1.3","A106","true","img/card_backs/set1/yellow.gif","img/card_backs/set1/purple.gif","img/card_backs/set1/green.gif","img/card_backs/set1/red.gif","img/card_backs/set2/orange.gif","img/card_backs/set2/blue.gif","img/card_backs/set2/gray.gif","img/card_backs/set2/pink.gif","""event"",""trial"",""time""
""fullscreenenter"",""1"",""1405""
","
","
","""event"",""trial"",""time""
""fullscreenenter"",""1"",""1405""
","
","","1045.3900000138674","","","","practice","2021-04-03 20:24:59.753","img/practice_cards/backs/black.gif","0","-100","0","",""
"casino-fixation","43","242488","0.0-17.0-0.4","A106","true","img/card_backs/set1/yellow.gif","img/card_backs/set1/purple.gif","img/card_backs/set1/green.gif","img/card_backs/set1/red.gif","img/card_backs/set2/orange.gif","img/card_backs/set2/blue.gif","img/card_backs/set2/gray.gif","img/card_backs/set2/pink.gif","""event"",""trial"",""time""
""fullscreenenter"",""1"",""1405""
","
","
","""event"",""trial"",""time""
""fullscreenenter"",""1"",""1405""
","
","","null","","null","","fixation","2021-04-03 20:25:00.256","","","","","",""
"card-selection-trial","44","244788","0.0-17.0-1.4","A106","true","img/card_backs/set1/yellow.gif","img/card_backs/set1/purple.gif","img/card_backs/set1/green.gif","img/card_backs/set1/red.gif","img/card_backs/set2/orange.gif","img/card_backs/set2/blue.gif","img/card_backs/set2/gray.gif","img/card_backs/set2/pink.gif","""event"",""trial"",""time""
""fullscreenenter"",""1"",""1405""
","
","
","""event"",""trial"",""time""
""fullscreenenter"",""1"",""1405""
","
","","287.3249999829568","","","","practice","2021-04-03 20:25:02.556","img/practice_cards/backs/dark_green.gif","3","200","0","",""
"casino-fixation","45","245290","0.0-17.0-0.5","A106","true","img/card_backs/set1/yellow.gif","img/card_backs/set1/purple.gif","img/card_backs/set1/green.gif","img/card_backs/set1/red.gif","img/card_backs/set2/orange.gif","img/card_backs/set2/blue.gif","img/card_backs/set2/gray.gif","img/card_backs/set2/pink.gif","""event"",""trial"",""time""
""fullscreenenter"",""1"",""1405""
","
","
","""event"",""trial"",""time""
""fullscreenenter"",""1"",""1405""
","
","","null","","null","","fixation","2021-04-03 20:25:03.059","","","","","",""
"card-selection-trial","46","247838","0.0-17.0-1.5","A106","true","img/card_backs/set1/yellow.gif","img/card_backs/set1/purple.gif","img/card_backs/set1/green.gif","img/card_backs/set1/red.gif","img/card_backs/set2/orange.gif","img/card_backs/set2/blue.gif","img/card_backs/set2/gray.gif","img/card_backs/set2/pink.gif","""event"",""trial"",""time""
""fullscreenenter"",""1"",""1405""
","
","
","""event"",""trial"",""time""
""fullscreenenter"",""1"",""1405""
","
","","536.7099999857601","","","","practice","2021-04-03 20:25:05.606","img/practice_cards/backs/dark_green.gif","3","-200","0","",""
"casino-fixation","47","248342","0.0-17.0-0.6","A106","true","img/card_backs/set1/yellow.gif","img/card_backs/set1/purple.gif","img/card_backs/set1/green.gif","img/card_backs/set1/red.gif","img/card_backs/set2/orange.gif","img/card_backs/set2/blue.gif","img/card_backs/set2/gray.gif","img/card_backs/set2/pink.gif","""event"",""trial"",""time""
""fullscreenenter"",""1"",""1405""
","
","
","""event"",""trial"",""time""
""fullscreenenter"",""1"",""1405""
","
","","null","","null","","fixation","2021-04-03 20:25:06.110","","","","","",""
"card-selection-trial","48","251534","0.0-17.0-1.6","A106","true","img/card_backs/set1/yellow.gif","img/card_backs/set1/purple.gif","img/card_backs/set1/green.gif","img/card_backs/set1/red.gif","img/card_backs/set2/orange.gif","img/card_backs/set2/blue.gif","img/card_backs/set2/gray.gif","img/card_backs/set2/pink.gif","""event"",""trial"",""time""
""fullscreenenter"",""1"",""1405""
","
","
","""event"",""trial"",""time""
""fullscreenenter"",""1"",""1405""
","
","","1180.595000012545","","","","practice","2021-04-03 20:25:09.302","img/practice_cards/backs/brown.gif","2","-100","0","",""
"casino-fixation","49","252040","0.0-17.0-0.7","A106","true","img/card_backs/set1/yellow.gif","img/card_backs/set1/purple.gif","img/card_backs/set1/green.gif","img/card_backs/set1/red.gif","img/card_backs/set2/orange.gif","img/card_backs/set2/blue.gif","img/card_backs/set2/gray.gif","img/card_backs/set2/pink.gif","""event"",""trial"",""time""
""fullscreenenter"",""1"",""1405""
","
","
","""event"",""trial"",""time""
""fullscreenenter"",""1"",""1405""
","
","","null","","null","","fixation","2021-04-03 20:25:09.808","","","","","",""
"card-selection-trial","50","256002","0.0-17.0-1.7","A106","true","img/card_backs/set1/yellow.gif","img/card_backs/set1/purple.gif","img/card_backs/set1/green.gif","img/card_backs/set1/red.gif","img/card_backs/set2/orange.gif","img/card_backs/set2/blue.gif","img/card_backs/set2/gray.gif","img/card_backs/set2/pink.gif","""event"",""trial"",""time""
""fullscreenenter"",""1"",""1405""
","
","
","""event"",""trial"",""time""
""fullscreenenter"",""1"",""1405""
","
","","1953.6999999836553","","","","practice","2021-04-03 20:25:13.770","img/practice_cards/backs/dark_green.gif","2","-200","0","",""
"casino-fixation","51","256509","0.0-17.0-0.8","A106","true","img/card_backs/set1/yellow.gif","img/card_backs/set1/purple.gif","img/card_backs/set1/green.gif","img/card_backs/set1/red.gif","img/card_backs/set2/orange.gif","img/card_backs/set2/blue.gif","img/card_backs/set2/gray.gif","img/card_backs/set2/pink.gif","""event"",""trial"",""time""
""fullscreenenter"",""1"",""1405""
","
","
","""event"",""trial"",""time""
""fullscreenenter"",""1"",""1405""
","
","","null","","null","","fixation","2021-04-03 20:25:14.278","","","","","",""
"card-selection-trial","52","258884","0.0-17.0-1.8","A106","true","img/card_backs/set1/yellow.gif","img/card_backs/set1/purple.gif","img/card_backs/set1/green.gif","img/card_backs/set1/red.gif","img/card_backs/set2/orange.gif","img/card_backs/set2/blue.gif","img/card_backs/set2/gray.gif","img/card_backs/set2/pink.gif","""event"",""trial"",""time""
""fullscreenenter"",""1"",""1405""
","
","
","""event"",""trial"",""time""
""fullscreenenter"",""1"",""1405""
","
","","364.0399999858346","","","","practice","2021-04-03 20:25:16.652","img/practice_cards/backs/black.gif","0","-100","0","",""
"casino-fixation","53","259386","0.0-17.0-0.9","A106","true","img/card_backs/set1/yellow.gif","img/card_backs/set1/purple.gif","img/card_backs/set1/green.gif","img/card_backs/set1/red.gif","img/card_backs/set2/orange.gif","img/card_backs/set2/blue.gif","img/card_backs/set2/gray.gif","img/card_backs/set2/pink.gif","""event"",""trial"",""time""
""fullscreenenter"",""1"",""1405""
","
","
","""event"",""trial"",""time""
""fullscreenenter"",""1"",""1405""
","
","","null","","null","","fixation","2021-04-03 20:25:17.155","","","","","",""
"card-selection-trial","54","262649","0.0-17.0-1.9","A106","true","img/card_backs/set1/yellow.gif","img/card_backs/set1/purple.gif","img/card_backs/set1/green.gif","img/card_backs/set1/red.gif","img/card_backs/set2/orange.gif","img/card_backs/set2/blue.gif","img/card_backs/set2/gray.gif","img/card_backs/set2/pink.gif","""event"",""trial"",""time""
""fullscreenenter"",""1"",""1405""
","
","
","""event"",""trial"",""time""
""fullscreenenter"",""1"",""1405""
","
","","1253.5199999983888","","","","practice","2021-04-03 20:25:20.417","img/practice_cards/backs/dark_blue.gif","1","-200","0","",""
"casino-keyboard-response","55","265490","0.0-18.0","A106","true","img/card_backs/set1/yellow.gif","img/card_backs/set1/purple.gif","img/card_backs/set1/green.gif","img/card_backs/set1/red.gif","img/card_backs/set2/orange.gif","img/card_backs/set2/blue.gif","img/card_backs/set2/gray.gif","img/card_backs/set2/pink.gif","""event"",""trial"",""time""
""fullscreenenter"",""1"",""1405""
","
","
","""event"",""trial"",""time""
""fullscreenenter"",""1"",""1405""
","
","","2838.739999977406","You earned -400 tokens during the practice round!","82","","","2021-04-03 20:25:23.258","","","","","",""
"casino-keyboard-response","56","269643","0.0-19.0-0.0","A106","true","img/card_backs/set1/yellow.gif","img/card_backs/set1/purple.gif","img/card_backs/set1/green.gif","img/card_backs/set1/red.gif","img/card_backs/set2/orange.gif","img/card_backs/set2/blue.gif","img/card_backs/set2/gray.gif","img/card_backs/set2/pink.gif","""event"",""trial"",""time""
""fullscreenenter"",""1"",""1405""
","
","
","""event"",""trial"",""time""
""fullscreenenter"",""1"",""1405""
","
","","4150.030000018887","Nice job! You are almost ready to play the real game.","86","","instructions","2021-04-03 20:25:27.411","","","","","",""
"casino-keyboard-response","57","276524","0.0-19.0-0.1","A106","true","img/card_backs/set1/yellow.gif","img/card_backs/set1/purple.gif","img/card_backs/set1/green.gif","img/card_backs/set1/red.gif","img/card_backs/set2/orange.gif","img/card_backs/set2/blue.gif","img/card_backs/set2/gray.gif","img/card_backs/set2/pink.gif","""event"",""trial"",""time""
""fullscreenenter"",""1"",""1405""
","
","
","""event"",""trial"",""time""
""fullscreenenter"",""1"",""1405""
","
","","6878.930000006221","You will play two rounds of the real game. In each round, you will pick 100 cards in total.","73","","instructions","2021-04-03 20:25:34.292","","","","","",""
"casino-keyboard-response","58","280519","0.0-19.0-0.2","A106","true","img/card_backs/set1/yellow.gif","img/card_backs/set1/purple.gif","img/card_backs/set1/green.gif","img/card_backs/set1/red.gif","img/card_backs/set2/orange.gif","img/card_backs/set2/blue.gif","img/card_backs/set2/gray.gif","img/card_backs/set2/pink.gif","""event"",""trial"",""time""
""fullscreenenter"",""1"",""1405""
","
","
","""event"",""trial"",""time""
""fullscreenenter"",""1"",""1405""
","
","","3993.395000026794","We are now going to ask you some questions about how the game works.","66","","instructions","2021-04-03 20:25:38.287","","","","","",""
"casino-keyboard-response","59","286403","0.0-19.0-0.3","A106","true","img/card_backs/set1/yellow.gif","img/card_backs/set1/purple.gif","img/card_backs/set1/green.gif","img/card_backs/set1/red.gif","img/card_backs/set2/orange.gif","img/card_backs/set2/blue.gif","img/card_backs/set2/gray.gif","img/card_backs/set2/pink.gif","""event"",""trial"",""time""
""fullscreenenter"",""1"",""1405""
","
","
","""event"",""trial"",""time""
""fullscreenenter"",""1"",""1405""
","
","","5883.2300000067335","Answer carefully. You will not be able to begin the game until you answer them correctly.","67","","instructions","2021-04-03 20:25:44.172","","","","","",""
"casino-comp_q","60","293406","0.0-20.0-0.0","A106","true","img/card_backs/set1/yellow.gif","img/card_backs/set1/purple.gif","img/card_backs/set1/green.gif","img/card_backs/set1/red.gif","img/card_backs/set2/orange.gif","img/card_backs/set2/blue.gif","img/card_backs/set2/gray.gif","img/card_backs/set2/pink.gif","""event"",""trial"",""time""
""fullscreenenter"",""1"",""1405""
","
","
","""event"",""trial"",""time""
""fullscreenenter"",""1"",""1405""
","
","","6999.5400000188965","True or False: All the decks have some cards that cause you to win tokens and some cards that cause you to lose tokens.","84","","","2021-04-03 20:25:51.174","","","","","",""
"casino-keyboard-response","61","297940","0.0-20.0-1.0","A106","true","img/card_backs/set1/yellow.gif","img/card_backs/set1/purple.gif","img/card_backs/set1/green.gif","img/card_backs/set1/red.gif","img/card_backs/set2/orange.gif","img/card_backs/set2/blue.gif","img/card_backs/set2/gray.gif","img/card_backs/set2/pink.gif","""event"",""trial"",""time""
""fullscreenenter"",""1"",""1405""
","
","
","""event"",""trial"",""time""
""fullscreenenter"",""1"",""1405""
","
","","4532.194999977946","True is correct! All the decks have a mix of winning and losing cards.","77","","","2021-04-03 20:25:55.709","","","","","true",""
"casino-comp_q","62","300794","0.0-21.0-0.0","A106","true","img/card_backs/set1/yellow.gif","img/card_backs/set1/purple.gif","img/card_backs/set1/green.gif","img/card_backs/set1/red.gif","img/card_backs/set2/orange.gif","img/card_backs/set2/blue.gif","img/card_backs/set2/gray.gif","img/card_backs/set2/pink.gif","""event"",""trial"",""time""
""fullscreenenter"",""1"",""1405""
","
","
","""event"",""trial"",""time""
""fullscreenenter"",""1"",""1405""
","
","","2848.3999999880325","True or False: You will have as much time as you want to make your response.","70","","","2021-04-03 20:25:58.562","","","","","",""
"casino-keyboard-response","63","304977","0.0-21.0-1.0","A106","true","img/card_backs/set1/yellow.gif","img/card_backs/set1/purple.gif","img/card_backs/set1/green.gif","img/card_backs/set1/red.gif","img/card_backs/set2/orange.gif","img/card_backs/set2/blue.gif","img/card_backs/set2/gray.gif","img/card_backs/set2/pink.gif","""event"",""trial"",""time""
""fullscreenenter"",""1"",""1405""
","
","
","""event"",""trial"",""time""
""fullscreenenter"",""1"",""1405""
","
","","4182.009999989532","False is correct! You will only have 10 seconds to make each choice.","75","","","2021-04-03 20:26:02.745","","","","","true",""
"casino-comp_q","64","308865","0.0-22.0-0.0","A106","true","img/card_backs/set1/yellow.gif","img/card_backs/set1/purple.gif","img/card_backs/set1/green.gif","img/card_backs/set1/red.gif","img/card_backs/set2/orange.gif","img/card_backs/set2/blue.gif","img/card_backs/set2/gray.gif","img/card_backs/set2/pink.gif","""event"",""trial"",""time""
""fullscreenenter"",""1"",""1405""
","
","
","""event"",""trial"",""time""
""fullscreenenter"",""1"",""1405""
","
","","3885.5949999997392","True or False: The location of the deck determines how lucky it is.","70","","","2021-04-03 20:26:06.633","","","","","",""
"casino-keyboard-response","65","315909","0.0-22.0-1.0","A106","true","img/card_backs/set1/yellow.gif","img/card_backs/set1/purple.gif","img/card_backs/set1/green.gif","img/card_backs/set1/red.gif","img/card_backs/set2/orange.gif","img/card_backs/set2/blue.gif","img/card_backs/set2/gray.gif","img/card_backs/set2/pink.gif","""event"",""trial"",""time""
""fullscreenenter"",""1"",""1405""
","
","
","""event"",""trial"",""time""
""fullscreenenter"",""1"",""1405""
","
","","7041.170000011334","False is correct! The <i>color</i>  of the deck determines how lucky or unlucky it is.","68","","","2021-04-03 20:26:13.677","","","","","true",""
"casino-keyboard-response","66","319966","0.0-23.0-0.0","A106","true","img/card_backs/set1/yellow.gif","img/card_backs/set1/purple.gif","img/card_backs/set1/green.gif","img/card_backs/set1/red.gif","img/card_backs/set2/orange.gif","img/card_backs/set2/blue.gif","img/card_backs/set2/gray.gif","img/card_backs/set2/pink.gif","""event"",""trial"",""time""
""fullscreenenter"",""1"",""1405""
","
","
","""event"",""trial"",""time""
""fullscreenenter"",""1"",""1405""
","
","","4054.0500000061","Great job! Now it's time to start the real game.","82","","instructions","2021-04-03 20:26:17.734","","","","","",""
"casino-keyboard-response","67","324799","0.0-23.0-0.1","A106","true","img/card_backs/set1/yellow.gif","img/card_backs/set1/purple.gif","img/card_backs/set1/green.gif","img/card_backs/set1/red.gif","img/card_backs/set2/orange.gif","img/card_backs/set2/blue.gif","img/card_backs/set2/gray.gif","img/card_backs/set2/pink.gif","""event"",""trial"",""time""
""fullscreenenter"",""1"",""1405""
","
","
","""event"",""trial"",""time""
""fullscreenenter"",""1"",""1405""
","
","","4831.055000016931","Before we start, we're going to head into a new room of the casino.","86","","instructions","2021-04-03 20:26:22.567","","","","","",""
"casino-keyboard-response","68","330749","0.0-24.0-0.0","A106","true","img/card_backs/set1/yellow.gif","img/card_backs/set1/purple.gif","img/card_backs/set1/green.gif","img/card_backs/set1/red.gif","img/card_backs/set2/orange.gif","img/card_backs/set2/blue.gif","img/card_backs/set2/gray.gif","img/card_backs/set2/pink.gif","""event"",""trial"",""time""
""fullscreenenter"",""1"",""1405""
","
","
","""event"",""trial"",""time""
""fullscreenenter"",""1"",""1405""
","
","","5948.130000004312","Here we are! The real game will use different cards, but the rules will be the same.","71","","instructions","2021-04-03 20:26:28.517","","","","","",""
"casino-keyboard-response","69","334102","0.0-24.0-0.1","A106","true","img/card_backs/set1/yellow.gif","img/card_backs/set1/purple.gif","img/card_backs/set1/green.gif","img/card_backs/set1/red.gif","img/card_backs/set2/orange.gif","img/card_backs/set2/blue.gif","img/card_backs/set2/gray.gif","img/card_backs/set2/pink.gif","""event"",""trial"",""time""
""fullscreenenter"",""1"",""1405""
","
","
","""event"",""trial"",""time""
""fullscreenenter"",""1"",""1405""
","
","","3350.414999993518","Ready? Put your fingers over the '2', '4', 6', and '8' keys so you are ready to play the game. </br> Then press 2 to start.","50","","instructions","2021-04-03 20:26:31.870","","","","","",""
"casino-fixation","70","334604","0.0-25.0-0.0","A106","true","img/card_backs/set1/yellow.gif","img/card_backs/set1/purple.gif","img/card_backs/set1/green.gif","img/card_backs/set1/red.gif","img/card_backs/set2/orange.gif","img/card_backs/set2/blue.gif","img/card_backs/set2/gray.gif","img/card_backs/set2/pink.gif","""event"",""trial"",""time""
""fullscreenenter"",""1"",""1405""
","
","
","""event"",""trial"",""time""
""fullscreenenter"",""1"",""1405""
","
","","null","","null","","fixation","2021-04-03 20:26:32.372","","","","","",""
"card-selection-trial","71","337454","0.0-25.0-1.0","A106","true","img/card_backs/set1/yellow.gif","img/card_backs/set1/purple.gif","img/card_backs/set1/green.gif","img/card_backs/set1/red.gif","img/card_backs/set2/orange.gif","img/card_backs/set2/blue.gif","img/card_backs/set2/gray.gif","img/card_backs/set2/pink.gif","""event"",""trial"",""time""
""fullscreenenter"",""1"",""1405""
","
","
","""event"",""trial"",""time""
""fullscreenenter"",""1"",""1405""
","
","","838.3250000188127","","","","real_trial","2021-04-03 20:26:35.222","img/card_backs/set1/red.gif","1","-110","1","",""
"casino-fixation","72","337960","0.0-25.0-0.1","A106","true","img/card_backs/set1/yellow.gif","img/card_backs/set1/purple.gif","img/card_backs/set1/green.gif","img/card_backs/set1/red.gif","img/card_backs/set2/orange.gif","img/card_backs/set2/blue.gif","img/card_backs/set2/gray.gif","img/card_backs/set2/pink.gif","""event"",""trial"",""time""
""fullscreenenter"",""1"",""1405""
","
","
","""event"",""trial"",""time""
""fullscreenenter"",""1"",""1405""
","
","","null","","null","","fixation","2021-04-03 20:26:35.728","","","","","",""
"card-selection-trial","73","340244","0.0-25.0-1.1","A106","true","img/card_backs/set1/yellow.gif","img/card_backs/set1/purple.gif","img/card_backs/set1/green.gif","img/card_backs/set1/red.gif","img/card_backs/set2/orange.gif","img/card_backs/set2/blue.gif","img/card_backs/set2/gray.gif","img/card_backs/set2/pink.gif","""event"",""trial"",""time""
""fullscreenenter"",""1"",""1405""
","
","
","""event"",""trial"",""time""
""fullscreenenter"",""1"",""1405""
","
","","275.3849999862723","","","","real_trial","2021-04-03 20:26:38.012","img/card_backs/set1/red.gif","0","-110","1","",""
"casino-fixation","74","340748","0.0-25.0-0.2","A106","true","img/card_backs/set1/yellow.gif","img/card_backs/set1/purple.gif","img/card_backs/set1/green.gif","img/card_backs/set1/red.gif","img/card_backs/set2/orange.gif","img/card_backs/set2/blue.gif","img/card_backs/set2/gray.gif","img/card_backs/set2/pink.gif","""event"",""trial"",""time""
""fullscreenenter"",""1"",""1405""
","
","
","""event"",""trial"",""time""
""fullscreenenter"",""1"",""1405""
","
","","null","","null","","fixation","2021-04-03 20:26:38.519","","","","","",""
"card-selection-trial","75","343710","0.0-25.0-1.2","A106","true","img/card_backs/set1/yellow.gif","img/card_backs/set1/purple.gif","img/card_backs/set1/green.gif","img/card_backs/set1/red.gif","img/card_backs/set2/orange.gif","img/card_backs/set2/blue.gif","img/card_backs/set2/gray.gif","img/card_backs/set2/pink.gif","""event"",""trial"",""time""
""fullscreenenter"",""1"",""1405""
","
","
","""event"",""trial"",""time""
""fullscreenenter"",""1"",""1405""
","
","","949.4650000124238","","","","real_trial","2021-04-03 20:26:41.478","img/card_backs/set1/yellow.gif","1","-200","1","",""
"casino-fixation","76","344214","0.0-25.0-0.3","A106","true","img/card_backs/set1/yellow.gif","img/card_backs/set1/purple.gif","img/card_backs/set1/green.gif","img/card_backs/set1/red.gif","img/card_backs/set2/orange.gif","img/card_backs/set2/blue.gif","img/card_backs/set2/gray.gif","img/card_backs/set2/pink.gif","""event"",""trial"",""time""
""fullscreenenter"",""1"",""1405""
","
","
","""event"",""trial"",""time""
""fullscreenenter"",""1"",""1405""
","
","","null","","null","","fixation","2021-04-03 20:26:41.982","","","","","",""
"card-selection-trial","77","346643","0.0-25.0-1.3","A106","true","img/card_backs/set1/yellow.gif","img/card_backs/set1/purple.gif","img/card_backs/set1/green.gif","img/card_backs/set1/red.gif","img/card_backs/set2/orange.gif","img/card_backs/set2/blue.gif","img/card_backs/set2/gray.gif","img/card_backs/set2/pink.gif","""event"",""trial"",""time""
""fullscreenenter"",""1"",""1405""
","
","
","""event"",""trial"",""time""
""fullscreenenter"",""1"",""1405""
","
","","417.32999999658205","","","","real_trial","2021-04-03 20:26:44.411","img/card_backs/set1/purple.gif","2","250","1","",""
"casino-fixation","78","347147","0.0-25.0-0.4","A106","true","img/card_backs/set1/yellow.gif","img/card_backs/set1/purple.gif","img/card_backs/set1/green.gif","img/card_backs/set1/red.gif","img/card_backs/set2/orange.gif","img/card_backs/set2/blue.gif","img/card_backs/set2/gray.gif","img/card_backs/set2/pink.gif","""event"",""trial"",""time""
""fullscreenenter"",""1"",""1405""
","
","
","""event"",""trial"",""time""
""fullscreenenter"",""1"",""1405""
","
","","null","","null","","fixation","2021-04-03 20:26:44.915","","","","","",""
"card-selection-trial","79","349644","0.0-25.0-1.4","A106","true","img/card_backs/set1/yellow.gif","img/card_backs/set1/purple.gif","img/card_backs/set1/green.gif","img/card_backs/set1/red.gif","img/card_backs/set2/orange.gif","img/card_backs/set2/blue.gif","img/card_backs/set2/gray.gif","img/card_backs/set2/pink.gif","""event"",""trial"",""time""
""fullscreenenter"",""1"",""1405""
","
","
","""event"",""trial"",""time""
""fullscreenenter"",""1"",""1405""
","
","","487.7299999934621","","","","real_trial","2021-04-03 20:26:47.412","img/card_backs/set1/purple.gif","1","250","1","",""
"casino-fixation","80","350147","0.0-25.0-0.5","A106","true","img/card_backs/set1/yellow.gif","img/card_backs/set1/purple.gif","img/card_backs/set1/green.gif","img/card_backs/set1/red.gif","img/card_backs/set2/orange.gif","img/card_backs/set2/blue.gif","img/card_backs/set2/gray.gif","img/card_backs/set2/pink.gif","""event"",""trial"",""time""
""fullscreenenter"",""1"",""1405""
","
","
","""event"",""trial"",""time""
""fullscreenenter"",""1"",""1405""
","
","","null","","null","","fixation","2021-04-03 20:26:47.915","","","","","",""
"card-selection-trial","81","352926","0.0-25.0-1.5","A106","true","img/card_backs/set1/yellow.gif","img/card_backs/set1/purple.gif","img/card_backs/set1/green.gif","img/card_backs/set1/red.gif","img/card_backs/set2/orange.gif","img/card_backs/set2/blue.gif","img/card_backs/set2/gray.gif","img/card_backs/set2/pink.gif","""event"",""trial"",""time""
""fullscreenenter"",""1"",""1405""
","
","
","""event"",""trial"",""time""
""fullscreenenter"",""1"",""1405""
","
","","768.5100000235252","","","","real_trial","2021-04-03 20:26:50.694","img/card_backs/set1/purple.gif","1","-190","1","",""
"casino-fixation","82","353429","0.0-25.0-0.6","A106","true","img/card_backs/set1/yellow.gif","img/card_backs/set1/purple.gif","img/card_backs/set1/green.gif","img/card_backs/set1/red.gif","img/card_backs/set2/orange.gif","img/card_backs/set2/blue.gif","img/card_backs/set2/gray.gif","img/card_backs/set2/pink.gif","""event"",""trial"",""time""
""fullscreenenter"",""1"",""1405""
","
","
","""event"",""trial"",""time""
""fullscreenenter"",""1"",""1405""
","
","","null","","null","","fixation","2021-04-03 20:26:51.197","","","","","",""
"card-selection-trial","83","356397","0.0-25.0-1.6","A106","true","img/card_backs/set1/yellow.gif","img/card_backs/set1/purple.gif","img/card_backs/set1/green.gif","img/card_backs/set1/red.gif","img/card_backs/set2/orange.gif","img/card_backs/set2/blue.gif","img/card_backs/set2/gray.gif","img/card_backs/set2/pink.gif","""event"",""trial"",""time""
""fullscreenenter"",""1"",""1405""
","
","
","""event"",""trial"",""time""
""fullscreenenter"",""1"",""1405""
","
","","957.5450000120327","","","","real_trial","2021-04-03 20:26:54.166","img/card_backs/set1/red.gif","3","-100","1","",""
"casino-fixation","84","356904","0.0-25.0-0.7","A106","true","img/card_backs/set1/yellow.gif","img/card_backs/set1/purple.gif","img/card_backs/set1/green.gif","img/card_backs/set1/red.gif","img/card_backs/set2/orange.gif","img/card_backs/set2/blue.gif","img/card_backs/set2/gray.gif","img/card_backs/set2/pink.gif","""event"",""trial"",""time""
""fullscreenenter"",""1"",""1405""
","
","
","""event"",""trial"",""time""
""fullscreenenter"",""1"",""1405""
","
","","null","","null","","fixation","2021-04-03 20:26:54.672","","","","","",""
"card-selection-trial","85","359667","0.0-25.0-1.7","A106","true","img/card_backs/set1/yellow.gif","img/card_backs/set1/purple.gif","img/card_backs/set1/green.gif","img/card_backs/set1/red.gif","img/card_backs/set2/orange.gif","img/card_backs/set2/blue.gif","img/card_backs/set2/gray.gif","img/card_backs/set2/pink.gif","""event"",""trial"",""time""
""fullscreenenter"",""1"",""1405""
","
","
","""event"",""trial"",""time""
""fullscreenenter"",""1"",""1405""
","
","","751.6149999864865","","","","real_trial","2021-04-03 20:26:57.435","img/card_backs/set1/purple.gif","2","240","1","",""
"casino-fixation","86","360169","0.0-25.0-0.8","A106","true","img/card_backs/set1/yellow.gif","img/card_backs/set1/purple.gif","img/card_backs/set1/green.gif","img/card_backs/set1/red.gif","img/card_backs/set2/orange.gif","img/card_backs/set2/blue.gif","img/card_backs/set2/gray.gif","img/card_backs/set2/pink.gif","""event"",""trial"",""time""
""fullscreenenter"",""1"",""1405""
","
","
","""event"",""trial"",""time""
""fullscreenenter"",""1"",""1405""
","
","","null","","null","","fixation","2021-04-03 20:26:57.937","","","","","",""
"card-selection-trial","87","363026","0.0-25.0-1.8","A106","true","img/card_backs/set1/yellow.gif","img/card_backs/set1/purple.gif","img/card_backs/set1/green.gif","img/card_backs/set1/red.gif","img/card_backs/set2/orange.gif","img/card_backs/set2/blue.gif","img/card_backs/set2/gray.gif","img/card_backs/set2/pink.gif","""event"",""trial"",""time""
""fullscreenenter"",""1"",""1405""
","
","
","""event"",""trial"",""time""
""fullscreenenter"",""1"",""1405""
","
","","848.3500000147615","","","","real_trial","2021-04-03 20:27:00.794","img/card_backs/set1/purple.gif","0","240","1","",""
"casino-fixation","88","363533","0.0-25.0-0.9","A106","true","img/card_backs/set1/yellow.gif","img/card_backs/set1/purple.gif","img/card_backs/set1/green.gif","img/card_backs/set1/red.gif","img/card_backs/set2/orange.gif","img/card_backs/set2/blue.gif","img/card_backs/set2/gray.gif","img/card_backs/set2/pink.gif","""event"",""trial"",""time""
""fullscreenenter"",""1"",""1405""
","
","
","""event"",""trial"",""time""
""fullscreenenter"",""1"",""1405""
","
","","null","","null","","fixation","2021-04-03 20:27:01.301","","","","","",""
"card-selection-trial","89","367381","0.0-25.0-1.9","A106","true","img/card_backs/set1/yellow.gif","img/card_backs/set1/purple.gif","img/card_backs/set1/green.gif","img/card_backs/set1/red.gif","img/card_backs/set2/orange.gif","img/card_backs/set2/blue.gif","img/card_backs/set2/gray.gif","img/card_backs/set2/pink.gif","""event"",""trial"",""time""
""fullscreenenter"",""1"",""1405""
","
","
","""event"",""trial"",""time""
""fullscreenenter"",""1"",""1405""
","
","","1833.45500001451","","","","real_trial","2021-04-03 20:27:05.149","img/card_backs/set1/yellow.gif","0","-200","1","",""
"casino-fixation","90","367885","0.0-25.0-0.10","A106","true","img/card_backs/set1/yellow.gif","img/card_backs/set1/purple.gif","img/card_backs/set1/green.gif","img/card_backs/set1/red.gif","img/card_backs/set2/orange.gif","img/card_backs/set2/blue.gif","img/card_backs/set2/gray.gif","img/card_backs/set2/pink.gif","""event"",""trial"",""time""
""fullscreenenter"",""1"",""1405""
","
","
","""event"",""trial"",""time""
""fullscreenenter"",""1"",""1405""
","
","","null","","null","","fixation","2021-04-03 20:27:05.653","","","","","",""
"card-selection-trial","91","370614","0.0-25.0-1.10","A106","true","img/card_backs/set1/yellow.gif","img/card_backs/set1/purple.gif","img/card_backs/set1/green.gif","img/card_backs/set1/red.gif","img/card_backs/set2/orange.gif","img/card_backs/set2/blue.gif","img/card_backs/set2/gray.gif","img/card_backs/set2/pink.gif","""event"",""trial"",""time""
""fullscreenenter"",""1"",""1405""
","
","
","""event"",""trial"",""time""
""fullscreenenter"",""1"",""1405""
","
","","721.4899999962654","","","","real_trial","2021-04-03 20:27:08.382","img/card_backs/set1/purple.gif","2","240","1","",""
"casino-fixation","92","371120","0.0-25.0-0.11","A106","true","img/card_backs/set1/yellow.gif","img/card_backs/set1/purple.gif","img/card_backs/set1/green.gif","img/card_backs/set1/red.gif","img/card_backs/set2/orange.gif","img/card_backs/set2/blue.gif","img/card_backs/set2/gray.gif","img/card_backs/set2/pink.gif","""event"",""trial"",""time""
""fullscreenenter"",""1"",""1405""
","
","
","""event"",""trial"",""time""
""fullscreenenter"",""1"",""1405""
","
","","null","","null","","fixation","2021-04-03 20:27:08.888","","","","","",""
"card-selection-trial","93","375038","0.0-25.0-1.11","A106","true","img/card_backs/set1/yellow.gif","img/card_backs/set1/purple.gif","img/card_backs/set1/green.gif","img/card_backs/set1/red.gif","img/card_backs/set2/orange.gif","img/card_backs/set2/blue.gif","img/card_backs/set2/gray.gif","img/card_backs/set2/pink.gif","""event"",""trial"",""time""
""fullscreenenter"",""1"",""1405""
","
","
","""event"",""trial"",""time""
""fullscreenenter"",""1"",""1405""
","
","","1909.0999999898486","","","","real_trial","2021-04-03 20:27:12.806","img/card_backs/set1/green.gif","1","-110","1","",""
"casino-fixation","94","375544","0.0-25.0-0.12","A106","true","img/card_backs/set1/yellow.gif","img/card_backs/set1/purple.gif","img/card_backs/set1/green.gif","img/card_backs/set1/red.gif","img/card_backs/set2/orange.gif","img/card_backs/set2/blue.gif","img/card_backs/set2/gray.gif","img/card_backs/set2/pink.gif","""event"",""trial"",""time""
""fullscreenenter"",""1"",""1405""
","
","
","""event"",""trial"",""time""
""fullscreenenter"",""1"",""1405""
","
","","null","","null","","fixation","2021-04-03 20:27:13.312","","","","","",""
"card-selection-trial","95","378173","0.0-25.0-1.12","A106","true","img/card_backs/set1/yellow.gif","img/card_backs/set1/purple.gif","img/card_backs/set1/green.gif","img/card_backs/set1/red.gif","img/card_backs/set2/orange.gif","img/card_backs/set2/blue.gif","img/card_backs/set2/gray.gif","img/card_backs/set2/pink.gif","""event"",""trial"",""time""
""fullscreenenter"",""1"",""1405""
","
","
","""event"",""trial"",""time""
""fullscreenenter"",""1"",""1405""
","
","","619.0300000016578","","","","real_trial","2021-04-03 20:27:15.941","img/card_backs/set1/purple.gif","0","240","1","",""
"casino-fixation","96","378680","0.0-25.0-0.13","A106","true","img/card_backs/set1/yellow.gif","img/card_backs/set1/purple.gif","img/card_backs/set1/green.gif","img/card_backs/set1/red.gif","img/card_backs/set2/orange.gif","img/card_backs/set2/blue.gif","img/card_backs/set2/gray.gif","img/card_backs/set2/pink.gif","""event"",""trial"",""time""
""fullscreenenter"",""1"",""1405""
","
","
","""event"",""trial"",""time""
""fullscreenenter"",""1"",""1405""
","
","","null","","null","","fixation","2021-04-03 20:27:16.448","","","","","",""
"card-selection-trial","97","381233","0.0-25.0-1.13","A106","true","img/card_backs/set1/yellow.gif","img/card_backs/set1/purple.gif","img/card_backs/set1/green.gif","img/card_backs/set1/red.gif","img/card_backs/set2/orange.gif","img/card_backs/set2/blue.gif","img/card_backs/set2/gray.gif","img/card_backs/set2/pink.gif","""event"",""trial"",""time""
""fullscreenenter"",""1"",""1405""
","
","
","""event"",""trial"",""time""
""fullscreenenter"",""1"",""1405""
","
","","542.249999998603","","","","real_trial","2021-04-03 20:27:19.001","img/card_backs/set1/purple.gif","3","-190","1","",""
"casino-fixation","98","381738","0.0-25.0-0.14","A106","true","img/card_backs/set1/yellow.gif","img/card_backs/set1/purple.gif","img/card_backs/set1/green.gif","img/card_backs/set1/red.gif","img/card_backs/set2/orange.gif","img/card_backs/set2/blue.gif","img/card_backs/set2/gray.gif","img/card_backs/set2/pink.gif","""event"",""trial"",""time""
""fullscreenenter"",""1"",""1405""
","
","
","""event"",""trial"",""time""
""fullscreenenter"",""1"",""1405""
","
","","null","","null","","fixation","2021-04-03 20:27:19.506","","","","","",""
"card-selection-trial","99","384110","0.0-25.0-1.14","A106","true","img/card_backs/set1/yellow.gif","img/card_backs/set1/purple.gif","img/card_backs/set1/green.gif","img/card_backs/set1/red.gif","img/card_backs/set2/orange.gif","img/card_backs/set2/blue.gif","img/card_backs/set2/gray.gif","img/card_backs/set2/pink.gif","""event"",""trial"",""time""
""fullscreenenter"",""1"",""1405""
","
","
","""event"",""trial"",""time""
""fullscreenenter"",""1"",""1405""
","
","","361.2250000005588","","","","real_trial","2021-04-03 20:27:21.878","img/card_backs/set1/purple.gif","1","260","1","",""
"casino-fixation","100","384614","0.0-25.0-0.15","A106","true","img/card_backs/set1/yellow.gif","img/card_backs/set1/purple.gif","img/card_backs/set1/green.gif","img/card_backs/set1/red.gif","img/card_backs/set2/orange.gif","img/card_backs/set2/blue.gif","img/card_backs/set2/gray.gif","img/card_backs/set2/pink.gif","""event"",""trial"",""time""
""fullscreenenter"",""1"",""1405""
","
","
","""event"",""trial"",""time""
""fullscreenenter"",""1"",""1405""
","
","","null","","null","","fixation","2021-04-03 20:27:22.382","","","","","",""
"card-selection-trial","101","388622","0.0-25.0-1.15","A106","true","img/card_backs/set1/yellow.gif","img/card_backs/set1/purple.gif","img/card_backs/set1/green.gif","img/card_backs/set1/red.gif","img/card_backs/set2/orange.gif","img/card_backs/set2/blue.gif","img/card_backs/set2/gray.gif","img/card_backs/set2/pink.gif","""event"",""trial"",""time""
""fullscreenenter"",""1"",""1405""
","
","
","""event"",""trial"",""time""
""fullscreenenter"",""1"",""1405""
","
","","2000.065000000177","","","","real_trial","2021-04-03 20:27:26.390","img/card_backs/set1/red.gif","1","60","1","",""
"casino-fixation","102","389128","0.0-25.0-0.16","A106","true","img/card_backs/set1/yellow.gif","img/card_backs/set1/purple.gif","img/card_backs/set1/green.gif","img/card_backs/set1/red.gif","img/card_backs/set2/orange.gif","img/card_backs/set2/blue.gif","img/card_backs/set2/gray.gif","img/card_backs/set2/pink.gif","""event"",""trial"",""time""
""fullscreenenter"",""1"",""1405""
","
","
","""event"",""trial"",""time""
""fullscreenenter"",""1"",""1405""
","
","","null","","null","","fixation","2021-04-03 20:27:26.896","","","","","",""
"card-selection-trial","103","391919","0.0-25.0-1.16","A106","true","img/card_backs/set1/yellow.gif","img/card_backs/set1/purple.gif","img/card_backs/set1/green.gif","img/card_backs/set1/red.gif","img/card_backs/set2/orange.gif","img/card_backs/set2/blue.gif","img/card_backs/set2/gray.gif","img/card_backs/set2/pink.gif","""event"",""trial"",""time""
""fullscreenenter"",""1"",""1405""
","
","
","""event"",""trial"",""time""
""fullscreenenter"",""1"",""1405""
","
","","782.9349999956321","","","","real_trial","2021-04-03 20:27:29.687","img/card_backs/set1/red.gif","2","60","1","",""
"casino-fixation","104","392424","0.0-25.0-0.17","A106","true","img/card_backs/set1/yellow.gif","img/card_backs/set1/purple.gif","img/card_backs/set1/green.gif","img/card_backs/set1/red.gif","img/card_backs/set2/orange.gif","img/card_backs/set2/blue.gif","img/card_backs/set2/gray.gif","img/card_backs/set2/pink.gif","""event"",""trial"",""time""
""fullscreenenter"",""1"",""1405""
","
","
","""event"",""trial"",""time""
""fullscreenenter"",""1"",""1405""
","
","","null","","null","","fixation","2021-04-03 20:27:30.192","","","","","",""
"card-selection-trial","105","395384","0.0-25.0-1.17","A106","true","img/card_backs/set1/yellow.gif","img/card_backs/set1/purple.gif","img/card_backs/set1/green.gif","img/card_backs/set1/red.gif","img/card_backs/set2/orange.gif","img/card_backs/set2/blue.gif","img/card_backs/set2/gray.gif","img/card_backs/set2/pink.gif","""event"",""trial"",""time""
""fullscreenenter"",""1"",""1405""
","
","
","""event"",""trial"",""time""
""fullscreenenter"",""1"",""1405""
","
","","952.3999999801163","","","","real_trial","2021-04-03 20:27:33.152","img/card_backs/set1/purple.gif","2","-210","1","",""
"casino-fixation","106","395890","0.0-25.0-0.18","A106","true","img/card_backs/set1/yellow.gif","img/card_backs/set1/purple.gif","img/card_backs/set1/green.gif","img/card_backs/set1/red.gif","img/card_backs/set2/orange.gif","img/card_backs/set2/blue.gif","img/card_backs/set2/gray.gif","img/card_backs/set2/pink.gif","""event"",""trial"",""time""
""fullscreenenter"",""1"",""1405""
","
","
","""event"",""trial"",""time""
""fullscreenenter"",""1"",""1405""
","
","","null","","null","","fixation","2021-04-03 20:27:33.658","","","","","",""
"card-selection-trial","107","398696","0.0-25.0-1.18","A106","true","img/card_backs/set1/yellow.gif","img/card_backs/set1/purple.gif","img/card_backs/set1/green.gif","img/card_backs/set1/red.gif","img/card_backs/set2/orange.gif","img/card_backs/set2/blue.gif","img/card_backs/set2/gray.gif","img/card_backs/set2/pink.gif","""event"",""trial"",""time""
""fullscreenenter"",""1"",""1405""
","
","
","""event"",""trial"",""time""
""fullscreenenter"",""1"",""1405""
","
","","798.8750000076834","","","","real_trial","2021-04-03 20:27:36.464","img/card_backs/set1/red.gif","1","-90","1","",""
"casino-fixation","108","399202","0.0-25.0-0.19","A106","true","img/card_backs/set1/yellow.gif","img/card_backs/set1/purple.gif","img/card_backs/set1/green.gif","img/card_backs/set1/red.gif","img/card_backs/set2/orange.gif","img/card_backs/set2/blue.gif","img/card_backs/set2/gray.gif","img/card_backs/set2/pink.gif","""event"",""trial"",""time""
""fullscreenenter"",""1"",""1405""
","
","
","""event"",""trial"",""time""
""fullscreenenter"",""1"",""1405""
","
","","null","","null","","fixation","2021-04-03 20:27:36.970","","","","","",""
"card-selection-trial","109","402133","0.0-25.0-1.19","A106","true","img/card_backs/set1/yellow.gif","img/card_backs/set1/purple.gif","img/card_backs/set1/green.gif","img/card_backs/set1/red.gif","img/card_backs/set2/orange.gif","img/card_backs/set2/blue.gif","img/card_backs/set2/gray.gif","img/card_backs/set2/pink.gif","""event"",""trial"",""time""
""fullscreenenter"",""1"",""1405""
","
","
","""event"",""trial"",""time""
""fullscreenenter"",""1"",""1405""
","
","","923.6299999756739","","","","real_trial","2021-04-03 20:27:39.901","img/card_backs/set1/red.gif","3","50","1","",""
"casino-fixation","110","402637","0.0-25.0-0.20","A106","true","img/card_backs/set1/yellow.gif","img/card_backs/set1/purple.gif","img/card_backs/set1/green.gif","img/card_backs/set1/red.gif","img/card_backs/set2/orange.gif","img/card_backs/set2/blue.gif","img/card_backs/set2/gray.gif","img/card_backs/set2/pink.gif","""event"",""trial"",""time""
""fullscreenenter"",""1"",""1405""
","
","
","""event"",""trial"",""time""
""fullscreenenter"",""1"",""1405""
","
","","null","","null","","fixation","2021-04-03 20:27:40.406","","","","","",""
"card-selection-trial","111","405602","0.0-25.0-1.20","A106","true","img/card_backs/set1/yellow.gif","img/card_backs/set1/purple.gif","img/card_backs/set1/green.gif","img/card_backs/set1/red.gif","img/card_backs/set2/orange.gif","img/card_backs/set2/blue.gif","img/card_backs/set2/gray.gif","img/card_backs/set2/pink.gif","""event"",""trial"",""time""
""fullscreenenter"",""1"",""1405""
","
","
","""event"",""trial"",""time""
""fullscreenenter"",""1"",""1405""
","
","","955.8849999739323","","","","real_trial","2021-04-03 20:27:43.370","img/card_backs/set1/red.gif","0","-100","1","",""
"casino-fixation","112","406107","0.0-25.0-0.21","A106","true","img/card_backs/set1/yellow.gif","img/card_backs/set1/purple.gif","img/card_backs/set1/green.gif","img/card_backs/set1/red.gif","img/card_backs/set2/orange.gif","img/card_backs/set2/blue.gif","img/card_backs/set2/gray.gif","img/card_backs/set2/pink.gif","""event"",""trial"",""time""
""fullscreenenter"",""1"",""1405""
","
","
","""event"",""trial"",""time""
""fullscreenenter"",""1"",""1405""
","
","","null","","null","","fixation","2021-04-03 20:27:43.876","","","","","",""
"card-selection-trial","113","408732","0.0-25.0-1.21","A106","true","img/card_backs/set1/yellow.gif","img/card_backs/set1/purple.gif","img/card_backs/set1/green.gif","img/card_backs/set1/red.gif","img/card_backs/set2/orange.gif","img/card_backs/set2/blue.gif","img/card_backs/set2/gray.gif","img/card_backs/set2/pink.gif","""event"",""trial"",""time""
""fullscreenenter"",""1"",""1405""
","
","
","""event"",""trial"",""time""
""fullscreenenter"",""1"",""1405""
","
","","615.1599999866448","","","","real_trial","2021-04-03 20:27:46.501","img/card_backs/set1/purple.gif","1","250","1","",""
"casino-fixation","114","409238","0.0-25.0-0.22","A106","true","img/card_backs/set1/yellow.gif","img/card_backs/set1/purple.gif","img/card_backs/set1/green.gif","img/card_backs/set1/red.gif","img/card_backs/set2/orange.gif","img/card_backs/set2/blue.gif","img/card_backs/set2/gray.gif","img/card_backs/set2/pink.gif","""event"",""trial"",""time""
""fullscreenenter"",""1"",""1405""
","
","
","""event"",""trial"",""time""
""fullscreenenter"",""1"",""1405""
","
","","null","","null","","fixation","2021-04-03 20:27:47.006","","","","","",""
"card-selection-trial","115","413503","0.0-25.0-1.22","A106","true","img/card_backs/set1/yellow.gif","img/card_backs/set1/purple.gif","img/card_backs/set1/green.gif","img/card_backs/set1/red.gif","img/card_backs/set2/orange.gif","img/card_backs/set2/blue.gif","img/card_backs/set2/gray.gif","img/card_backs/set2/pink.gif","""event"",""trial"",""time""
""fullscreenenter"",""1"",""1405""
","
","
","""event"",""trial"",""time""
""fullscreenenter"",""1"",""1405""
","
","","2254.4599999964703","","","","real_trial","2021-04-03 20:27:51.272","img/card_backs/set1/red.gif","3","60","1","",""
"casino-fixation","116","414007","0.0-25.0-0.23","A106","true","img/card_backs/set1/yellow.gif","img/card_backs/set1/purple.gif","img/card_backs/set1/green.gif","img/card_backs/set1/red.gif","img/card_backs/set2/orange.gif","img/card_backs/set2/blue.gif","img/card_backs/set2/gray.gif","img/card_backs/set2/pink.gif","""event"",""trial"",""time""
""fullscreenenter"",""1"",""1405""
","
","
","""event"",""trial"",""time""
""fullscreenenter"",""1"",""1405""
","
","","null","","null","","fixation","2021-04-03 20:27:51.775","","","","","",""
"card-selection-trial","117","416748","0.0-25.0-1.23","A106","true","img/card_backs/set1/yellow.gif","img/card_backs/set1/purple.gif","img/card_backs/set1/green.gif","img/card_backs/set1/red.gif","img/card_backs/set2/orange.gif","img/card_backs/set2/blue.gif","img/card_backs/set2/gray.gif","img/card_backs/set2/pink.gif","""event"",""trial"",""time""
""fullscreenenter"",""1"",""1405""
","
","
","""event"",""trial"",""time""
""fullscreenenter"",""1"",""1405""
","
","","728.8649999827612","","","","real_trial","2021-04-03 20:27:54.517","img/card_backs/set1/purple.gif","1","240","1","",""
"casino-fixation","118","417255","0.0-25.0-0.24","A106","true","img/card_backs/set1/yellow.gif","img/card_backs/set1/purple.gif","img/card_backs/set1/green.gif","img/card_backs/set1/red.gif","img/card_backs/set2/orange.gif","img/card_backs/set2/blue.gif","img/card_backs/set2/gray.gif","img/card_backs/set2/pink.gif","""event"",""trial"",""time""
""fullscreenenter"",""1"",""1405""
","
","
","""event"",""trial"",""time""
""fullscreenenter"",""1"",""1405""
","
","","null","","null","","fixation","2021-04-03 20:27:55.023","","","","","",""
"card-selection-trial","119","420865","0.0-25.0-1.24","A106","true","img/card_backs/set1/yellow.gif","img/card_backs/set1/purple.gif","img/card_backs/set1/green.gif","img/card_backs/set1/red.gif","img/card_backs/set2/orange.gif","img/card_backs/set2/blue.gif","img/card_backs/set2/gray.gif","img/card_backs/set2/pink.gif","""event"",""trial"",""time""
""fullscreenenter"",""1"",""1405""
","
","
","""event"",""trial"",""time""
""fullscreenenter"",""1"",""1405""
","
","","1602.6549999951385","","","","real_trial","2021-04-03 20:27:58.633","img/card_backs/set1/purple.gif","2","250","1","",""
"casino-fixation","120","421372","0.0-25.0-0.25","A106","true","img/card_backs/set1/yellow.gif","img/card_backs/set1/purple.gif","img/card_backs/set1/green.gif","img/card_backs/set1/red.gif","img/card_backs/set2/orange.gif","img/card_backs/set2/blue.gif","img/card_backs/set2/gray.gif","img/card_backs/set2/pink.gif","""event"",""trial"",""time""
""fullscreenenter"",""1"",""1405""
","
","
","""event"",""trial"",""time""
""fullscreenenter"",""1"",""1405""
","
","","null","","null","","fixation","2021-04-03 20:27:59.140","","","","","",""
"card-selection-trial","121","424290","0.0-25.0-1.25","A106","true","img/card_backs/set1/yellow.gif","img/card_backs/set1/purple.gif","img/card_backs/set1/green.gif","img/card_backs/set1/red.gif","img/card_backs/set2/orange.gif","img/card_backs/set2/blue.gif","img/card_backs/set2/gray.gif","img/card_backs/set2/pink.gif","""event"",""trial"",""time""
""fullscreenenter"",""1"",""1405""
","
","
","""event"",""trial"",""time""
""fullscreenenter"",""1"",""1405""
","
","","910.1800000062212","","","","real_trial","2021-04-03 20:28:02.058","img/card_backs/set1/red.gif","2","-110","1","",""
"casino-fixation","122","424796","0.0-25.0-0.26","A106","true","img/card_backs/set1/yellow.gif","img/card_backs/set1/purple.gif","img/card_backs/set1/green.gif","img/card_backs/set1/red.gif","img/card_backs/set2/orange.gif","img/card_backs/set2/blue.gif","img/card_backs/set2/gray.gif","img/card_backs/set2/pink.gif","""event"",""trial"",""time""
""fullscreenenter"",""1"",""1405""
","
","
","""event"",""trial"",""time""
""fullscreenenter"",""1"",""1405""
","
","","null","","null","","fixation","2021-04-03 20:28:02.564","","","","","",""
"card-selection-trial","123","427377","0.0-25.0-1.26","A106","true","img/card_backs/set1/yellow.gif","img/card_backs/set1/purple.gif","img/card_backs/set1/green.gif","img/card_backs/set1/red.gif","img/card_backs/set2/orange.gif","img/card_backs/set2/blue.gif","img/card_backs/set2/gray.gif","img/card_backs/set2/pink.gif","""event"",""trial"",""time""
""fullscreenenter"",""1"",""1405""
","
","
","""event"",""trial"",""time""
""fullscreenenter"",""1"",""1405""
","
","","572.5849999871571","","","","real_trial","2021-04-03 20:28:05.145","img/card_backs/set1/purple.gif","2","-190","1","",""
"casino-fixation","124","427883","0.0-25.0-0.27","A106","true","img/card_backs/set1/yellow.gif","img/card_backs/set1/purple.gif","img/card_backs/set1/green.gif","img/card_backs/set1/red.gif","img/card_backs/set2/orange.gif","img/card_backs/set2/blue.gif","img/card_backs/set2/gray.gif","img/card_backs/set2/pink.gif","""event"",""trial"",""time""
""fullscreenenter"",""1"",""1405""
","
","
","""event"",""trial"",""time""
""fullscreenenter"",""1"",""1405""
","
","","null","","null","","fixation","2021-04-03 20:28:05.651","","","","","",""
"card-selection-trial","125","430674","0.0-25.0-1.27","A106","true","img/card_backs/set1/yellow.gif","img/card_backs/set1/purple.gif","img/card_backs/set1/green.gif","img/card_backs/set1/red.gif","img/card_backs/set2/orange.gif","img/card_backs/set2/blue.gif","img/card_backs/set2/gray.gif","img/card_backs/set2/pink.gif","""event"",""trial"",""time""
""fullscreenenter"",""1"",""1405""
","
","
","""event"",""trial"",""time""
""fullscreenenter"",""1"",""1405""
","
","","782.6250000216532","","","","real_trial","2021-04-03 20:28:08.442","img/card_backs/set1/red.gif","2","40","1","",""
"casino-fixation","126","431182","0.0-25.0-0.28","A106","true","img/card_backs/set1/yellow.gif","img/card_backs/set1/purple.gif","img/card_backs/set1/green.gif","img/card_backs/set1/red.gif","img/card_backs/set2/orange.gif","img/card_backs/set2/blue.gif","img/card_backs/set2/gray.gif","img/card_backs/set2/pink.gif","""event"",""trial"",""time""
""fullscreenenter"",""1"",""1405""
","
","
","""event"",""trial"",""time""
""fullscreenenter"",""1"",""1405""
","
","","null","","null","","fixation","2021-04-03 20:28:08.950","","","","","",""
"card-selection-trial","127","435584","0.0-25.0-1.28","A106","true","img/card_backs/set1/yellow.gif","img/card_backs/set1/purple.gif","img/card_backs/set1/green.gif","img/card_backs/set1/red.gif","img/card_backs/set2/orange.gif","img/card_backs/set2/blue.gif","img/card_backs/set2/gray.gif","img/card_backs/set2/pink.gif","""event"",""trial"",""time""
""fullscreenenter"",""1"",""1405""
","
","
","""event"",""trial"",""time""
""fullscreenenter"",""1"",""1405""
","
","","2387.669999996433","","","","real_trial","2021-04-03 20:28:13.352","img/card_backs/set1/red.gif","3","60","1","",""
"casino-fixation","128","436091","0.0-25.0-0.29","A106","true","img/card_backs/set1/yellow.gif","img/card_backs/set1/purple.gif","img/card_backs/set1/green.gif","img/card_backs/set1/red.gif","img/card_backs/set2/orange.gif","img/card_backs/set2/blue.gif","img/card_backs/set2/gray.gif","img/card_backs/set2/pink.gif","""event"",""trial"",""time""
""fullscreenenter"",""1"",""1405""
","
","
","""event"",""trial"",""time""
""fullscreenenter"",""1"",""1405""
","
","","null","","null","","fixation","2021-04-03 20:28:13.859","","","","","",""
"card-selection-trial","129","439840","0.0-25.0-1.29","A106","true","img/card_backs/set1/yellow.gif","img/card_backs/set1/purple.gif","img/card_backs/set1/green.gif","img/card_backs/set1/red.gif","img/card_backs/set2/orange.gif","img/card_backs/set2/blue.gif","img/card_backs/set2/gray.gif","img/card_backs/set2/pink.gif","""event"",""trial"",""time""
""fullscreenenter"",""1"",""1405""
","
","
","""event"",""trial"",""time""
""fullscreenenter"",""1"",""1405""
","
","","1733.7600000028033","","","","real_trial","2021-04-03 20:28:17.608","img/card_backs/set1/purple.gif","3","-200","1","",""
"casino-fixation","130","440343","0.0-25.0-0.30","A106","true","img/card_backs/set1/yellow.gif","img/card_backs/set1/purple.gif","img/card_backs/set1/green.gif","img/card_backs/set1/red.gif","img/card_backs/set2/orange.gif","img/card_backs/set2/blue.gif","img/card_backs/set2/gray.gif","img/card_backs/set2/pink.gif","""event"",""trial"",""time""
""fullscreenenter"",""1"",""1405""
","
","
","""event"",""trial"",""time""
""fullscreenenter"",""1"",""1405""
","
","","null","","null","","fixation","2021-04-03 20:28:18.111","","","","","",""
"card-selection-trial","131","442885","0.0-25.0-1.30","A106","true","img/card_backs/set1/yellow.gif","img/card_backs/set1/purple.gif","img/card_backs/set1/green.gif","img/card_backs/set1/red.gif","img/card_backs/set2/orange.gif","img/card_backs/set2/blue.gif","img/card_backs/set2/gray.gif","img/card_backs/set2/pink.gif","""event"",""trial"",""time""
""fullscreenenter"",""1"",""1405""
","
","
","""event"",""trial"",""time""
""fullscreenenter"",""1"",""1405""
","
","","526.834999996936","","","","real_trial","2021-04-03 20:28:20.653","img/card_backs/set1/purple.gif","0","-190","1","",""
"casino-fixation","132","443389","0.0-25.0-0.31","A106","true","img/card_backs/set1/yellow.gif","img/card_backs/set1/purple.gif","img/card_backs/set1/green.gif","img/card_backs/set1/red.gif","img/card_backs/set2/orange.gif","img/card_backs/set2/blue.gif","img/card_backs/set2/gray.gif","img/card_backs/set2/pink.gif","""event"",""trial"",""time""
""fullscreenenter"",""1"",""1405""
","
","
","""event"",""trial"",""time""
""fullscreenenter"",""1"",""1405""
","
","","null","","null","","fixation","2021-04-03 20:28:21.157","","","","","",""
"card-selection-trial","133","446224","0.0-25.0-1.31","A106","true","img/card_backs/set1/yellow.gif","img/card_backs/set1/purple.gif","img/card_backs/set1/green.gif","img/card_backs/set1/red.gif","img/card_backs/set2/orange.gif","img/card_backs/set2/blue.gif","img/card_backs/set2/gray.gif","img/card_backs/set2/pink.gif","""event"",""trial"",""time""
""fullscreenenter"",""1"",""1405""
","
","
","""event"",""trial"",""time""
""fullscreenenter"",""1"",""1405""
","
","","821.1549999832641","","","","real_trial","2021-04-03 20:28:23.992","img/card_backs/set1/red.gif","2","60","1","",""
"casino-fixation","134","446731","0.0-25.0-0.32","A106","true","img/card_backs/set1/yellow.gif","img/card_backs/set1/purple.gif","img/card_backs/set1/green.gif","img/card_backs/set1/red.gif","img/card_backs/set2/orange.gif","img/card_backs/set2/blue.gif","img/card_backs/set2/gray.gif","img/card_backs/set2/pink.gif","""event"",""trial"",""time""
""fullscreenenter"",""1"",""1405""
","
","
","""event"",""trial"",""time""
""fullscreenenter"",""1"",""1405""
","
","","null","","null","","fixation","2021-04-03 20:28:24.499","","","","","",""
"card-selection-trial","135","449377","0.0-25.0-1.32","A106","true","img/card_backs/set1/yellow.gif","img/card_backs/set1/purple.gif","img/card_backs/set1/green.gif","img/card_backs/set1/red.gif","img/card_backs/set2/orange.gif","img/card_backs/set2/blue.gif","img/card_backs/set2/gray.gif","img/card_backs/set2/pink.gif","""event"",""trial"",""time""
""fullscreenenter"",""1"",""1405""
","
","
","""event"",""trial"",""time""
""fullscreenenter"",""1"",""1405""
","
","","633.9500000176486","","","","real_trial","2021-04-03 20:28:27.145","img/card_backs/set1/purple.gif","0","260","1","",""
"casino-fixation","136","449879","0.0-25.0-0.33","A106","true","img/card_backs/set1/yellow.gif","img/card_backs/set1/purple.gif","img/card_backs/set1/green.gif","img/card_backs/set1/red.gif","img/card_backs/set2/orange.gif","img/card_backs/set2/blue.gif","img/card_backs/set2/gray.gif","img/card_backs/set2/pink.gif","""event"",""trial"",""time""
""fullscreenenter"",""1"",""1405""
","
","
","""event"",""trial"",""time""
""fullscreenenter"",""1"",""1405""
","
","","null","","null","","fixation","2021-04-03 20:28:27.647","","","","","",""
"card-selection-trial","137","453493","0.0-25.0-1.33","A106","true","img/card_backs/set1/yellow.gif","img/card_backs/set1/purple.gif","img/card_backs/set1/green.gif","img/card_backs/set1/red.gif","img/card_backs/set2/orange.gif","img/card_backs/set2/blue.gif","img/card_backs/set2/gray.gif","img/card_backs/set2/pink.gif","""event"",""trial"",""time""
""fullscreenenter"",""1"",""1405""
","
","
","""event"",""trial"",""time""
""fullscreenenter"",""1"",""1405""
","
","","1603.094999998575","","","","real_trial","2021-04-03 20:28:31.262","img/card_backs/set1/purple.gif","2","-210","1","",""
"casino-fixation","138","453999","0.0-25.0-0.34","A106","true","img/card_backs/set1/yellow.gif","img/card_backs/set1/purple.gif","img/card_backs/set1/green.gif","img/card_backs/set1/red.gif","img/card_backs/set2/orange.gif","img/card_backs/set2/blue.gif","img/card_backs/set2/gray.gif","img/card_backs/set2/pink.gif","""event"",""trial"",""time""
""fullscreenenter"",""1"",""1405""
","
","
","""event"",""trial"",""time""
""fullscreenenter"",""1"",""1405""
","
","","null","","null","","fixation","2021-04-03 20:28:31.767","","","","","",""
"card-selection-trial","139","456462","0.0-25.0-1.34","A106","true","img/card_backs/set1/yellow.gif","img/card_backs/set1/purple.gif","img/card_backs/set1/green.gif","img/card_backs/set1/red.gif","img/card_backs/set2/orange.gif","img/card_backs/set2/blue.gif","img/card_backs/set2/gray.gif","img/card_backs/set2/pink.gif","""event"",""trial"",""time""
""fullscreenenter"",""1"",""1405""
","
","
","""event"",""trial"",""time""
""fullscreenenter"",""1"",""1405""
","
","","451.35999997728504","","","","real_trial","2021-04-03 20:28:34.230","img/card_backs/set1/red.gif","0","40","1","",""
"casino-fixation","140","456965","0.0-25.0-0.35","A106","true","img/card_backs/set1/yellow.gif","img/card_backs/set1/purple.gif","img/card_backs/set1/green.gif","img/card_backs/set1/red.gif","img/card_backs/set2/orange.gif","img/card_backs/set2/blue.gif","img/card_backs/set2/gray.gif","img/card_backs/set2/pink.gif","""event"",""trial"",""time""
""fullscreenenter"",""1"",""1405""
","
","
","""event"",""trial"",""time""
""fullscreenenter"",""1"",""1405""
","
","","null","","null","","fixation","2021-04-03 20:28:34.733","","","","","",""
"card-selection-trial","141","459515","0.0-25.0-1.35","A106","true","img/card_backs/set1/yellow.gif","img/card_backs/set1/purple.gif","img/card_backs/set1/green.gif","img/card_backs/set1/red.gif","img/card_backs/set2/orange.gif","img/card_backs/set2/blue.gif","img/card_backs/set2/gray.gif","img/card_backs/set2/pink.gif","""event"",""trial"",""time""
""fullscreenenter"",""1"",""1405""
","
","
","""event"",""trial"",""time""
""fullscreenenter"",""1"",""1405""
","
","","539.1150000214111","","","","real_trial","2021-04-03 20:28:37.283","img/card_backs/set1/yellow.gif","2","260","1","",""
"casino-fixation","142","460018","0.0-25.0-0.36","A106","true","img/card_backs/set1/yellow.gif","img/card_backs/set1/purple.gif","img/card_backs/set1/green.gif","img/card_backs/set1/red.gif","img/card_backs/set2/orange.gif","img/card_backs/set2/blue.gif","img/card_backs/set2/gray.gif","img/card_backs/set2/pink.gif","""event"",""trial"",""time""
""fullscreenenter"",""1"",""1405""
","
","
","""event"",""trial"",""time""
""fullscreenenter"",""1"",""1405""
","
","","null","","null","","fixation","2021-04-03 20:28:37.787","","","","","",""
"card-selection-trial","143","462642","0.0-25.0-1.36","A106","true","img/card_backs/set1/yellow.gif","img/card_backs/set1/purple.gif","img/card_backs/set1/green.gif","img/card_backs/set1/red.gif","img/card_backs/set2/orange.gif","img/card_backs/set2/blue.gif","img/card_backs/set2/gray.gif","img/card_backs/set2/pink.gif","""event"",""trial"",""time""
""fullscreenenter"",""1"",""1405""
","
","
","""event"",""trial"",""time""
""fullscreenenter"",""1"",""1405""
","
","","614.4950000161771","","","","real_trial","2021-04-03 20:28:40.410","img/card_backs/set1/yellow.gif","2","-200","1","",""
"casino-fixation","144","463148","0.0-25.0-0.37","A106","true","img/card_backs/set1/yellow.gif","img/card_backs/set1/purple.gif","img/card_backs/set1/green.gif","img/card_backs/set1/red.gif","img/card_backs/set2/orange.gif","img/card_backs/set2/blue.gif","img/card_backs/set2/gray.gif","img/card_backs/set2/pink.gif","""event"",""trial"",""time""
""fullscreenenter"",""1"",""1405""
","
","
","""event"",""trial"",""time""
""fullscreenenter"",""1"",""1405""
","
","","null","","null","","fixation","2021-04-03 20:28:40.916","","","","","",""
"card-selection-trial","145","465858","0.0-25.0-1.37","A106","true","img/card_backs/set1/yellow.gif","img/card_backs/set1/purple.gif","img/card_backs/set1/green.gif","img/card_backs/set1/red.gif","img/card_backs/set2/orange.gif","img/card_backs/set2/blue.gif","img/card_backs/set2/gray.gif","img/card_backs/set2/pink.gif","""event"",""trial"",""time""
""fullscreenenter"",""1"",""1405""
","
","
","""event"",""trial"",""time""
""fullscreenenter"",""1"",""1405""
","
","","700.5449999996927","","","","real_trial","2021-04-03 20:28:43.626","img/card_backs/set1/green.gif","0","60","1","",""
"casino-fixation","146","466366","0.0-25.0-0.38","A106","true","img/card_backs/set1/yellow.gif","img/card_backs/set1/purple.gif","img/card_backs/set1/green.gif","img/card_backs/set1/red.gif","img/card_backs/set2/orange.gif","img/card_backs/set2/blue.gif","img/card_backs/set2/gray.gif","img/card_backs/set2/pink.gif","""event"",""trial"",""time""
""fullscreenenter"",""1"",""1405""
","
","
","""event"",""trial"",""time""
""fullscreenenter"",""1"",""1405""
","
","","null","","null","","fixation","2021-04-03 20:28:44.134","","","","","",""
"card-selection-trial","147","468808","0.0-25.0-1.38","A106","true","img/card_backs/set1/yellow.gif","img/card_backs/set1/purple.gif","img/card_backs/set1/green.gif","img/card_backs/set1/red.gif","img/card_backs/set2/orange.gif","img/card_backs/set2/blue.gif","img/card_backs/set2/gray.gif","img/card_backs/set2/pink.gif","""event"",""trial"",""time""
""fullscreenenter"",""1"",""1405""
","
","
","""event"",""trial"",""time""
""fullscreenenter"",""1"",""1405""
","
","","432.4799999885727","","","","real_trial","2021-04-03 20:28:46.576","img/card_backs/set1/purple.gif","1","240","1","",""
"casino-fixation","148","469314","0.0-25.0-0.39","A106","true","img/card_backs/set1/yellow.gif","img/card_backs/set1/purple.gif","img/card_backs/set1/green.gif","img/card_backs/set1/red.gif","img/card_backs/set2/orange.gif","img/card_backs/set2/blue.gif","img/card_backs/set2/gray.gif","img/card_backs/set2/pink.gif","""event"",""trial"",""time""
""fullscreenenter"",""1"",""1405""
","
","
","""event"",""trial"",""time""
""fullscreenenter"",""1"",""1405""
","
","","null","","null","","fixation","2021-04-03 20:28:47.082","","","","","",""
"card-selection-trial","149","472237","0.0-25.0-1.39","A106","true","img/card_backs/set1/yellow.gif","img/card_backs/set1/purple.gif","img/card_backs/set1/green.gif","img/card_backs/set1/red.gif","img/card_backs/set2/orange.gif","img/card_backs/set2/blue.gif","img/card_backs/set2/gray.gif","img/card_backs/set2/pink.gif","""event"",""trial"",""time""
""fullscreenenter"",""1"",""1405""
","
","
","""event"",""trial"",""time""
""fullscreenenter"",""1"",""1405""
","
","","913.0350000050385","","","","real_trial","2021-04-03 20:28:50.005","img/card_backs/set1/purple.gif","2","-190","1","",""
"casino-fixation","150","472741","0.0-25.0-0.40","A106","true","img/card_backs/set1/yellow.gif","img/card_backs/set1/purple.gif","img/card_backs/set1/green.gif","img/card_backs/set1/red.gif","img/card_backs/set2/orange.gif","img/card_backs/set2/blue.gif","img/card_backs/set2/gray.gif","img/card_backs/set2/pink.gif","""event"",""trial"",""time""
""fullscreenenter"",""1"",""1405""
","
","
","""event"",""trial"",""time""
""fullscreenenter"",""1"",""1405""
","
","","null","","null","","fixation","2021-04-03 20:28:50.509","","","","","",""
"card-selection-trial","151","475246","0.0-25.0-1.40","A106","true","img/card_backs/set1/yellow.gif","img/card_backs/set1/purple.gif","img/card_backs/set1/green.gif","img/card_backs/set1/red.gif","img/card_backs/set2/orange.gif","img/card_backs/set2/blue.gif","img/card_backs/set2/gray.gif","img/card_backs/set2/pink.gif","""event"",""trial"",""time""
""fullscreenenter"",""1"",""1405""
","
","
","""event"",""trial"",""time""
""fullscreenenter"",""1"",""1405""
","
","","495.7099999883212","","","","real_trial","2021-04-03 20:28:53.014","img/card_backs/set1/purple.gif","0","-190","1","",""
"casino-fixation","152","475751","0.0-25.0-0.41","A106","true","img/card_backs/set1/yellow.gif","img/card_backs/set1/purple.gif","img/card_backs/set1/green.gif","img/card_backs/set1/red.gif","img/card_backs/set2/orange.gif","img/card_backs/set2/blue.gif","img/card_backs/set2/gray.gif","img/card_backs/set2/pink.gif","""event"",""trial"",""time""
""fullscreenenter"",""1"",""1405""
","
","
","""event"",""trial"",""time""
""fullscreenenter"",""1"",""1405""
","
","","null","","null","","fixation","2021-04-03 20:28:53.519","","","","","",""
"card-selection-trial","153","478660","0.0-25.0-1.41","A106","true","img/card_backs/set1/yellow.gif","img/card_backs/set1/purple.gif","img/card_backs/set1/green.gif","img/card_backs/set1/red.gif","img/card_backs/set2/orange.gif","img/card_backs/set2/blue.gif","img/card_backs/set2/gray.gif","img/card_backs/set2/pink.gif","""event"",""trial"",""time""
""fullscreenenter"",""1"",""1405""
","
","
","""event"",""trial"",""time""
""fullscreenenter"",""1"",""1405""
","
","","897.5199999986216","","","","real_trial","2021-04-03 20:28:56.428","img/card_backs/set1/yellow.gif","2","-190","1","",""
"casino-fixation","154","479163","0.0-25.0-0.42","A106","true","img/card_backs/set1/yellow.gif","img/card_backs/set1/purple.gif","img/card_backs/set1/green.gif","img/card_backs/set1/red.gif","img/card_backs/set2/orange.gif","img/card_backs/set2/blue.gif","img/card_backs/set2/gray.gif","img/card_backs/set2/pink.gif","""event"",""trial"",""time""
""fullscreenenter"",""1"",""1405""
","
","
","""event"",""trial"",""time""
""fullscreenenter"",""1"",""1405""
","
","","null","","null","","fixation","2021-04-03 20:28:56.931","","","","","",""
"card-selection-trial","155","481720","0.0-25.0-1.42","A106","true","img/card_backs/set1/yellow.gif","img/card_backs/set1/purple.gif","img/card_backs/set1/green.gif","img/card_backs/set1/red.gif","img/card_backs/set2/orange.gif","img/card_backs/set2/blue.gif","img/card_backs/set2/gray.gif","img/card_backs/set2/pink.gif","""event"",""trial"",""time""
""fullscreenenter"",""1"",""1405""
","
","
","""event"",""trial"",""time""
""fullscreenenter"",""1"",""1405""
","
","","546.1749999958556","","","","real_trial","2021-04-03 20:28:59.489","img/card_backs/set1/purple.gif","3","250","1","",""
"casino-fixation","156","482227","0.0-25.0-0.43","A106","true","img/card_backs/set1/yellow.gif","img/card_backs/set1/purple.gif","img/card_backs/set1/green.gif","img/card_backs/set1/red.gif","img/card_backs/set2/orange.gif","img/card_backs/set2/blue.gif","img/card_backs/set2/gray.gif","img/card_backs/set2/pink.gif","""event"",""trial"",""time""
""fullscreenenter"",""1"",""1405""
","
","
","""event"",""trial"",""time""
""fullscreenenter"",""1"",""1405""
","
","","null","","null","","fixation","2021-04-03 20:28:59.995","","","","","",""
"card-selection-trial","157","484868","0.0-25.0-1.43","A106","true","img/card_backs/set1/yellow.gif","img/card_backs/set1/purple.gif","img/card_backs/set1/green.gif","img/card_backs/set1/red.gif","img/card_backs/set2/orange.gif","img/card_backs/set2/blue.gif","img/card_backs/set2/gray.gif","img/card_backs/set2/pink.gif","""event"",""trial"",""time""
""fullscreenenter"",""1"",""1405""
","
","
","""event"",""trial"",""time""
""fullscreenenter"",""1"",""1405""
","
","","629.9400000134483","","","","real_trial","2021-04-03 20:29:02.636","img/card_backs/set1/purple.gif","0","240","1","",""
"casino-fixation","158","485374","0.0-25.0-0.44","A106","true","img/card_backs/set1/yellow.gif","img/card_backs/set1/purple.gif","img/card_backs/set1/green.gif","img/card_backs/set1/red.gif","img/card_backs/set2/orange.gif","img/card_backs/set2/blue.gif","img/card_backs/set2/gray.gif","img/card_backs/set2/pink.gif","""event"",""trial"",""time""
""fullscreenenter"",""1"",""1405""
","
","
","""event"",""trial"",""time""
""fullscreenenter"",""1"",""1405""
","
","","null","","null","","fixation","2021-04-03 20:29:03.142","","","","","",""
"card-selection-trial","159","489353","0.0-25.0-1.44","A106","true","img/card_backs/set1/yellow.gif","img/card_backs/set1/purple.gif","img/card_backs/set1/green.gif","img/card_backs/set1/red.gif","img/card_backs/set2/orange.gif","img/card_backs/set2/blue.gif","img/card_backs/set2/gray.gif","img/card_backs/set2/pink.gif","""event"",""trial"",""time""
""fullscreenenter"",""1"",""1405""
","
","
","""event"",""trial"",""time""
""fullscreenenter"",""1"",""1405""
","
","","1970.4149999888614","","","","real_trial","2021-04-03 20:29:07.121","img/card_backs/set1/yellow.gif","0","260","1","",""
"casino-fixation","160","489857","0.0-25.0-0.45","A106","true","img/card_backs/set1/yellow.gif","img/card_backs/set1/purple.gif","img/card_backs/set1/green.gif","img/card_backs/set1/red.gif","img/card_backs/set2/orange.gif","img/card_backs/set2/blue.gif","img/card_backs/set2/gray.gif","img/card_backs/set2/pink.gif","""event"",""trial"",""time""
""fullscreenenter"",""1"",""1405""
","
","
","""event"",""trial"",""time""
""fullscreenenter"",""1"",""1405""
","
","","null","","null","","fixation","2021-04-03 20:29:07.625","","","","","",""
"card-selection-trial","161","492441","0.0-25.0-1.45","A106","true","img/card_backs/set1/yellow.gif","img/card_backs/set1/purple.gif","img/card_backs/set1/green.gif","img/card_backs/set1/red.gif","img/card_backs/set2/orange.gif","img/card_backs/set2/blue.gif","img/card_backs/set2/gray.gif","img/card_backs/set2/pink.gif","""event"",""trial"",""time""
""fullscreenenter"",""1"",""1405""
","
","
","""event"",""trial"",""time""
""fullscreenenter"",""1"",""1405""
","
","","571.7899999872316","","","","real_trial","2021-04-03 20:29:10.209","img/card_backs/set1/green.gif","1","60","1","",""
"casino-fixation","162","492947","0.0-25.0-0.46","A106","true","img/card_backs/set1/yellow.gif","img/card_backs/set1/purple.gif","img/card_backs/set1/green.gif","img/card_backs/set1/red.gif","img/card_backs/set2/orange.gif","img/card_backs/set2/blue.gif","img/card_backs/set2/gray.gif","img/card_backs/set2/pink.gif","""event"",""trial"",""time""
""fullscreenenter"",""1"",""1405""
","
","
","""event"",""trial"",""time""
""fullscreenenter"",""1"",""1405""
","
","","null","","null","","fixation","2021-04-03 20:29:10.715","","","","","",""
"card-selection-trial","163","496079","0.0-25.0-1.46","A106","true","img/card_backs/set1/yellow.gif","img/card_backs/set1/purple.gif","img/card_backs/set1/green.gif","img/card_backs/set1/red.gif","img/card_backs/set2/orange.gif","img/card_backs/set2/blue.gif","img/card_backs/set2/gray.gif","img/card_backs/set2/pink.gif","""event"",""trial"",""time""
""fullscreenenter"",""1"",""1405""
","
","
","""event"",""trial"",""time""
""fullscreenenter"",""1"",""1405""
","
","","1124.4149999984074","","","","real_trial","2021-04-03 20:29:13.847","img/card_backs/set1/red.gif","0","-90","1","",""
"casino-fixation","164","496584","0.0-25.0-0.47","A106","true","img/card_backs/set1/yellow.gif","img/card_backs/set1/purple.gif","img/card_backs/set1/green.gif","img/card_backs/set1/red.gif","img/card_backs/set2/orange.gif","img/card_backs/set2/blue.gif","img/card_backs/set2/gray.gif","img/card_backs/set2/pink.gif","""event"",""trial"",""time""
""fullscreenenter"",""1"",""1405""
","
","
","""event"",""trial"",""time""
""fullscreenenter"",""1"",""1405""
","
","","null","","null","","fixation","2021-04-03 20:29:14.352","","","","","",""
"card-selection-trial","165","499209","0.0-25.0-1.47","A106","true","img/card_backs/set1/yellow.gif","img/card_backs/set1/purple.gif","img/card_backs/set1/green.gif","img/card_backs/set1/red.gif","img/card_backs/set2/orange.gif","img/card_backs/set2/blue.gif","img/card_backs/set2/gray.gif","img/card_backs/set2/pink.gif","""event"",""trial"",""time""
""fullscreenenter"",""1"",""1405""
","
","
","""event"",""trial"",""time""
""fullscreenenter"",""1"",""1405""
","
","","615.8299999951851","","","","real_trial","2021-04-03 20:29:16.977","img/card_backs/set1/purple.gif","2","-210","1","",""
"casino-fixation","166","499712","0.0-25.0-0.48","A106","true","img/card_backs/set1/yellow.gif","img/card_backs/set1/purple.gif","img/card_backs/set1/green.gif","img/card_backs/set1/red.gif","img/card_backs/set2/orange.gif","img/card_backs/set2/blue.gif","img/card_backs/set2/gray.gif","img/card_backs/set2/pink.gif","""event"",""trial"",""time""
""fullscreenenter"",""1"",""1405""
","
","
","""event"",""trial"",""time""
""fullscreenenter"",""1"",""1405""
","
","","null","","null","","fixation","2021-04-03 20:29:17.480","","","","","",""
