"trial_type","trial_index","time_elapsed","internal_node_id","sub_id","risk_good_first","block1_A","block1_B","block1_C","block1_D","block2_A","block2_B","block2_C","block2_D","interactions","blur_events","focus_events","fullscreenenter_events","fullscreenexit_events","success","rt","stimulus","key_press","button_pressed","task_part","timestamp","card_choice","choice_position","points_earned","block","correct","response"
"pavlovia","0","3","0.0-0.0","519","true","img/card_backs/set1/green.gif","img/card_backs/set1/red.gif","img/card_backs/set1/yellow.gif","img/card_backs/set1/purple.gif","img/card_backs/set2/blue.gif","img/card_backs/set2/pink.gif","img/card_backs/set2/orange.gif","img/card_backs/set2/gray.gif","""event"",""trial"",""time""
""fullscreenenter"",""1"",""7684""
","
","
","""event"",""trial"",""time""
""fullscreenenter"",""1"",""7684""
","
","","","","","","","","","","","","",""
"fullscreen","1","8619","0.0-1.0","519","true","img/card_backs/set1/green.gif","img/card_backs/set1/red.gif","img/card_backs/set1/yellow.gif","img/card_backs/set1/purple.gif","img/card_backs/set2/blue.gif","img/card_backs/set2/pink.gif","img/card_backs/set2/orange.gif","img/card_backs/set2/gray.gif","""event"",""trial"",""time""
""fullscreenenter"",""1"",""7684""
","
","
","""event"",""trial"",""time""
""fullscreenenter"",""1"",""7684""
","
","true","","","","","","","","","","","",""
"audio-keyboard-response","2","13018","0.0-2.0","519","true","img/card_backs/set1/green.gif","img/card_backs/set1/red.gif","img/card_backs/set1/yellow.gif","img/card_backs/set1/purple.gif","img/card_backs/set2/blue.gif","img/card_backs/set2/pink.gif","img/card_backs/set2/orange.gif","img/card_backs/set2/gray.gif","""event"",""trial"",""time""
""fullscreenenter"",""1"",""7684""
","
","
","""event"",""trial"",""time""
""fullscreenenter"",""1"",""7684""
","
","","4267","audio/beep_loop.wav","32","","","","","","","","",""
"audio-button-response","3","16246","0.0-3.0","519","true","img/card_backs/set1/green.gif","img/card_backs/set1/red.gif","img/card_backs/set1/yellow.gif","img/card_backs/set1/purple.gif","img/card_backs/set2/blue.gif","img/card_backs/set2/pink.gif","img/card_backs/set2/orange.gif","img/card_backs/set2/gray.gif","""event"",""trial"",""time""
""fullscreenenter"",""1"",""7684""
","
","
","""event"",""trial"",""time""
""fullscreenenter"",""1"",""7684""
","
","","NaN","audio/turtle.mp3","","3","","","","","","","",""
"audio-button-response","4","18353","0.0-4.0","519","true","img/card_backs/set1/green.gif","img/card_backs/set1/red.gif","img/card_backs/set1/yellow.gif","img/card_backs/set1/purple.gif","img/card_backs/set2/blue.gif","img/card_backs/set2/pink.gif","img/card_backs/set2/orange.gif","img/card_backs/set2/gray.gif","""event"",""trial"",""time""
""fullscreenenter"",""1"",""7684""
","
","
","""event"",""trial"",""time""
""fullscreenenter"",""1"",""7684""
","
","","NaN","audio/shark.mp3","","2","","","","","","","",""
"fullscreen","5","22755","0.0-5.0","519","true","img/card_backs/set1/green.gif","img/card_backs/set1/red.gif","img/card_backs/set1/yellow.gif","img/card_backs/set1/purple.gif","img/card_backs/set2/blue.gif","img/card_backs/set2/pink.gif","img/card_backs/set2/orange.gif","img/card_backs/set2/gray.gif","""event"",""trial"",""time""
""fullscreenenter"",""1"",""7684""
","
","
","""event"",""trial"",""time""
""fullscreenenter"",""1"",""7684""
","
","true","","","","","","","","","","","",""
"casino-keyboard-response","6","26262","0.0-6.0-0.0","519","true","img/card_backs/set1/green.gif","img/card_backs/set1/red.gif","img/card_backs/set1/yellow.gif","img/card_backs/set1/purple.gif","img/card_backs/set2/blue.gif","img/card_backs/set2/pink.gif","img/card_backs/set2/orange.gif","img/card_backs/set2/gray.gif","""event"",""trial"",""time""
""fullscreenenter"",""1"",""7684""
","
","
","""event"",""trial"",""time""
""fullscreenenter"",""1"",""7684""
","
","","3503","Welcome to the casino!","71","","instructions","2021-06-15 21:02:02.717","","","","","",""
"casino-keyboard-response","7","36301","0.0-6.0-0.1","519","true","img/card_backs/set1/green.gif","img/card_backs/set1/red.gif","img/card_backs/set1/yellow.gif","img/card_backs/set1/purple.gif","img/card_backs/set2/blue.gif","img/card_backs/set2/pink.gif","img/card_backs/set2/orange.gif","img/card_backs/set2/gray.gif","""event"",""trial"",""time""
""fullscreenenter"",""1"",""7684""
","
","
","""event"",""trial"",""time""
""fullscreenenter"",""1"",""7684""
","
","","10037.599999904633","Today you will be playing a game to earn tokens. </br> At the end of the experiment, you will be paid a bonus based on how many tokens you win. ","69","","instructions","2021-06-15 21:02:12.756","","","","","",""
"casino-keyboard-response","8","45662","0.0-6.0-0.2","519","true","img/card_backs/set1/green.gif","img/card_backs/set1/red.gif","img/card_backs/set1/yellow.gif","img/card_backs/set1/purple.gif","img/card_backs/set2/blue.gif","img/card_backs/set2/pink.gif","img/card_backs/set2/orange.gif","img/card_backs/set2/gray.gif","""event"",""trial"",""time""
""fullscreenenter"",""1"",""7684""
","
","
","""event"",""trial"",""time""
""fullscreenenter"",""1"",""7684""
","
","","9357.899999976158","On every turn, you will be shown four different decks of cards. </br> You need to select a card from one of the four decks.  ","75","","instructions","2021-06-15 21:02:22.117","","","","","",""
"casino-keyboard-response","9","50666","0.0-6.0-0.3","519","true","img/card_backs/set1/green.gif","img/card_backs/set1/red.gif","img/card_backs/set1/yellow.gif","img/card_backs/set1/purple.gif","img/card_backs/set2/blue.gif","img/card_backs/set2/pink.gif","img/card_backs/set2/orange.gif","img/card_backs/set2/gray.gif","""event"",""trial"",""time""
""fullscreenenter"",""1"",""7684""
","
","
","""event"",""trial"",""time""
""fullscreenenter"",""1"",""7684""
","
","","5000.600000023842","On the next screen, you will see what the decks will look like. ","66","","instructions","2021-06-15 21:02:27.121","","","","","",""
"card-selection-trial","10","54672","0.0-7.0-0.0","519","true","img/card_backs/set1/green.gif","img/card_backs/set1/red.gif","img/card_backs/set1/yellow.gif","img/card_backs/set1/purple.gif","img/card_backs/set2/blue.gif","img/card_backs/set2/pink.gif","img/card_backs/set2/orange.gif","img/card_backs/set2/gray.gif","""event"",""trial"",""time""
""fullscreenenter"",""1"",""7684""
","
","
","""event"",""trial"",""time""
""fullscreenenter"",""1"",""7684""
","
","","null","","","","practice","2021-06-15 21:02:31.128","null","null","null","0","",""
"casino-keyboard-response","11","61993","0.0-8.0-0.0","519","true","img/card_backs/set1/green.gif","img/card_backs/set1/red.gif","img/card_backs/set1/yellow.gif","img/card_backs/set1/purple.gif","img/card_backs/set2/blue.gif","img/card_backs/set2/pink.gif","img/card_backs/set2/orange.gif","img/card_backs/set2/gray.gif","""event"",""trial"",""time""
""fullscreenenter"",""1"",""7684""
","
","
","""event"",""trial"",""time""
""fullscreenenter"",""1"",""7684""
","
","","7318.600000023842","You should pick a card from a deck using the '2', '4', '6', and '8' keys at the top of the keyboard.","85","","instructions","2021-06-15 21:02:38.448","","","","","",""
"casino-keyboard-response","12","67142","0.0-8.0-0.1","519","true","img/card_backs/set1/green.gif","img/card_backs/set1/red.gif","img/card_backs/set1/yellow.gif","img/card_backs/set1/purple.gif","img/card_backs/set2/blue.gif","img/card_backs/set2/pink.gif","img/card_backs/set2/orange.gif","img/card_backs/set2/gray.gif","""event"",""trial"",""time""
""fullscreenenter"",""1"",""7684""
","
","
","""event"",""trial"",""time""
""fullscreenenter"",""1"",""7684""
","
","","5147.100000023842","Once you select a card, it will turn over and you will see how many tokens you earned.","83","","instructions","2021-06-15 21:02:43.598","","","","","",""
"casino-keyboard-response","13","81852","0.0-8.0-0.2","519","true","img/card_backs/set1/green.gif","img/card_backs/set1/red.gif","img/card_backs/set1/yellow.gif","img/card_backs/set1/purple.gif","img/card_backs/set2/blue.gif","img/card_backs/set2/pink.gif","img/card_backs/set2/orange.gif","img/card_backs/set2/gray.gif","""event"",""trial"",""time""
""fullscreenenter"",""1"",""7684""
","
","
","""event"",""trial"",""time""
""fullscreenenter"",""1"",""7684""
","
","","14705.899999976158","Let's try practicing that! </br> First, try to put your fingers over the '2', '4', '6', and '8' keys. </br>  You can use whatever fingers are most comfortable for you. Try to find a comfortable position now. ","50","","instructions","2021-06-15 21:02:58.307","","","","","",""
"casino-keyboard-response","14","116117","0.0-8.0-0.3","519","true","img/card_backs/set1/green.gif","img/card_backs/set1/red.gif","img/card_backs/set1/yellow.gif","img/card_backs/set1/purple.gif","img/card_backs/set2/blue.gif","img/card_backs/set2/pink.gif","img/card_backs/set2/orange.gif","img/card_backs/set2/gray.gif","""event"",""trial"",""time""
""fullscreenenter"",""1"",""7684""
","
","
","""event"",""trial"",""time""
""fullscreenenter"",""1"",""7684""
","
","","34262","Okay ready? </br> On the next screen, press '2' to select the left deck. ","50","","instructions","2021-06-15 21:03:32.572","","","","","",""
"card-selection-trial","15","119414","0.0-9.0-0.0","519","true","img/card_backs/set1/green.gif","img/card_backs/set1/red.gif","img/card_backs/set1/yellow.gif","img/card_backs/set1/purple.gif","img/card_backs/set2/blue.gif","img/card_backs/set2/pink.gif","img/card_backs/set2/orange.gif","img/card_backs/set2/gray.gif","""event"",""trial"",""time""
""fullscreenenter"",""1"",""7684""
","
","
","""event"",""trial"",""time""
""fullscreenenter"",""1"",""7684""
","
","","1278.3999999761581","","","","practice_card_selection","2021-06-15 21:03:35.869","img/practice_cards/backs/dark_green.gif","0","200","","",""
"casino-keyboard-response","16","125418","0.0-10.0-0.0","519","true","img/card_backs/set1/green.gif","img/card_backs/set1/red.gif","img/card_backs/set1/yellow.gif","img/card_backs/set1/purple.gif","img/card_backs/set2/blue.gif","img/card_backs/set2/pink.gif","img/card_backs/set2/orange.gif","img/card_backs/set2/gray.gif","""event"",""trial"",""time""
""fullscreenenter"",""1"",""7684""
","
","
","""event"",""trial"",""time""
""fullscreenenter"",""1"",""7684""
","
","","6002.799999952316","Great! Now on the next screen, try pressing '6' to select the third deck.","54","","instructions","2021-06-15 21:03:41.874","","","","","",""
"card-selection-trial","17","128112","0.0-11.0-0.0","519","true","img/card_backs/set1/green.gif","img/card_backs/set1/red.gif","img/card_backs/set1/yellow.gif","img/card_backs/set1/purple.gif","img/card_backs/set2/blue.gif","img/card_backs/set2/pink.gif","img/card_backs/set2/orange.gif","img/card_backs/set2/gray.gif","""event"",""trial"",""time""
""fullscreenenter"",""1"",""7684""
","
","
","""event"",""trial"",""time""
""fullscreenenter"",""1"",""7684""
","
","","684.5","","","","practice_card_selection","2021-06-15 21:03:44.567","img/practice_cards/backs/dark_blue.gif","2","-200","","",""
"casino-keyboard-response","18","132649","0.0-12.0-0.0","519","true","img/card_backs/set1/green.gif","img/card_backs/set1/red.gif","img/card_backs/set1/yellow.gif","img/card_backs/set1/purple.gif","img/card_backs/set2/blue.gif","img/card_backs/set2/pink.gif","img/card_backs/set2/orange.gif","img/card_backs/set2/gray.gif","""event"",""trial"",""time""
""fullscreenenter"",""1"",""7684""
","
","
","""event"",""trial"",""time""
""fullscreenenter"",""1"",""7684""
","
","","4535.699999928474","Now on the next screen, try pressing '4' to select the second deck.","52","","instructions","2021-06-15 21:03:49.104","","","","","",""
"card-selection-trial","19","135083","0.0-13.0-0.0","519","true","img/card_backs/set1/green.gif","img/card_backs/set1/red.gif","img/card_backs/set1/yellow.gif","img/card_backs/set1/purple.gif","img/card_backs/set2/blue.gif","img/card_backs/set2/pink.gif","img/card_backs/set2/orange.gif","img/card_backs/set2/gray.gif","""event"",""trial"",""time""
""fullscreenenter"",""1"",""7684""
","
","
","""event"",""trial"",""time""
""fullscreenenter"",""1"",""7684""
","
","","423.7999999523163","","","","practice_card_selection","2021-06-15 21:03:51.538","img/practice_cards/backs/dark_green.gif","1","200","","",""
"casino-keyboard-response","20","139485","0.0-14.0-0.0","519","true","img/card_backs/set1/green.gif","img/card_backs/set1/red.gif","img/card_backs/set1/yellow.gif","img/card_backs/set1/purple.gif","img/card_backs/set2/blue.gif","img/card_backs/set2/pink.gif","img/card_backs/set2/orange.gif","img/card_backs/set2/gray.gif","""event"",""trial"",""time""
""fullscreenenter"",""1"",""7684""
","
","
","""event"",""trial"",""time""
""fullscreenenter"",""1"",""7684""
","
","","4400.199999928474","Finally, try pressing '8' to select the deck all the way on the right.","56","","instructions","2021-06-15 21:03:55.940","","","","","",""
"card-selection-trial","21","142183","0.0-15.0-0.0","519","true","img/card_backs/set1/green.gif","img/card_backs/set1/red.gif","img/card_backs/set1/yellow.gif","img/card_backs/set1/purple.gif","img/card_backs/set2/blue.gif","img/card_backs/set2/pink.gif","img/card_backs/set2/orange.gif","img/card_backs/set2/gray.gif","""event"",""trial"",""time""
""fullscreenenter"",""1"",""7684""
","
","
","""event"",""trial"",""time""
""fullscreenenter"",""1"",""7684""
","
","","693.6999999284744","","","","practice_card_selection","2021-06-15 21:03:58.638","img/practice_cards/backs/dark_blue.gif","3","-200","","",""
"casino-keyboard-response","22","145573","0.0-16.0-0.0","519","true","img/card_backs/set1/green.gif","img/card_backs/set1/red.gif","img/card_backs/set1/yellow.gif","img/card_backs/set1/purple.gif","img/card_backs/set2/blue.gif","img/card_backs/set2/pink.gif","img/card_backs/set2/orange.gif","img/card_backs/set2/gray.gif","""event"",""trial"",""time""
""fullscreenenter"",""1"",""7684""
","
","
","""event"",""trial"",""time""
""fullscreenenter"",""1"",""7684""
","
","","3388.1999999284744","Great! It seems like you are getting the hang of this.","80","","instructions","2021-06-15 21:04:02.028","","","","","",""
"casino-keyboard-response","23","152782","0.0-16.0-0.1","519","true","img/card_backs/set1/green.gif","img/card_backs/set1/red.gif","img/card_backs/set1/yellow.gif","img/card_backs/set1/purple.gif","img/card_backs/set2/blue.gif","img/card_backs/set2/pink.gif","img/card_backs/set2/orange.gif","img/card_backs/set2/gray.gif","""event"",""trial"",""time""
""fullscreenenter"",""1"",""7684""
","
","
","""event"",""trial"",""time""
""fullscreenenter"",""1"",""7684""
","
","","7207","You may have noticed that some cards will cause you to <b> win </b> tokens while other cards will cause you to <b> lose </b>  tokens.","70","","instructions","2021-06-15 21:04:09.237","","","","","",""
"casino-keyboard-response","24","161047","0.0-16.0-0.2","519","true","img/card_backs/set1/green.gif","img/card_backs/set1/red.gif","img/card_backs/set1/yellow.gif","img/card_backs/set1/purple.gif","img/card_backs/set2/blue.gif","img/card_backs/set2/pink.gif","img/card_backs/set2/orange.gif","img/card_backs/set2/gray.gif","""event"",""trial"",""time""
""fullscreenenter"",""1"",""7684""
","
","
","""event"",""trial"",""time""
""fullscreenenter"",""1"",""7684""
","
","","8262.600000023842","Each deck has a mix of cards that will cause you to win and lose tokens. </br> However, the cards in each colored deck are different.","73","","instructions","2021-06-15 21:04:17.502","","","","","",""
"casino-keyboard-response","25","170184","0.0-16.0-0.3","519","true","img/card_backs/set1/green.gif","img/card_backs/set1/red.gif","img/card_backs/set1/yellow.gif","img/card_backs/set1/purple.gif","img/card_backs/set2/blue.gif","img/card_backs/set2/pink.gif","img/card_backs/set2/orange.gif","img/card_backs/set2/gray.gif","""event"",""trial"",""time""
""fullscreenenter"",""1"",""7684""
","
","
","""event"",""trial"",""time""
""fullscreenenter"",""1"",""7684""
","
","","9134.300000071526","Some colored decks are luckier than others. </br> If you choose the lucky decks, you will earn more tokens than if you choose the unlucky decks.","69","","instructions","2021-06-15 21:04:26.639","","","","","",""
"casino-keyboard-response","26","177413","0.0-16.0-0.4","519","true","img/card_backs/set1/green.gif","img/card_backs/set1/red.gif","img/card_backs/set1/yellow.gif","img/card_backs/set1/purple.gif","img/card_backs/set2/blue.gif","img/card_backs/set2/pink.gif","img/card_backs/set2/orange.gif","img/card_backs/set2/gray.gif","""event"",""trial"",""time""
""fullscreenenter"",""1"",""7684""
","
","
","""event"",""trial"",""time""
""fullscreenenter"",""1"",""7684""
","
","","7226.900000095367","You should try to figure out which decks are lucky. </br> Then, try to choose the lucky decks so you can win the most tokens.","87","","instructions","2021-06-15 21:04:33.869","","","","","",""
"casino-keyboard-response","27","188571","0.0-16.0-0.5","519","true","img/card_backs/set1/green.gif","img/card_backs/set1/red.gif","img/card_backs/set1/yellow.gif","img/card_backs/set1/purple.gif","img/card_backs/set2/blue.gif","img/card_backs/set2/pink.gif","img/card_backs/set2/orange.gif","img/card_backs/set2/gray.gif","""event"",""trial"",""time""
""fullscreenenter"",""1"",""7684""
","
","
","""event"",""trial"",""time""
""fullscreenenter"",""1"",""7684""
","
","","11154.700000047684","To make it trickier, the casino dealer will switch the locations of the decks on every turn. </br> The color of the deck determines how lucky it is. The location does not matter.","88","","instructions","2021-06-15 21:04:45.027","","","","","",""
"casino-keyboard-response","28","197813","0.0-16.0-0.6","519","true","img/card_backs/set1/green.gif","img/card_backs/set1/red.gif","img/card_backs/set1/yellow.gif","img/card_backs/set1/purple.gif","img/card_backs/set2/blue.gif","img/card_backs/set2/pink.gif","img/card_backs/set2/orange.gif","img/card_backs/set2/gray.gif","""event"",""trial"",""time""
""fullscreenenter"",""1"",""7684""
","
","
","""event"",""trial"",""time""
""fullscreenenter"",""1"",""7684""
","
","","9238.399999976158","The mix of cards in each colored deck will stay the same throughout the game. </br> That means that a deck that is lucky early on will stay lucky.","79","","instructions","2021-06-15 21:04:54.268","","","","","",""
"casino-keyboard-response","29","205985","0.0-16.0-0.7","519","true","img/card_backs/set1/green.gif","img/card_backs/set1/red.gif","img/card_backs/set1/yellow.gif","img/card_backs/set1/purple.gif","img/card_backs/set2/blue.gif","img/card_backs/set2/pink.gif","img/card_backs/set2/orange.gif","img/card_backs/set2/gray.gif","""event"",""trial"",""time""
""fullscreenenter"",""1"",""7684""
","
","
","""event"",""trial"",""time""
""fullscreenenter"",""1"",""7684""
","
","","8169.5","Remember though, all the decks have a <b> mix </b> of both <b> good </b> and <b> bad </b> cards so it may take a couple of turns to figure out if a deck is lucky.","69","","instructions","2021-06-15 21:05:02.441","","","","","",""
"casino-keyboard-response","30","214202","0.0-16.0-0.8","519","true","img/card_backs/set1/green.gif","img/card_backs/set1/red.gif","img/card_backs/set1/yellow.gif","img/card_backs/set1/purple.gif","img/card_backs/set2/blue.gif","img/card_backs/set2/pink.gif","img/card_backs/set2/orange.gif","img/card_backs/set2/gray.gif","""event"",""trial"",""time""
""fullscreenenter"",""1"",""7684""
","
","
","""event"",""trial"",""time""
""fullscreenenter"",""1"",""7684""
","
","","8214.299999952316","At the end of the game, you will be paid bonus money based on how many tokens you win. </br> If you win more tokens, you will earn more money!","72","","instructions","2021-06-15 21:05:10.657","","","","","",""
"casino-keyboard-response","31","224242","0.0-16.0-0.9","519","true","img/card_backs/set1/green.gif","img/card_backs/set1/red.gif","img/card_backs/set1/yellow.gif","img/card_backs/set1/purple.gif","img/card_backs/set2/blue.gif","img/card_backs/set2/pink.gif","img/card_backs/set2/orange.gif","img/card_backs/set2/gray.gif","""event"",""trial"",""time""
""fullscreenenter"",""1"",""7684""
","
","
","""event"",""trial"",""time""
""fullscreenenter"",""1"",""7684""
","
","","10036.799999952316","You will never <b> lose </b> money. </br> If you end up with fewer than 0 tokens, you will earn $0 of bonus money, but you will still be paid for playing the game.","83","","instructions","2021-06-15 21:05:20.697","","","","","",""
"casino-keyboard-response","32","228335","0.0-16.0-0.10","519","true","img/card_backs/set1/green.gif","img/card_backs/set1/red.gif","img/card_backs/set1/yellow.gif","img/card_backs/set1/purple.gif","img/card_backs/set2/blue.gif","img/card_backs/set2/pink.gif","img/card_backs/set2/orange.gif","img/card_backs/set2/gray.gif","""event"",""trial"",""time""
""fullscreenenter"",""1"",""7684""
","
","
","""event"",""trial"",""time""
""fullscreenenter"",""1"",""7684""
","
","","4090.899999976158","You will have 10 seconds to make each choice.","82","","instructions","2021-06-15 21:05:24.790","","","","","",""
"casino-keyboard-response","33","236802","0.0-16.0-0.11","519","true","img/card_backs/set1/green.gif","img/card_backs/set1/red.gif","img/card_backs/set1/yellow.gif","img/card_backs/set1/purple.gif","img/card_backs/set2/blue.gif","img/card_backs/set2/pink.gif","img/card_backs/set2/orange.gif","img/card_backs/set2/gray.gif","""event"",""trial"",""time""
""fullscreenenter"",""1"",""7684""
","
","
","""event"",""trial"",""time""
""fullscreenenter"",""1"",""7684""
","
","","8464.400000095367","Before you play the game for real, you will play with practice decks. </br> The tokens you earn during practice won't count toward your total.","86","","instructions","2021-06-15 21:05:33.257","","","","","",""
"casino-keyboard-response","34","248209","0.0-16.0-0.12","519","true","img/card_backs/set1/green.gif","img/card_backs/set1/red.gif","img/card_backs/set1/yellow.gif","img/card_backs/set1/purple.gif","img/card_backs/set2/blue.gif","img/card_backs/set2/pink.gif","img/card_backs/set2/orange.gif","img/card_backs/set2/gray.gif","""event"",""trial"",""time""
""fullscreenenter"",""1"",""7684""
","
","
","""event"",""trial"",""time""
""fullscreenenter"",""1"",""7684""
","
","","11404.100000023842","Ready? Remember, use the '2', '4', '6', and '8' keys to select the decks. </br> Put your fingers on those keys now and then press '2' to begin.","50","","instructions","2021-06-15 21:05:44.664","","","","","",""
"casino-fixation","35","248713","0.0-17.0-0.0","519","true","img/card_backs/set1/green.gif","img/card_backs/set1/red.gif","img/card_backs/set1/yellow.gif","img/card_backs/set1/purple.gif","img/card_backs/set2/blue.gif","img/card_backs/set2/pink.gif","img/card_backs/set2/orange.gif","img/card_backs/set2/gray.gif","""event"",""trial"",""time""
""fullscreenenter"",""1"",""7684""
","
","
","""event"",""trial"",""time""
""fullscreenenter"",""1"",""7684""
","
","","null","","null","","fixation","2021-06-15 21:05:45.169","","","","","",""
"card-selection-trial","36","253476","0.0-17.0-1.0","519","true","img/card_backs/set1/green.gif","img/card_backs/set1/red.gif","img/card_backs/set1/yellow.gif","img/card_backs/set1/purple.gif","img/card_backs/set2/blue.gif","img/card_backs/set2/pink.gif","img/card_backs/set2/orange.gif","img/card_backs/set2/gray.gif","""event"",""trial"",""time""
""fullscreenenter"",""1"",""7684""
","
","
","""event"",""trial"",""time""
""fullscreenenter"",""1"",""7684""
","
","","2753.399999976158","","","","practice","2021-06-15 21:05:49.931","img/practice_cards/backs/brown.gif","2","-100","0","",""
"casino-fixation","37","253979","0.0-17.0-0.1","519","true","img/card_backs/set1/green.gif","img/card_backs/set1/red.gif","img/card_backs/set1/yellow.gif","img/card_backs/set1/purple.gif","img/card_backs/set2/blue.gif","img/card_backs/set2/pink.gif","img/card_backs/set2/orange.gif","img/card_backs/set2/gray.gif","""event"",""trial"",""time""
""fullscreenenter"",""1"",""7684""
","
","
","""event"",""trial"",""time""
""fullscreenenter"",""1"",""7684""
","
","","null","","null","","fixation","2021-06-15 21:05:50.434","","","","","",""
"card-selection-trial","38","256489","0.0-17.0-1.1","519","true","img/card_backs/set1/green.gif","img/card_backs/set1/red.gif","img/card_backs/set1/yellow.gif","img/card_backs/set1/purple.gif","img/card_backs/set2/blue.gif","img/card_backs/set2/pink.gif","img/card_backs/set2/orange.gif","img/card_backs/set2/gray.gif","""event"",""trial"",""time""
""fullscreenenter"",""1"",""7684""
","
","
","""event"",""trial"",""time""
""fullscreenenter"",""1"",""7684""
","
","","503.2000000476837","","","","practice","2021-06-15 21:05:52.944","img/practice_cards/backs/brown.gif","1","100","0","",""
"casino-fixation","39","256991","0.0-17.0-0.2","519","true","img/card_backs/set1/green.gif","img/card_backs/set1/red.gif","img/card_backs/set1/yellow.gif","img/card_backs/set1/purple.gif","img/card_backs/set2/blue.gif","img/card_backs/set2/pink.gif","img/card_backs/set2/orange.gif","img/card_backs/set2/gray.gif","""event"",""trial"",""time""
""fullscreenenter"",""1"",""7684""
","
","
","""event"",""trial"",""time""
""fullscreenenter"",""1"",""7684""
","
","","null","","null","","fixation","2021-06-15 21:05:53.447","","","","","",""
"card-selection-trial","40","259384","0.0-17.0-1.2","519","true","img/card_backs/set1/green.gif","img/card_backs/set1/red.gif","img/card_backs/set1/yellow.gif","img/card_backs/set1/purple.gif","img/card_backs/set2/blue.gif","img/card_backs/set2/pink.gif","img/card_backs/set2/orange.gif","img/card_backs/set2/gray.gif","""event"",""trial"",""time""
""fullscreenenter"",""1"",""7684""
","
","
","""event"",""trial"",""time""
""fullscreenenter"",""1"",""7684""
","
","","383.7000000476837","","","","practice","2021-06-15 21:05:55.839","img/practice_cards/backs/dark_green.gif","1","200","0","",""
"casino-fixation","41","259888","0.0-17.0-0.3","519","true","img/card_backs/set1/green.gif","img/card_backs/set1/red.gif","img/card_backs/set1/yellow.gif","img/card_backs/set1/purple.gif","img/card_backs/set2/blue.gif","img/card_backs/set2/pink.gif","img/card_backs/set2/orange.gif","img/card_backs/set2/gray.gif","""event"",""trial"",""time""
""fullscreenenter"",""1"",""7684""
","
","
","""event"",""trial"",""time""
""fullscreenenter"",""1"",""7684""
","
","","null","","null","","fixation","2021-06-15 21:05:56.343","","","","","",""
"card-selection-trial","42","262302","0.0-17.0-1.3","519","true","img/card_backs/set1/green.gif","img/card_backs/set1/red.gif","img/card_backs/set1/yellow.gif","img/card_backs/set1/purple.gif","img/card_backs/set2/blue.gif","img/card_backs/set2/pink.gif","img/card_backs/set2/orange.gif","img/card_backs/set2/gray.gif","""event"",""trial"",""time""
""fullscreenenter"",""1"",""7684""
","
","
","""event"",""trial"",""time""
""fullscreenenter"",""1"",""7684""
","
","","406.7000000476837","","","","practice","2021-06-15 21:05:58.757","img/practice_cards/backs/black.gif","1","-100","0","",""
"casino-fixation","43","262808","0.0-17.0-0.4","519","true","img/card_backs/set1/green.gif","img/card_backs/set1/red.gif","img/card_backs/set1/yellow.gif","img/card_backs/set1/purple.gif","img/card_backs/set2/blue.gif","img/card_backs/set2/pink.gif","img/card_backs/set2/orange.gif","img/card_backs/set2/gray.gif","""event"",""trial"",""time""
""fullscreenenter"",""1"",""7684""
","
","
","""event"",""trial"",""time""
""fullscreenenter"",""1"",""7684""
","
","","null","","null","","fixation","2021-06-15 21:05:59.263","","","","","",""
"card-selection-trial","44","265229","0.0-17.0-1.4","519","true","img/card_backs/set1/green.gif","img/card_backs/set1/red.gif","img/card_backs/set1/yellow.gif","img/card_backs/set1/purple.gif","img/card_backs/set2/blue.gif","img/card_backs/set2/pink.gif","img/card_backs/set2/orange.gif","img/card_backs/set2/gray.gif","""event"",""trial"",""time""
""fullscreenenter"",""1"",""7684""
","
","
","""event"",""trial"",""time""
""fullscreenenter"",""1"",""7684""
","
","","414.7999999523163","","","","practice","2021-06-15 21:06:01.684","img/practice_cards/backs/dark_blue.gif","1","-200","0","",""
"casino-fixation","45","265734","0.0-17.0-0.5","519","true","img/card_backs/set1/green.gif","img/card_backs/set1/red.gif","img/card_backs/set1/yellow.gif","img/card_backs/set1/purple.gif","img/card_backs/set2/blue.gif","img/card_backs/set2/pink.gif","img/card_backs/set2/orange.gif","img/card_backs/set2/gray.gif","""event"",""trial"",""time""
""fullscreenenter"",""1"",""7684""
","
","
","""event"",""trial"",""time""
""fullscreenenter"",""1"",""7684""
","
","","null","","null","","fixation","2021-06-15 21:06:02.189","","","","","",""
"card-selection-trial","46","268126","0.0-17.0-1.5","519","true","img/card_backs/set1/green.gif","img/card_backs/set1/red.gif","img/card_backs/set1/yellow.gif","img/card_backs/set1/purple.gif","img/card_backs/set2/blue.gif","img/card_backs/set2/pink.gif","img/card_backs/set2/orange.gif","img/card_backs/set2/gray.gif","""event"",""trial"",""time""
""fullscreenenter"",""1"",""7684""
","
","
","""event"",""trial"",""time""
""fullscreenenter"",""1"",""7684""
","
","","382.5","","","","practice","2021-06-15 21:06:04.581","img/practice_cards/backs/brown.gif","1","100","0","",""
"casino-fixation","47","268631","0.0-17.0-0.6","519","true","img/card_backs/set1/green.gif","img/card_backs/set1/red.gif","img/card_backs/set1/yellow.gif","img/card_backs/set1/purple.gif","img/card_backs/set2/blue.gif","img/card_backs/set2/pink.gif","img/card_backs/set2/orange.gif","img/card_backs/set2/gray.gif","""event"",""trial"",""time""
""fullscreenenter"",""1"",""7684""
","
","
","""event"",""trial"",""time""
""fullscreenenter"",""1"",""7684""
","
","","null","","null","","fixation","2021-06-15 21:06:05.086","","","","","",""
"card-selection-trial","48","271660","0.0-17.0-1.6","519","true","img/card_backs/set1/green.gif","img/card_backs/set1/red.gif","img/card_backs/set1/yellow.gif","img/card_backs/set1/purple.gif","img/card_backs/set2/blue.gif","img/card_backs/set2/pink.gif","img/card_backs/set2/orange.gif","img/card_backs/set2/gray.gif","""event"",""trial"",""time""
""fullscreenenter"",""1"",""7684""
","
","
","""event"",""trial"",""time""
""fullscreenenter"",""1"",""7684""
","
","","1021.5999999046326","","","","practice","2021-06-15 21:06:08.115","img/practice_cards/backs/dark_green.gif","3","-200","0","",""
"casino-fixation","49","272166","0.0-17.0-0.7","519","true","img/card_backs/set1/green.gif","img/card_backs/set1/red.gif","img/card_backs/set1/yellow.gif","img/card_backs/set1/purple.gif","img/card_backs/set2/blue.gif","img/card_backs/set2/pink.gif","img/card_backs/set2/orange.gif","img/card_backs/set2/gray.gif","""event"",""trial"",""time""
""fullscreenenter"",""1"",""7684""
","
","
","""event"",""trial"",""time""
""fullscreenenter"",""1"",""7684""
","
","","null","","null","","fixation","2021-06-15 21:06:08.621","","","","","",""
"card-selection-trial","50","274941","0.0-17.0-1.7","519","true","img/card_backs/set1/green.gif","img/card_backs/set1/red.gif","img/card_backs/set1/yellow.gif","img/card_backs/set1/purple.gif","img/card_backs/set2/blue.gif","img/card_backs/set2/pink.gif","img/card_backs/set2/orange.gif","img/card_backs/set2/gray.gif","""event"",""trial"",""time""
""fullscreenenter"",""1"",""7684""
","
","
","""event"",""trial"",""time""
""fullscreenenter"",""1"",""7684""
","
","","766.2999999523163","","","","practice","2021-06-15 21:06:11.396","img/practice_cards/backs/black.gif","0","-100","0","",""
"casino-fixation","51","275446","0.0-17.0-0.8","519","true","img/card_backs/set1/green.gif","img/card_backs/set1/red.gif","img/card_backs/set1/yellow.gif","img/card_backs/set1/purple.gif","img/card_backs/set2/blue.gif","img/card_backs/set2/pink.gif","img/card_backs/set2/orange.gif","img/card_backs/set2/gray.gif","""event"",""trial"",""time""
""fullscreenenter"",""1"",""7684""
","
","
","""event"",""trial"",""time""
""fullscreenenter"",""1"",""7684""
","
","","null","","null","","fixation","2021-06-15 21:06:11.901","","","","","",""
"card-selection-trial","52","277693","0.0-17.0-1.8","519","true","img/card_backs/set1/green.gif","img/card_backs/set1/red.gif","img/card_backs/set1/yellow.gif","img/card_backs/set1/purple.gif","img/card_backs/set2/blue.gif","img/card_backs/set2/pink.gif","img/card_backs/set2/orange.gif","img/card_backs/set2/gray.gif","""event"",""trial"",""time""
""fullscreenenter"",""1"",""7684""
","
","
","""event"",""trial"",""time""
""fullscreenenter"",""1"",""7684""
","
","","237.10000002384186","","","","practice","2021-06-15 21:06:14.148","img/practice_cards/backs/black.gif","0","100","0","",""
"casino-fixation","53","278199","0.0-17.0-0.9","519","true","img/card_backs/set1/green.gif","img/card_backs/set1/red.gif","img/card_backs/set1/yellow.gif","img/card_backs/set1/purple.gif","img/card_backs/set2/blue.gif","img/card_backs/set2/pink.gif","img/card_backs/set2/orange.gif","img/card_backs/set2/gray.gif","""event"",""trial"",""time""
""fullscreenenter"",""1"",""7684""
","
","
","""event"",""trial"",""time""
""fullscreenenter"",""1"",""7684""
","
","","null","","null","","fixation","2021-06-15 21:06:14.654","","","","","",""
"card-selection-trial","54","280491","0.0-17.0-1.9","519","true","img/card_backs/set1/green.gif","img/card_backs/set1/red.gif","img/card_backs/set1/yellow.gif","img/card_backs/set1/purple.gif","img/card_backs/set2/blue.gif","img/card_backs/set2/pink.gif","img/card_backs/set2/orange.gif","img/card_backs/set2/gray.gif","""event"",""trial"",""time""
""fullscreenenter"",""1"",""7684""
","
","
","""event"",""trial"",""time""
""fullscreenenter"",""1"",""7684""
","
","","286.2999999523163","","","","practice","2021-06-15 21:06:16.946","img/practice_cards/backs/dark_green.gif","1","-200","0","",""
"casino-keyboard-response","55","283901","0.0-18.0","519","true","img/card_backs/set1/green.gif","img/card_backs/set1/red.gif","img/card_backs/set1/yellow.gif","img/card_backs/set1/purple.gif","img/card_backs/set2/blue.gif","img/card_backs/set2/pink.gif","img/card_backs/set2/orange.gif","img/card_backs/set2/gray.gif","""event"",""trial"",""time""
""fullscreenenter"",""1"",""7684""
","
","
","""event"",""trial"",""time""
""fullscreenenter"",""1"",""7684""
","
","","3408.2999999523163","You earned -400 tokens during the practice round!","82","","","2021-06-15 21:06:20.357","","","","","",""
"casino-keyboard-response","56","288228","0.0-19.0-0.0","519","true","img/card_backs/set1/green.gif","img/card_backs/set1/red.gif","img/card_backs/set1/yellow.gif","img/card_backs/set1/purple.gif","img/card_backs/set2/blue.gif","img/card_backs/set2/pink.gif","img/card_backs/set2/orange.gif","img/card_backs/set2/gray.gif","""event"",""trial"",""time""
""fullscreenenter"",""1"",""7684""
","
","
","""event"",""trial"",""time""
""fullscreenenter"",""1"",""7684""
","
","","4324.899999976158","Nice job! You are almost ready to play the real game.","86","","instructions","2021-06-15 21:06:24.683","","","","","",""
"casino-keyboard-response","57","294699","0.0-19.0-0.1","519","true","img/card_backs/set1/green.gif","img/card_backs/set1/red.gif","img/card_backs/set1/yellow.gif","img/card_backs/set1/purple.gif","img/card_backs/set2/blue.gif","img/card_backs/set2/pink.gif","img/card_backs/set2/orange.gif","img/card_backs/set2/gray.gif","""event"",""trial"",""time""
""fullscreenenter"",""1"",""7684""
","
","
","""event"",""trial"",""time""
""fullscreenenter"",""1"",""7684""
","
","","6469.600000023842","You will play two rounds of the real game. In each round, you will pick 100 cards in total.","73","","instructions","2021-06-15 21:06:31.154","","","","","",""
"casino-keyboard-response","58","298968","0.0-19.0-0.2","519","true","img/card_backs/set1/green.gif","img/card_backs/set1/red.gif","img/card_backs/set1/yellow.gif","img/card_backs/set1/purple.gif","img/card_backs/set2/blue.gif","img/card_backs/set2/pink.gif","img/card_backs/set2/orange.gif","img/card_backs/set2/gray.gif","""event"",""trial"",""time""
""fullscreenenter"",""1"",""7684""
","
","
","""event"",""trial"",""time""
""fullscreenenter"",""1"",""7684""
","
","","4267.300000071526","We are now going to ask you some questions about how the game works.","66","","instructions","2021-06-15 21:06:35.423","","","","","",""
"casino-keyboard-response","59","305151","0.0-19.0-0.3","519","true","img/card_backs/set1/green.gif","img/card_backs/set1/red.gif","img/card_backs/set1/yellow.gif","img/card_backs/set1/purple.gif","img/card_backs/set2/blue.gif","img/card_backs/set2/pink.gif","img/card_backs/set2/orange.gif","img/card_backs/set2/gray.gif","""event"",""trial"",""time""
""fullscreenenter"",""1"",""7684""
","
","
","""event"",""trial"",""time""
""fullscreenenter"",""1"",""7684""
","
","","6181","Answer carefully. You will not be able to begin the game until you answer them correctly.","67","","instructions","2021-06-15 21:06:41.606","","","","","",""
"casino-comp_q","60","312405","0.0-20.0-0.0","519","true","img/card_backs/set1/green.gif","img/card_backs/set1/red.gif","img/card_backs/set1/yellow.gif","img/card_backs/set1/purple.gif","img/card_backs/set2/blue.gif","img/card_backs/set2/pink.gif","img/card_backs/set2/orange.gif","img/card_backs/set2/gray.gif","""event"",""trial"",""time""
""fullscreenenter"",""1"",""7684""
","
","
","""event"",""trial"",""time""
""fullscreenenter"",""1"",""7684""
","
","","7251.099999904633","True or False: All the decks have some cards that cause you to win tokens and some cards that cause you to lose tokens.","84","","","2021-06-15 21:06:48.860","","","","","",""
"casino-keyboard-response","61","315570","0.0-20.0-1.0","519","true","img/card_backs/set1/green.gif","img/card_backs/set1/red.gif","img/card_backs/set1/yellow.gif","img/card_backs/set1/purple.gif","img/card_backs/set2/blue.gif","img/card_backs/set2/pink.gif","img/card_backs/set2/orange.gif","img/card_backs/set2/gray.gif","""event"",""trial"",""time""
""fullscreenenter"",""1"",""7684""
","
","
","""event"",""trial"",""time""
""fullscreenenter"",""1"",""7684""
","
","","3162.5999999046326","True is correct! All the decks have a mix of winning and losing cards.","77","","","2021-06-15 21:06:52.025","","","","","true",""
"casino-comp_q","62","319894","0.0-21.0-0.0","519","true","img/card_backs/set1/green.gif","img/card_backs/set1/red.gif","img/card_backs/set1/yellow.gif","img/card_backs/set1/purple.gif","img/card_backs/set2/blue.gif","img/card_backs/set2/pink.gif","img/card_backs/set2/orange.gif","img/card_backs/set2/gray.gif","""event"",""trial"",""time""
""fullscreenenter"",""1"",""7684""
","
","
","""event"",""trial"",""time""
""fullscreenenter"",""1"",""7684""
","
","","4321.200000047684","True or False: You will have as much time as you want to make your response.","70","","","2021-06-15 21:06:56.349","","","","","",""
"casino-keyboard-response","63","323678","0.0-21.0-1.0","519","true","img/card_backs/set1/green.gif","img/card_backs/set1/red.gif","img/card_backs/set1/yellow.gif","img/card_backs/set1/purple.gif","img/card_backs/set2/blue.gif","img/card_backs/set2/pink.gif","img/card_backs/set2/orange.gif","img/card_backs/set2/gray.gif","""event"",""trial"",""time""
""fullscreenenter"",""1"",""7684""
","
","
","""event"",""trial"",""time""
""fullscreenenter"",""1"",""7684""
","
","","3779.7999999523163","False is correct! You will only have 10 seconds to make each choice.","75","","","2021-06-15 21:07:00.133","","","","","true",""
"casino-comp_q","64","327137","0.0-22.0-0.0","519","true","img/card_backs/set1/green.gif","img/card_backs/set1/red.gif","img/card_backs/set1/yellow.gif","img/card_backs/set1/purple.gif","img/card_backs/set2/blue.gif","img/card_backs/set2/pink.gif","img/card_backs/set2/orange.gif","img/card_backs/set2/gray.gif","""event"",""trial"",""time""
""fullscreenenter"",""1"",""7684""
","
","
","""event"",""trial"",""time""
""fullscreenenter"",""1"",""7684""
","
","","3456.7999999523163","True or False: The location of the deck determines how lucky it is.","70","","","2021-06-15 21:07:03.592","","","","","",""
"casino-keyboard-response","65","332777","0.0-22.0-1.0","519","true","img/card_backs/set1/green.gif","img/card_backs/set1/red.gif","img/card_backs/set1/yellow.gif","img/card_backs/set1/purple.gif","img/card_backs/set2/blue.gif","img/card_backs/set2/pink.gif","img/card_backs/set2/orange.gif","img/card_backs/set2/gray.gif","""event"",""trial"",""time""
""fullscreenenter"",""1"",""7684""
","
","
","""event"",""trial"",""time""
""fullscreenenter"",""1"",""7684""
","
","","5639","False is correct! The <i>color</i>  of the deck determines how lucky or unlucky it is.","68","","","2021-06-15 21:07:09.233","","","","","true",""
"casino-keyboard-response","66","339474","0.0-23.0-0.0","519","true","img/card_backs/set1/green.gif","img/card_backs/set1/red.gif","img/card_backs/set1/yellow.gif","img/card_backs/set1/purple.gif","img/card_backs/set2/blue.gif","img/card_backs/set2/pink.gif","img/card_backs/set2/orange.gif","img/card_backs/set2/gray.gif","""event"",""trial"",""time""
""fullscreenenter"",""1"",""7684""
","
","
","""event"",""trial"",""time""
""fullscreenenter"",""1"",""7684""
","
","","6694.200000047684","Great job! Now it's time to start the real game.","82","","instructions","2021-06-15 21:07:15.929","","","","","",""
"casino-keyboard-response","67","344706","0.0-23.0-0.1","519","true","img/card_backs/set1/green.gif","img/card_backs/set1/red.gif","img/card_backs/set1/yellow.gif","img/card_backs/set1/purple.gif","img/card_backs/set2/blue.gif","img/card_backs/set2/pink.gif","img/card_backs/set2/orange.gif","img/card_backs/set2/gray.gif","""event"",""trial"",""time""
""fullscreenenter"",""1"",""7684""
","
","
","""event"",""trial"",""time""
""fullscreenenter"",""1"",""7684""
","
","","5230.100000023842","Before we start, we're going to head into a new room of the casino.","86","","instructions","2021-06-15 21:07:21.161","","","","","",""
"casino-keyboard-response","68","350741","0.0-24.0-0.0","519","true","img/card_backs/set1/green.gif","img/card_backs/set1/red.gif","img/card_backs/set1/yellow.gif","img/card_backs/set1/purple.gif","img/card_backs/set2/blue.gif","img/card_backs/set2/pink.gif","img/card_backs/set2/orange.gif","img/card_backs/set2/gray.gif","""event"",""trial"",""time""
""fullscreenenter"",""1"",""7684""
","
","
","""event"",""trial"",""time""
""fullscreenenter"",""1"",""7684""
","
","","6032.799999952316","Here we are! The real game will use different cards, but the rules will be the same.","71","","instructions","2021-06-15 21:07:27.196","","","","","",""
"casino-keyboard-response","69","360165","0.0-24.0-0.1","519","true","img/card_backs/set1/green.gif","img/card_backs/set1/red.gif","img/card_backs/set1/yellow.gif","img/card_backs/set1/purple.gif","img/card_backs/set2/blue.gif","img/card_backs/set2/pink.gif","img/card_backs/set2/orange.gif","img/card_backs/set2/gray.gif","""event"",""trial"",""time""
""fullscreenenter"",""1"",""7684""
","
","
","""event"",""trial"",""time""
""fullscreenenter"",""1"",""7684""
","
","","9420.599999904633","Ready? Put your fingers over the '2', '4', 6', and '8' keys so you are ready to play the game. </br> Then press 2 to start.","50","","instructions","2021-06-15 21:07:36.620","","","","","",""
"casino-fixation","70","360669","0.0-25.0-0.0","519","true","img/card_backs/set1/green.gif","img/card_backs/set1/red.gif","img/card_backs/set1/yellow.gif","img/card_backs/set1/purple.gif","img/card_backs/set2/blue.gif","img/card_backs/set2/pink.gif","img/card_backs/set2/orange.gif","img/card_backs/set2/gray.gif","""event"",""trial"",""time""
""fullscreenenter"",""1"",""7684""
","
","
","""event"",""trial"",""time""
""fullscreenenter"",""1"",""7684""
","
","","null","","null","","fixation","2021-06-15 21:07:37.124","","","","","",""
"card-selection-trial","71","363840","0.0-25.0-1.0","519","true","img/card_backs/set1/green.gif","img/card_backs/set1/red.gif","img/card_backs/set1/yellow.gif","img/card_backs/set1/purple.gif","img/card_backs/set2/blue.gif","img/card_backs/set2/pink.gif","img/card_backs/set2/orange.gif","img/card_backs/set2/gray.gif","""event"",""trial"",""time""
""fullscreenenter"",""1"",""7684""
","
","
","""event"",""trial"",""time""
""fullscreenenter"",""1"",""7684""
","
","","1163.3999999761581","","","","real_trial","2021-06-15 21:07:40.295","img/card_backs/set1/purple.gif","0","-90","1","",""
"casino-fixation","72","364343","0.0-25.0-0.1","519","true","img/card_backs/set1/green.gif","img/card_backs/set1/red.gif","img/card_backs/set1/yellow.gif","img/card_backs/set1/purple.gif","img/card_backs/set2/blue.gif","img/card_backs/set2/pink.gif","img/card_backs/set2/orange.gif","img/card_backs/set2/gray.gif","""event"",""trial"",""time""
""fullscreenenter"",""1"",""7684""
","
","
","""event"",""trial"",""time""
""fullscreenenter"",""1"",""7684""
","
","","null","","null","","fixation","2021-06-15 21:07:40.798","","","","","",""
"card-selection-trial","73","367561","0.0-25.0-1.1","519","true","img/card_backs/set1/green.gif","img/card_backs/set1/red.gif","img/card_backs/set1/yellow.gif","img/card_backs/set1/purple.gif","img/card_backs/set2/blue.gif","img/card_backs/set2/pink.gif","img/card_backs/set2/orange.gif","img/card_backs/set2/gray.gif","""event"",""trial"",""time""
""fullscreenenter"",""1"",""7684""
","
","
","""event"",""trial"",""time""
""fullscreenenter"",""1"",""7684""
","
","","1207.5","","","","real_trial","2021-06-15 21:07:44.016","img/card_backs/set1/purple.gif","3","40","1","",""
"casino-fixation","74","368066","0.0-25.0-0.2","519","true","img/card_backs/set1/green.gif","img/card_backs/set1/red.gif","img/card_backs/set1/yellow.gif","img/card_backs/set1/purple.gif","img/card_backs/set2/blue.gif","img/card_backs/set2/pink.gif","img/card_backs/set2/orange.gif","img/card_backs/set2/gray.gif","""event"",""trial"",""time""
""fullscreenenter"",""1"",""7684""
","
","
","""event"",""trial"",""time""
""fullscreenenter"",""1"",""7684""
","
","","null","","null","","fixation","2021-06-15 21:07:44.521","","","","","",""
"card-selection-trial","75","371236","0.0-25.0-1.2","519","true","img/card_backs/set1/green.gif","img/card_backs/set1/red.gif","img/card_backs/set1/yellow.gif","img/card_backs/set1/purple.gif","img/card_backs/set2/blue.gif","img/card_backs/set2/pink.gif","img/card_backs/set2/orange.gif","img/card_backs/set2/gray.gif","""event"",""trial"",""time""
""fullscreenenter"",""1"",""7684""
","
","
","""event"",""trial"",""time""
""fullscreenenter"",""1"",""7684""
","
","","1159.6000000238419","","","","real_trial","2021-06-15 21:07:47.691","img/card_backs/set1/purple.gif","2","40","1","",""
"casino-fixation","76","371741","0.0-25.0-0.3","519","true","img/card_backs/set1/green.gif","img/card_backs/set1/red.gif","img/card_backs/set1/yellow.gif","img/card_backs/set1/purple.gif","img/card_backs/set2/blue.gif","img/card_backs/set2/pink.gif","img/card_backs/set2/orange.gif","img/card_backs/set2/gray.gif","""event"",""trial"",""time""
""fullscreenenter"",""1"",""7684""
","
","
","""event"",""trial"",""time""
""fullscreenenter"",""1"",""7684""
","
","","null","","null","","fixation","2021-06-15 21:07:48.196","","","","","",""
"card-selection-trial","77","374754","0.0-25.0-1.3","519","true","img/card_backs/set1/green.gif","img/card_backs/set1/red.gif","img/card_backs/set1/yellow.gif","img/card_backs/set1/purple.gif","img/card_backs/set2/blue.gif","img/card_backs/set2/pink.gif","img/card_backs/set2/orange.gif","img/card_backs/set2/gray.gif","""event"",""trial"",""time""
""fullscreenenter"",""1"",""7684""
","
","
","""event"",""trial"",""time""
""fullscreenenter"",""1"",""7684""
","
","","1006.1999999284744","","","","real_trial","2021-06-15 21:07:51.209","img/card_backs/set1/purple.gif","3","-110","1","",""
"casino-fixation","78","375259","0.0-25.0-0.4","519","true","img/card_backs/set1/green.gif","img/card_backs/set1/red.gif","img/card_backs/set1/yellow.gif","img/card_backs/set1/purple.gif","img/card_backs/set2/blue.gif","img/card_backs/set2/pink.gif","img/card_backs/set2/orange.gif","img/card_backs/set2/gray.gif","""event"",""trial"",""time""
""fullscreenenter"",""1"",""7684""
","
","
","""event"",""trial"",""time""
""fullscreenenter"",""1"",""7684""
","
","","null","","null","","fixation","2021-06-15 21:07:51.714","","","","","",""
"card-selection-trial","79","378570","0.0-25.0-1.4","519","true","img/card_backs/set1/green.gif","img/card_backs/set1/red.gif","img/card_backs/set1/yellow.gif","img/card_backs/set1/purple.gif","img/card_backs/set2/blue.gif","img/card_backs/set2/pink.gif","img/card_backs/set2/orange.gif","img/card_backs/set2/gray.gif","""event"",""trial"",""time""
""fullscreenenter"",""1"",""7684""
","
","
","""event"",""trial"",""time""
""fullscreenenter"",""1"",""7684""
","
","","1302.6000000238419","","","","real_trial","2021-06-15 21:07:55.025","img/card_backs/set1/red.gif","2","-200","1","",""
"casino-fixation","80","379073","0.0-25.0-0.5","519","true","img/card_backs/set1/green.gif","img/card_backs/set1/red.gif","img/card_backs/set1/yellow.gif","img/card_backs/set1/purple.gif","img/card_backs/set2/blue.gif","img/card_backs/set2/pink.gif","img/card_backs/set2/orange.gif","img/card_backs/set2/gray.gif","""event"",""trial"",""time""
""fullscreenenter"",""1"",""7684""
","
","
","""event"",""trial"",""time""
""fullscreenenter"",""1"",""7684""
","
","","null","","null","","fixation","2021-06-15 21:07:55.528","","","","","",""
"card-selection-trial","81","382820","0.0-25.0-1.5","519","true","img/card_backs/set1/green.gif","img/card_backs/set1/red.gif","img/card_backs/set1/yellow.gif","img/card_backs/set1/purple.gif","img/card_backs/set2/blue.gif","img/card_backs/set2/pink.gif","img/card_backs/set2/orange.gif","img/card_backs/set2/gray.gif","""event"",""trial"",""time""
""fullscreenenter"",""1"",""7684""
","
","
","""event"",""trial"",""time""
""fullscreenenter"",""1"",""7684""
","
","","1739.5","","","","real_trial","2021-06-15 21:07:59.275","img/card_backs/set1/green.gif","1","250","1","",""
"casino-fixation","82","383322","0.0-25.0-0.6","519","true","img/card_backs/set1/green.gif","img/card_backs/set1/red.gif","img/card_backs/set1/yellow.gif","img/card_backs/set1/purple.gif","img/card_backs/set2/blue.gif","img/card_backs/set2/pink.gif","img/card_backs/set2/orange.gif","img/card_backs/set2/gray.gif","""event"",""trial"",""time""
""fullscreenenter"",""1"",""7684""
","
","
","""event"",""trial"",""time""
""fullscreenenter"",""1"",""7684""
","
","","null","","null","","fixation","2021-06-15 21:07:59.777","","","","","",""
"card-selection-trial","83","386114","0.0-25.0-1.6","519","true","img/card_backs/set1/green.gif","img/card_backs/set1/red.gif","img/card_backs/set1/yellow.gif","img/card_backs/set1/purple.gif","img/card_backs/set2/blue.gif","img/card_backs/set2/pink.gif","img/card_backs/set2/orange.gif","img/card_backs/set2/gray.gif","""event"",""trial"",""time""
""fullscreenenter"",""1"",""7684""
","
","
","""event"",""trial"",""time""
""fullscreenenter"",""1"",""7684""
","
","","785.7999999523163","","","","real_trial","2021-06-15 21:08:02.569","img/card_backs/set1/green.gif","1","240","1","",""
"casino-fixation","84","386619","0.0-25.0-0.7","519","true","img/card_backs/set1/green.gif","img/card_backs/set1/red.gif","img/card_backs/set1/yellow.gif","img/card_backs/set1/purple.gif","img/card_backs/set2/blue.gif","img/card_backs/set2/pink.gif","img/card_backs/set2/orange.gif","img/card_backs/set2/gray.gif","""event"",""trial"",""time""
""fullscreenenter"",""1"",""7684""
","
","
","""event"",""trial"",""time""
""fullscreenenter"",""1"",""7684""
","
","","null","","null","","fixation","2021-06-15 21:08:03.074","","","","","",""
"card-selection-trial","85","389627","0.0-25.0-1.7","519","true","img/card_backs/set1/green.gif","img/card_backs/set1/red.gif","img/card_backs/set1/yellow.gif","img/card_backs/set1/purple.gif","img/card_backs/set2/blue.gif","img/card_backs/set2/pink.gif","img/card_backs/set2/orange.gif","img/card_backs/set2/gray.gif","""event"",""trial"",""time""
""fullscreenenter"",""1"",""7684""
","
","
","""event"",""trial"",""time""
""fullscreenenter"",""1"",""7684""
","
","","999","","","","real_trial","2021-06-15 21:08:06.082","img/card_backs/set1/green.gif","0","260","1","",""
"casino-fixation","86","390133","0.0-25.0-0.8","519","true","img/card_backs/set1/green.gif","img/card_backs/set1/red.gif","img/card_backs/set1/yellow.gif","img/card_backs/set1/purple.gif","img/card_backs/set2/blue.gif","img/card_backs/set2/pink.gif","img/card_backs/set2/orange.gif","img/card_backs/set2/gray.gif","""event"",""trial"",""time""
""fullscreenenter"",""1"",""7684""
","
","
","""event"",""trial"",""time""
""fullscreenenter"",""1"",""7684""
","
","","null","","null","","fixation","2021-06-15 21:08:06.588","","","","","",""
"card-selection-trial","87","392867","0.0-25.0-1.8","519","true","img/card_backs/set1/green.gif","img/card_backs/set1/red.gif","img/card_backs/set1/yellow.gif","img/card_backs/set1/purple.gif","img/card_backs/set2/blue.gif","img/card_backs/set2/pink.gif","img/card_backs/set2/orange.gif","img/card_backs/set2/gray.gif","""event"",""trial"",""time""
""fullscreenenter"",""1"",""7684""
","
","
","""event"",""trial"",""time""
""fullscreenenter"",""1"",""7684""
","
","","723.3999999761581","","","","real_trial","2021-06-15 21:08:09.322","img/card_backs/set1/green.gif","0","260","1","",""
"casino-fixation","88","393372","0.0-25.0-0.9","519","true","img/card_backs/set1/green.gif","img/card_backs/set1/red.gif","img/card_backs/set1/yellow.gif","img/card_backs/set1/purple.gif","img/card_backs/set2/blue.gif","img/card_backs/set2/pink.gif","img/card_backs/set2/orange.gif","img/card_backs/set2/gray.gif","""event"",""trial"",""time""
""fullscreenenter"",""1"",""7684""
","
","
","""event"",""trial"",""time""
""fullscreenenter"",""1"",""7684""
","
","","null","","null","","fixation","2021-06-15 21:08:09.827","","","","","",""
"card-selection-trial","89","396298","0.0-25.0-1.9","519","true","img/card_backs/set1/green.gif","img/card_backs/set1/red.gif","img/card_backs/set1/yellow.gif","img/card_backs/set1/purple.gif","img/card_backs/set2/blue.gif","img/card_backs/set2/pink.gif","img/card_backs/set2/orange.gif","img/card_backs/set2/gray.gif","""event"",""trial"",""time""
""fullscreenenter"",""1"",""7684""
","
","
","""event"",""trial"",""time""
""fullscreenenter"",""1"",""7684""
","
","","917.3000000715256","","","","real_trial","2021-06-15 21:08:12.753","img/card_backs/set1/green.gif","0","240","1","",""
"casino-fixation","90","396803","0.0-25.0-0.10","519","true","img/card_backs/set1/green.gif","img/card_backs/set1/red.gif","img/card_backs/set1/yellow.gif","img/card_backs/set1/purple.gif","img/card_backs/set2/blue.gif","img/card_backs/set2/pink.gif","img/card_backs/set2/orange.gif","img/card_backs/set2/gray.gif","""event"",""trial"",""time""
""fullscreenenter"",""1"",""7684""
","
","
","""event"",""trial"",""time""
""fullscreenenter"",""1"",""7684""
","
","","null","","null","","fixation","2021-06-15 21:08:13.258","","","","","",""
"card-selection-trial","91","400024","0.0-25.0-1.10","519","true","img/card_backs/set1/green.gif","img/card_backs/set1/red.gif","img/card_backs/set1/yellow.gif","img/card_backs/set1/purple.gif","img/card_backs/set2/blue.gif","img/card_backs/set2/pink.gif","img/card_backs/set2/orange.gif","img/card_backs/set2/gray.gif","""event"",""trial"",""time""
""fullscreenenter"",""1"",""7684""
","
","
","""event"",""trial"",""time""
""fullscreenenter"",""1"",""7684""
","
","","1213.7999999523163","","","","real_trial","2021-06-15 21:08:16.479","img/card_backs/set1/green.gif","3","240","1","",""
"casino-fixation","92","400530","0.0-25.0-0.11","519","true","img/card_backs/set1/green.gif","img/card_backs/set1/red.gif","img/card_backs/set1/yellow.gif","img/card_backs/set1/purple.gif","img/card_backs/set2/blue.gif","img/card_backs/set2/pink.gif","img/card_backs/set2/orange.gif","img/card_backs/set2/gray.gif","""event"",""trial"",""time""
""fullscreenenter"",""1"",""7684""
","
","
","""event"",""trial"",""time""
""fullscreenenter"",""1"",""7684""
","
","","null","","null","","fixation","2021-06-15 21:08:16.985","","","","","",""
"card-selection-trial","93","403177","0.0-25.0-1.11","519","true","img/card_backs/set1/green.gif","img/card_backs/set1/red.gif","img/card_backs/set1/yellow.gif","img/card_backs/set1/purple.gif","img/card_backs/set2/blue.gif","img/card_backs/set2/pink.gif","img/card_backs/set2/orange.gif","img/card_backs/set2/gray.gif","""event"",""trial"",""time""
""fullscreenenter"",""1"",""7684""
","
","
","""event"",""trial"",""time""
""fullscreenenter"",""1"",""7684""
","
","","637.8000000715256","","","","real_trial","2021-06-15 21:08:19.632","img/card_backs/set1/green.gif","0","-210","1","",""
"casino-fixation","94","403682","0.0-25.0-0.12","519","true","img/card_backs/set1/green.gif","img/card_backs/set1/red.gif","img/card_backs/set1/yellow.gif","img/card_backs/set1/purple.gif","img/card_backs/set2/blue.gif","img/card_backs/set2/pink.gif","img/card_backs/set2/orange.gif","img/card_backs/set2/gray.gif","""event"",""trial"",""time""
""fullscreenenter"",""1"",""7684""
","
","
","""event"",""trial"",""time""
""fullscreenenter"",""1"",""7684""
","
","","null","","null","","fixation","2021-06-15 21:08:20.137","","","","","",""
"card-selection-trial","95","406190","0.0-25.0-1.12","519","true","img/card_backs/set1/green.gif","img/card_backs/set1/red.gif","img/card_backs/set1/yellow.gif","img/card_backs/set1/purple.gif","img/card_backs/set2/blue.gif","img/card_backs/set2/pink.gif","img/card_backs/set2/orange.gif","img/card_backs/set2/gray.gif","""event"",""trial"",""time""
""fullscreenenter"",""1"",""7684""
","
","
","""event"",""trial"",""time""
""fullscreenenter"",""1"",""7684""
","
","","501.5","","","","real_trial","2021-06-15 21:08:22.645","img/card_backs/set1/green.gif","0","250","1","",""
"casino-fixation","96","406695","0.0-25.0-0.13","519","true","img/card_backs/set1/green.gif","img/card_backs/set1/red.gif","img/card_backs/set1/yellow.gif","img/card_backs/set1/purple.gif","img/card_backs/set2/blue.gif","img/card_backs/set2/pink.gif","img/card_backs/set2/orange.gif","img/card_backs/set2/gray.gif","""event"",""trial"",""time""
""fullscreenenter"",""1"",""7684""
","
","
","""event"",""trial"",""time""
""fullscreenenter"",""1"",""7684""
","
","","null","","null","","fixation","2021-06-15 21:08:23.150","","","","","",""
"card-selection-trial","97","409893","0.0-25.0-1.13","519","true","img/card_backs/set1/green.gif","img/card_backs/set1/red.gif","img/card_backs/set1/yellow.gif","img/card_backs/set1/purple.gif","img/card_backs/set2/blue.gif","img/card_backs/set2/pink.gif","img/card_backs/set2/orange.gif","img/card_backs/set2/gray.gif","""event"",""trial"",""time""
""fullscreenenter"",""1"",""7684""
","
","
","""event"",""trial"",""time""
""fullscreenenter"",""1"",""7684""
","
","","1186.3000000715256","","","","real_trial","2021-06-15 21:08:26.348","img/card_backs/set1/green.gif","1","-210","1","",""
"casino-fixation","98","410399","0.0-25.0-0.14","519","true","img/card_backs/set1/green.gif","img/card_backs/set1/red.gif","img/card_backs/set1/yellow.gif","img/card_backs/set1/purple.gif","img/card_backs/set2/blue.gif","img/card_backs/set2/pink.gif","img/card_backs/set2/orange.gif","img/card_backs/set2/gray.gif","""event"",""trial"",""time""
""fullscreenenter"",""1"",""7684""
","
","
","""event"",""trial"",""time""
""fullscreenenter"",""1"",""7684""
","
","","null","","null","","fixation","2021-06-15 21:08:26.854","","","","","",""
"card-selection-trial","99","413371","0.0-25.0-1.14","519","true","img/card_backs/set1/green.gif","img/card_backs/set1/red.gif","img/card_backs/set1/yellow.gif","img/card_backs/set1/purple.gif","img/card_backs/set2/blue.gif","img/card_backs/set2/pink.gif","img/card_backs/set2/orange.gif","img/card_backs/set2/gray.gif","""event"",""trial"",""time""
""fullscreenenter"",""1"",""7684""
","
","
","""event"",""trial"",""time""
""fullscreenenter"",""1"",""7684""
","
","","962.8000000715256","","","","real_trial","2021-06-15 21:08:29.826","img/card_backs/set1/green.gif","3","-190","1","",""
"casino-fixation","100","413876","0.0-25.0-0.15","519","true","img/card_backs/set1/green.gif","img/card_backs/set1/red.gif","img/card_backs/set1/yellow.gif","img/card_backs/set1/purple.gif","img/card_backs/set2/blue.gif","img/card_backs/set2/pink.gif","img/card_backs/set2/orange.gif","img/card_backs/set2/gray.gif","""event"",""trial"",""time""
""fullscreenenter"",""1"",""7684""
","
","
","""event"",""trial"",""time""
""fullscreenenter"",""1"",""7684""
","
","","null","","null","","fixation","2021-06-15 21:08:30.331","","","","","",""
"card-selection-trial","101","416547","0.0-25.0-1.15","519","true","img/card_backs/set1/green.gif","img/card_backs/set1/red.gif","img/card_backs/set1/yellow.gif","img/card_backs/set1/purple.gif","img/card_backs/set2/blue.gif","img/card_backs/set2/pink.gif","img/card_backs/set2/orange.gif","img/card_backs/set2/gray.gif","""event"",""trial"",""time""
""fullscreenenter"",""1"",""7684""
","
","
","""event"",""trial"",""time""
""fullscreenenter"",""1"",""7684""
","
","","664.3999999761581","","","","real_trial","2021-06-15 21:08:33.002","img/card_backs/set1/green.gif","3","-190","1","",""
"casino-fixation","102","417051","0.0-25.0-0.16","519","true","img/card_backs/set1/green.gif","img/card_backs/set1/red.gif","img/card_backs/set1/yellow.gif","img/card_backs/set1/purple.gif","img/card_backs/set2/blue.gif","img/card_backs/set2/pink.gif","img/card_backs/set2/orange.gif","img/card_backs/set2/gray.gif","""event"",""trial"",""time""
""fullscreenenter"",""1"",""7684""
","
","
","""event"",""trial"",""time""
""fullscreenenter"",""1"",""7684""
","
","","null","","null","","fixation","2021-06-15 21:08:33.506","","","","","",""
"card-selection-trial","103","420001","0.0-25.0-1.16","519","true","img/card_backs/set1/green.gif","img/card_backs/set1/red.gif","img/card_backs/set1/yellow.gif","img/card_backs/set1/purple.gif","img/card_backs/set2/blue.gif","img/card_backs/set2/pink.gif","img/card_backs/set2/orange.gif","img/card_backs/set2/gray.gif","""event"",""trial"",""time""
""fullscreenenter"",""1"",""7684""
","
","
","""event"",""trial"",""time""
""fullscreenenter"",""1"",""7684""
","
","","942.7999999523163","","","","real_trial","2021-06-15 21:08:36.456","img/card_backs/set1/green.gif","2","-200","1","",""
"casino-fixation","104","420505","0.0-25.0-0.17","519","true","img/card_backs/set1/green.gif","img/card_backs/set1/red.gif","img/card_backs/set1/yellow.gif","img/card_backs/set1/purple.gif","img/card_backs/set2/blue.gif","img/card_backs/set2/pink.gif","img/card_backs/set2/orange.gif","img/card_backs/set2/gray.gif","""event"",""trial"",""time""
""fullscreenenter"",""1"",""7684""
","
","
","""event"",""trial"",""time""
""fullscreenenter"",""1"",""7684""
","
","","null","","null","","fixation","2021-06-15 21:08:36.961","","","","","",""
"card-selection-trial","105","423472","0.0-25.0-1.17","519","true","img/card_backs/set1/green.gif","img/card_backs/set1/red.gif","img/card_backs/set1/yellow.gif","img/card_backs/set1/purple.gif","img/card_backs/set2/blue.gif","img/card_backs/set2/pink.gif","img/card_backs/set2/orange.gif","img/card_backs/set2/gray.gif","""event"",""trial"",""time""
""fullscreenenter"",""1"",""7684""
","
","
","""event"",""trial"",""time""
""fullscreenenter"",""1"",""7684""
","
","","955.8999999761581","","","","real_trial","2021-06-15 21:08:39.927","img/card_backs/set1/green.gif","0","-190","1","",""
"casino-fixation","106","423977","0.0-25.0-0.18","519","true","img/card_backs/set1/green.gif","img/card_backs/set1/red.gif","img/card_backs/set1/yellow.gif","img/card_backs/set1/purple.gif","img/card_backs/set2/blue.gif","img/card_backs/set2/pink.gif","img/card_backs/set2/orange.gif","img/card_backs/set2/gray.gif","""event"",""trial"",""time""
""fullscreenenter"",""1"",""7684""
","
","
","""event"",""trial"",""time""
""fullscreenenter"",""1"",""7684""
","
","","null","","null","","fixation","2021-06-15 21:08:40.432","","","","","",""
"card-selection-trial","107","427460","0.0-25.0-1.18","519","true","img/card_backs/set1/green.gif","img/card_backs/set1/red.gif","img/card_backs/set1/yellow.gif","img/card_backs/set1/purple.gif","img/card_backs/set2/blue.gif","img/card_backs/set2/pink.gif","img/card_backs/set2/orange.gif","img/card_backs/set2/gray.gif","""event"",""trial"",""time""
""fullscreenenter"",""1"",""7684""
","
","
","""event"",""trial"",""time""
""fullscreenenter"",""1"",""7684""
","
","","1476.2000000476837","","","","real_trial","2021-06-15 21:08:43.915","img/card_backs/set1/green.gif","2","240","1","",""
"casino-fixation","108","427965","0.0-25.0-0.19","519","true","img/card_backs/set1/green.gif","img/card_backs/set1/red.gif","img/card_backs/set1/yellow.gif","img/card_backs/set1/purple.gif","img/card_backs/set2/blue.gif","img/card_backs/set2/pink.gif","img/card_backs/set2/orange.gif","img/card_backs/set2/gray.gif","""event"",""trial"",""time""
""fullscreenenter"",""1"",""7684""
","
","
","""event"",""trial"",""time""
""fullscreenenter"",""1"",""7684""
","
","","null","","null","","fixation","2021-06-15 21:08:44.420","","","","","",""
"card-selection-trial","109","430820","0.0-25.0-1.19","519","true","img/card_backs/set1/green.gif","img/card_backs/set1/red.gif","img/card_backs/set1/yellow.gif","img/card_backs/set1/purple.gif","img/card_backs/set2/blue.gif","img/card_backs/set2/pink.gif","img/card_backs/set2/orange.gif","img/card_backs/set2/gray.gif","""event"",""trial"",""time""
""fullscreenenter"",""1"",""7684""
","
","
","""event"",""trial"",""time""
""fullscreenenter"",""1"",""7684""
","
","","844.2999999523163","","","","real_trial","2021-06-15 21:08:47.275","img/card_backs/set1/green.gif","0","250","1","",""
"casino-fixation","110","431326","0.0-25.0-0.20","519","true","img/card_backs/set1/green.gif","img/card_backs/set1/red.gif","img/card_backs/set1/yellow.gif","img/card_backs/set1/purple.gif","img/card_backs/set2/blue.gif","img/card_backs/set2/pink.gif","img/card_backs/set2/orange.gif","img/card_backs/set2/gray.gif","""event"",""trial"",""time""
""fullscreenenter"",""1"",""7684""
","
","
","""event"",""trial"",""time""
""fullscreenenter"",""1"",""7684""
","
","","null","","null","","fixation","2021-06-15 21:08:47.781","","","","","",""
"card-selection-trial","111","436808","0.0-25.0-1.20","519","true","img/card_backs/set1/green.gif","img/card_backs/set1/red.gif","img/card_backs/set1/yellow.gif","img/card_backs/set1/purple.gif","img/card_backs/set2/blue.gif","img/card_backs/set2/pink.gif","img/card_backs/set2/orange.gif","img/card_backs/set2/gray.gif","""event"",""trial"",""time""
""fullscreenenter"",""1"",""7684""
","
","
","""event"",""trial"",""time""
""fullscreenenter"",""1"",""7684""
","
","","3474.399999976158","","","","real_trial","2021-06-15 21:08:53.263","img/card_backs/set1/green.gif","3","-200","1","",""
"casino-fixation","112","437311","0.0-25.0-0.21","519","true","img/card_backs/set1/green.gif","img/card_backs/set1/red.gif","img/card_backs/set1/yellow.gif","img/card_backs/set1/purple.gif","img/card_backs/set2/blue.gif","img/card_backs/set2/pink.gif","img/card_backs/set2/orange.gif","img/card_backs/set2/gray.gif","""event"",""trial"",""time""
""fullscreenenter"",""1"",""7684""
","
","
","""event"",""trial"",""time""
""fullscreenenter"",""1"",""7684""
","
","","null","","null","","fixation","2021-06-15 21:08:53.766","","","","","",""
"card-selection-trial","113","440284","0.0-25.0-1.21","519","true","img/card_backs/set1/green.gif","img/card_backs/set1/red.gif","img/card_backs/set1/yellow.gif","img/card_backs/set1/purple.gif","img/card_backs/set2/blue.gif","img/card_backs/set2/pink.gif","img/card_backs/set2/orange.gif","img/card_backs/set2/gray.gif","""event"",""trial"",""time""
""fullscreenenter"",""1"",""7684""
","
","
","""event"",""trial"",""time""
""fullscreenenter"",""1"",""7684""
","
","","962.3999999761581","","","","real_trial","2021-06-15 21:08:56.739","img/card_backs/set1/yellow.gif","3","-90","1","",""
"casino-fixation","114","440788","0.0-25.0-0.22","519","true","img/card_backs/set1/green.gif","img/card_backs/set1/red.gif","img/card_backs/set1/yellow.gif","img/card_backs/set1/purple.gif","img/card_backs/set2/blue.gif","img/card_backs/set2/pink.gif","img/card_backs/set2/orange.gif","img/card_backs/set2/gray.gif","""event"",""trial"",""time""
""fullscreenenter"",""1"",""7684""
","
","
","""event"",""trial"",""time""
""fullscreenenter"",""1"",""7684""
","
","","null","","null","","fixation","2021-06-15 21:08:57.243","","","","","",""
"card-selection-trial","115","443822","0.0-25.0-1.22","519","true","img/card_backs/set1/green.gif","img/card_backs/set1/red.gif","img/card_backs/set1/yellow.gif","img/card_backs/set1/purple.gif","img/card_backs/set2/blue.gif","img/card_backs/set2/pink.gif","img/card_backs/set2/orange.gif","img/card_backs/set2/gray.gif","""event"",""trial"",""time""
""fullscreenenter"",""1"",""7684""
","
","
","""event"",""trial"",""time""
""fullscreenenter"",""1"",""7684""
","
","","1025.2000000476837","","","","real_trial","2021-06-15 21:09:00.277","img/card_backs/set1/yellow.gif","3","40","1","",""
"casino-fixation","116","444324","0.0-25.0-0.23","519","true","img/card_backs/set1/green.gif","img/card_backs/set1/red.gif","img/card_backs/set1/yellow.gif","img/card_backs/set1/purple.gif","img/card_backs/set2/blue.gif","img/card_backs/set2/pink.gif","img/card_backs/set2/orange.gif","img/card_backs/set2/gray.gif","""event"",""trial"",""time""
""fullscreenenter"",""1"",""7684""
","
","
","""event"",""trial"",""time""
""fullscreenenter"",""1"",""7684""
","
","","null","","null","","fixation","2021-06-15 21:09:00.779","","","","","",""
"card-selection-trial","117","446809","0.0-25.0-1.23","519","true","img/card_backs/set1/green.gif","img/card_backs/set1/red.gif","img/card_backs/set1/yellow.gif","img/card_backs/set1/purple.gif","img/card_backs/set2/blue.gif","img/card_backs/set2/pink.gif","img/card_backs/set2/orange.gif","img/card_backs/set2/gray.gif","""event"",""trial"",""time""
""fullscreenenter"",""1"",""7684""
","
","
","""event"",""trial"",""time""
""fullscreenenter"",""1"",""7684""
","
","","474","","","","real_trial","2021-06-15 21:09:03.264","img/card_backs/set1/yellow.gif","3","50","1","",""
"casino-fixation","118","447314","0.0-25.0-0.24","519","true","img/card_backs/set1/green.gif","img/card_backs/set1/red.gif","img/card_backs/set1/yellow.gif","img/card_backs/set1/purple.gif","img/card_backs/set2/blue.gif","img/card_backs/set2/pink.gif","img/card_backs/set2/orange.gif","img/card_backs/set2/gray.gif","""event"",""trial"",""time""
""fullscreenenter"",""1"",""7684""
","
","
","""event"",""trial"",""time""
""fullscreenenter"",""1"",""7684""
","
","","null","","null","","fixation","2021-06-15 21:09:03.769","","","","","",""
"card-selection-trial","119","449787","0.0-25.0-1.24","519","true","img/card_backs/set1/green.gif","img/card_backs/set1/red.gif","img/card_backs/set1/yellow.gif","img/card_backs/set1/purple.gif","img/card_backs/set2/blue.gif","img/card_backs/set2/pink.gif","img/card_backs/set2/orange.gif","img/card_backs/set2/gray.gif","""event"",""trial"",""time""
""fullscreenenter"",""1"",""7684""
","
","
","""event"",""trial"",""time""
""fullscreenenter"",""1"",""7684""
","
","","463.2000000476837","","","","real_trial","2021-06-15 21:09:06.242","img/card_backs/set1/yellow.gif","3","-100","1","",""
"casino-fixation","120","450292","0.0-25.0-0.25","519","true","img/card_backs/set1/green.gif","img/card_backs/set1/red.gif","img/card_backs/set1/yellow.gif","img/card_backs/set1/purple.gif","img/card_backs/set2/blue.gif","img/card_backs/set2/pink.gif","img/card_backs/set2/orange.gif","img/card_backs/set2/gray.gif","""event"",""trial"",""time""
""fullscreenenter"",""1"",""7684""
","
","
","""event"",""trial"",""time""
""fullscreenenter"",""1"",""7684""
","
","","null","","null","","fixation","2021-06-15 21:09:06.747","","","","","",""
"card-selection-trial","121","453622","0.0-25.0-1.25","519","true","img/card_backs/set1/green.gif","img/card_backs/set1/red.gif","img/card_backs/set1/yellow.gif","img/card_backs/set1/purple.gif","img/card_backs/set2/blue.gif","img/card_backs/set2/pink.gif","img/card_backs/set2/orange.gif","img/card_backs/set2/gray.gif","""event"",""trial"",""time""
""fullscreenenter"",""1"",""7684""
","
","
","""event"",""trial"",""time""
""fullscreenenter"",""1"",""7684""
","
","","1320.3000000715256","","","","real_trial","2021-06-15 21:09:10.077","img/card_backs/set1/green.gif","2","-200","1","",""
"casino-fixation","122","454129","0.0-25.0-0.26","519","true","img/card_backs/set1/green.gif","img/card_backs/set1/red.gif","img/card_backs/set1/yellow.gif","img/card_backs/set1/purple.gif","img/card_backs/set2/blue.gif","img/card_backs/set2/pink.gif","img/card_backs/set2/orange.gif","img/card_backs/set2/gray.gif","""event"",""trial"",""time""
""fullscreenenter"",""1"",""7684""
","
","
","""event"",""trial"",""time""
""fullscreenenter"",""1"",""7684""
","
","","null","","null","","fixation","2021-06-15 21:09:10.584","","","","","",""
"card-selection-trial","123","457159","0.0-25.0-1.26","519","true","img/card_backs/set1/green.gif","img/card_backs/set1/red.gif","img/card_backs/set1/yellow.gif","img/card_backs/set1/purple.gif","img/card_backs/set2/blue.gif","img/card_backs/set2/pink.gif","img/card_backs/set2/orange.gif","img/card_backs/set2/gray.gif","""event"",""trial"",""time""
""fullscreenenter"",""1"",""7684""
","
","
","""event"",""trial"",""time""
""fullscreenenter"",""1"",""7684""
","
","","1023.8000000715256","","","","real_trial","2021-06-15 21:09:13.615","img/card_backs/set1/green.gif","0","260","1","",""
"casino-fixation","124","457664","0.0-25.0-0.27","519","true","img/card_backs/set1/green.gif","img/card_backs/set1/red.gif","img/card_backs/set1/yellow.gif","img/card_backs/set1/purple.gif","img/card_backs/set2/blue.gif","img/card_backs/set2/pink.gif","img/card_backs/set2/orange.gif","img/card_backs/set2/gray.gif","""event"",""trial"",""time""
""fullscreenenter"",""1"",""7684""
","
","
","""event"",""trial"",""time""
""fullscreenenter"",""1"",""7684""
","
","","null","","null","","fixation","2021-06-15 21:09:14.119","","","","","",""
"card-selection-trial","125","460625","0.0-25.0-1.27","519","true","img/card_backs/set1/green.gif","img/card_backs/set1/red.gif","img/card_backs/set1/yellow.gif","img/card_backs/set1/purple.gif","img/card_backs/set2/blue.gif","img/card_backs/set2/pink.gif","img/card_backs/set2/orange.gif","img/card_backs/set2/gray.gif","""event"",""trial"",""time""
""fullscreenenter"",""1"",""7684""
","
","
","""event"",""trial"",""time""
""fullscreenenter"",""1"",""7684""
","
","","949.7999999523163","","","","real_trial","2021-06-15 21:09:17.080","img/card_backs/set1/green.gif","1","260","1","",""
"casino-fixation","126","461130","0.0-25.0-0.28","519","true","img/card_backs/set1/green.gif","img/card_backs/set1/red.gif","img/card_backs/set1/yellow.gif","img/card_backs/set1/purple.gif","img/card_backs/set2/blue.gif","img/card_backs/set2/pink.gif","img/card_backs/set2/orange.gif","img/card_backs/set2/gray.gif","""event"",""trial"",""time""
""fullscreenenter"",""1"",""7684""
","
","
","""event"",""trial"",""time""
""fullscreenenter"",""1"",""7684""
","
","","null","","null","","fixation","2021-06-15 21:09:17.585","","","","","",""
"card-selection-trial","127","464462","0.0-25.0-1.28","519","true","img/card_backs/set1/green.gif","img/card_backs/set1/red.gif","img/card_backs/set1/yellow.gif","img/card_backs/set1/purple.gif","img/card_backs/set2/blue.gif","img/card_backs/set2/pink.gif","img/card_backs/set2/orange.gif","img/card_backs/set2/gray.gif","""event"",""trial"",""time""
""fullscreenenter"",""1"",""7684""
","
","
","""event"",""trial"",""time""
""fullscreenenter"",""1"",""7684""
","
","","1321.8999999761581","","","","real_trial","2021-06-15 21:09:20.917","img/card_backs/set1/green.gif","2","240","1","",""
"casino-fixation","128","464967","0.0-25.0-0.29","519","true","img/card_backs/set1/green.gif","img/card_backs/set1/red.gif","img/card_backs/set1/yellow.gif","img/card_backs/set1/purple.gif","img/card_backs/set2/blue.gif","img/card_backs/set2/pink.gif","img/card_backs/set2/orange.gif","img/card_backs/set2/gray.gif","""event"",""trial"",""time""
""fullscreenenter"",""1"",""7684""
","
","
","""event"",""trial"",""time""
""fullscreenenter"",""1"",""7684""
","
","","null","","null","","fixation","2021-06-15 21:09:21.422","","","","","",""
"card-selection-trial","129","467933","0.0-25.0-1.29","519","true","img/card_backs/set1/green.gif","img/card_backs/set1/red.gif","img/card_backs/set1/yellow.gif","img/card_backs/set1/purple.gif","img/card_backs/set2/blue.gif","img/card_backs/set2/pink.gif","img/card_backs/set2/orange.gif","img/card_backs/set2/gray.gif","""event"",""trial"",""time""
""fullscreenenter"",""1"",""7684""
","
","
","""event"",""trial"",""time""
""fullscreenenter"",""1"",""7684""
","
","","956.4000000953674","","","","real_trial","2021-06-15 21:09:24.388","img/card_backs/set1/green.gif","2","-210","1","",""
"casino-fixation","130","468440","0.0-25.0-0.30","519","true","img/card_backs/set1/green.gif","img/card_backs/set1/red.gif","img/card_backs/set1/yellow.gif","img/card_backs/set1/purple.gif","img/card_backs/set2/blue.gif","img/card_backs/set2/pink.gif","img/card_backs/set2/orange.gif","img/card_backs/set2/gray.gif","""event"",""trial"",""time""
""fullscreenenter"",""1"",""7684""
","
","
","""event"",""trial"",""time""
""fullscreenenter"",""1"",""7684""
","
","","null","","null","","fixation","2021-06-15 21:09:24.895","","","","","",""
"card-selection-trial","131","471475","0.0-25.0-1.30","519","true","img/card_backs/set1/green.gif","img/card_backs/set1/red.gif","img/card_backs/set1/yellow.gif","img/card_backs/set1/purple.gif","img/card_backs/set2/blue.gif","img/card_backs/set2/pink.gif","img/card_backs/set2/orange.gif","img/card_backs/set2/gray.gif","""event"",""trial"",""time""
""fullscreenenter"",""1"",""7684""
","
","
","""event"",""trial"",""time""
""fullscreenenter"",""1"",""7684""
","
","","1025.1999999284744","","","","real_trial","2021-06-15 21:09:27.930","img/card_backs/set1/green.gif","0","-190","1","",""
"casino-fixation","132","471980","0.0-25.0-0.31","519","true","img/card_backs/set1/green.gif","img/card_backs/set1/red.gif","img/card_backs/set1/yellow.gif","img/card_backs/set1/purple.gif","img/card_backs/set2/blue.gif","img/card_backs/set2/pink.gif","img/card_backs/set2/orange.gif","img/card_backs/set2/gray.gif","""event"",""trial"",""time""
""fullscreenenter"",""1"",""7684""
","
","
","""event"",""trial"",""time""
""fullscreenenter"",""1"",""7684""
","
","","null","","null","","fixation","2021-06-15 21:09:28.435","","","","","",""
"card-selection-trial","133","474942","0.0-25.0-1.31","519","true","img/card_backs/set1/green.gif","img/card_backs/set1/red.gif","img/card_backs/set1/yellow.gif","img/card_backs/set1/purple.gif","img/card_backs/set2/blue.gif","img/card_backs/set2/pink.gif","img/card_backs/set2/orange.gif","img/card_backs/set2/gray.gif","""event"",""trial"",""time""
""fullscreenenter"",""1"",""7684""
","
","
","""event"",""trial"",""time""
""fullscreenenter"",""1"",""7684""
","
","","953.6000000238419","","","","real_trial","2021-06-15 21:09:31.397","img/card_backs/set1/green.gif","2","-210","1","",""
"casino-fixation","134","475445","0.0-25.0-0.32","519","true","img/card_backs/set1/green.gif","img/card_backs/set1/red.gif","img/card_backs/set1/yellow.gif","img/card_backs/set1/purple.gif","img/card_backs/set2/blue.gif","img/card_backs/set2/pink.gif","img/card_backs/set2/orange.gif","img/card_backs/set2/gray.gif","""event"",""trial"",""time""
""fullscreenenter"",""1"",""7684""
","
","
","""event"",""trial"",""time""
""fullscreenenter"",""1"",""7684""
","
","","null","","null","","fixation","2021-06-15 21:09:31.900","","","","","",""
"card-selection-trial","135","478246","0.0-25.0-1.32","519","true","img/card_backs/set1/green.gif","img/card_backs/set1/red.gif","img/card_backs/set1/yellow.gif","img/card_backs/set1/purple.gif","img/card_backs/set2/blue.gif","img/card_backs/set2/pink.gif","img/card_backs/set2/orange.gif","img/card_backs/set2/gray.gif","""event"",""trial"",""time""
""fullscreenenter"",""1"",""7684""
","
","
","""event"",""trial"",""time""
""fullscreenenter"",""1"",""7684""
","
","","792.6999999284744","","","","real_trial","2021-06-15 21:09:34.701","img/card_backs/set1/green.gif","3","240","1","",""
"casino-fixation","136","478750","0.0-25.0-0.33","519","true","img/card_backs/set1/green.gif","img/card_backs/set1/red.gif","img/card_backs/set1/yellow.gif","img/card_backs/set1/purple.gif","img/card_backs/set2/blue.gif","img/card_backs/set2/pink.gif","img/card_backs/set2/orange.gif","img/card_backs/set2/gray.gif","""event"",""trial"",""time""
""fullscreenenter"",""1"",""7684""
","
","
","""event"",""trial"",""time""
""fullscreenenter"",""1"",""7684""
","
","","null","","null","","fixation","2021-06-15 21:09:35.205","","","","","",""
"card-selection-trial","137","481500","0.0-25.0-1.33","519","true","img/card_backs/set1/green.gif","img/card_backs/set1/red.gif","img/card_backs/set1/yellow.gif","img/card_backs/set1/purple.gif","img/card_backs/set2/blue.gif","img/card_backs/set2/pink.gif","img/card_backs/set2/orange.gif","img/card_backs/set2/gray.gif","""event"",""trial"",""time""
""fullscreenenter"",""1"",""7684""
","
","
","""event"",""trial"",""time""
""fullscreenenter"",""1"",""7684""
","
","","743.3999999761581","","","","real_trial","2021-06-15 21:09:37.956","img/card_backs/set1/green.gif","0","-200","1","",""
"casino-fixation","138","482005","0.0-25.0-0.34","519","true","img/card_backs/set1/green.gif","img/card_backs/set1/red.gif","img/card_backs/set1/yellow.gif","img/card_backs/set1/purple.gif","img/card_backs/set2/blue.gif","img/card_backs/set2/pink.gif","img/card_backs/set2/orange.gif","img/card_backs/set2/gray.gif","""event"",""trial"",""time""
""fullscreenenter"",""1"",""7684""
","
","
","""event"",""trial"",""time""
""fullscreenenter"",""1"",""7684""
","
","","null","","null","","fixation","2021-06-15 21:09:38.461","","","","","",""
"card-selection-trial","139","484896","0.0-25.0-1.34","519","true","img/card_backs/set1/green.gif","img/card_backs/set1/red.gif","img/card_backs/set1/yellow.gif","img/card_backs/set1/purple.gif","img/card_backs/set2/blue.gif","img/card_backs/set2/pink.gif","img/card_backs/set2/orange.gif","img/card_backs/set2/gray.gif","""event"",""trial"",""time""
""fullscreenenter"",""1"",""7684""
","
","
","""event"",""trial"",""time""
""fullscreenenter"",""1"",""7684""
","
","","880.6000000238419","","","","real_trial","2021-06-15 21:09:41.351","img/card_backs/set1/green.gif","1","-190","1","",""
"casino-fixation","140","485401","0.0-25.0-0.35","519","true","img/card_backs/set1/green.gif","img/card_backs/set1/red.gif","img/card_backs/set1/yellow.gif","img/card_backs/set1/purple.gif","img/card_backs/set2/blue.gif","img/card_backs/set2/pink.gif","img/card_backs/set2/orange.gif","img/card_backs/set2/gray.gif","""event"",""trial"",""time""
""fullscreenenter"",""1"",""7684""
","
","
","""event"",""trial"",""time""
""fullscreenenter"",""1"",""7684""
","
","","null","","null","","fixation","2021-06-15 21:09:41.856","","","","","",""
"card-selection-trial","141","488037","0.0-25.0-1.35","519","true","img/card_backs/set1/green.gif","img/card_backs/set1/red.gif","img/card_backs/set1/yellow.gif","img/card_backs/set1/purple.gif","img/card_backs/set2/blue.gif","img/card_backs/set2/pink.gif","img/card_backs/set2/orange.gif","img/card_backs/set2/gray.gif","""event"",""trial"",""time""
""fullscreenenter"",""1"",""7684""
","
","
","""event"",""trial"",""time""
""fullscreenenter"",""1"",""7684""
","
","","625.5","","","","real_trial","2021-06-15 21:09:44.492","img/card_backs/set1/green.gif","3","-200","1","",""
"casino-fixation","142","488542","0.0-25.0-0.36","519","true","img/card_backs/set1/green.gif","img/card_backs/set1/red.gif","img/card_backs/set1/yellow.gif","img/card_backs/set1/purple.gif","img/card_backs/set2/blue.gif","img/card_backs/set2/pink.gif","img/card_backs/set2/orange.gif","img/card_backs/set2/gray.gif","""event"",""trial"",""time""
""fullscreenenter"",""1"",""7684""
","
","
","""event"",""trial"",""time""
""fullscreenenter"",""1"",""7684""
","
","","null","","null","","fixation","2021-06-15 21:09:44.997","","","","","",""
"card-selection-trial","143","492060","0.0-25.0-1.36","519","true","img/card_backs/set1/green.gif","img/card_backs/set1/red.gif","img/card_backs/set1/yellow.gif","img/card_backs/set1/purple.gif","img/card_backs/set2/blue.gif","img/card_backs/set2/pink.gif","img/card_backs/set2/orange.gif","img/card_backs/set2/gray.gif","""event"",""trial"",""time""
""fullscreenenter"",""1"",""7684""
","
","
","""event"",""trial"",""time""
""fullscreenenter"",""1"",""7684""
","
","","1509.3999999761581","","","","real_trial","2021-06-15 21:09:48.515","img/card_backs/set1/red.gif","2","250","1","",""
"casino-fixation","144","492564","0.0-25.0-0.37","519","true","img/card_backs/set1/green.gif","img/card_backs/set1/red.gif","img/card_backs/set1/yellow.gif","img/card_backs/set1/purple.gif","img/card_backs/set2/blue.gif","img/card_backs/set2/pink.gif","img/card_backs/set2/orange.gif","img/card_backs/set2/gray.gif","""event"",""trial"",""time""
""fullscreenenter"",""1"",""7684""
","
","
","""event"",""trial"",""time""
""fullscreenenter"",""1"",""7684""
","
","","null","","null","","fixation","2021-06-15 21:09:49.019","","","","","",""
"card-selection-trial","145","496473","0.0-25.0-1.37","519","true","img/card_backs/set1/green.gif","img/card_backs/set1/red.gif","img/card_backs/set1/yellow.gif","img/card_backs/set1/purple.gif","img/card_backs/set2/blue.gif","img/card_backs/set2/pink.gif","img/card_backs/set2/orange.gif","img/card_backs/set2/gray.gif","""event"",""trial"",""time""
""fullscreenenter"",""1"",""7684""
","
","
","""event"",""trial"",""time""
""fullscreenenter"",""1"",""7684""
","
","","1899.7000000476837","","","","real_trial","2021-06-15 21:09:52.928","img/card_backs/set1/red.gif","0","-200","1","",""
"casino-fixation","146","496977","0.0-25.0-0.38","519","true","img/card_backs/set1/green.gif","img/card_backs/set1/red.gif","img/card_backs/set1/yellow.gif","img/card_backs/set1/purple.gif","img/card_backs/set2/blue.gif","img/card_backs/set2/pink.gif","img/card_backs/set2/orange.gif","img/card_backs/set2/gray.gif","""event"",""trial"",""time""
""fullscreenenter"",""1"",""7684""
","
","
","""event"",""trial"",""time""
""fullscreenenter"",""1"",""7684""
","
","","null","","null","","fixation","2021-06-15 21:09:53.432","","","","","",""
"card-selection-trial","147","499470","0.0-25.0-1.38","519","true","img/card_backs/set1/green.gif","img/card_backs/set1/red.gif","img/card_backs/set1/yellow.gif","img/card_backs/set1/purple.gif","img/card_backs/set2/blue.gif","img/card_backs/set2/pink.gif","img/card_backs/set2/orange.gif","img/card_backs/set2/gray.gif","""event"",""trial"",""time""
""fullscreenenter"",""1"",""7684""
","
","
","""event"",""trial"",""time""
""fullscreenenter"",""1"",""7684""
","
","","482.2999999523163","","","","real_trial","2021-06-15 21:09:55.925","img/card_backs/set1/red.gif","0","-210","1","",""
"casino-fixation","148","499972","0.0-25.0-0.39","519","true","img/card_backs/set1/green.gif","img/card_backs/set1/red.gif","img/card_backs/set1/yellow.gif","img/card_backs/set1/purple.gif","img/card_backs/set2/blue.gif","img/card_backs/set2/pink.gif","img/card_backs/set2/orange.gif","img/card_backs/set2/gray.gif","""event"",""trial"",""time""
""fullscreenenter"",""1"",""7684""
","
","
","""event"",""trial"",""time""
""fullscreenenter"",""1"",""7684""
","
","","null","","null","","fixation","2021-06-15 21:09:56.427","","","","","",""
"card-selection-trial","149","504657","0.0-25.0-1.39","519","true","img/card_backs/set1/green.gif","img/card_backs/set1/red.gif","img/card_backs/set1/yellow.gif","img/card_backs/set1/purple.gif","img/card_backs/set2/blue.gif","img/card_backs/set2/pink.gif","img/card_backs/set2/orange.gif","img/card_backs/set2/gray.gif","""event"",""trial"",""time""
""fullscreenenter"",""1"",""7684""
","
","
","""event"",""trial"",""time""
""fullscreenenter"",""1"",""7684""
","
","","2674.899999976158","","","","real_trial","2021-06-15 21:10:01.112","img/card_backs/set1/yellow.gif","1","-100","1","",""
"casino-fixation","150","505162","0.0-25.0-0.40","519","true","img/card_backs/set1/green.gif","img/card_backs/set1/red.gif","img/card_backs/set1/yellow.gif","img/card_backs/set1/purple.gif","img/card_backs/set2/blue.gif","img/card_backs/set2/pink.gif","img/card_backs/set2/orange.gif","img/card_backs/set2/gray.gif","""event"",""trial"",""time""
""fullscreenenter"",""1"",""7684""
","
","
","""event"",""trial"",""time""
""fullscreenenter"",""1"",""7684""
","
","","null","","null","","fixation","2021-06-15 21:10:01.617","","","","","",""
"card-selection-trial","151","518174","0.0-25.0-1.40","519","true","img/card_backs/set1/green.gif","img/card_backs/set1/red.gif","img/card_backs/set1/yellow.gif","img/card_backs/set1/purple.gif","img/card_backs/set2/blue.gif","img/card_backs/set2/pink.gif","img/card_backs/set2/orange.gif","img/card_backs/set2/gray.gif","""event"",""trial"",""time""
""fullscreenenter"",""1"",""7684""
","
","
","""event"",""trial"",""time""
""fullscreenenter"",""1"",""7684""
","
","","null","","","","real_trial","2021-06-15 21:10:14.629","null","null","null","1","",""
"casino-fixation","152","518677","0.0-25.0-0.41","519","true","img/card_backs/set1/green.gif","img/card_backs/set1/red.gif","img/card_backs/set1/yellow.gif","img/card_backs/set1/purple.gif","img/card_backs/set2/blue.gif","img/card_backs/set2/pink.gif","img/card_backs/set2/orange.gif","img/card_backs/set2/gray.gif","""event"",""trial"",""time""
""fullscreenenter"",""1"",""7684""
","
","
","""event"",""trial"",""time""
""fullscreenenter"",""1"",""7684""
","
","","null","","null","","fixation","2021-06-15 21:10:15.132","","","","","",""
"card-selection-trial","153","523264","0.0-25.0-1.41","519","true","img/card_backs/set1/green.gif","img/card_backs/set1/red.gif","img/card_backs/set1/yellow.gif","img/card_backs/set1/purple.gif","img/card_backs/set2/blue.gif","img/card_backs/set2/pink.gif","img/card_backs/set2/orange.gif","img/card_backs/set2/gray.gif","""event"",""trial"",""time""
""fullscreenenter"",""1"",""7684""
","
","
","""event"",""trial"",""time""
""fullscreenenter"",""1"",""7684""
","
","","2574.2000000476837","","","","real_trial","2021-06-15 21:10:19.719","img/card_backs/set1/green.gif","0","-210","1","",""
"casino-fixation","154","523768","0.0-25.0-0.42","519","true","img/card_backs/set1/green.gif","img/card_backs/set1/red.gif","img/card_backs/set1/yellow.gif","img/card_backs/set1/purple.gif","img/card_backs/set2/blue.gif","img/card_backs/set2/pink.gif","img/card_backs/set2/orange.gif","img/card_backs/set2/gray.gif","""event"",""trial"",""time""
""fullscreenenter"",""1"",""7684""
","
","
","""event"",""trial"",""time""
""fullscreenenter"",""1"",""7684""
","
","","null","","null","","fixation","2021-06-15 21:10:20.223","","","","","",""
"card-selection-trial","155","527024","0.0-25.0-1.42","519","true","img/card_backs/set1/green.gif","img/card_backs/set1/red.gif","img/card_backs/set1/yellow.gif","img/card_backs/set1/purple.gif","img/card_backs/set2/blue.gif","img/card_backs/set2/pink.gif","img/card_backs/set2/orange.gif","img/card_backs/set2/gray.gif","""event"",""trial"",""time""
""fullscreenenter"",""1"",""7684""
","
","
","""event"",""trial"",""time""
""fullscreenenter"",""1"",""7684""
","
","","1250.5","","","","real_trial","2021-06-15 21:10:23.479","img/card_backs/set1/green.gif","2","-190","1","",""
"casino-fixation","156","527529","0.0-25.0-0.43","519","true","img/card_backs/set1/green.gif","img/card_backs/set1/red.gif","img/card_backs/set1/yellow.gif","img/card_backs/set1/purple.gif","img/card_backs/set2/blue.gif","img/card_backs/set2/pink.gif","img/card_backs/set2/orange.gif","img/card_backs/set2/gray.gif","""event"",""trial"",""time""
""fullscreenenter"",""1"",""7684""
","
","
","""event"",""trial"",""time""
""fullscreenenter"",""1"",""7684""
","
","","null","","null","","fixation","2021-06-15 21:10:23.984","","","","","",""
"card-selection-trial","157","530497","0.0-25.0-1.43","519","true","img/card_backs/set1/green.gif","img/card_backs/set1/red.gif","img/card_backs/set1/yellow.gif","img/card_backs/set1/purple.gif","img/card_backs/set2/blue.gif","img/card_backs/set2/pink.gif","img/card_backs/set2/orange.gif","img/card_backs/set2/gray.gif","""event"",""trial"",""time""
""fullscreenenter"",""1"",""7684""
","
","
","""event"",""trial"",""time""
""fullscreenenter"",""1"",""7684""
","
","","956.3999999761581","","","","real_trial","2021-06-15 21:10:26.952","img/card_backs/set1/red.gif","1","250","1","",""
"casino-fixation","158","531002","0.0-25.0-0.44","519","true","img/card_backs/set1/green.gif","img/card_backs/set1/red.gif","img/card_backs/set1/yellow.gif","img/card_backs/set1/purple.gif","img/card_backs/set2/blue.gif","img/card_backs/set2/pink.gif","img/card_backs/set2/orange.gif","img/card_backs/set2/gray.gif","""event"",""trial"",""time""
""fullscreenenter"",""1"",""7684""
","
","
","""event"",""trial"",""time""
""fullscreenenter"",""1"",""7684""
","
","","null","","null","","fixation","2021-06-15 21:10:27.457","","","","","",""
"card-selection-trial","159","534531","0.0-25.0-1.44","519","true","img/card_backs/set1/green.gif","img/card_backs/set1/red.gif","img/card_backs/set1/yellow.gif","img/card_backs/set1/purple.gif","img/card_backs/set2/blue.gif","img/card_backs/set2/pink.gif","img/card_backs/set2/orange.gif","img/card_backs/set2/gray.gif","""event"",""trial"",""time""
""fullscreenenter"",""1"",""7684""
","
","
","""event"",""trial"",""time""
""fullscreenenter"",""1"",""7684""
","
","","1520","","","","real_trial","2021-06-15 21:10:30.986","img/card_backs/set1/red.gif","3","-190","1","",""
"casino-fixation","160","535035","0.0-25.0-0.45","519","true","img/card_backs/set1/green.gif","img/card_backs/set1/red.gif","img/card_backs/set1/yellow.gif","img/card_backs/set1/purple.gif","img/card_backs/set2/blue.gif","img/card_backs/set2/pink.gif","img/card_backs/set2/orange.gif","img/card_backs/set2/gray.gif","""event"",""trial"",""time""
""fullscreenenter"",""1"",""7684""
","
","
","""event"",""trial"",""time""
""fullscreenenter"",""1"",""7684""
","
","","null","","null","","fixation","2021-06-15 21:10:31.491","","","","","",""
"card-selection-trial","161","538043","0.0-25.0-1.45","519","true","img/card_backs/set1/green.gif","img/card_backs/set1/red.gif","img/card_backs/set1/yellow.gif","img/card_backs/set1/purple.gif","img/card_backs/set2/blue.gif","img/card_backs/set2/pink.gif","img/card_backs/set2/orange.gif","img/card_backs/set2/gray.gif","""event"",""trial"",""time""
""fullscreenenter"",""1"",""7684""
","
","
","""event"",""trial"",""time""
""fullscreenenter"",""1"",""7684""
","
","","997.1000000238419","","","","real_trial","2021-06-15 21:10:34.498","img/card_backs/set1/green.gif","0","-200","1","",""
"casino-fixation","162","538545","0.0-25.0-0.46","519","true","img/card_backs/set1/green.gif","img/card_backs/set1/red.gif","img/card_backs/set1/yellow.gif","img/card_backs/set1/purple.gif","img/card_backs/set2/blue.gif","img/card_backs/set2/pink.gif","img/card_backs/set2/orange.gif","img/card_backs/set2/gray.gif","""event"",""trial"",""time""
""fullscreenenter"",""1"",""7684""
","
","
","""event"",""trial"",""time""
""fullscreenenter"",""1"",""7684""
","
","","null","","null","","fixation","2021-06-15 21:10:35.000","","","","","",""
"card-selection-trial","163","541735","0.0-25.0-1.46","519","true","img/card_backs/set1/green.gif","img/card_backs/set1/red.gif","img/card_backs/set1/yellow.gif","img/card_backs/set1/purple.gif","img/card_backs/set2/blue.gif","img/card_backs/set2/pink.gif","img/card_backs/set2/orange.gif","img/card_backs/set2/gray.gif","""event"",""trial"",""time""
""fullscreenenter"",""1"",""7684""
","
","
","""event"",""trial"",""time""
""fullscreenenter"",""1"",""7684""
","
","","1182.8999999761581","","","","real_trial","2021-06-15 21:10:38.190","img/card_backs/set1/purple.gif","2","-90","1","",""
"casino-fixation","164","542240","0.0-25.0-0.47","519","true","img/card_backs/set1/green.gif","img/card_backs/set1/red.gif","img/card_backs/set1/yellow.gif","img/card_backs/set1/purple.gif","img/card_backs/set2/blue.gif","img/card_backs/set2/pink.gif","img/card_backs/set2/orange.gif","img/card_backs/set2/gray.gif","""event"",""trial"",""time""
""fullscreenenter"",""1"",""7684""
","
","
","""event"",""trial"",""time""
""fullscreenenter"",""1"",""7684""
","
","","null","","null","","fixation","2021-06-15 21:10:38.695","","","","","",""
"card-selection-trial","165","545456","0.0-25.0-1.47","519","true","img/card_backs/set1/green.gif","img/card_backs/set1/red.gif","img/card_backs/set1/yellow.gif","img/card_backs/set1/purple.gif","img/card_backs/set2/blue.gif","img/card_backs/set2/pink.gif","img/card_backs/set2/orange.gif","img/card_backs/set2/gray.gif","""event"",""trial"",""time""
""fullscreenenter"",""1"",""7684""
","
","
","""event"",""trial"",""time""
""fullscreenenter"",""1"",""7684""
","
","","1205.5","","","","real_trial","2021-06-15 21:10:41.911","img/card_backs/set1/purple.gif","1","60","1","",""
"casino-fixation","166","545960","0.0-25.0-0.48","519","true","img/card_backs/set1/green.gif","img/card_backs/set1/red.gif","img/card_backs/set1/yellow.gif","img/card_backs/set1/purple.gif","img/card_backs/set2/blue.gif","img/card_backs/set2/pink.gif","img/card_backs/set2/orange.gif","img/card_backs/set2/gray.gif","""event"",""trial"",""time""
""fullscreenenter"",""1"",""7684""
","
","
","""event"",""trial"",""time""
""fullscreenenter"",""1"",""7684""
","
","","null","","null","","fixation","2021-06-15 21:10:42.415","","","","","",""
"card-selection-trial","167","548428","0.0-25.0-1.48","519","true","img/card_backs/set1/green.gif","img/card_backs/set1/red.gif","img/card_backs/set1/yellow.gif","img/card_backs/set1/purple.gif","img/card_backs/set2/blue.gif","img/card_backs/set2/pink.gif","img/card_backs/set2/orange.gif","img/card_backs/set2/gray.gif","""event"",""trial"",""time""
""fullscreenenter"",""1"",""7684""
","
","
","""event"",""trial"",""time""
""fullscreenenter"",""1"",""7684""
","
","","459.8000000715256","","","","real_trial","2021-06-15 21:10:44.883","img/card_backs/set1/green.gif","1","260","1","",""
