"trial_type","trial_index","time_elapsed","internal_node_id","sub_id","risk_good_first","block1_A","block1_B","block1_C","block1_D","block2_A","block2_B","block2_C","block2_D","interactions","blur_events","focus_events","fullscreenenter_events","fullscreenexit_events","success","rt","stimulus","key_press","button_pressed","task_part","timestamp","card_choice","choice_position","points_earned","block","correct","response"
"pavlovia","0","3","0.0-0.0","403","true","img/card_backs/set1/red.gif","img/card_backs/set1/purple.gif","img/card_backs/set1/green.gif","img/card_backs/set1/yellow.gif","img/card_backs/set2/orange.gif","img/card_backs/set2/pink.gif","img/card_backs/set2/gray.gif","img/card_backs/set2/blue.gif","""event"",""trial"",""time""
""fullscreenenter"",""1"",""1981""
","
","
","""event"",""trial"",""time""
""fullscreenenter"",""1"",""1981""
","
","","","","","","","","","","","","",""
"fullscreen","1","2972","0.0-1.0","403","true","img/card_backs/set1/red.gif","img/card_backs/set1/purple.gif","img/card_backs/set1/green.gif","img/card_backs/set1/yellow.gif","img/card_backs/set2/orange.gif","img/card_backs/set2/pink.gif","img/card_backs/set2/gray.gif","img/card_backs/set2/blue.gif","""event"",""trial"",""time""
""fullscreenenter"",""1"",""1981""
","
","
","""event"",""trial"",""time""
""fullscreenenter"",""1"",""1981""
","
","true","","","","","","","","","","","",""
"audio-keyboard-response","2","4702","0.0-2.0","403","true","img/card_backs/set1/red.gif","img/card_backs/set1/purple.gif","img/card_backs/set1/green.gif","img/card_backs/set1/yellow.gif","img/card_backs/set2/orange.gif","img/card_backs/set2/pink.gif","img/card_backs/set2/gray.gif","img/card_backs/set2/blue.gif","""event"",""trial"",""time""
""fullscreenenter"",""1"",""1981""
","
","
","""event"",""trial"",""time""
""fullscreenenter"",""1"",""1981""
","
","","1720","audio/beep_loop.wav","32","","","","","","","","",""
"audio-button-response","3","6277","0.0-3.0","403","true","img/card_backs/set1/red.gif","img/card_backs/set1/purple.gif","img/card_backs/set1/green.gif","img/card_backs/set1/yellow.gif","img/card_backs/set2/orange.gif","img/card_backs/set2/pink.gif","img/card_backs/set2/gray.gif","img/card_backs/set2/blue.gif","""event"",""trial"",""time""
""fullscreenenter"",""1"",""1981""
","
","
","""event"",""trial"",""time""
""fullscreenenter"",""1"",""1981""
","
","","NaN","audio/turtle.mp3","","3","","","","","","","",""
"audio-button-response","4","8380","0.0-4.0","403","true","img/card_backs/set1/red.gif","img/card_backs/set1/purple.gif","img/card_backs/set1/green.gif","img/card_backs/set1/yellow.gif","img/card_backs/set2/orange.gif","img/card_backs/set2/pink.gif","img/card_backs/set2/gray.gif","img/card_backs/set2/blue.gif","""event"",""trial"",""time""
""fullscreenenter"",""1"",""1981""
","
","
","""event"",""trial"",""time""
""fullscreenenter"",""1"",""1981""
","
","","NaN","audio/shark.mp3","","2","","","","","","","",""
"fullscreen","5","11212","0.0-5.0","403","true","img/card_backs/set1/red.gif","img/card_backs/set1/purple.gif","img/card_backs/set1/green.gif","img/card_backs/set1/yellow.gif","img/card_backs/set2/orange.gif","img/card_backs/set2/pink.gif","img/card_backs/set2/gray.gif","img/card_backs/set2/blue.gif","""event"",""trial"",""time""
""fullscreenenter"",""1"",""1981""
","
","
","""event"",""trial"",""time""
""fullscreenenter"",""1"",""1981""
","
","true","","","","","","","","","","","",""
"casino-keyboard-response","6","14108","0.0-6.0-0.0","403","true","img/card_backs/set1/red.gif","img/card_backs/set1/purple.gif","img/card_backs/set1/green.gif","img/card_backs/set1/yellow.gif","img/card_backs/set2/orange.gif","img/card_backs/set2/pink.gif","img/card_backs/set2/gray.gif","img/card_backs/set2/blue.gif","""event"",""trial"",""time""
""fullscreenenter"",""1"",""1981""
","
","
","""event"",""trial"",""time""
""fullscreenenter"",""1"",""1981""
","
","","2893.399999856949","Welcome to the casino!","71","","instructions","2021-06-17 22:29:02.123","","","","","",""
"casino-keyboard-response","7","23514","0.0-6.0-0.1","403","true","img/card_backs/set1/red.gif","img/card_backs/set1/purple.gif","img/card_backs/set1/green.gif","img/card_backs/set1/yellow.gif","img/card_backs/set2/orange.gif","img/card_backs/set2/pink.gif","img/card_backs/set2/gray.gif","img/card_backs/set2/blue.gif","""event"",""trial"",""time""
""fullscreenenter"",""1"",""1981""
","
","
","""event"",""trial"",""time""
""fullscreenenter"",""1"",""1981""
","
","","9405.299999952316","Today you will be playing a game to earn tokens. </br> At the end of the experiment, you will be paid a bonus based on how many tokens you win. ","69","","instructions","2021-06-17 22:29:11.530","","","","","",""
"casino-keyboard-response","8","30828","0.0-6.0-0.2","403","true","img/card_backs/set1/red.gif","img/card_backs/set1/purple.gif","img/card_backs/set1/green.gif","img/card_backs/set1/yellow.gif","img/card_backs/set2/orange.gif","img/card_backs/set2/pink.gif","img/card_backs/set2/gray.gif","img/card_backs/set2/blue.gif","""event"",""trial"",""time""
""fullscreenenter"",""1"",""1981""
","
","
","""event"",""trial"",""time""
""fullscreenenter"",""1"",""1981""
","
","","7312.200000047684","On every turn, you will be shown four different decks of cards. </br> You need to select a card from one of the four decks.  ","75","","instructions","2021-06-17 22:29:18.843","","","","","",""
"casino-keyboard-response","9","35581","0.0-6.0-0.3","403","true","img/card_backs/set1/red.gif","img/card_backs/set1/purple.gif","img/card_backs/set1/green.gif","img/card_backs/set1/yellow.gif","img/card_backs/set2/orange.gif","img/card_backs/set2/pink.gif","img/card_backs/set2/gray.gif","img/card_backs/set2/blue.gif","""event"",""trial"",""time""
""fullscreenenter"",""1"",""1981""
","
","
","""event"",""trial"",""time""
""fullscreenenter"",""1"",""1981""
","
","","4751.200000047684","On the next screen, you will see what the decks will look like. ","66","","instructions","2021-06-17 22:29:23.596","","","","","",""
"card-selection-trial","10","39620","0.0-7.0-0.0","403","true","img/card_backs/set1/red.gif","img/card_backs/set1/purple.gif","img/card_backs/set1/green.gif","img/card_backs/set1/yellow.gif","img/card_backs/set2/orange.gif","img/card_backs/set2/pink.gif","img/card_backs/set2/gray.gif","img/card_backs/set2/blue.gif","""event"",""trial"",""time""
""fullscreenenter"",""1"",""1981""
","
","
","""event"",""trial"",""time""
""fullscreenenter"",""1"",""1981""
","
","","null","","","","practice","2021-06-17 22:29:27.635","null","null","null","0","",""
"casino-keyboard-response","11","47440","0.0-8.0-0.0","403","true","img/card_backs/set1/red.gif","img/card_backs/set1/purple.gif","img/card_backs/set1/green.gif","img/card_backs/set1/yellow.gif","img/card_backs/set2/orange.gif","img/card_backs/set2/pink.gif","img/card_backs/set2/gray.gif","img/card_backs/set2/blue.gif","""event"",""trial"",""time""
""fullscreenenter"",""1"",""1981""
","
","
","""event"",""trial"",""time""
""fullscreenenter"",""1"",""1981""
","
","","7818.200000047684","You should pick a card from a deck using the '2', '4', '6', and '8' keys at the top of the keyboard.","85","","instructions","2021-06-17 22:29:35.455","","","","","",""
"casino-keyboard-response","12","52642","0.0-8.0-0.1","403","true","img/card_backs/set1/red.gif","img/card_backs/set1/purple.gif","img/card_backs/set1/green.gif","img/card_backs/set1/yellow.gif","img/card_backs/set2/orange.gif","img/card_backs/set2/pink.gif","img/card_backs/set2/gray.gif","img/card_backs/set2/blue.gif","""event"",""trial"",""time""
""fullscreenenter"",""1"",""1981""
","
","
","""event"",""trial"",""time""
""fullscreenenter"",""1"",""1981""
","
","","5205.599999904633","Once you select a card, it will turn over and you will see how many tokens you earned.","83","","instructions","2021-06-17 22:29:40.657","","","","","",""
"casino-keyboard-response","13","70046","0.0-8.0-0.2","403","true","img/card_backs/set1/red.gif","img/card_backs/set1/purple.gif","img/card_backs/set1/green.gif","img/card_backs/set1/yellow.gif","img/card_backs/set2/orange.gif","img/card_backs/set2/pink.gif","img/card_backs/set2/gray.gif","img/card_backs/set2/blue.gif","""event"",""trial"",""time""
""fullscreenenter"",""1"",""1981""
","
","
","""event"",""trial"",""time""
""fullscreenenter"",""1"",""1981""
","
","","17401.099999904633","Let's try practicing that! </br> First, try to put your fingers over the '2', '4', '6', and '8' keys. </br>  You can use whatever fingers are most comfortable for you. Try to find a comfortable position now. ","50","","instructions","2021-06-17 22:29:58.061","","","","","",""
"casino-keyboard-response","14","75774","0.0-8.0-0.3","403","true","img/card_backs/set1/red.gif","img/card_backs/set1/purple.gif","img/card_backs/set1/green.gif","img/card_backs/set1/yellow.gif","img/card_backs/set2/orange.gif","img/card_backs/set2/pink.gif","img/card_backs/set2/gray.gif","img/card_backs/set2/blue.gif","""event"",""trial"",""time""
""fullscreenenter"",""1"",""1981""
","
","
","""event"",""trial"",""time""
""fullscreenenter"",""1"",""1981""
","
","","5726.5","Okay ready? </br> On the next screen, press '2' to select the left deck. ","50","","instructions","2021-06-17 22:30:03.789","","","","","",""
"card-selection-trial","15","80428","0.0-9.0-0.0","403","true","img/card_backs/set1/red.gif","img/card_backs/set1/purple.gif","img/card_backs/set1/green.gif","img/card_backs/set1/yellow.gif","img/card_backs/set2/orange.gif","img/card_backs/set2/pink.gif","img/card_backs/set2/gray.gif","img/card_backs/set2/blue.gif","""event"",""trial"",""time""
""fullscreenenter"",""1"",""1981""
","
","
","""event"",""trial"",""time""
""fullscreenenter"",""1"",""1981""
","
","","2628.5999999046326","","","","practice_card_selection","2021-06-17 22:30:08.443","img/practice_cards/backs/black.gif","0","-100","","",""
"casino-keyboard-response","16","84084","0.0-10.0-0.0","403","true","img/card_backs/set1/red.gif","img/card_backs/set1/purple.gif","img/card_backs/set1/green.gif","img/card_backs/set1/yellow.gif","img/card_backs/set2/orange.gif","img/card_backs/set2/pink.gif","img/card_backs/set2/gray.gif","img/card_backs/set2/blue.gif","""event"",""trial"",""time""
""fullscreenenter"",""1"",""1981""
","
","
","""event"",""trial"",""time""
""fullscreenenter"",""1"",""1981""
","
","","3654.399999856949","Great! Now on the next screen, try pressing '6' to select the third deck.","54","","instructions","2021-06-17 22:30:12.099","","","","","",""
"card-selection-trial","17","86817","0.0-11.0-0.0","403","true","img/card_backs/set1/red.gif","img/card_backs/set1/purple.gif","img/card_backs/set1/green.gif","img/card_backs/set1/yellow.gif","img/card_backs/set2/orange.gif","img/card_backs/set2/pink.gif","img/card_backs/set2/gray.gif","img/card_backs/set2/blue.gif","""event"",""trial"",""time""
""fullscreenenter"",""1"",""1981""
","
","
","""event"",""trial"",""time""
""fullscreenenter"",""1"",""1981""
","
","","712.8999998569489","","","","practice_card_selection","2021-06-17 22:30:14.832","img/practice_cards/backs/dark_green.gif","2","200","","",""
"casino-keyboard-response","18","88068","0.0-12.0-0.0","403","true","img/card_backs/set1/red.gif","img/card_backs/set1/purple.gif","img/card_backs/set1/green.gif","img/card_backs/set1/yellow.gif","img/card_backs/set2/orange.gif","img/card_backs/set2/pink.gif","img/card_backs/set2/gray.gif","img/card_backs/set2/blue.gif","""event"",""trial"",""time""
""fullscreenenter"",""1"",""1981""
","
","
","""event"",""trial"",""time""
""fullscreenenter"",""1"",""1981""
","
","","1249.0999999046326","Now on the next screen, try pressing '4' to select the second deck.","52","","instructions","2021-06-17 22:30:16.083","","","","","",""
"card-selection-trial","19","90678","0.0-13.0-0.0","403","true","img/card_backs/set1/red.gif","img/card_backs/set1/purple.gif","img/card_backs/set1/green.gif","img/card_backs/set1/yellow.gif","img/card_backs/set2/orange.gif","img/card_backs/set2/pink.gif","img/card_backs/set2/gray.gif","img/card_backs/set2/blue.gif","""event"",""trial"",""time""
""fullscreenenter"",""1"",""1981""
","
","
","""event"",""trial"",""time""
""fullscreenenter"",""1"",""1981""
","
","","594.6000001430511","","","","practice_card_selection","2021-06-17 22:30:18.693","img/practice_cards/backs/dark_blue.gif","1","200","","",""
"casino-keyboard-response","20","93208","0.0-14.0-0.0","403","true","img/card_backs/set1/red.gif","img/card_backs/set1/purple.gif","img/card_backs/set1/green.gif","img/card_backs/set1/yellow.gif","img/card_backs/set2/orange.gif","img/card_backs/set2/pink.gif","img/card_backs/set2/gray.gif","img/card_backs/set2/blue.gif","""event"",""trial"",""time""
""fullscreenenter"",""1"",""1981""
","
","
","""event"",""trial"",""time""
""fullscreenenter"",""1"",""1981""
","
","","2529.2999999523163","Finally, try pressing '8' to select the deck all the way on the right.","56","","instructions","2021-06-17 22:30:21.223","","","","","",""
"card-selection-trial","21","95607","0.0-15.0-0.0","403","true","img/card_backs/set1/red.gif","img/card_backs/set1/purple.gif","img/card_backs/set1/green.gif","img/card_backs/set1/yellow.gif","img/card_backs/set2/orange.gif","img/card_backs/set2/pink.gif","img/card_backs/set2/gray.gif","img/card_backs/set2/blue.gif","""event"",""trial"",""time""
""fullscreenenter"",""1"",""1981""
","
","
","""event"",""trial"",""time""
""fullscreenenter"",""1"",""1981""
","
","","379","","","","practice_card_selection","2021-06-17 22:30:23.622","img/practice_cards/backs/dark_green.gif","3","-200","","",""
"casino-keyboard-response","22","99683","0.0-16.0-0.0","403","true","img/card_backs/set1/red.gif","img/card_backs/set1/purple.gif","img/card_backs/set1/green.gif","img/card_backs/set1/yellow.gif","img/card_backs/set2/orange.gif","img/card_backs/set2/pink.gif","img/card_backs/set2/gray.gif","img/card_backs/set2/blue.gif","""event"",""trial"",""time""
""fullscreenenter"",""1"",""1981""
","
","
","""event"",""trial"",""time""
""fullscreenenter"",""1"",""1981""
","
","","4074.5","Great! It seems like you are getting the hang of this.","80","","instructions","2021-06-17 22:30:27.698","","","","","",""
"casino-keyboard-response","23","106829","0.0-16.0-0.1","403","true","img/card_backs/set1/red.gif","img/card_backs/set1/purple.gif","img/card_backs/set1/green.gif","img/card_backs/set1/yellow.gif","img/card_backs/set2/orange.gif","img/card_backs/set2/pink.gif","img/card_backs/set2/gray.gif","img/card_backs/set2/blue.gif","""event"",""trial"",""time""
""fullscreenenter"",""1"",""1981""
","
","
","""event"",""trial"",""time""
""fullscreenenter"",""1"",""1981""
","
","","7144.5","You may have noticed that some cards will cause you to <b> win </b> tokens while other cards will cause you to <b> lose </b>  tokens.","70","","instructions","2021-06-17 22:30:34.844","","","","","",""
"casino-keyboard-response","24","114951","0.0-16.0-0.2","403","true","img/card_backs/set1/red.gif","img/card_backs/set1/purple.gif","img/card_backs/set1/green.gif","img/card_backs/set1/yellow.gif","img/card_backs/set2/orange.gif","img/card_backs/set2/pink.gif","img/card_backs/set2/gray.gif","img/card_backs/set2/blue.gif","""event"",""trial"",""time""
""fullscreenenter"",""1"",""1981""
","
","
","""event"",""trial"",""time""
""fullscreenenter"",""1"",""1981""
","
","","8115.400000095367","Each deck has a mix of cards that will cause you to win and lose tokens. </br> However, the cards in each colored deck are different.","73","","instructions","2021-06-17 22:30:42.966","","","","","",""
"casino-keyboard-response","25","124097","0.0-16.0-0.3","403","true","img/card_backs/set1/red.gif","img/card_backs/set1/purple.gif","img/card_backs/set1/green.gif","img/card_backs/set1/yellow.gif","img/card_backs/set2/orange.gif","img/card_backs/set2/pink.gif","img/card_backs/set2/gray.gif","img/card_backs/set2/blue.gif","""event"",""trial"",""time""
""fullscreenenter"",""1"",""1981""
","
","
","""event"",""trial"",""time""
""fullscreenenter"",""1"",""1981""
","
","","9144.400000095367","Some colored decks are luckier than others. </br> If you choose the lucky decks, you will earn more tokens than if you choose the unlucky decks.","69","","instructions","2021-06-17 22:30:52.112","","","","","",""
"casino-keyboard-response","26","131254","0.0-16.0-0.4","403","true","img/card_backs/set1/red.gif","img/card_backs/set1/purple.gif","img/card_backs/set1/green.gif","img/card_backs/set1/yellow.gif","img/card_backs/set2/orange.gif","img/card_backs/set2/pink.gif","img/card_backs/set2/gray.gif","img/card_backs/set2/blue.gif","""event"",""trial"",""time""
""fullscreenenter"",""1"",""1981""
","
","
","""event"",""trial"",""time""
""fullscreenenter"",""1"",""1981""
","
","","7155","You should try to figure out which decks are lucky. </br> Then, try to choose the lucky decks so you can win the most tokens.","87","","instructions","2021-06-17 22:30:59.269","","","","","",""
"casino-keyboard-response","27","142647","0.0-16.0-0.5","403","true","img/card_backs/set1/red.gif","img/card_backs/set1/purple.gif","img/card_backs/set1/green.gif","img/card_backs/set1/yellow.gif","img/card_backs/set2/orange.gif","img/card_backs/set2/pink.gif","img/card_backs/set2/gray.gif","img/card_backs/set2/blue.gif","""event"",""trial"",""time""
""fullscreenenter"",""1"",""1981""
","
","
","""event"",""trial"",""time""
""fullscreenenter"",""1"",""1981""
","
","","11392.400000095367","To make it trickier, the casino dealer will switch the locations of the decks on every turn. </br> The color of the deck determines how lucky it is. The location does not matter.","88","","instructions","2021-06-17 22:31:10.663","","","","","",""
"casino-keyboard-response","28","186163","0.0-16.0-0.6","403","true","img/card_backs/set1/red.gif","img/card_backs/set1/purple.gif","img/card_backs/set1/green.gif","img/card_backs/set1/yellow.gif","img/card_backs/set2/orange.gif","img/card_backs/set2/pink.gif","img/card_backs/set2/gray.gif","img/card_backs/set2/blue.gif","""event"",""trial"",""time""
""fullscreenenter"",""1"",""1981""
","
","
","""event"",""trial"",""time""
""fullscreenenter"",""1"",""1981""
","
","","43514.199999809265","The mix of cards in each colored deck will stay the same throughout the game. </br> That means that a deck that is lucky early on will stay lucky.","79","","instructions","2021-06-17 22:31:54.178","","","","","",""
"casino-keyboard-response","29","195983","0.0-16.0-0.7","403","true","img/card_backs/set1/red.gif","img/card_backs/set1/purple.gif","img/card_backs/set1/green.gif","img/card_backs/set1/yellow.gif","img/card_backs/set2/orange.gif","img/card_backs/set2/pink.gif","img/card_backs/set2/gray.gif","img/card_backs/set2/blue.gif","""event"",""trial"",""time""
""fullscreenenter"",""1"",""1981""
","
","
","""event"",""trial"",""time""
""fullscreenenter"",""1"",""1981""
","
","","9818.100000143051","Remember though, all the decks have a <b> mix </b> of both <b> good </b> and <b> bad </b> cards so it may take a couple of turns to figure out if a deck is lucky.","69","","instructions","2021-06-17 22:32:03.998","","","","","",""
"casino-keyboard-response","30","203989","0.0-16.0-0.8","403","true","img/card_backs/set1/red.gif","img/card_backs/set1/purple.gif","img/card_backs/set1/green.gif","img/card_backs/set1/yellow.gif","img/card_backs/set2/orange.gif","img/card_backs/set2/pink.gif","img/card_backs/set2/gray.gif","img/card_backs/set2/blue.gif","""event"",""trial"",""time""
""fullscreenenter"",""1"",""1981""
","
","
","""event"",""trial"",""time""
""fullscreenenter"",""1"",""1981""
","
","","8004.900000095367","At the end of the game, you will be paid bonus money based on how many tokens you win. </br> If you win more tokens, you will earn more money!","72","","instructions","2021-06-17 22:32:12.004","","","","","",""
"casino-keyboard-response","31","213938","0.0-16.0-0.9","403","true","img/card_backs/set1/red.gif","img/card_backs/set1/purple.gif","img/card_backs/set1/green.gif","img/card_backs/set1/yellow.gif","img/card_backs/set2/orange.gif","img/card_backs/set2/pink.gif","img/card_backs/set2/gray.gif","img/card_backs/set2/blue.gif","""event"",""trial"",""time""
""fullscreenenter"",""1"",""1981""
","
","
","""event"",""trial"",""time""
""fullscreenenter"",""1"",""1981""
","
","","9947.699999809265","You will never <b> lose </b> money. </br> If you end up with fewer than 0 tokens, you will earn $0 of bonus money, but you will still be paid for playing the game.","83","","instructions","2021-06-17 22:32:21.953","","","","","",""
"casino-keyboard-response","32","217847","0.0-16.0-0.10","403","true","img/card_backs/set1/red.gif","img/card_backs/set1/purple.gif","img/card_backs/set1/green.gif","img/card_backs/set1/yellow.gif","img/card_backs/set2/orange.gif","img/card_backs/set2/pink.gif","img/card_backs/set2/gray.gif","img/card_backs/set2/blue.gif","""event"",""trial"",""time""
""fullscreenenter"",""1"",""1981""
","
","
","""event"",""trial"",""time""
""fullscreenenter"",""1"",""1981""
","
","","3907.2000000476837","You will have 10 seconds to make each choice.","82","","instructions","2021-06-17 22:32:25.862","","","","","",""
"casino-keyboard-response","33","225881","0.0-16.0-0.11","403","true","img/card_backs/set1/red.gif","img/card_backs/set1/purple.gif","img/card_backs/set1/green.gif","img/card_backs/set1/yellow.gif","img/card_backs/set2/orange.gif","img/card_backs/set2/pink.gif","img/card_backs/set2/gray.gif","img/card_backs/set2/blue.gif","""event"",""trial"",""time""
""fullscreenenter"",""1"",""1981""
","
","
","""event"",""trial"",""time""
""fullscreenenter"",""1"",""1981""
","
","","8032","Before you play the game for real, you will play with practice decks. </br> The tokens you earn during practice won't count toward your total.","86","","instructions","2021-06-17 22:32:33.896","","","","","",""
"casino-keyboard-response","34","234771","0.0-16.0-0.12","403","true","img/card_backs/set1/red.gif","img/card_backs/set1/purple.gif","img/card_backs/set1/green.gif","img/card_backs/set1/yellow.gif","img/card_backs/set2/orange.gif","img/card_backs/set2/pink.gif","img/card_backs/set2/gray.gif","img/card_backs/set2/blue.gif","""event"",""trial"",""time""
""fullscreenenter"",""1"",""1981""
","
","
","""event"",""trial"",""time""
""fullscreenenter"",""1"",""1981""
","
","","8888.200000047684","Ready? Remember, use the '2', '4', '6', and '8' keys to select the decks. </br> Put your fingers on those keys now and then press '2' to begin.","50","","instructions","2021-06-17 22:32:42.786","","","","","",""
"casino-fixation","35","235278","0.0-17.0-0.0","403","true","img/card_backs/set1/red.gif","img/card_backs/set1/purple.gif","img/card_backs/set1/green.gif","img/card_backs/set1/yellow.gif","img/card_backs/set2/orange.gif","img/card_backs/set2/pink.gif","img/card_backs/set2/gray.gif","img/card_backs/set2/blue.gif","""event"",""trial"",""time""
""fullscreenenter"",""1"",""1981""
","
","
","""event"",""trial"",""time""
""fullscreenenter"",""1"",""1981""
","
","","null","","null","","fixation","2021-06-17 22:32:43.294","","","","","",""
"card-selection-trial","36","239099","0.0-17.0-1.0","403","true","img/card_backs/set1/red.gif","img/card_backs/set1/purple.gif","img/card_backs/set1/green.gif","img/card_backs/set1/yellow.gif","img/card_backs/set2/orange.gif","img/card_backs/set2/pink.gif","img/card_backs/set2/gray.gif","img/card_backs/set2/blue.gif","""event"",""trial"",""time""
""fullscreenenter"",""1"",""1981""
","
","
","""event"",""trial"",""time""
""fullscreenenter"",""1"",""1981""
","
","","1798.5999999046326","","","","practice","2021-06-17 22:32:47.114","img/practice_cards/backs/dark_blue.gif","3","-200","0","",""
"casino-fixation","37","239608","0.0-17.0-0.1","403","true","img/card_backs/set1/red.gif","img/card_backs/set1/purple.gif","img/card_backs/set1/green.gif","img/card_backs/set1/yellow.gif","img/card_backs/set2/orange.gif","img/card_backs/set2/pink.gif","img/card_backs/set2/gray.gif","img/card_backs/set2/blue.gif","""event"",""trial"",""time""
""fullscreenenter"",""1"",""1981""
","
","
","""event"",""trial"",""time""
""fullscreenenter"",""1"",""1981""
","
","","null","","null","","fixation","2021-06-17 22:32:47.623","","","","","",""
"card-selection-trial","38","242679","0.0-17.0-1.1","403","true","img/card_backs/set1/red.gif","img/card_backs/set1/purple.gif","img/card_backs/set1/green.gif","img/card_backs/set1/yellow.gif","img/card_backs/set2/orange.gif","img/card_backs/set2/pink.gif","img/card_backs/set2/gray.gif","img/card_backs/set2/blue.gif","""event"",""trial"",""time""
""fullscreenenter"",""1"",""1981""
","
","
","""event"",""trial"",""time""
""fullscreenenter"",""1"",""1981""
","
","","1061.7000000476837","","","","practice","2021-06-17 22:32:50.694","img/practice_cards/backs/dark_green.gif","0","-200","0","",""
"casino-fixation","39","243199","0.0-17.0-0.2","403","true","img/card_backs/set1/red.gif","img/card_backs/set1/purple.gif","img/card_backs/set1/green.gif","img/card_backs/set1/yellow.gif","img/card_backs/set2/orange.gif","img/card_backs/set2/pink.gif","img/card_backs/set2/gray.gif","img/card_backs/set2/blue.gif","""event"",""trial"",""time""
""fullscreenenter"",""1"",""1981""
","
","
","""event"",""trial"",""time""
""fullscreenenter"",""1"",""1981""
","
","","null","","null","","fixation","2021-06-17 22:32:51.214","","","","","",""
"card-selection-trial","40","246509","0.0-17.0-1.2","403","true","img/card_backs/set1/red.gif","img/card_backs/set1/purple.gif","img/card_backs/set1/green.gif","img/card_backs/set1/yellow.gif","img/card_backs/set2/orange.gif","img/card_backs/set2/pink.gif","img/card_backs/set2/gray.gif","img/card_backs/set2/blue.gif","""event"",""trial"",""time""
""fullscreenenter"",""1"",""1981""
","
","
","""event"",""trial"",""time""
""fullscreenenter"",""1"",""1981""
","
","","1289.5999999046326","","","","practice","2021-06-17 22:32:54.524","img/practice_cards/backs/dark_green.gif","1","-200","0","",""
"casino-fixation","41","247028","0.0-17.0-0.3","403","true","img/card_backs/set1/red.gif","img/card_backs/set1/purple.gif","img/card_backs/set1/green.gif","img/card_backs/set1/yellow.gif","img/card_backs/set2/orange.gif","img/card_backs/set2/pink.gif","img/card_backs/set2/gray.gif","img/card_backs/set2/blue.gif","""event"",""trial"",""time""
""fullscreenenter"",""1"",""1981""
","
","
","""event"",""trial"",""time""
""fullscreenenter"",""1"",""1981""
","
","","null","","null","","fixation","2021-06-17 22:32:55.043","","","","","",""
"card-selection-trial","42","249598","0.0-17.0-1.3","403","true","img/card_backs/set1/red.gif","img/card_backs/set1/purple.gif","img/card_backs/set1/green.gif","img/card_backs/set1/yellow.gif","img/card_backs/set2/orange.gif","img/card_backs/set2/pink.gif","img/card_backs/set2/gray.gif","img/card_backs/set2/blue.gif","""event"",""trial"",""time""
""fullscreenenter"",""1"",""1981""
","
","
","""event"",""trial"",""time""
""fullscreenenter"",""1"",""1981""
","
","","548.8000001907349","","","","practice","2021-06-17 22:32:57.614","img/practice_cards/backs/dark_blue.gif","3","200","0","",""
"casino-fixation","43","250108","0.0-17.0-0.4","403","true","img/card_backs/set1/red.gif","img/card_backs/set1/purple.gif","img/card_backs/set1/green.gif","img/card_backs/set1/yellow.gif","img/card_backs/set2/orange.gif","img/card_backs/set2/pink.gif","img/card_backs/set2/gray.gif","img/card_backs/set2/blue.gif","""event"",""trial"",""time""
""fullscreenenter"",""1"",""1981""
","
","
","""event"",""trial"",""time""
""fullscreenenter"",""1"",""1981""
","
","","null","","null","","fixation","2021-06-17 22:32:58.123","","","","","",""
"card-selection-trial","44","253039","0.0-17.0-1.4","403","true","img/card_backs/set1/red.gif","img/card_backs/set1/purple.gif","img/card_backs/set1/green.gif","img/card_backs/set1/yellow.gif","img/card_backs/set2/orange.gif","img/card_backs/set2/pink.gif","img/card_backs/set2/gray.gif","img/card_backs/set2/blue.gif","""event"",""trial"",""time""
""fullscreenenter"",""1"",""1981""
","
","
","""event"",""trial"",""time""
""fullscreenenter"",""1"",""1981""
","
","","920.7000000476837","","","","practice","2021-06-17 22:33:01.054","img/practice_cards/backs/dark_blue.gif","0","-200","0","",""
"casino-fixation","45","253558","0.0-17.0-0.5","403","true","img/card_backs/set1/red.gif","img/card_backs/set1/purple.gif","img/card_backs/set1/green.gif","img/card_backs/set1/yellow.gif","img/card_backs/set2/orange.gif","img/card_backs/set2/pink.gif","img/card_backs/set2/gray.gif","img/card_backs/set2/blue.gif","""event"",""trial"",""time""
""fullscreenenter"",""1"",""1981""
","
","
","""event"",""trial"",""time""
""fullscreenenter"",""1"",""1981""
","
","","null","","null","","fixation","2021-06-17 22:33:01.573","","","","","",""
"card-selection-trial","46","256599","0.0-17.0-1.5","403","true","img/card_backs/set1/red.gif","img/card_backs/set1/purple.gif","img/card_backs/set1/green.gif","img/card_backs/set1/yellow.gif","img/card_backs/set2/orange.gif","img/card_backs/set2/pink.gif","img/card_backs/set2/gray.gif","img/card_backs/set2/blue.gif","""event"",""trial"",""time""
""fullscreenenter"",""1"",""1981""
","
","
","""event"",""trial"",""time""
""fullscreenenter"",""1"",""1981""
","
","","1023.4000000953674","","","","practice","2021-06-17 22:33:04.614","img/practice_cards/backs/dark_blue.gif","1","200","0","",""
"casino-fixation","47","257108","0.0-17.0-0.6","403","true","img/card_backs/set1/red.gif","img/card_backs/set1/purple.gif","img/card_backs/set1/green.gif","img/card_backs/set1/yellow.gif","img/card_backs/set2/orange.gif","img/card_backs/set2/pink.gif","img/card_backs/set2/gray.gif","img/card_backs/set2/blue.gif","""event"",""trial"",""time""
""fullscreenenter"",""1"",""1981""
","
","
","""event"",""trial"",""time""
""fullscreenenter"",""1"",""1981""
","
","","null","","null","","fixation","2021-06-17 22:33:05.123","","","","","",""
"card-selection-trial","48","260589","0.0-17.0-1.6","403","true","img/card_backs/set1/red.gif","img/card_backs/set1/purple.gif","img/card_backs/set1/green.gif","img/card_backs/set1/yellow.gif","img/card_backs/set2/orange.gif","img/card_backs/set2/pink.gif","img/card_backs/set2/gray.gif","img/card_backs/set2/blue.gif","""event"",""trial"",""time""
""fullscreenenter"",""1"",""1981""
","
","
","""event"",""trial"",""time""
""fullscreenenter"",""1"",""1981""
","
","","1472","","","","practice","2021-06-17 22:33:08.604","img/practice_cards/backs/black.gif","1","-100","0","",""
"casino-fixation","49","261108","0.0-17.0-0.7","403","true","img/card_backs/set1/red.gif","img/card_backs/set1/purple.gif","img/card_backs/set1/green.gif","img/card_backs/set1/yellow.gif","img/card_backs/set2/orange.gif","img/card_backs/set2/pink.gif","img/card_backs/set2/gray.gif","img/card_backs/set2/blue.gif","""event"",""trial"",""time""
""fullscreenenter"",""1"",""1981""
","
","
","""event"",""trial"",""time""
""fullscreenenter"",""1"",""1981""
","
","","null","","null","","fixation","2021-06-17 22:33:09.123","","","","","",""
"card-selection-trial","50","264288","0.0-17.0-1.7","403","true","img/card_backs/set1/red.gif","img/card_backs/set1/purple.gif","img/card_backs/set1/green.gif","img/card_backs/set1/yellow.gif","img/card_backs/set2/orange.gif","img/card_backs/set2/pink.gif","img/card_backs/set2/gray.gif","img/card_backs/set2/blue.gif","""event"",""trial"",""time""
""fullscreenenter"",""1"",""1981""
","
","
","""event"",""trial"",""time""
""fullscreenenter"",""1"",""1981""
","
","","1167.7999999523163","","","","practice","2021-06-17 22:33:12.304","img/practice_cards/backs/black.gif","2","100","0","",""
"casino-fixation","51","264809","0.0-17.0-0.8","403","true","img/card_backs/set1/red.gif","img/card_backs/set1/purple.gif","img/card_backs/set1/green.gif","img/card_backs/set1/yellow.gif","img/card_backs/set2/orange.gif","img/card_backs/set2/pink.gif","img/card_backs/set2/gray.gif","img/card_backs/set2/blue.gif","""event"",""trial"",""time""
""fullscreenenter"",""1"",""1981""
","
","
","""event"",""trial"",""time""
""fullscreenenter"",""1"",""1981""
","
","","null","","null","","fixation","2021-06-17 22:33:12.824","","","","","",""
"card-selection-trial","52","267521","0.0-17.0-1.8","403","true","img/card_backs/set1/red.gif","img/card_backs/set1/purple.gif","img/card_backs/set1/green.gif","img/card_backs/set1/yellow.gif","img/card_backs/set2/orange.gif","img/card_backs/set2/pink.gif","img/card_backs/set2/gray.gif","img/card_backs/set2/blue.gif","""event"",""trial"",""time""
""fullscreenenter"",""1"",""1981""
","
","
","""event"",""trial"",""time""
""fullscreenenter"",""1"",""1981""
","
","","707.5999999046326","","","","practice","2021-06-17 22:33:15.536","img/practice_cards/backs/black.gif","1","100","0","",""
"casino-fixation","53","268023","0.0-17.0-0.9","403","true","img/card_backs/set1/red.gif","img/card_backs/set1/purple.gif","img/card_backs/set1/green.gif","img/card_backs/set1/yellow.gif","img/card_backs/set2/orange.gif","img/card_backs/set2/pink.gif","img/card_backs/set2/gray.gif","img/card_backs/set2/blue.gif","""event"",""trial"",""time""
""fullscreenenter"",""1"",""1981""
","
","
","""event"",""trial"",""time""
""fullscreenenter"",""1"",""1981""
","
","","null","","null","","fixation","2021-06-17 22:33:16.038","","","","","",""
"card-selection-trial","54","271289","0.0-17.0-1.9","403","true","img/card_backs/set1/red.gif","img/card_backs/set1/purple.gif","img/card_backs/set1/green.gif","img/card_backs/set1/yellow.gif","img/card_backs/set2/orange.gif","img/card_backs/set2/pink.gif","img/card_backs/set2/gray.gif","img/card_backs/set2/blue.gif","""event"",""trial"",""time""
""fullscreenenter"",""1"",""1981""
","
","
","""event"",""trial"",""time""
""fullscreenenter"",""1"",""1981""
","
","","1262.2999999523163","","","","practice","2021-06-17 22:33:19.304","img/practice_cards/backs/brown.gif","2","-100","0","",""
"casino-keyboard-response","55","275237","0.0-18.0","403","true","img/card_backs/set1/red.gif","img/card_backs/set1/purple.gif","img/card_backs/set1/green.gif","img/card_backs/set1/yellow.gif","img/card_backs/set2/orange.gif","img/card_backs/set2/pink.gif","img/card_backs/set2/gray.gif","img/card_backs/set2/blue.gif","""event"",""trial"",""time""
""fullscreenenter"",""1"",""1981""
","
","
","""event"",""trial"",""time""
""fullscreenenter"",""1"",""1981""
","
","","3946.899999856949","You earned -400 tokens during the practice round!","82","","","2021-06-17 22:33:23.252","","","","","",""
"casino-keyboard-response","56","289598","0.0-19.0-0.0","403","true","img/card_backs/set1/red.gif","img/card_backs/set1/purple.gif","img/card_backs/set1/green.gif","img/card_backs/set1/yellow.gif","img/card_backs/set2/orange.gif","img/card_backs/set2/pink.gif","img/card_backs/set2/gray.gif","img/card_backs/set2/blue.gif","""event"",""trial"",""time""
""fullscreenenter"",""1"",""1981""
","
","
","""event"",""trial"",""time""
""fullscreenenter"",""1"",""1981""
","
","","14359.899999856949","Nice job! You are almost ready to play the real game.","86","","instructions","2021-06-17 22:33:37.614","","","","","",""
"casino-keyboard-response","57","296184","0.0-19.0-0.1","403","true","img/card_backs/set1/red.gif","img/card_backs/set1/purple.gif","img/card_backs/set1/green.gif","img/card_backs/set1/yellow.gif","img/card_backs/set2/orange.gif","img/card_backs/set2/pink.gif","img/card_backs/set2/gray.gif","img/card_backs/set2/blue.gif","""event"",""trial"",""time""
""fullscreenenter"",""1"",""1981""
","
","
","""event"",""trial"",""time""
""fullscreenenter"",""1"",""1981""
","
","","6583.699999809265","You will play two rounds of the real game. In each round, you will pick 100 cards in total.","73","","instructions","2021-06-17 22:33:44.199","","","","","",""
"casino-keyboard-response","58","300179","0.0-19.0-0.2","403","true","img/card_backs/set1/red.gif","img/card_backs/set1/purple.gif","img/card_backs/set1/green.gif","img/card_backs/set1/yellow.gif","img/card_backs/set2/orange.gif","img/card_backs/set2/pink.gif","img/card_backs/set2/gray.gif","img/card_backs/set2/blue.gif","""event"",""trial"",""time""
""fullscreenenter"",""1"",""1981""
","
","
","""event"",""trial"",""time""
""fullscreenenter"",""1"",""1981""
","
","","3994","We are now going to ask you some questions about how the game works.","66","","instructions","2021-06-17 22:33:48.195","","","","","",""
"casino-keyboard-response","59","306404","0.0-19.0-0.3","403","true","img/card_backs/set1/red.gif","img/card_backs/set1/purple.gif","img/card_backs/set1/green.gif","img/card_backs/set1/yellow.gif","img/card_backs/set2/orange.gif","img/card_backs/set2/pink.gif","img/card_backs/set2/gray.gif","img/card_backs/set2/blue.gif","""event"",""trial"",""time""
""fullscreenenter"",""1"",""1981""
","
","
","""event"",""trial"",""time""
""fullscreenenter"",""1"",""1981""
","
","","6223.099999904633","Answer carefully. You will not be able to begin the game until you answer them correctly.","67","","instructions","2021-06-17 22:33:54.419","","","","","",""
"casino-comp_q","60","311185","0.0-20.0-0.0","403","true","img/card_backs/set1/red.gif","img/card_backs/set1/purple.gif","img/card_backs/set1/green.gif","img/card_backs/set1/yellow.gif","img/card_backs/set2/orange.gif","img/card_backs/set2/pink.gif","img/card_backs/set2/gray.gif","img/card_backs/set2/blue.gif","""event"",""trial"",""time""
""fullscreenenter"",""1"",""1981""
","
","
","""event"",""trial"",""time""
""fullscreenenter"",""1"",""1981""
","
","","4778","True or False: All the decks have some cards that cause you to win tokens and some cards that cause you to lose tokens.","84","","","2021-06-17 22:33:59.200","","","","","",""
"casino-keyboard-response","61","313814","0.0-20.0-1.0","403","true","img/card_backs/set1/red.gif","img/card_backs/set1/purple.gif","img/card_backs/set1/green.gif","img/card_backs/set1/yellow.gif","img/card_backs/set2/orange.gif","img/card_backs/set2/pink.gif","img/card_backs/set2/gray.gif","img/card_backs/set2/blue.gif","""event"",""trial"",""time""
""fullscreenenter"",""1"",""1981""
","
","
","""event"",""trial"",""time""
""fullscreenenter"",""1"",""1981""
","
","","2627.699999809265","True is correct! All the decks have a mix of winning and losing cards.","77","","","2021-06-17 22:34:01.829","","","","","true",""
"casino-comp_q","62","313852","0.0-21.0-0.0","403","true","img/card_backs/set1/red.gif","img/card_backs/set1/purple.gif","img/card_backs/set1/green.gif","img/card_backs/set1/yellow.gif","img/card_backs/set2/orange.gif","img/card_backs/set2/pink.gif","img/card_backs/set2/gray.gif","img/card_backs/set2/blue.gif","""event"",""trial"",""time""
""fullscreenenter"",""1"",""1981""
","
","
","""event"",""trial"",""time""
""fullscreenenter"",""1"",""1981""
","
","","36.90000009536743","True or False: You will have as much time as you want to make your response.","77","","","2021-06-17 22:34:01.867","","","","","",""
"casino-keyboard-response","63","317146","0.0-21.0-1.0","403","true","img/card_backs/set1/red.gif","img/card_backs/set1/purple.gif","img/card_backs/set1/green.gif","img/card_backs/set1/yellow.gif","img/card_backs/set2/orange.gif","img/card_backs/set2/pink.gif","img/card_backs/set2/gray.gif","img/card_backs/set2/blue.gif","""event"",""trial"",""time""
""fullscreenenter"",""1"",""1981""
","
","
","""event"",""trial"",""time""
""fullscreenenter"",""1"",""1981""
","
","","3291.5999999046326","True is incorrect. You will only have 10 seconds to make each choice.","75","","","2021-06-17 22:34:05.161","","","","","false",""
"casino-comp_q","64","321625","0.0-21.1-0.1","403","true","img/card_backs/set1/red.gif","img/card_backs/set1/purple.gif","img/card_backs/set1/green.gif","img/card_backs/set1/yellow.gif","img/card_backs/set2/orange.gif","img/card_backs/set2/pink.gif","img/card_backs/set2/gray.gif","img/card_backs/set2/blue.gif","""event"",""trial"",""time""
""fullscreenenter"",""1"",""1981""
","
","
","""event"",""trial"",""time""
""fullscreenenter"",""1"",""1981""
","
","","4477.700000047684","True or False: You will have as much time as you want to make your response.","70","","","2021-06-17 22:34:09.640","","","","","",""
"casino-keyboard-response","65","324446","0.0-21.1-1.1","403","true","img/card_backs/set1/red.gif","img/card_backs/set1/purple.gif","img/card_backs/set1/green.gif","img/card_backs/set1/yellow.gif","img/card_backs/set2/orange.gif","img/card_backs/set2/pink.gif","img/card_backs/set2/gray.gif","img/card_backs/set2/blue.gif","""event"",""trial"",""time""
""fullscreenenter"",""1"",""1981""
","
","
","""event"",""trial"",""time""
""fullscreenenter"",""1"",""1981""
","
","","2819.0999999046326","False is correct! You will only have 10 seconds to make each choice.","75","","","2021-06-17 22:34:12.461","","","","","true",""
"casino-comp_q","66","327285","0.0-22.0-0.0","403","true","img/card_backs/set1/red.gif","img/card_backs/set1/purple.gif","img/card_backs/set1/green.gif","img/card_backs/set1/yellow.gif","img/card_backs/set2/orange.gif","img/card_backs/set2/pink.gif","img/card_backs/set2/gray.gif","img/card_backs/set2/blue.gif","""event"",""trial"",""time""
""fullscreenenter"",""1"",""1981""
","
","
","""event"",""trial"",""time""
""fullscreenenter"",""1"",""1981""
","
","","2837.899999856949","True or False: The location of the deck determines how lucky it is.","70","","","2021-06-17 22:34:15.300","","","","","",""
"casino-keyboard-response","67","329960","0.0-22.0-1.0","403","true","img/card_backs/set1/red.gif","img/card_backs/set1/purple.gif","img/card_backs/set1/green.gif","img/card_backs/set1/yellow.gif","img/card_backs/set2/orange.gif","img/card_backs/set2/pink.gif","img/card_backs/set2/gray.gif","img/card_backs/set2/blue.gif","""event"",""trial"",""time""
""fullscreenenter"",""1"",""1981""
","
","
","""event"",""trial"",""time""
""fullscreenenter"",""1"",""1981""
","
","","2673.600000143051","False is correct! The <i>color</i>  of the deck determines how lucky or unlucky it is.","68","","","2021-06-17 22:34:17.975","","","","","true",""
"casino-keyboard-response","68","333957","0.0-23.0-0.0","403","true","img/card_backs/set1/red.gif","img/card_backs/set1/purple.gif","img/card_backs/set1/green.gif","img/card_backs/set1/yellow.gif","img/card_backs/set2/orange.gif","img/card_backs/set2/pink.gif","img/card_backs/set2/gray.gif","img/card_backs/set2/blue.gif","""event"",""trial"",""time""
""fullscreenenter"",""1"",""1981""
","
","
","""event"",""trial"",""time""
""fullscreenenter"",""1"",""1981""
","
","","3995.0999999046326","Great job! Now it's time to start the real game.","82","","instructions","2021-06-17 22:34:21.972","","","","","",""
"casino-keyboard-response","69","338973","0.0-23.0-0.1","403","true","img/card_backs/set1/red.gif","img/card_backs/set1/purple.gif","img/card_backs/set1/green.gif","img/card_backs/set1/yellow.gif","img/card_backs/set2/orange.gif","img/card_backs/set2/pink.gif","img/card_backs/set2/gray.gif","img/card_backs/set2/blue.gif","""event"",""trial"",""time""
""fullscreenenter"",""1"",""1981""
","
","
","""event"",""trial"",""time""
""fullscreenenter"",""1"",""1981""
","
","","5013.900000095367","Before we start, we're going to head into a new room of the casino.","86","","instructions","2021-06-17 22:34:26.988","","","","","",""
"casino-keyboard-response","70","345149","0.0-24.0-0.0","403","true","img/card_backs/set1/red.gif","img/card_backs/set1/purple.gif","img/card_backs/set1/green.gif","img/card_backs/set1/yellow.gif","img/card_backs/set2/orange.gif","img/card_backs/set2/pink.gif","img/card_backs/set2/gray.gif","img/card_backs/set2/blue.gif","""event"",""trial"",""time""
""fullscreenenter"",""1"",""1981""
","
","
","""event"",""trial"",""time""
""fullscreenenter"",""1"",""1981""
","
","","6174.800000190735","Here we are! The real game will use different cards, but the rules will be the same.","71","","instructions","2021-06-17 22:34:33.164","","","","","",""
"casino-keyboard-response","71","348126","0.0-24.0-0.1","403","true","img/card_backs/set1/red.gif","img/card_backs/set1/purple.gif","img/card_backs/set1/green.gif","img/card_backs/set1/yellow.gif","img/card_backs/set2/orange.gif","img/card_backs/set2/pink.gif","img/card_backs/set2/gray.gif","img/card_backs/set2/blue.gif","""event"",""trial"",""time""
""fullscreenenter"",""1"",""1981""
","
","
","""event"",""trial"",""time""
""fullscreenenter"",""1"",""1981""
","
","","2975.600000143051","Ready? Put your fingers over the '2', '4', 6', and '8' keys so you are ready to play the game. </br> Then press 2 to start.","50","","instructions","2021-06-17 22:34:36.141","","","","","",""
"casino-fixation","72","348637","0.0-25.0-0.0","403","true","img/card_backs/set1/red.gif","img/card_backs/set1/purple.gif","img/card_backs/set1/green.gif","img/card_backs/set1/yellow.gif","img/card_backs/set2/orange.gif","img/card_backs/set2/pink.gif","img/card_backs/set2/gray.gif","img/card_backs/set2/blue.gif","""event"",""trial"",""time""
""fullscreenenter"",""1"",""1981""
","
","
","""event"",""trial"",""time""
""fullscreenenter"",""1"",""1981""
","
","","null","","null","","fixation","2021-06-17 22:34:36.652","","","","","",""
"card-selection-trial","73","351977","0.0-25.0-1.0","403","true","img/card_backs/set1/red.gif","img/card_backs/set1/purple.gif","img/card_backs/set1/green.gif","img/card_backs/set1/yellow.gif","img/card_backs/set2/orange.gif","img/card_backs/set2/pink.gif","img/card_backs/set2/gray.gif","img/card_backs/set2/blue.gif","""event"",""trial"",""time""
""fullscreenenter"",""1"",""1981""
","
","
","""event"",""trial"",""time""
""fullscreenenter"",""1"",""1981""
","
","","1318.2999999523163","","","","real_trial","2021-06-17 22:34:39.992","img/card_backs/set1/purple.gif","1","250","1","",""
"casino-fixation","74","352483","0.0-25.0-0.1","403","true","img/card_backs/set1/red.gif","img/card_backs/set1/purple.gif","img/card_backs/set1/green.gif","img/card_backs/set1/yellow.gif","img/card_backs/set2/orange.gif","img/card_backs/set2/pink.gif","img/card_backs/set2/gray.gif","img/card_backs/set2/blue.gif","""event"",""trial"",""time""
""fullscreenenter"",""1"",""1981""
","
","
","""event"",""trial"",""time""
""fullscreenenter"",""1"",""1981""
","
","","null","","null","","fixation","2021-06-17 22:34:40.498","","","","","",""
"card-selection-trial","75","355117","0.0-25.0-1.1","403","true","img/card_backs/set1/red.gif","img/card_backs/set1/purple.gif","img/card_backs/set1/green.gif","img/card_backs/set1/yellow.gif","img/card_backs/set2/orange.gif","img/card_backs/set2/pink.gif","img/card_backs/set2/gray.gif","img/card_backs/set2/blue.gif","""event"",""trial"",""time""
""fullscreenenter"",""1"",""1981""
","
","
","""event"",""trial"",""time""
""fullscreenenter"",""1"",""1981""
","
","","629.7999999523163","","","","real_trial","2021-06-17 22:34:43.132","img/card_backs/set1/purple.gif","0","-190","1","",""
"casino-fixation","76","355627","0.0-25.0-0.2","403","true","img/card_backs/set1/red.gif","img/card_backs/set1/purple.gif","img/card_backs/set1/green.gif","img/card_backs/set1/yellow.gif","img/card_backs/set2/orange.gif","img/card_backs/set2/pink.gif","img/card_backs/set2/gray.gif","img/card_backs/set2/blue.gif","""event"",""trial"",""time""
""fullscreenenter"",""1"",""1981""
","
","
","""event"",""trial"",""time""
""fullscreenenter"",""1"",""1981""
","
","","null","","null","","fixation","2021-06-17 22:34:43.642","","","","","",""
"card-selection-trial","77","358427","0.0-25.0-1.2","403","true","img/card_backs/set1/red.gif","img/card_backs/set1/purple.gif","img/card_backs/set1/green.gif","img/card_backs/set1/yellow.gif","img/card_backs/set2/orange.gif","img/card_backs/set2/pink.gif","img/card_backs/set2/gray.gif","img/card_backs/set2/blue.gif","""event"",""trial"",""time""
""fullscreenenter"",""1"",""1981""
","
","
","""event"",""trial"",""time""
""fullscreenenter"",""1"",""1981""
","
","","784","","","","real_trial","2021-06-17 22:34:46.442","img/card_backs/set1/purple.gif","3","-210","1","",""
"casino-fixation","78","358936","0.0-25.0-0.3","403","true","img/card_backs/set1/red.gif","img/card_backs/set1/purple.gif","img/card_backs/set1/green.gif","img/card_backs/set1/yellow.gif","img/card_backs/set2/orange.gif","img/card_backs/set2/pink.gif","img/card_backs/set2/gray.gif","img/card_backs/set2/blue.gif","""event"",""trial"",""time""
""fullscreenenter"",""1"",""1981""
","
","
","""event"",""trial"",""time""
""fullscreenenter"",""1"",""1981""
","
","","null","","null","","fixation","2021-06-17 22:34:46.952","","","","","",""
"card-selection-trial","79","361467","0.0-25.0-1.3","403","true","img/card_backs/set1/red.gif","img/card_backs/set1/purple.gif","img/card_backs/set1/green.gif","img/card_backs/set1/yellow.gif","img/card_backs/set2/orange.gif","img/card_backs/set2/pink.gif","img/card_backs/set2/gray.gif","img/card_backs/set2/blue.gif","""event"",""trial"",""time""
""fullscreenenter"",""1"",""1981""
","
","
","""event"",""trial"",""time""
""fullscreenenter"",""1"",""1981""
","
","","515.9000000953674","","","","real_trial","2021-06-17 22:34:49.482","img/card_backs/set1/purple.gif","0","240","1","",""
"casino-fixation","80","361987","0.0-25.0-0.4","403","true","img/card_backs/set1/red.gif","img/card_backs/set1/purple.gif","img/card_backs/set1/green.gif","img/card_backs/set1/yellow.gif","img/card_backs/set2/orange.gif","img/card_backs/set2/pink.gif","img/card_backs/set2/gray.gif","img/card_backs/set2/blue.gif","""event"",""trial"",""time""
""fullscreenenter"",""1"",""1981""
","
","
","""event"",""trial"",""time""
""fullscreenenter"",""1"",""1981""
","
","","null","","null","","fixation","2021-06-17 22:34:50.002","","","","","",""
"card-selection-trial","81","364797","0.0-25.0-1.4","403","true","img/card_backs/set1/red.gif","img/card_backs/set1/purple.gif","img/card_backs/set1/green.gif","img/card_backs/set1/yellow.gif","img/card_backs/set2/orange.gif","img/card_backs/set2/pink.gif","img/card_backs/set2/gray.gif","img/card_backs/set2/blue.gif","""event"",""trial"",""time""
""fullscreenenter"",""1"",""1981""
","
","
","""event"",""trial"",""time""
""fullscreenenter"",""1"",""1981""
","
","","798.2000000476837","","","","real_trial","2021-06-17 22:34:52.812","img/card_backs/set1/red.gif","2","260","1","",""
"casino-fixation","82","365305","0.0-25.0-0.5","403","true","img/card_backs/set1/red.gif","img/card_backs/set1/purple.gif","img/card_backs/set1/green.gif","img/card_backs/set1/yellow.gif","img/card_backs/set2/orange.gif","img/card_backs/set2/pink.gif","img/card_backs/set2/gray.gif","img/card_backs/set2/blue.gif","""event"",""trial"",""time""
""fullscreenenter"",""1"",""1981""
","
","
","""event"",""trial"",""time""
""fullscreenenter"",""1"",""1981""
","
","","null","","null","","fixation","2021-06-17 22:34:53.320","","","","","",""
"card-selection-trial","83","368046","0.0-25.0-1.5","403","true","img/card_backs/set1/red.gif","img/card_backs/set1/purple.gif","img/card_backs/set1/green.gif","img/card_backs/set1/yellow.gif","img/card_backs/set2/orange.gif","img/card_backs/set2/pink.gif","img/card_backs/set2/gray.gif","img/card_backs/set2/blue.gif","""event"",""trial"",""time""
""fullscreenenter"",""1"",""1981""
","
","
","""event"",""trial"",""time""
""fullscreenenter"",""1"",""1981""
","
","","726.1000001430511","","","","real_trial","2021-06-17 22:34:56.061","img/card_backs/set1/red.gif","3","260","1","",""
"casino-fixation","84","368566","0.0-25.0-0.6","403","true","img/card_backs/set1/red.gif","img/card_backs/set1/purple.gif","img/card_backs/set1/green.gif","img/card_backs/set1/yellow.gif","img/card_backs/set2/orange.gif","img/card_backs/set2/pink.gif","img/card_backs/set2/gray.gif","img/card_backs/set2/blue.gif","""event"",""trial"",""time""
""fullscreenenter"",""1"",""1981""
","
","
","""event"",""trial"",""time""
""fullscreenenter"",""1"",""1981""
","
","","null","","null","","fixation","2021-06-17 22:34:56.581","","","","","",""
"card-selection-trial","85","371267","0.0-25.0-1.6","403","true","img/card_backs/set1/red.gif","img/card_backs/set1/purple.gif","img/card_backs/set1/green.gif","img/card_backs/set1/yellow.gif","img/card_backs/set2/orange.gif","img/card_backs/set2/pink.gif","img/card_backs/set2/gray.gif","img/card_backs/set2/blue.gif","""event"",""trial"",""time""
""fullscreenenter"",""1"",""1981""
","
","
","""event"",""trial"",""time""
""fullscreenenter"",""1"",""1981""
","
","","678.2000000476837","","","","real_trial","2021-06-17 22:34:59.282","img/card_backs/set1/red.gif","2","-200","1","",""
"casino-fixation","86","371776","0.0-25.0-0.7","403","true","img/card_backs/set1/red.gif","img/card_backs/set1/purple.gif","img/card_backs/set1/green.gif","img/card_backs/set1/yellow.gif","img/card_backs/set2/orange.gif","img/card_backs/set2/pink.gif","img/card_backs/set2/gray.gif","img/card_backs/set2/blue.gif","""event"",""trial"",""time""
""fullscreenenter"",""1"",""1981""
","
","
","""event"",""trial"",""time""
""fullscreenenter"",""1"",""1981""
","
","","null","","null","","fixation","2021-06-17 22:34:59.791","","","","","",""
"card-selection-trial","87","374357","0.0-25.0-1.7","403","true","img/card_backs/set1/red.gif","img/card_backs/set1/purple.gif","img/card_backs/set1/green.gif","img/card_backs/set1/yellow.gif","img/card_backs/set2/orange.gif","img/card_backs/set2/pink.gif","img/card_backs/set2/gray.gif","img/card_backs/set2/blue.gif","""event"",""trial"",""time""
""fullscreenenter"",""1"",""1981""
","
","
","""event"",""trial"",""time""
""fullscreenenter"",""1"",""1981""
","
","","570.0999999046326","","","","real_trial","2021-06-17 22:35:02.372","img/card_backs/set1/red.gif","1","250","1","",""
"casino-fixation","88","374866","0.0-25.0-0.8","403","true","img/card_backs/set1/red.gif","img/card_backs/set1/purple.gif","img/card_backs/set1/green.gif","img/card_backs/set1/yellow.gif","img/card_backs/set2/orange.gif","img/card_backs/set2/pink.gif","img/card_backs/set2/gray.gif","img/card_backs/set2/blue.gif","""event"",""trial"",""time""
""fullscreenenter"",""1"",""1981""
","
","
","""event"",""trial"",""time""
""fullscreenenter"",""1"",""1981""
","
","","null","","null","","fixation","2021-06-17 22:35:02.881","","","","","",""
"card-selection-trial","89","377946","0.0-25.0-1.8","403","true","img/card_backs/set1/red.gif","img/card_backs/set1/purple.gif","img/card_backs/set1/green.gif","img/card_backs/set1/yellow.gif","img/card_backs/set2/orange.gif","img/card_backs/set2/pink.gif","img/card_backs/set2/gray.gif","img/card_backs/set2/blue.gif","""event"",""trial"",""time""
""fullscreenenter"",""1"",""1981""
","
","
","""event"",""trial"",""time""
""fullscreenenter"",""1"",""1981""
","
","","1061.5999999046326","","","","real_trial","2021-06-17 22:35:05.961","img/card_backs/set1/yellow.gif","3","40","1","",""
"casino-fixation","90","378448","0.0-25.0-0.9","403","true","img/card_backs/set1/red.gif","img/card_backs/set1/purple.gif","img/card_backs/set1/green.gif","img/card_backs/set1/yellow.gif","img/card_backs/set2/orange.gif","img/card_backs/set2/pink.gif","img/card_backs/set2/gray.gif","img/card_backs/set2/blue.gif","""event"",""trial"",""time""
""fullscreenenter"",""1"",""1981""
","
","
","""event"",""trial"",""time""
""fullscreenenter"",""1"",""1981""
","
","","null","","null","","fixation","2021-06-17 22:35:06.463","","","","","",""
"card-selection-trial","91","381080","0.0-25.0-1.9","403","true","img/card_backs/set1/red.gif","img/card_backs/set1/purple.gif","img/card_backs/set1/green.gif","img/card_backs/set1/yellow.gif","img/card_backs/set2/orange.gif","img/card_backs/set2/pink.gif","img/card_backs/set2/gray.gif","img/card_backs/set2/blue.gif","""event"",""trial"",""time""
""fullscreenenter"",""1"",""1981""
","
","
","""event"",""trial"",""time""
""fullscreenenter"",""1"",""1981""
","
","","628.6999998092651","","","","real_trial","2021-06-17 22:35:09.096","img/card_backs/set1/yellow.gif","1","-110","1","",""
"casino-fixation","92","381582","0.0-25.0-0.10","403","true","img/card_backs/set1/red.gif","img/card_backs/set1/purple.gif","img/card_backs/set1/green.gif","img/card_backs/set1/yellow.gif","img/card_backs/set2/orange.gif","img/card_backs/set2/pink.gif","img/card_backs/set2/gray.gif","img/card_backs/set2/blue.gif","""event"",""trial"",""time""
""fullscreenenter"",""1"",""1981""
","
","
","""event"",""trial"",""time""
""fullscreenenter"",""1"",""1981""
","
","","null","","null","","fixation","2021-06-17 22:35:09.597","","","","","",""
"card-selection-trial","93","384217","0.0-25.0-1.10","403","true","img/card_backs/set1/red.gif","img/card_backs/set1/purple.gif","img/card_backs/set1/green.gif","img/card_backs/set1/yellow.gif","img/card_backs/set2/orange.gif","img/card_backs/set2/pink.gif","img/card_backs/set2/gray.gif","img/card_backs/set2/blue.gif","""event"",""trial"",""time""
""fullscreenenter"",""1"",""1981""
","
","
","""event"",""trial"",""time""
""fullscreenenter"",""1"",""1981""
","
","","630.7999999523163","","","","real_trial","2021-06-17 22:35:12.232","img/card_backs/set1/yellow.gif","0","60","1","",""
"casino-fixation","94","384720","0.0-25.0-0.11","403","true","img/card_backs/set1/red.gif","img/card_backs/set1/purple.gif","img/card_backs/set1/green.gif","img/card_backs/set1/yellow.gif","img/card_backs/set2/orange.gif","img/card_backs/set2/pink.gif","img/card_backs/set2/gray.gif","img/card_backs/set2/blue.gif","""event"",""trial"",""time""
""fullscreenenter"",""1"",""1981""
","
","
","""event"",""trial"",""time""
""fullscreenenter"",""1"",""1981""
","
","","null","","null","","fixation","2021-06-17 22:35:12.735","","","","","",""
"card-selection-trial","95","387290","0.0-25.0-1.11","403","true","img/card_backs/set1/red.gif","img/card_backs/set1/purple.gif","img/card_backs/set1/green.gif","img/card_backs/set1/yellow.gif","img/card_backs/set2/orange.gif","img/card_backs/set2/pink.gif","img/card_backs/set2/gray.gif","img/card_backs/set2/blue.gif","""event"",""trial"",""time""
""fullscreenenter"",""1"",""1981""
","
","
","""event"",""trial"",""time""
""fullscreenenter"",""1"",""1981""
","
","","567.0999999046326","","","","real_trial","2021-06-17 22:35:15.305","img/card_backs/set1/yellow.gif","1","-100","1","",""
"casino-fixation","96","387792","0.0-25.0-0.12","403","true","img/card_backs/set1/red.gif","img/card_backs/set1/purple.gif","img/card_backs/set1/green.gif","img/card_backs/set1/yellow.gif","img/card_backs/set2/orange.gif","img/card_backs/set2/pink.gif","img/card_backs/set2/gray.gif","img/card_backs/set2/blue.gif","""event"",""trial"",""time""
""fullscreenenter"",""1"",""1981""
","
","
","""event"",""trial"",""time""
""fullscreenenter"",""1"",""1981""
","
","","null","","null","","fixation","2021-06-17 22:35:15.807","","","","","",""
"card-selection-trial","97","390466","0.0-25.0-1.12","403","true","img/card_backs/set1/red.gif","img/card_backs/set1/purple.gif","img/card_backs/set1/green.gif","img/card_backs/set1/yellow.gif","img/card_backs/set2/orange.gif","img/card_backs/set2/pink.gif","img/card_backs/set2/gray.gif","img/card_backs/set2/blue.gif","""event"",""trial"",""time""
""fullscreenenter"",""1"",""1981""
","
","
","""event"",""trial"",""time""
""fullscreenenter"",""1"",""1981""
","
","","669.7999999523163","","","","real_trial","2021-06-17 22:35:18.481","img/card_backs/set1/green.gif","1","60","1","",""
"casino-fixation","98","390969","0.0-25.0-0.13","403","true","img/card_backs/set1/red.gif","img/card_backs/set1/purple.gif","img/card_backs/set1/green.gif","img/card_backs/set1/yellow.gif","img/card_backs/set2/orange.gif","img/card_backs/set2/pink.gif","img/card_backs/set2/gray.gif","img/card_backs/set2/blue.gif","""event"",""trial"",""time""
""fullscreenenter"",""1"",""1981""
","
","
","""event"",""trial"",""time""
""fullscreenenter"",""1"",""1981""
","
","","null","","null","","fixation","2021-06-17 22:35:18.984","","","","","",""
"card-selection-trial","99","393450","0.0-25.0-1.13","403","true","img/card_backs/set1/red.gif","img/card_backs/set1/purple.gif","img/card_backs/set1/green.gif","img/card_backs/set1/yellow.gif","img/card_backs/set2/orange.gif","img/card_backs/set2/pink.gif","img/card_backs/set2/gray.gif","img/card_backs/set2/blue.gif","""event"",""trial"",""time""
""fullscreenenter"",""1"",""1981""
","
","
","""event"",""trial"",""time""
""fullscreenenter"",""1"",""1981""
","
","","478","","","","real_trial","2021-06-17 22:35:21.465","img/card_backs/set1/green.gif","1","-100","1","",""
"casino-fixation","100","393952","0.0-25.0-0.14","403","true","img/card_backs/set1/red.gif","img/card_backs/set1/purple.gif","img/card_backs/set1/green.gif","img/card_backs/set1/yellow.gif","img/card_backs/set2/orange.gif","img/card_backs/set2/pink.gif","img/card_backs/set2/gray.gif","img/card_backs/set2/blue.gif","""event"",""trial"",""time""
""fullscreenenter"",""1"",""1981""
","
","
","""event"",""trial"",""time""
""fullscreenenter"",""1"",""1981""
","
","","null","","null","","fixation","2021-06-17 22:35:21.967","","","","","",""
"card-selection-trial","101","396490","0.0-25.0-1.14","403","true","img/card_backs/set1/red.gif","img/card_backs/set1/purple.gif","img/card_backs/set1/green.gif","img/card_backs/set1/yellow.gif","img/card_backs/set2/orange.gif","img/card_backs/set2/pink.gif","img/card_backs/set2/gray.gif","img/card_backs/set2/blue.gif","""event"",""trial"",""time""
""fullscreenenter"",""1"",""1981""
","
","
","""event"",""trial"",""time""
""fullscreenenter"",""1"",""1981""
","
","","534.1999998092651","","","","real_trial","2021-06-17 22:35:24.505","img/card_backs/set1/green.gif","2","-90","1","",""
"casino-fixation","102","396992","0.0-25.0-0.15","403","true","img/card_backs/set1/red.gif","img/card_backs/set1/purple.gif","img/card_backs/set1/green.gif","img/card_backs/set1/yellow.gif","img/card_backs/set2/orange.gif","img/card_backs/set2/pink.gif","img/card_backs/set2/gray.gif","img/card_backs/set2/blue.gif","""event"",""trial"",""time""
""fullscreenenter"",""1"",""1981""
","
","
","""event"",""trial"",""time""
""fullscreenenter"",""1"",""1981""
","
","","null","","null","","fixation","2021-06-17 22:35:25.007","","","","","",""
"card-selection-trial","103","399634","0.0-25.0-1.15","403","true","img/card_backs/set1/red.gif","img/card_backs/set1/purple.gif","img/card_backs/set1/green.gif","img/card_backs/set1/yellow.gif","img/card_backs/set2/orange.gif","img/card_backs/set2/pink.gif","img/card_backs/set2/gray.gif","img/card_backs/set2/blue.gif","""event"",""trial"",""time""
""fullscreenenter"",""1"",""1981""
","
","
","""event"",""trial"",""time""
""fullscreenenter"",""1"",""1981""
","
","","639.2999999523163","","","","real_trial","2021-06-17 22:35:27.650","img/card_backs/set1/green.gif","2","40","1","",""
"casino-fixation","104","400136","0.0-25.0-0.16","403","true","img/card_backs/set1/red.gif","img/card_backs/set1/purple.gif","img/card_backs/set1/green.gif","img/card_backs/set1/yellow.gif","img/card_backs/set2/orange.gif","img/card_backs/set2/pink.gif","img/card_backs/set2/gray.gif","img/card_backs/set2/blue.gif","""event"",""trial"",""time""
""fullscreenenter"",""1"",""1981""
","
","
","""event"",""trial"",""time""
""fullscreenenter"",""1"",""1981""
","
","","null","","null","","fixation","2021-06-17 22:35:28.151","","","","","",""
"card-selection-trial","105","402752","0.0-25.0-1.16","403","true","img/card_backs/set1/red.gif","img/card_backs/set1/purple.gif","img/card_backs/set1/green.gif","img/card_backs/set1/yellow.gif","img/card_backs/set2/orange.gif","img/card_backs/set2/pink.gif","img/card_backs/set2/gray.gif","img/card_backs/set2/blue.gif","""event"",""trial"",""time""
""fullscreenenter"",""1"",""1981""
","
","
","""event"",""trial"",""time""
""fullscreenenter"",""1"",""1981""
","
","","612.2000000476837","","","","real_trial","2021-06-17 22:35:30.767","img/card_backs/set1/red.gif","1","-210","1","",""
"casino-fixation","106","403254","0.0-25.0-0.17","403","true","img/card_backs/set1/red.gif","img/card_backs/set1/purple.gif","img/card_backs/set1/green.gif","img/card_backs/set1/yellow.gif","img/card_backs/set2/orange.gif","img/card_backs/set2/pink.gif","img/card_backs/set2/gray.gif","img/card_backs/set2/blue.gif","""event"",""trial"",""time""
""fullscreenenter"",""1"",""1981""
","
","
","""event"",""trial"",""time""
""fullscreenenter"",""1"",""1981""
","
","","null","","null","","fixation","2021-06-17 22:35:31.269","","","","","",""
"card-selection-trial","107","405745","0.0-25.0-1.17","403","true","img/card_backs/set1/red.gif","img/card_backs/set1/purple.gif","img/card_backs/set1/green.gif","img/card_backs/set1/yellow.gif","img/card_backs/set2/orange.gif","img/card_backs/set2/pink.gif","img/card_backs/set2/gray.gif","img/card_backs/set2/blue.gif","""event"",""trial"",""time""
""fullscreenenter"",""1"",""1981""
","
","
","""event"",""trial"",""time""
""fullscreenenter"",""1"",""1981""
","
","","487.40000009536743","","","","real_trial","2021-06-17 22:35:33.760","img/card_backs/set1/red.gif","1","240","1","",""
"casino-fixation","108","406247","0.0-25.0-0.18","403","true","img/card_backs/set1/red.gif","img/card_backs/set1/purple.gif","img/card_backs/set1/green.gif","img/card_backs/set1/yellow.gif","img/card_backs/set2/orange.gif","img/card_backs/set2/pink.gif","img/card_backs/set2/gray.gif","img/card_backs/set2/blue.gif","""event"",""trial"",""time""
""fullscreenenter"",""1"",""1981""
","
","
","""event"",""trial"",""time""
""fullscreenenter"",""1"",""1981""
","
","","null","","null","","fixation","2021-06-17 22:35:34.262","","","","","",""
"card-selection-trial","109","408777","0.0-25.0-1.18","403","true","img/card_backs/set1/red.gif","img/card_backs/set1/purple.gif","img/card_backs/set1/green.gif","img/card_backs/set1/yellow.gif","img/card_backs/set2/orange.gif","img/card_backs/set2/pink.gif","img/card_backs/set2/gray.gif","img/card_backs/set2/blue.gif","""event"",""trial"",""time""
""fullscreenenter"",""1"",""1981""
","
","
","""event"",""trial"",""time""
""fullscreenenter"",""1"",""1981""
","
","","525.2999999523163","","","","real_trial","2021-06-17 22:35:36.792","img/card_backs/set1/red.gif","0","-190","1","",""
"casino-fixation","110","409280","0.0-25.0-0.19","403","true","img/card_backs/set1/red.gif","img/card_backs/set1/purple.gif","img/card_backs/set1/green.gif","img/card_backs/set1/yellow.gif","img/card_backs/set2/orange.gif","img/card_backs/set2/pink.gif","img/card_backs/set2/gray.gif","img/card_backs/set2/blue.gif","""event"",""trial"",""time""
""fullscreenenter"",""1"",""1981""
","
","
","""event"",""trial"",""time""
""fullscreenenter"",""1"",""1981""
","
","","null","","null","","fixation","2021-06-17 22:35:37.295","","","","","",""
"card-selection-trial","111","412035","0.0-25.0-1.19","403","true","img/card_backs/set1/red.gif","img/card_backs/set1/purple.gif","img/card_backs/set1/green.gif","img/card_backs/set1/yellow.gif","img/card_backs/set2/orange.gif","img/card_backs/set2/pink.gif","img/card_backs/set2/gray.gif","img/card_backs/set2/blue.gif","""event"",""trial"",""time""
""fullscreenenter"",""1"",""1981""
","
","
","""event"",""trial"",""time""
""fullscreenenter"",""1"",""1981""
","
","","748.7999999523163","","","","real_trial","2021-06-17 22:35:40.050","img/card_backs/set1/red.gif","3","-200","1","",""
"casino-fixation","112","412536","0.0-25.0-0.20","403","true","img/card_backs/set1/red.gif","img/card_backs/set1/purple.gif","img/card_backs/set1/green.gif","img/card_backs/set1/yellow.gif","img/card_backs/set2/orange.gif","img/card_backs/set2/pink.gif","img/card_backs/set2/gray.gif","img/card_backs/set2/blue.gif","""event"",""trial"",""time""
""fullscreenenter"",""1"",""1981""
","
","
","""event"",""trial"",""time""
""fullscreenenter"",""1"",""1981""
","
","","null","","null","","fixation","2021-06-17 22:35:40.551","","","","","",""
"card-selection-trial","113","415632","0.0-25.0-1.20","403","true","img/card_backs/set1/red.gif","img/card_backs/set1/purple.gif","img/card_backs/set1/green.gif","img/card_backs/set1/yellow.gif","img/card_backs/set2/orange.gif","img/card_backs/set2/pink.gif","img/card_backs/set2/gray.gif","img/card_backs/set2/blue.gif","""event"",""trial"",""time""
""fullscreenenter"",""1"",""1981""
","
","
","""event"",""trial"",""time""
""fullscreenenter"",""1"",""1981""
","
","","1092.0999999046326","","","","real_trial","2021-06-17 22:35:43.648","img/card_backs/set1/purple.gif","2","-190","1","",""
"casino-fixation","114","416135","0.0-25.0-0.21","403","true","img/card_backs/set1/red.gif","img/card_backs/set1/purple.gif","img/card_backs/set1/green.gif","img/card_backs/set1/yellow.gif","img/card_backs/set2/orange.gif","img/card_backs/set2/pink.gif","img/card_backs/set2/gray.gif","img/card_backs/set2/blue.gif","""event"",""trial"",""time""
""fullscreenenter"",""1"",""1981""
","
","
","""event"",""trial"",""time""
""fullscreenenter"",""1"",""1981""
","
","","null","","null","","fixation","2021-06-17 22:35:44.150","","","","","",""
"card-selection-trial","115","418637","0.0-25.0-1.21","403","true","img/card_backs/set1/red.gif","img/card_backs/set1/purple.gif","img/card_backs/set1/green.gif","img/card_backs/set1/yellow.gif","img/card_backs/set2/orange.gif","img/card_backs/set2/pink.gif","img/card_backs/set2/gray.gif","img/card_backs/set2/blue.gif","""event"",""trial"",""time""
""fullscreenenter"",""1"",""1981""
","
","
","""event"",""trial"",""time""
""fullscreenenter"",""1"",""1981""
","
","","498.60000014305115","","","","real_trial","2021-06-17 22:35:46.652","img/card_backs/set1/purple.gif","0","-190","1","",""
"casino-fixation","116","419138","0.0-25.0-0.22","403","true","img/card_backs/set1/red.gif","img/card_backs/set1/purple.gif","img/card_backs/set1/green.gif","img/card_backs/set1/yellow.gif","img/card_backs/set2/orange.gif","img/card_backs/set2/pink.gif","img/card_backs/set2/gray.gif","img/card_backs/set2/blue.gif","""event"",""trial"",""time""
""fullscreenenter"",""1"",""1981""
","
","
","""event"",""trial"",""time""
""fullscreenenter"",""1"",""1981""
","
","","null","","null","","fixation","2021-06-17 22:35:47.153","","","","","",""
"card-selection-trial","117","422664","0.0-25.0-1.22","403","true","img/card_backs/set1/red.gif","img/card_backs/set1/purple.gif","img/card_backs/set1/green.gif","img/card_backs/set1/yellow.gif","img/card_backs/set2/orange.gif","img/card_backs/set2/pink.gif","img/card_backs/set2/gray.gif","img/card_backs/set2/blue.gif","""event"",""trial"",""time""
""fullscreenenter"",""1"",""1981""
","
","
","""event"",""trial"",""time""
""fullscreenenter"",""1"",""1981""
","
","","1509.4000000953674","","","","real_trial","2021-06-17 22:35:50.679","img/card_backs/set1/red.gif","0","260","1","",""
"casino-fixation","118","423166","0.0-25.0-0.23","403","true","img/card_backs/set1/red.gif","img/card_backs/set1/purple.gif","img/card_backs/set1/green.gif","img/card_backs/set1/yellow.gif","img/card_backs/set2/orange.gif","img/card_backs/set2/pink.gif","img/card_backs/set2/gray.gif","img/card_backs/set2/blue.gif","""event"",""trial"",""time""
""fullscreenenter"",""1"",""1981""
","
","
","""event"",""trial"",""time""
""fullscreenenter"",""1"",""1981""
","
","","null","","null","","fixation","2021-06-17 22:35:51.181","","","","","",""
"card-selection-trial","119","425687","0.0-25.0-1.23","403","true","img/card_backs/set1/red.gif","img/card_backs/set1/purple.gif","img/card_backs/set1/green.gif","img/card_backs/set1/yellow.gif","img/card_backs/set2/orange.gif","img/card_backs/set2/pink.gif","img/card_backs/set2/gray.gif","img/card_backs/set2/blue.gif","""event"",""trial"",""time""
""fullscreenenter"",""1"",""1981""
","
","
","""event"",""trial"",""time""
""fullscreenenter"",""1"",""1981""
","
","","518","","","","real_trial","2021-06-17 22:35:53.702","img/card_backs/set1/red.gif","0","250","1","",""
"casino-fixation","120","426189","0.0-25.0-0.24","403","true","img/card_backs/set1/red.gif","img/card_backs/set1/purple.gif","img/card_backs/set1/green.gif","img/card_backs/set1/yellow.gif","img/card_backs/set2/orange.gif","img/card_backs/set2/pink.gif","img/card_backs/set2/gray.gif","img/card_backs/set2/blue.gif","""event"",""trial"",""time""
""fullscreenenter"",""1"",""1981""
","
","
","""event"",""trial"",""time""
""fullscreenenter"",""1"",""1981""
","
","","null","","null","","fixation","2021-06-17 22:35:54.204","","","","","",""
"card-selection-trial","121","428739","0.0-25.0-1.24","403","true","img/card_backs/set1/red.gif","img/card_backs/set1/purple.gif","img/card_backs/set1/green.gif","img/card_backs/set1/yellow.gif","img/card_backs/set2/orange.gif","img/card_backs/set2/pink.gif","img/card_backs/set2/gray.gif","img/card_backs/set2/blue.gif","""event"",""trial"",""time""
""fullscreenenter"",""1"",""1981""
","
","
","""event"",""trial"",""time""
""fullscreenenter"",""1"",""1981""
","
","","545.0999999046326","","","","real_trial","2021-06-17 22:35:56.754","img/card_backs/set1/red.gif","1","-200","1","",""
"casino-fixation","122","429241","0.0-25.0-0.25","403","true","img/card_backs/set1/red.gif","img/card_backs/set1/purple.gif","img/card_backs/set1/green.gif","img/card_backs/set1/yellow.gif","img/card_backs/set2/orange.gif","img/card_backs/set2/pink.gif","img/card_backs/set2/gray.gif","img/card_backs/set2/blue.gif","""event"",""trial"",""time""
""fullscreenenter"",""1"",""1981""
","
","
","""event"",""trial"",""time""
""fullscreenenter"",""1"",""1981""
","
","","null","","null","","fixation","2021-06-17 22:35:57.256","","","","","",""
"card-selection-trial","123","431887","0.0-25.0-1.25","403","true","img/card_backs/set1/red.gif","img/card_backs/set1/purple.gif","img/card_backs/set1/green.gif","img/card_backs/set1/yellow.gif","img/card_backs/set2/orange.gif","img/card_backs/set2/pink.gif","img/card_backs/set2/gray.gif","img/card_backs/set2/blue.gif","""event"",""trial"",""time""
""fullscreenenter"",""1"",""1981""
","
","
","""event"",""trial"",""time""
""fullscreenenter"",""1"",""1981""
","
","","642.2999999523163","","","","real_trial","2021-06-17 22:35:59.902","img/card_backs/set1/red.gif","3","-190","1","",""
"casino-fixation","124","432389","0.0-25.0-0.26","403","true","img/card_backs/set1/red.gif","img/card_backs/set1/purple.gif","img/card_backs/set1/green.gif","img/card_backs/set1/yellow.gif","img/card_backs/set2/orange.gif","img/card_backs/set2/pink.gif","img/card_backs/set2/gray.gif","img/card_backs/set2/blue.gif","""event"",""trial"",""time""
""fullscreenenter"",""1"",""1981""
","
","
","""event"",""trial"",""time""
""fullscreenenter"",""1"",""1981""
","
","","null","","null","","fixation","2021-06-17 22:36:00.404","","","","","",""
"card-selection-trial","125","435328","0.0-25.0-1.26","403","true","img/card_backs/set1/red.gif","img/card_backs/set1/purple.gif","img/card_backs/set1/green.gif","img/card_backs/set1/yellow.gif","img/card_backs/set2/orange.gif","img/card_backs/set2/pink.gif","img/card_backs/set2/gray.gif","img/card_backs/set2/blue.gif","""event"",""trial"",""time""
""fullscreenenter"",""1"",""1981""
","
","
","""event"",""trial"",""time""
""fullscreenenter"",""1"",""1981""
","
","","934.5","","","","real_trial","2021-06-17 22:36:03.343","img/card_backs/set1/yellow.gif","2","50","1","",""
"casino-fixation","126","435830","0.0-25.0-0.27","403","true","img/card_backs/set1/red.gif","img/card_backs/set1/purple.gif","img/card_backs/set1/green.gif","img/card_backs/set1/yellow.gif","img/card_backs/set2/orange.gif","img/card_backs/set2/pink.gif","img/card_backs/set2/gray.gif","img/card_backs/set2/blue.gif","""event"",""trial"",""time""
""fullscreenenter"",""1"",""1981""
","
","
","""event"",""trial"",""time""
""fullscreenenter"",""1"",""1981""
","
","","null","","null","","fixation","2021-06-17 22:36:03.845","","","","","",""
"card-selection-trial","127","438612","0.0-25.0-1.27","403","true","img/card_backs/set1/red.gif","img/card_backs/set1/purple.gif","img/card_backs/set1/green.gif","img/card_backs/set1/yellow.gif","img/card_backs/set2/orange.gif","img/card_backs/set2/pink.gif","img/card_backs/set2/gray.gif","img/card_backs/set2/blue.gif","""event"",""trial"",""time""
""fullscreenenter"",""1"",""1981""
","
","
","""event"",""trial"",""time""
""fullscreenenter"",""1"",""1981""
","
","","778.2999999523163","","","","real_trial","2021-06-17 22:36:06.628","img/card_backs/set1/yellow.gif","3","-100","1","",""
"casino-fixation","128","439114","0.0-25.0-0.28","403","true","img/card_backs/set1/red.gif","img/card_backs/set1/purple.gif","img/card_backs/set1/green.gif","img/card_backs/set1/yellow.gif","img/card_backs/set2/orange.gif","img/card_backs/set2/pink.gif","img/card_backs/set2/gray.gif","img/card_backs/set2/blue.gif","""event"",""trial"",""time""
""fullscreenenter"",""1"",""1981""
","
","
","""event"",""trial"",""time""
""fullscreenenter"",""1"",""1981""
","
","","null","","null","","fixation","2021-06-17 22:36:07.129","","","","","",""
"card-selection-trial","129","441736","0.0-25.0-1.28","403","true","img/card_backs/set1/red.gif","img/card_backs/set1/purple.gif","img/card_backs/set1/green.gif","img/card_backs/set1/yellow.gif","img/card_backs/set2/orange.gif","img/card_backs/set2/pink.gif","img/card_backs/set2/gray.gif","img/card_backs/set2/blue.gif","""event"",""trial"",""time""
""fullscreenenter"",""1"",""1981""
","
","
","""event"",""trial"",""time""
""fullscreenenter"",""1"",""1981""
","
","","617.7000000476837","","","","real_trial","2021-06-17 22:36:09.751","img/card_backs/set1/yellow.gif","1","-90","1","",""
"casino-fixation","130","442237","0.0-25.0-0.29","403","true","img/card_backs/set1/red.gif","img/card_backs/set1/purple.gif","img/card_backs/set1/green.gif","img/card_backs/set1/yellow.gif","img/card_backs/set2/orange.gif","img/card_backs/set2/pink.gif","img/card_backs/set2/gray.gif","img/card_backs/set2/blue.gif","""event"",""trial"",""time""
""fullscreenenter"",""1"",""1981""
","
","
","""event"",""trial"",""time""
""fullscreenenter"",""1"",""1981""
","
","","null","","null","","fixation","2021-06-17 22:36:10.252","","","","","",""
"card-selection-trial","131","445003","0.0-25.0-1.29","403","true","img/card_backs/set1/red.gif","img/card_backs/set1/purple.gif","img/card_backs/set1/green.gif","img/card_backs/set1/yellow.gif","img/card_backs/set2/orange.gif","img/card_backs/set2/pink.gif","img/card_backs/set2/gray.gif","img/card_backs/set2/blue.gif","""event"",""trial"",""time""
""fullscreenenter"",""1"",""1981""
","
","
","""event"",""trial"",""time""
""fullscreenenter"",""1"",""1981""
","
","","762.5","","","","real_trial","2021-06-17 22:36:13.018","img/card_backs/set1/green.gif","3","-90","1","",""
"casino-fixation","132","445505","0.0-25.0-0.30","403","true","img/card_backs/set1/red.gif","img/card_backs/set1/purple.gif","img/card_backs/set1/green.gif","img/card_backs/set1/yellow.gif","img/card_backs/set2/orange.gif","img/card_backs/set2/pink.gif","img/card_backs/set2/gray.gif","img/card_backs/set2/blue.gif","""event"",""trial"",""time""
""fullscreenenter"",""1"",""1981""
","
","
","""event"",""trial"",""time""
""fullscreenenter"",""1"",""1981""
","
","","null","","null","","fixation","2021-06-17 22:36:13.520","","","","","",""
"card-selection-trial","133","448060","0.0-25.0-1.30","403","true","img/card_backs/set1/red.gif","img/card_backs/set1/purple.gif","img/card_backs/set1/green.gif","img/card_backs/set1/yellow.gif","img/card_backs/set2/orange.gif","img/card_backs/set2/pink.gif","img/card_backs/set2/gray.gif","img/card_backs/set2/blue.gif","""event"",""trial"",""time""
""fullscreenenter"",""1"",""1981""
","
","
","""event"",""trial"",""time""
""fullscreenenter"",""1"",""1981""
","
","","551.5","","","","real_trial","2021-06-17 22:36:16.076","img/card_backs/set1/green.gif","1","-90","1","",""
"casino-fixation","134","448562","0.0-25.0-0.31","403","true","img/card_backs/set1/red.gif","img/card_backs/set1/purple.gif","img/card_backs/set1/green.gif","img/card_backs/set1/yellow.gif","img/card_backs/set2/orange.gif","img/card_backs/set2/pink.gif","img/card_backs/set2/gray.gif","img/card_backs/set2/blue.gif","""event"",""trial"",""time""
""fullscreenenter"",""1"",""1981""
","
","
","""event"",""trial"",""time""
""fullscreenenter"",""1"",""1981""
","
","","null","","null","","fixation","2021-06-17 22:36:16.577","","","","","",""
"card-selection-trial","135","451228","0.0-25.0-1.31","403","true","img/card_backs/set1/red.gif","img/card_backs/set1/purple.gif","img/card_backs/set1/green.gif","img/card_backs/set1/yellow.gif","img/card_backs/set2/orange.gif","img/card_backs/set2/pink.gif","img/card_backs/set2/gray.gif","img/card_backs/set2/blue.gif","""event"",""trial"",""time""
""fullscreenenter"",""1"",""1981""
","
","
","""event"",""trial"",""time""
""fullscreenenter"",""1"",""1981""
","
","","661","","","","real_trial","2021-06-17 22:36:19.243","img/card_backs/set1/red.gif","0","240","1","",""
"casino-fixation","136","451729","0.0-25.0-0.32","403","true","img/card_backs/set1/red.gif","img/card_backs/set1/purple.gif","img/card_backs/set1/green.gif","img/card_backs/set1/yellow.gif","img/card_backs/set2/orange.gif","img/card_backs/set2/pink.gif","img/card_backs/set2/gray.gif","img/card_backs/set2/blue.gif","""event"",""trial"",""time""
""fullscreenenter"",""1"",""1981""
","
","
","""event"",""trial"",""time""
""fullscreenenter"",""1"",""1981""
","
","","null","","null","","fixation","2021-06-17 22:36:19.744","","","","","",""
"card-selection-trial","137","454285","0.0-25.0-1.32","403","true","img/card_backs/set1/red.gif","img/card_backs/set1/purple.gif","img/card_backs/set1/green.gif","img/card_backs/set1/yellow.gif","img/card_backs/set2/orange.gif","img/card_backs/set2/pink.gif","img/card_backs/set2/gray.gif","img/card_backs/set2/blue.gif","""event"",""trial"",""time""
""fullscreenenter"",""1"",""1981""
","
","
","""event"",""trial"",""time""
""fullscreenenter"",""1"",""1981""
","
","","551.7999999523163","","","","real_trial","2021-06-17 22:36:22.300","img/card_backs/set1/red.gif","3","-210","1","",""
"casino-fixation","138","454787","0.0-25.0-0.33","403","true","img/card_backs/set1/red.gif","img/card_backs/set1/purple.gif","img/card_backs/set1/green.gif","img/card_backs/set1/yellow.gif","img/card_backs/set2/orange.gif","img/card_backs/set2/pink.gif","img/card_backs/set2/gray.gif","img/card_backs/set2/blue.gif","""event"",""trial"",""time""
""fullscreenenter"",""1"",""1981""
","
","
","""event"",""trial"",""time""
""fullscreenenter"",""1"",""1981""
","
","","null","","null","","fixation","2021-06-17 22:36:22.802","","","","","",""
"card-selection-trial","139","457450","0.0-25.0-1.33","403","true","img/card_backs/set1/red.gif","img/card_backs/set1/purple.gif","img/card_backs/set1/green.gif","img/card_backs/set1/yellow.gif","img/card_backs/set2/orange.gif","img/card_backs/set2/pink.gif","img/card_backs/set2/gray.gif","img/card_backs/set2/blue.gif","""event"",""trial"",""time""
""fullscreenenter"",""1"",""1981""
","
","
","""event"",""trial"",""time""
""fullscreenenter"",""1"",""1981""
","
","","659.2999999523163","","","","real_trial","2021-06-17 22:36:25.465","img/card_backs/set1/red.gif","2","-200","1","",""
"casino-fixation","140","457964","0.0-25.0-0.34","403","true","img/card_backs/set1/red.gif","img/card_backs/set1/purple.gif","img/card_backs/set1/green.gif","img/card_backs/set1/yellow.gif","img/card_backs/set2/orange.gif","img/card_backs/set2/pink.gif","img/card_backs/set2/gray.gif","img/card_backs/set2/blue.gif","""event"",""trial"",""time""
""fullscreenenter"",""1"",""1981""
","
","
","""event"",""trial"",""time""
""fullscreenenter"",""1"",""1981""
","
","","null","","null","","fixation","2021-06-17 22:36:25.979","","","","","",""
"card-selection-trial","141","460680","0.0-25.0-1.34","403","true","img/card_backs/set1/red.gif","img/card_backs/set1/purple.gif","img/card_backs/set1/green.gif","img/card_backs/set1/yellow.gif","img/card_backs/set2/orange.gif","img/card_backs/set2/pink.gif","img/card_backs/set2/gray.gif","img/card_backs/set2/blue.gif","""event"",""trial"",""time""
""fullscreenenter"",""1"",""1981""
","
","
","""event"",""trial"",""time""
""fullscreenenter"",""1"",""1981""
","
","","712","","","","real_trial","2021-06-17 22:36:28.695","img/card_backs/set1/red.gif","1","250","1","",""
"casino-fixation","142","461182","0.0-25.0-0.35","403","true","img/card_backs/set1/red.gif","img/card_backs/set1/purple.gif","img/card_backs/set1/green.gif","img/card_backs/set1/yellow.gif","img/card_backs/set2/orange.gif","img/card_backs/set2/pink.gif","img/card_backs/set2/gray.gif","img/card_backs/set2/blue.gif","""event"",""trial"",""time""
""fullscreenenter"",""1"",""1981""
","
","
","""event"",""trial"",""time""
""fullscreenenter"",""1"",""1981""
","
","","null","","null","","fixation","2021-06-17 22:36:29.197","","","","","",""
"card-selection-trial","143","463987","0.0-25.0-1.35","403","true","img/card_backs/set1/red.gif","img/card_backs/set1/purple.gif","img/card_backs/set1/green.gif","img/card_backs/set1/yellow.gif","img/card_backs/set2/orange.gif","img/card_backs/set2/pink.gif","img/card_backs/set2/gray.gif","img/card_backs/set2/blue.gif","""event"",""trial"",""time""
""fullscreenenter"",""1"",""1981""
","
","
","""event"",""trial"",""time""
""fullscreenenter"",""1"",""1981""
","
","","802.2000000476837","","","","real_trial","2021-06-17 22:36:32.002","img/card_backs/set1/red.gif","2","-190","1","",""
"casino-fixation","144","464489","0.0-25.0-0.36","403","true","img/card_backs/set1/red.gif","img/card_backs/set1/purple.gif","img/card_backs/set1/green.gif","img/card_backs/set1/yellow.gif","img/card_backs/set2/orange.gif","img/card_backs/set2/pink.gif","img/card_backs/set2/gray.gif","img/card_backs/set2/blue.gif","""event"",""trial"",""time""
""fullscreenenter"",""1"",""1981""
","
","
","""event"",""trial"",""time""
""fullscreenenter"",""1"",""1981""
","
","","null","","null","","fixation","2021-06-17 22:36:32.504","","","","","",""
"card-selection-trial","145","466993","0.0-25.0-1.36","403","true","img/card_backs/set1/red.gif","img/card_backs/set1/purple.gif","img/card_backs/set1/green.gif","img/card_backs/set1/yellow.gif","img/card_backs/set2/orange.gif","img/card_backs/set2/pink.gif","img/card_backs/set2/gray.gif","img/card_backs/set2/blue.gif","""event"",""trial"",""time""
""fullscreenenter"",""1"",""1981""
","
","
","""event"",""trial"",""time""
""fullscreenenter"",""1"",""1981""
","
","","500.90000009536743","","","","real_trial","2021-06-17 22:36:35.009","img/card_backs/set1/red.gif","2","-200","1","",""
"casino-fixation","146","467495","0.0-25.0-0.37","403","true","img/card_backs/set1/red.gif","img/card_backs/set1/purple.gif","img/card_backs/set1/green.gif","img/card_backs/set1/yellow.gif","img/card_backs/set2/orange.gif","img/card_backs/set2/pink.gif","img/card_backs/set2/gray.gif","img/card_backs/set2/blue.gif","""event"",""trial"",""time""
""fullscreenenter"",""1"",""1981""
","
","
","""event"",""trial"",""time""
""fullscreenenter"",""1"",""1981""
","
","","null","","null","","fixation","2021-06-17 22:36:35.510","","","","","",""
"card-selection-trial","147","470367","0.0-25.0-1.37","403","true","img/card_backs/set1/red.gif","img/card_backs/set1/purple.gif","img/card_backs/set1/green.gif","img/card_backs/set1/yellow.gif","img/card_backs/set2/orange.gif","img/card_backs/set2/pink.gif","img/card_backs/set2/gray.gif","img/card_backs/set2/blue.gif","""event"",""trial"",""time""
""fullscreenenter"",""1"",""1981""
","
","
","""event"",""trial"",""time""
""fullscreenenter"",""1"",""1981""
","
","","869","","","","real_trial","2021-06-17 22:36:38.382","img/card_backs/set1/yellow.gif","0","40","1","",""
"casino-fixation","148","470870","0.0-25.0-0.38","403","true","img/card_backs/set1/red.gif","img/card_backs/set1/purple.gif","img/card_backs/set1/green.gif","img/card_backs/set1/yellow.gif","img/card_backs/set2/orange.gif","img/card_backs/set2/pink.gif","img/card_backs/set2/gray.gif","img/card_backs/set2/blue.gif","""event"",""trial"",""time""
""fullscreenenter"",""1"",""1981""
","
","
","""event"",""trial"",""time""
""fullscreenenter"",""1"",""1981""
","
","","null","","null","","fixation","2021-06-17 22:36:38.885","","","","","",""
"card-selection-trial","149","473566","0.0-25.0-1.38","403","true","img/card_backs/set1/red.gif","img/card_backs/set1/purple.gif","img/card_backs/set1/green.gif","img/card_backs/set1/yellow.gif","img/card_backs/set2/orange.gif","img/card_backs/set2/pink.gif","img/card_backs/set2/gray.gif","img/card_backs/set2/blue.gif","""event"",""trial"",""time""
""fullscreenenter"",""1"",""1981""
","
","
","""event"",""trial"",""time""
""fullscreenenter"",""1"",""1981""
","
","","692.5999999046326","","","","real_trial","2021-06-17 22:36:41.581","img/card_backs/set1/green.gif","3","40","1","",""
"casino-fixation","150","474067","0.0-25.0-0.39","403","true","img/card_backs/set1/red.gif","img/card_backs/set1/purple.gif","img/card_backs/set1/green.gif","img/card_backs/set1/yellow.gif","img/card_backs/set2/orange.gif","img/card_backs/set2/pink.gif","img/card_backs/set2/gray.gif","img/card_backs/set2/blue.gif","""event"",""trial"",""time""
""fullscreenenter"",""1"",""1981""
","
","
","""event"",""trial"",""time""
""fullscreenenter"",""1"",""1981""
","
","","null","","null","","fixation","2021-06-17 22:36:42.082","","","","","",""
"card-selection-trial","151","477201","0.0-25.0-1.39","403","true","img/card_backs/set1/red.gif","img/card_backs/set1/purple.gif","img/card_backs/set1/green.gif","img/card_backs/set1/yellow.gif","img/card_backs/set2/orange.gif","img/card_backs/set2/pink.gif","img/card_backs/set2/gray.gif","img/card_backs/set2/blue.gif","""event"",""trial"",""time""
""fullscreenenter"",""1"",""1981""
","
","
","""event"",""trial"",""time""
""fullscreenenter"",""1"",""1981""
","
","","1130.0999999046326","","","","real_trial","2021-06-17 22:36:45.216","img/card_backs/set1/purple.gif","2","260","1","",""
"casino-fixation","152","477703","0.0-25.0-0.40","403","true","img/card_backs/set1/red.gif","img/card_backs/set1/purple.gif","img/card_backs/set1/green.gif","img/card_backs/set1/yellow.gif","img/card_backs/set2/orange.gif","img/card_backs/set2/pink.gif","img/card_backs/set2/gray.gif","img/card_backs/set2/blue.gif","""event"",""trial"",""time""
""fullscreenenter"",""1"",""1981""
","
","
","""event"",""trial"",""time""
""fullscreenenter"",""1"",""1981""
","
","","null","","null","","fixation","2021-06-17 22:36:45.718","","","","","",""
"card-selection-trial","153","480681","0.0-25.0-1.40","403","true","img/card_backs/set1/red.gif","img/card_backs/set1/purple.gif","img/card_backs/set1/green.gif","img/card_backs/set1/yellow.gif","img/card_backs/set2/orange.gif","img/card_backs/set2/pink.gif","img/card_backs/set2/gray.gif","img/card_backs/set2/blue.gif","""event"",""trial"",""time""
""fullscreenenter"",""1"",""1981""
","
","
","""event"",""trial"",""time""
""fullscreenenter"",""1"",""1981""
","
","","973.3000001907349","","","","real_trial","2021-06-17 22:36:48.696","img/card_backs/set1/red.gif","1","260","1","",""
"casino-fixation","154","481182","0.0-25.0-0.41","403","true","img/card_backs/set1/red.gif","img/card_backs/set1/purple.gif","img/card_backs/set1/green.gif","img/card_backs/set1/yellow.gif","img/card_backs/set2/orange.gif","img/card_backs/set2/pink.gif","img/card_backs/set2/gray.gif","img/card_backs/set2/blue.gif","""event"",""trial"",""time""
""fullscreenenter"",""1"",""1981""
","
","
","""event"",""trial"",""time""
""fullscreenenter"",""1"",""1981""
","
","","null","","null","","fixation","2021-06-17 22:36:49.197","","","","","",""
"card-selection-trial","155","484556","0.0-25.0-1.41","403","true","img/card_backs/set1/red.gif","img/card_backs/set1/purple.gif","img/card_backs/set1/green.gif","img/card_backs/set1/yellow.gif","img/card_backs/set2/orange.gif","img/card_backs/set2/pink.gif","img/card_backs/set2/gray.gif","img/card_backs/set2/blue.gif","""event"",""trial"",""time""
""fullscreenenter"",""1"",""1981""
","
","
","""event"",""trial"",""time""
""fullscreenenter"",""1"",""1981""
","
","","1370","","","","real_trial","2021-06-17 22:36:52.571","img/card_backs/set1/yellow.gif","3","50","1","",""
"casino-fixation","156","485059","0.0-25.0-0.42","403","true","img/card_backs/set1/red.gif","img/card_backs/set1/purple.gif","img/card_backs/set1/green.gif","img/card_backs/set1/yellow.gif","img/card_backs/set2/orange.gif","img/card_backs/set2/pink.gif","img/card_backs/set2/gray.gif","img/card_backs/set2/blue.gif","""event"",""trial"",""time""
""fullscreenenter"",""1"",""1981""
","
","
","""event"",""trial"",""time""
""fullscreenenter"",""1"",""1981""
","
","","null","","null","","fixation","2021-06-17 22:36:53.074","","","","","",""
"card-selection-trial","157","487683","0.0-25.0-1.42","403","true","img/card_backs/set1/red.gif","img/card_backs/set1/purple.gif","img/card_backs/set1/green.gif","img/card_backs/set1/yellow.gif","img/card_backs/set2/orange.gif","img/card_backs/set2/pink.gif","img/card_backs/set2/gray.gif","img/card_backs/set2/blue.gif","""event"",""trial"",""time""
""fullscreenenter"",""1"",""1981""
","
","
","""event"",""trial"",""time""
""fullscreenenter"",""1"",""1981""
","
","","620.2000000476837","","","","real_trial","2021-06-17 22:36:55.698","img/card_backs/set1/green.gif","0","60","1","",""
"casino-fixation","158","488185","0.0-25.0-0.43","403","true","img/card_backs/set1/red.gif","img/card_backs/set1/purple.gif","img/card_backs/set1/green.gif","img/card_backs/set1/yellow.gif","img/card_backs/set2/orange.gif","img/card_backs/set2/pink.gif","img/card_backs/set2/gray.gif","img/card_backs/set2/blue.gif","""event"",""trial"",""time""
""fullscreenenter"",""1"",""1981""
","
","
","""event"",""trial"",""time""
""fullscreenenter"",""1"",""1981""
","
","","null","","null","","fixation","2021-06-17 22:36:56.200","","","","","",""
"card-selection-trial","159","492845","0.0-25.0-1.43","403","true","img/card_backs/set1/red.gif","img/card_backs/set1/purple.gif","img/card_backs/set1/green.gif","img/card_backs/set1/yellow.gif","img/card_backs/set2/orange.gif","img/card_backs/set2/pink.gif","img/card_backs/set2/gray.gif","img/card_backs/set2/blue.gif","""event"",""trial"",""time""
""fullscreenenter"",""1"",""1981""
","
","
","""event"",""trial"",""time""
""fullscreenenter"",""1"",""1981""
","
","","2655.699999809265","","","","real_trial","2021-06-17 22:37:00.860","img/card_backs/set1/purple.gif","2","250","1","",""
"casino-fixation","160","493346","0.0-25.0-0.44","403","true","img/card_backs/set1/red.gif","img/card_backs/set1/purple.gif","img/card_backs/set1/green.gif","img/card_backs/set1/yellow.gif","img/card_backs/set2/orange.gif","img/card_backs/set2/pink.gif","img/card_backs/set2/gray.gif","img/card_backs/set2/blue.gif","""event"",""trial"",""time""
""fullscreenenter"",""1"",""1981""
","
","
","""event"",""trial"",""time""
""fullscreenenter"",""1"",""1981""
","
","","null","","null","","fixation","2021-06-17 22:37:01.362","","","","","",""
"card-selection-trial","161","496046","0.0-25.0-1.44","403","true","img/card_backs/set1/red.gif","img/card_backs/set1/purple.gif","img/card_backs/set1/green.gif","img/card_backs/set1/yellow.gif","img/card_backs/set2/orange.gif","img/card_backs/set2/pink.gif","img/card_backs/set2/gray.gif","img/card_backs/set2/blue.gif","""event"",""trial"",""time""
""fullscreenenter"",""1"",""1981""
","
","
","""event"",""trial"",""time""
""fullscreenenter"",""1"",""1981""
","
","","696.1000001430511","","","","real_trial","2021-06-17 22:37:04.061","img/card_backs/set1/red.gif","1","260","1","",""
"casino-fixation","162","496547","0.0-25.0-0.45","403","true","img/card_backs/set1/red.gif","img/card_backs/set1/purple.gif","img/card_backs/set1/green.gif","img/card_backs/set1/yellow.gif","img/card_backs/set2/orange.gif","img/card_backs/set2/pink.gif","img/card_backs/set2/gray.gif","img/card_backs/set2/blue.gif","""event"",""trial"",""time""
""fullscreenenter"",""1"",""1981""
","
","
","""event"",""trial"",""time""
""fullscreenenter"",""1"",""1981""
","
","","null","","null","","fixation","2021-06-17 22:37:04.562","","","","","",""
"card-selection-trial","163","499755","0.0-25.0-1.45","403","true","img/card_backs/set1/red.gif","img/card_backs/set1/purple.gif","img/card_backs/set1/green.gif","img/card_backs/set1/yellow.gif","img/card_backs/set2/orange.gif","img/card_backs/set2/pink.gif","img/card_backs/set2/gray.gif","img/card_backs/set2/blue.gif","""event"",""trial"",""time""
""fullscreenenter"",""1"",""1981""
","
","
","""event"",""trial"",""time""
""fullscreenenter"",""1"",""1981""
","
","","1204","","","","real_trial","2021-06-17 22:37:07.770","img/card_backs/set1/yellow.gif","0","50","1","",""
"casino-fixation","164","500256","0.0-25.0-0.46","403","true","img/card_backs/set1/red.gif","img/card_backs/set1/purple.gif","img/card_backs/set1/green.gif","img/card_backs/set1/yellow.gif","img/card_backs/set2/orange.gif","img/card_backs/set2/pink.gif","img/card_backs/set2/gray.gif","img/card_backs/set2/blue.gif","""event"",""trial"",""time""
""fullscreenenter"",""1"",""1981""
","
","
","""event"",""trial"",""time""
""fullscreenenter"",""1"",""1981""
","
","","null","","null","","fixation","2021-06-17 22:37:08.271","","","","","",""
"card-selection-trial","165","502766","0.0-25.0-1.46","403","true","img/card_backs/set1/red.gif","img/card_backs/set1/purple.gif","img/card_backs/set1/green.gif","img/card_backs/set1/yellow.gif","img/card_backs/set2/orange.gif","img/card_backs/set2/pink.gif","img/card_backs/set2/gray.gif","img/card_backs/set2/blue.gif","""event"",""trial"",""time""
""fullscreenenter"",""1"",""1981""
","
","
","""event"",""trial"",""time""
""fullscreenenter"",""1"",""1981""
","
","","504.89999985694885","","","","real_trial","2021-06-17 22:37:10.781","img/card_backs/set1/green.gif","1","60","1","",""
"casino-fixation","166","503268","0.0-25.0-0.47","403","true","img/card_backs/set1/red.gif","img/card_backs/set1/purple.gif","img/card_backs/set1/green.gif","img/card_backs/set1/yellow.gif","img/card_backs/set2/orange.gif","img/card_backs/set2/pink.gif","img/card_backs/set2/gray.gif","img/card_backs/set2/blue.gif","""event"",""trial"",""time""
""fullscreenenter"",""1"",""1981""
","
","
","""event"",""trial"",""time""
""fullscreenenter"",""1"",""1981""
","
","","null","","null","","fixation","2021-06-17 22:37:11.283","","","","","",""
"card-selection-trial","167","506676","0.0-25.0-1.47","403","true","img/card_backs/set1/red.gif","img/card_backs/set1/purple.gif","img/card_backs/set1/green.gif","img/card_backs/set1/yellow.gif","img/card_backs/set2/orange.gif","img/card_backs/set2/pink.gif","img/card_backs/set2/gray.gif","img/card_backs/set2/blue.gif","""event"",""trial"",""time""
""fullscreenenter"",""1"",""1981""
","
","
","""event"",""trial"",""time""
""fullscreenenter"",""1"",""1981""
","
","","1391.7999999523163","","","","real_trial","2021-06-17 22:37:14.691","img/card_backs/set1/purple.gif","1","-210","1","",""
