"trial_type","trial_index","time_elapsed","internal_node_id","sub_id","risk_good_first","block1_A","block1_B","block1_C","block1_D","block2_A","block2_B","block2_C","block2_D","interactions","blur_events","focus_events","fullscreenenter_events","fullscreenexit_events","success","rt","stimulus","key_press","button_pressed","task_part","timestamp","card_choice","choice_position","points_earned","block","correct","response"
"pavlovia","0","3","0.0-0.0","814","false","img/card_backs/set1/yellow.gif","img/card_backs/set1/green.gif","img/card_backs/set1/red.gif","img/card_backs/set1/purple.gif","img/card_backs/set2/gray.gif","img/card_backs/set2/blue.gif","img/card_backs/set2/pink.gif","img/card_backs/set2/orange.gif","""event"",""trial"",""time""
""fullscreenenter"",""1"",""3112""
","
","
","""event"",""trial"",""time""
""fullscreenenter"",""1"",""3112""
","
","","","","","","","","","","","","",""
"fullscreen","1","4062","0.0-1.0","814","false","img/card_backs/set1/yellow.gif","img/card_backs/set1/green.gif","img/card_backs/set1/red.gif","img/card_backs/set1/purple.gif","img/card_backs/set2/gray.gif","img/card_backs/set2/blue.gif","img/card_backs/set2/pink.gif","img/card_backs/set2/orange.gif","""event"",""trial"",""time""
""fullscreenenter"",""1"",""3112""
","
","
","""event"",""trial"",""time""
""fullscreenenter"",""1"",""3112""
","
","true","","","","","","","","","","","",""
"audio-keyboard-response","2","6457","0.0-2.0","814","false","img/card_backs/set1/yellow.gif","img/card_backs/set1/green.gif","img/card_backs/set1/red.gif","img/card_backs/set1/purple.gif","img/card_backs/set2/gray.gif","img/card_backs/set2/blue.gif","img/card_backs/set2/pink.gif","img/card_backs/set2/orange.gif","""event"",""trial"",""time""
""fullscreenenter"",""1"",""3112""
","
","
","""event"",""trial"",""time""
""fullscreenenter"",""1"",""3112""
","
","","2154","audio/beep_loop.wav","32","","","","","","","","",""
"audio-button-response","3","8960","0.0-3.0","814","false","img/card_backs/set1/yellow.gif","img/card_backs/set1/green.gif","img/card_backs/set1/red.gif","img/card_backs/set1/purple.gif","img/card_backs/set2/gray.gif","img/card_backs/set2/blue.gif","img/card_backs/set2/pink.gif","img/card_backs/set2/orange.gif","""event"",""trial"",""time""
""fullscreenenter"",""1"",""3112""
","
","
","""event"",""trial"",""time""
""fullscreenenter"",""1"",""3112""
","
","","NaN","audio/turtle.mp3","","3","","","","","","","",""
"audio-button-response","4","11048","0.0-4.0","814","false","img/card_backs/set1/yellow.gif","img/card_backs/set1/green.gif","img/card_backs/set1/red.gif","img/card_backs/set1/purple.gif","img/card_backs/set2/gray.gif","img/card_backs/set2/blue.gif","img/card_backs/set2/pink.gif","img/card_backs/set2/orange.gif","""event"",""trial"",""time""
""fullscreenenter"",""1"",""3112""
","
","
","""event"",""trial"",""time""
""fullscreenenter"",""1"",""3112""
","
","","NaN","audio/shark.mp3","","2","","","","","","","",""
"fullscreen","5","14557","0.0-5.0","814","false","img/card_backs/set1/yellow.gif","img/card_backs/set1/green.gif","img/card_backs/set1/red.gif","img/card_backs/set1/purple.gif","img/card_backs/set2/gray.gif","img/card_backs/set2/blue.gif","img/card_backs/set2/pink.gif","img/card_backs/set2/orange.gif","""event"",""trial"",""time""
""fullscreenenter"",""1"",""3112""
","
","
","""event"",""trial"",""time""
""fullscreenenter"",""1"",""3112""
","
","true","","","","","","","","","","","",""
"casino-keyboard-response","6","24428","0.0-6.0-0.0","814","false","img/card_backs/set1/yellow.gif","img/card_backs/set1/green.gif","img/card_backs/set1/red.gif","img/card_backs/set1/purple.gif","img/card_backs/set2/gray.gif","img/card_backs/set2/blue.gif","img/card_backs/set2/pink.gif","img/card_backs/set2/orange.gif","""event"",""trial"",""time""
""fullscreenenter"",""1"",""3112""
","
","
","""event"",""trial"",""time""
""fullscreenenter"",""1"",""3112""
","
","","9867.699999988079","Welcome to the casino!","71","","instructions","2021-07-07 00:12:56.616","","","","","",""
"casino-keyboard-response","7","35012","0.0-6.0-0.1","814","false","img/card_backs/set1/yellow.gif","img/card_backs/set1/green.gif","img/card_backs/set1/red.gif","img/card_backs/set1/purple.gif","img/card_backs/set2/gray.gif","img/card_backs/set2/blue.gif","img/card_backs/set2/pink.gif","img/card_backs/set2/orange.gif","""event"",""trial"",""time""
""fullscreenenter"",""1"",""3112""
","
","
","""event"",""trial"",""time""
""fullscreenenter"",""1"",""3112""
","
","","10583.399999976158","Today you will be playing a game to earn tokens. </br> At the end of the experiment, you will be paid a bonus based on how many tokens you win. ","69","","instructions","2021-07-07 00:13:07.200","","","","","",""
"casino-keyboard-response","8","42488","0.0-6.0-0.2","814","false","img/card_backs/set1/yellow.gif","img/card_backs/set1/green.gif","img/card_backs/set1/red.gif","img/card_backs/set1/purple.gif","img/card_backs/set2/gray.gif","img/card_backs/set2/blue.gif","img/card_backs/set2/pink.gif","img/card_backs/set2/orange.gif","""event"",""trial"",""time""
""fullscreenenter"",""1"",""3112""
","
","
","""event"",""trial"",""time""
""fullscreenenter"",""1"",""3112""
","
","","7474.299999952316","On every turn, you will be shown four different decks of cards. </br> You need to select a card from one of the four decks.  ","75","","instructions","2021-07-07 00:13:14.676","","","","","",""
"casino-keyboard-response","9","47314","0.0-6.0-0.3","814","false","img/card_backs/set1/yellow.gif","img/card_backs/set1/green.gif","img/card_backs/set1/red.gif","img/card_backs/set1/purple.gif","img/card_backs/set2/gray.gif","img/card_backs/set2/blue.gif","img/card_backs/set2/pink.gif","img/card_backs/set2/orange.gif","""event"",""trial"",""time""
""fullscreenenter"",""1"",""3112""
","
","
","""event"",""trial"",""time""
""fullscreenenter"",""1"",""3112""
","
","","4824.299999952316","On the next screen, you will see what the decks will look like. ","66","","instructions","2021-07-07 00:13:19.502","","","","","",""
"card-selection-trial","10","51318","0.0-7.0-0.0","814","false","img/card_backs/set1/yellow.gif","img/card_backs/set1/green.gif","img/card_backs/set1/red.gif","img/card_backs/set1/purple.gif","img/card_backs/set2/gray.gif","img/card_backs/set2/blue.gif","img/card_backs/set2/pink.gif","img/card_backs/set2/orange.gif","""event"",""trial"",""time""
""fullscreenenter"",""1"",""3112""
","
","
","""event"",""trial"",""time""
""fullscreenenter"",""1"",""3112""
","
","","null","","","","practice","2021-07-07 00:13:23.506","null","null","null","0","",""
"casino-keyboard-response","11","59406","0.0-8.0-0.0","814","false","img/card_backs/set1/yellow.gif","img/card_backs/set1/green.gif","img/card_backs/set1/red.gif","img/card_backs/set1/purple.gif","img/card_backs/set2/gray.gif","img/card_backs/set2/blue.gif","img/card_backs/set2/pink.gif","img/card_backs/set2/orange.gif","""event"",""trial"",""time""
""fullscreenenter"",""1"",""3112""
","
","
","""event"",""trial"",""time""
""fullscreenenter"",""1"",""3112""
","
","","8086.799999952316","You should pick a card from a deck using the '2', '4', '6', and '8' keys at the top of the keyboard.","85","","instructions","2021-07-07 00:13:31.594","","","","","",""
"casino-keyboard-response","12","65036","0.0-8.0-0.1","814","false","img/card_backs/set1/yellow.gif","img/card_backs/set1/green.gif","img/card_backs/set1/red.gif","img/card_backs/set1/purple.gif","img/card_backs/set2/gray.gif","img/card_backs/set2/blue.gif","img/card_backs/set2/pink.gif","img/card_backs/set2/orange.gif","""event"",""trial"",""time""
""fullscreenenter"",""1"",""3112""
","
","
","""event"",""trial"",""time""
""fullscreenenter"",""1"",""3112""
","
","","5627.899999976158","Once you select a card, it will turn over and you will see how many tokens you earned.","83","","instructions","2021-07-07 00:13:37.224","","","","","",""
"casino-keyboard-response","13","80041","0.0-8.0-0.2","814","false","img/card_backs/set1/yellow.gif","img/card_backs/set1/green.gif","img/card_backs/set1/red.gif","img/card_backs/set1/purple.gif","img/card_backs/set2/gray.gif","img/card_backs/set2/blue.gif","img/card_backs/set2/pink.gif","img/card_backs/set2/orange.gif","""event"",""trial"",""time""
""fullscreenenter"",""1"",""3112""
","
","
","""event"",""trial"",""time""
""fullscreenenter"",""1"",""3112""
","
","","15003.700000047684","Let's try practicing that! </br> First, try to put your fingers over the '2', '4', '6', and '8' keys. </br>  You can use whatever fingers are most comfortable for you. Try to find a comfortable position now. ","50","","instructions","2021-07-07 00:13:52.229","","","","","",""
"casino-keyboard-response","14","85906","0.0-8.0-0.3","814","false","img/card_backs/set1/yellow.gif","img/card_backs/set1/green.gif","img/card_backs/set1/red.gif","img/card_backs/set1/purple.gif","img/card_backs/set2/gray.gif","img/card_backs/set2/blue.gif","img/card_backs/set2/pink.gif","img/card_backs/set2/orange.gif","""event"",""trial"",""time""
""fullscreenenter"",""1"",""3112""
","
","
","""event"",""trial"",""time""
""fullscreenenter"",""1"",""3112""
","
","","5864.400000035763","Okay ready? </br> On the next screen, press '2' to select the left deck. ","50","","instructions","2021-07-07 00:13:58.094","","","","","",""
"card-selection-trial","15","89061","0.0-9.0-0.0","814","false","img/card_backs/set1/yellow.gif","img/card_backs/set1/green.gif","img/card_backs/set1/red.gif","img/card_backs/set1/purple.gif","img/card_backs/set2/gray.gif","img/card_backs/set2/blue.gif","img/card_backs/set2/pink.gif","img/card_backs/set2/orange.gif","""event"",""trial"",""time""
""fullscreenenter"",""1"",""3112""
","
","
","""event"",""trial"",""time""
""fullscreenenter"",""1"",""3112""
","
","","1144.9000000357628","","","","practice_card_selection","2021-07-07 00:14:01.250","img/practice_cards/backs/dark_green.gif","0","-200","","",""
"casino-keyboard-response","16","94891","0.0-10.0-0.0","814","false","img/card_backs/set1/yellow.gif","img/card_backs/set1/green.gif","img/card_backs/set1/red.gif","img/card_backs/set1/purple.gif","img/card_backs/set2/gray.gif","img/card_backs/set2/blue.gif","img/card_backs/set2/pink.gif","img/card_backs/set2/orange.gif","""event"",""trial"",""time""
""fullscreenenter"",""1"",""3112""
","
","
","""event"",""trial"",""time""
""fullscreenenter"",""1"",""3112""
","
","","5827.5","Great! Now on the next screen, try pressing '6' to select the third deck.","54","","instructions","2021-07-07 00:14:07.079","","","","","",""
"card-selection-trial","17","97558","0.0-11.0-0.0","814","false","img/card_backs/set1/yellow.gif","img/card_backs/set1/green.gif","img/card_backs/set1/red.gif","img/card_backs/set1/purple.gif","img/card_backs/set2/gray.gif","img/card_backs/set2/blue.gif","img/card_backs/set2/pink.gif","img/card_backs/set2/orange.gif","""event"",""trial"",""time""
""fullscreenenter"",""1"",""3112""
","
","
","""event"",""trial"",""time""
""fullscreenenter"",""1"",""3112""
","
","","658.3999999761581","","","","practice_card_selection","2021-07-07 00:14:09.746","img/practice_cards/backs/black.gif","2","-100","","",""
"casino-keyboard-response","18","102231","0.0-12.0-0.0","814","false","img/card_backs/set1/yellow.gif","img/card_backs/set1/green.gif","img/card_backs/set1/red.gif","img/card_backs/set1/purple.gif","img/card_backs/set2/gray.gif","img/card_backs/set2/blue.gif","img/card_backs/set2/pink.gif","img/card_backs/set2/orange.gif","""event"",""trial"",""time""
""fullscreenenter"",""1"",""3112""
","
","
","""event"",""trial"",""time""
""fullscreenenter"",""1"",""3112""
","
","","4672.300000011921","Now on the next screen, try pressing '4' to select the second deck.","52","","instructions","2021-07-07 00:14:14.419","","","","","",""
"card-selection-trial","19","104727","0.0-13.0-0.0","814","false","img/card_backs/set1/yellow.gif","img/card_backs/set1/green.gif","img/card_backs/set1/red.gif","img/card_backs/set1/purple.gif","img/card_backs/set2/gray.gif","img/card_backs/set2/blue.gif","img/card_backs/set2/pink.gif","img/card_backs/set2/orange.gif","""event"",""trial"",""time""
""fullscreenenter"",""1"",""3112""
","
","
","""event"",""trial"",""time""
""fullscreenenter"",""1"",""3112""
","
","","486.5999999642372","","","","practice_card_selection","2021-07-07 00:14:16.915","img/practice_cards/backs/dark_green.gif","1","200","","",""
"casino-keyboard-response","20","109247","0.0-14.0-0.0","814","false","img/card_backs/set1/yellow.gif","img/card_backs/set1/green.gif","img/card_backs/set1/red.gif","img/card_backs/set1/purple.gif","img/card_backs/set2/gray.gif","img/card_backs/set2/blue.gif","img/card_backs/set2/pink.gif","img/card_backs/set2/orange.gif","""event"",""trial"",""time""
""fullscreenenter"",""1"",""3112""
","
","
","""event"",""trial"",""time""
""fullscreenenter"",""1"",""3112""
","
","","4519.5","Finally, try pressing '8' to select the deck all the way on the right.","56","","instructions","2021-07-07 00:14:21.435","","","","","",""
"card-selection-trial","21","111506","0.0-15.0-0.0","814","false","img/card_backs/set1/yellow.gif","img/card_backs/set1/green.gif","img/card_backs/set1/red.gif","img/card_backs/set1/purple.gif","img/card_backs/set2/gray.gif","img/card_backs/set2/blue.gif","img/card_backs/set2/pink.gif","img/card_backs/set2/orange.gif","""event"",""trial"",""time""
""fullscreenenter"",""1"",""3112""
","
","
","""event"",""trial"",""time""
""fullscreenenter"",""1"",""3112""
","
","","249.5","","","","practice_card_selection","2021-07-07 00:14:23.694","img/practice_cards/backs/dark_blue.gif","3","-200","","",""
"casino-keyboard-response","22","116358","0.0-16.0-0.0","814","false","img/card_backs/set1/yellow.gif","img/card_backs/set1/green.gif","img/card_backs/set1/red.gif","img/card_backs/set1/purple.gif","img/card_backs/set2/gray.gif","img/card_backs/set2/blue.gif","img/card_backs/set2/pink.gif","img/card_backs/set2/orange.gif","""event"",""trial"",""time""
""fullscreenenter"",""1"",""3112""
","
","
","""event"",""trial"",""time""
""fullscreenenter"",""1"",""3112""
","
","","4851.199999988079","Great! It seems like you are getting the hang of this.","80","","instructions","2021-07-07 00:14:28.546","","","","","",""
"casino-keyboard-response","23","124579","0.0-16.0-0.1","814","false","img/card_backs/set1/yellow.gif","img/card_backs/set1/green.gif","img/card_backs/set1/red.gif","img/card_backs/set1/purple.gif","img/card_backs/set2/gray.gif","img/card_backs/set2/blue.gif","img/card_backs/set2/pink.gif","img/card_backs/set2/orange.gif","""event"",""trial"",""time""
""fullscreenenter"",""1"",""3112""
","
","
","""event"",""trial"",""time""
""fullscreenenter"",""1"",""3112""
","
","","8219.099999964237","You may have noticed that some cards will cause you to <b> win </b> tokens while other cards will cause you to <b> lose </b>  tokens.","70","","instructions","2021-07-07 00:14:36.767","","","","","",""
"casino-keyboard-response","24","133787","0.0-16.0-0.2","814","false","img/card_backs/set1/yellow.gif","img/card_backs/set1/green.gif","img/card_backs/set1/red.gif","img/card_backs/set1/purple.gif","img/card_backs/set2/gray.gif","img/card_backs/set2/blue.gif","img/card_backs/set2/pink.gif","img/card_backs/set2/orange.gif","""event"",""trial"",""time""
""fullscreenenter"",""1"",""3112""
","
","
","""event"",""trial"",""time""
""fullscreenenter"",""1"",""3112""
","
","","9206.799999952316","Each deck has a mix of cards that will cause you to win and lose tokens. </br> However, the cards in each colored deck are different.","73","","instructions","2021-07-07 00:14:45.975","","","","","",""
"casino-keyboard-response","25","142984","0.0-16.0-0.3","814","false","img/card_backs/set1/yellow.gif","img/card_backs/set1/green.gif","img/card_backs/set1/red.gif","img/card_backs/set1/purple.gif","img/card_backs/set2/gray.gif","img/card_backs/set2/blue.gif","img/card_backs/set2/pink.gif","img/card_backs/set2/orange.gif","""event"",""trial"",""time""
""fullscreenenter"",""1"",""3112""
","
","
","""event"",""trial"",""time""
""fullscreenenter"",""1"",""3112""
","
","","9195.5","Some colored decks are luckier than others. </br> If you choose the lucky decks, you will earn more tokens than if you choose the unlucky decks.","69","","instructions","2021-07-07 00:14:55.172","","","","","",""
"casino-keyboard-response","26","151183","0.0-16.0-0.4","814","false","img/card_backs/set1/yellow.gif","img/card_backs/set1/green.gif","img/card_backs/set1/red.gif","img/card_backs/set1/purple.gif","img/card_backs/set2/gray.gif","img/card_backs/set2/blue.gif","img/card_backs/set2/pink.gif","img/card_backs/set2/orange.gif","""event"",""trial"",""time""
""fullscreenenter"",""1"",""3112""
","
","
","""event"",""trial"",""time""
""fullscreenenter"",""1"",""3112""
","
","","8197.400000035763","You should try to figure out which decks are lucky. </br> Then, try to choose the lucky decks so you can win the most tokens.","87","","instructions","2021-07-07 00:15:03.371","","","","","",""
"casino-keyboard-response","27","163533","0.0-16.0-0.5","814","false","img/card_backs/set1/yellow.gif","img/card_backs/set1/green.gif","img/card_backs/set1/red.gif","img/card_backs/set1/purple.gif","img/card_backs/set2/gray.gif","img/card_backs/set2/blue.gif","img/card_backs/set2/pink.gif","img/card_backs/set2/orange.gif","""event"",""trial"",""time""
""fullscreenenter"",""1"",""3112""
","
","
","""event"",""trial"",""time""
""fullscreenenter"",""1"",""3112""
","
","","12348.900000035763","To make it trickier, the casino dealer will switch the locations of the decks on every turn. </br> The color of the deck determines how lucky it is. The location does not matter.","88","","instructions","2021-07-07 00:15:15.721","","","","","",""
"casino-keyboard-response","28","173708","0.0-16.0-0.6","814","false","img/card_backs/set1/yellow.gif","img/card_backs/set1/green.gif","img/card_backs/set1/red.gif","img/card_backs/set1/purple.gif","img/card_backs/set2/gray.gif","img/card_backs/set2/blue.gif","img/card_backs/set2/pink.gif","img/card_backs/set2/orange.gif","""event"",""trial"",""time""
""fullscreenenter"",""1"",""3112""
","
","
","""event"",""trial"",""time""
""fullscreenenter"",""1"",""3112""
","
","","10173.400000035763","The mix of cards in each colored deck will stay the same throughout the game. </br> That means that a deck that is lucky early on will stay lucky.","79","","instructions","2021-07-07 00:15:25.896","","","","","",""
"casino-keyboard-response","29","183656","0.0-16.0-0.7","814","false","img/card_backs/set1/yellow.gif","img/card_backs/set1/green.gif","img/card_backs/set1/red.gif","img/card_backs/set1/purple.gif","img/card_backs/set2/gray.gif","img/card_backs/set2/blue.gif","img/card_backs/set2/pink.gif","img/card_backs/set2/orange.gif","""event"",""trial"",""time""
""fullscreenenter"",""1"",""3112""
","
","
","""event"",""trial"",""time""
""fullscreenenter"",""1"",""3112""
","
","","9946.899999976158","Remember though, all the decks have a <b> mix </b> of both <b> good </b> and <b> bad </b> cards so it may take a couple of turns to figure out if a deck is lucky.","69","","instructions","2021-07-07 00:15:35.844","","","","","",""
"casino-keyboard-response","30","200049","0.0-16.0-0.8","814","false","img/card_backs/set1/yellow.gif","img/card_backs/set1/green.gif","img/card_backs/set1/red.gif","img/card_backs/set1/purple.gif","img/card_backs/set2/gray.gif","img/card_backs/set2/blue.gif","img/card_backs/set2/pink.gif","img/card_backs/set2/orange.gif","""event"",""trial"",""time""
""fullscreenenter"",""1"",""3112""
","
","
","""event"",""trial"",""time""
""fullscreenenter"",""1"",""3112""
","
","","16391.399999976158","At the end of the game, you will be paid bonus money based on how many tokens you win. </br> If you win more tokens, you will earn more money!","72","","instructions","2021-07-07 00:15:52.237","","","","","",""
"casino-keyboard-response","31","210627","0.0-16.0-0.9","814","false","img/card_backs/set1/yellow.gif","img/card_backs/set1/green.gif","img/card_backs/set1/red.gif","img/card_backs/set1/purple.gif","img/card_backs/set2/gray.gif","img/card_backs/set2/blue.gif","img/card_backs/set2/pink.gif","img/card_backs/set2/orange.gif","""event"",""trial"",""time""
""fullscreenenter"",""1"",""3112""
","
","
","""event"",""trial"",""time""
""fullscreenenter"",""1"",""3112""
","
","","10576.199999988079","You will never <b> lose </b> money. </br> If you end up with fewer than 0 tokens, you will earn $0 of bonus money, but you will still be paid for playing the game.","83","","instructions","2021-07-07 00:16:02.815","","","","","",""
"casino-keyboard-response","32","215343","0.0-16.0-0.10","814","false","img/card_backs/set1/yellow.gif","img/card_backs/set1/green.gif","img/card_backs/set1/red.gif","img/card_backs/set1/purple.gif","img/card_backs/set2/gray.gif","img/card_backs/set2/blue.gif","img/card_backs/set2/pink.gif","img/card_backs/set2/orange.gif","""event"",""trial"",""time""
""fullscreenenter"",""1"",""3112""
","
","
","""event"",""trial"",""time""
""fullscreenenter"",""1"",""3112""
","
","","4715.199999988079","You will have 10 seconds to make each choice.","82","","instructions","2021-07-07 00:16:07.531","","","","","",""
"casino-keyboard-response","33","223934","0.0-16.0-0.11","814","false","img/card_backs/set1/yellow.gif","img/card_backs/set1/green.gif","img/card_backs/set1/red.gif","img/card_backs/set1/purple.gif","img/card_backs/set2/gray.gif","img/card_backs/set2/blue.gif","img/card_backs/set2/pink.gif","img/card_backs/set2/orange.gif","""event"",""trial"",""time""
""fullscreenenter"",""1"",""3112""
","
","
","""event"",""trial"",""time""
""fullscreenenter"",""1"",""3112""
","
","","8588.5","Before you play the game for real, you will play with practice decks. </br> The tokens you earn during practice won't count toward your total.","86","","instructions","2021-07-07 00:16:16.122","","","","","",""
"casino-keyboard-response","34","229430","0.0-16.0-0.12","814","false","img/card_backs/set1/yellow.gif","img/card_backs/set1/green.gif","img/card_backs/set1/red.gif","img/card_backs/set1/purple.gif","img/card_backs/set2/gray.gif","img/card_backs/set2/blue.gif","img/card_backs/set2/pink.gif","img/card_backs/set2/orange.gif","""event"",""trial"",""time""
""fullscreenenter"",""1"",""3112""
","
","
","""event"",""trial"",""time""
""fullscreenenter"",""1"",""3112""
","
","","5494.799999952316","Ready? Remember, use the '2', '4', '6', and '8' keys to select the decks. </br> Put your fingers on those keys now and then press '2' to begin.","50","","instructions","2021-07-07 00:16:21.618","","","","","",""
"casino-fixation","35","229935","0.0-17.0-0.0","814","false","img/card_backs/set1/yellow.gif","img/card_backs/set1/green.gif","img/card_backs/set1/red.gif","img/card_backs/set1/purple.gif","img/card_backs/set2/gray.gif","img/card_backs/set2/blue.gif","img/card_backs/set2/pink.gif","img/card_backs/set2/orange.gif","""event"",""trial"",""time""
""fullscreenenter"",""1"",""3112""
","
","
","""event"",""trial"",""time""
""fullscreenenter"",""1"",""3112""
","
","","null","","null","","fixation","2021-07-07 00:16:22.124","","","","","",""
"card-selection-trial","36","234103","0.0-17.0-1.0","814","false","img/card_backs/set1/yellow.gif","img/card_backs/set1/green.gif","img/card_backs/set1/red.gif","img/card_backs/set1/purple.gif","img/card_backs/set2/gray.gif","img/card_backs/set2/blue.gif","img/card_backs/set2/pink.gif","img/card_backs/set2/orange.gif","""event"",""trial"",""time""
""fullscreenenter"",""1"",""3112""
","
","
","""event"",""trial"",""time""
""fullscreenenter"",""1"",""3112""
","
","","2158.699999988079","","","","practice","2021-07-07 00:16:26.292","img/practice_cards/backs/dark_green.gif","1","200","0","",""
"casino-fixation","37","234608","0.0-17.0-0.1","814","false","img/card_backs/set1/yellow.gif","img/card_backs/set1/green.gif","img/card_backs/set1/red.gif","img/card_backs/set1/purple.gif","img/card_backs/set2/gray.gif","img/card_backs/set2/blue.gif","img/card_backs/set2/pink.gif","img/card_backs/set2/orange.gif","""event"",""trial"",""time""
""fullscreenenter"",""1"",""3112""
","
","
","""event"",""trial"",""time""
""fullscreenenter"",""1"",""3112""
","
","","null","","null","","fixation","2021-07-07 00:16:26.796","","","","","",""
"card-selection-trial","38","239067","0.0-17.0-1.1","814","false","img/card_backs/set1/yellow.gif","img/card_backs/set1/green.gif","img/card_backs/set1/red.gif","img/card_backs/set1/purple.gif","img/card_backs/set2/gray.gif","img/card_backs/set2/blue.gif","img/card_backs/set2/pink.gif","img/card_backs/set2/orange.gif","""event"",""trial"",""time""
""fullscreenenter"",""1"",""3112""
","
","
","""event"",""trial"",""time""
""fullscreenenter"",""1"",""3112""
","
","","2449.899999976158","","","","practice","2021-07-07 00:16:31.255","img/practice_cards/backs/dark_green.gif","0","-200","0","",""
"casino-fixation","39","239571","0.0-17.0-0.2","814","false","img/card_backs/set1/yellow.gif","img/card_backs/set1/green.gif","img/card_backs/set1/red.gif","img/card_backs/set1/purple.gif","img/card_backs/set2/gray.gif","img/card_backs/set2/blue.gif","img/card_backs/set2/pink.gif","img/card_backs/set2/orange.gif","""event"",""trial"",""time""
""fullscreenenter"",""1"",""3112""
","
","
","""event"",""trial"",""time""
""fullscreenenter"",""1"",""3112""
","
","","null","","null","","fixation","2021-07-07 00:16:31.760","","","","","",""
"card-selection-trial","40","242898","0.0-17.0-1.2","814","false","img/card_backs/set1/yellow.gif","img/card_backs/set1/green.gif","img/card_backs/set1/red.gif","img/card_backs/set1/purple.gif","img/card_backs/set2/gray.gif","img/card_backs/set2/blue.gif","img/card_backs/set2/pink.gif","img/card_backs/set2/orange.gif","""event"",""trial"",""time""
""fullscreenenter"",""1"",""3112""
","
","
","""event"",""trial"",""time""
""fullscreenenter"",""1"",""3112""
","
","","1320.6000000238419","","","","practice","2021-07-07 00:16:35.086","img/practice_cards/backs/brown.gif","1","100","0","",""
"casino-fixation","41","243403","0.0-17.0-0.3","814","false","img/card_backs/set1/yellow.gif","img/card_backs/set1/green.gif","img/card_backs/set1/red.gif","img/card_backs/set1/purple.gif","img/card_backs/set2/gray.gif","img/card_backs/set2/blue.gif","img/card_backs/set2/pink.gif","img/card_backs/set2/orange.gif","""event"",""trial"",""time""
""fullscreenenter"",""1"",""3112""
","
","
","""event"",""trial"",""time""
""fullscreenenter"",""1"",""3112""
","
","","null","","null","","fixation","2021-07-07 00:16:35.591","","","","","",""
"card-selection-trial","42","246323","0.0-17.0-1.3","814","false","img/card_backs/set1/yellow.gif","img/card_backs/set1/green.gif","img/card_backs/set1/red.gif","img/card_backs/set1/purple.gif","img/card_backs/set2/gray.gif","img/card_backs/set2/blue.gif","img/card_backs/set2/pink.gif","img/card_backs/set2/orange.gif","""event"",""trial"",""time""
""fullscreenenter"",""1"",""3112""
","
","
","""event"",""trial"",""time""
""fullscreenenter"",""1"",""3112""
","
","","914.5","","","","practice","2021-07-07 00:16:38.511","img/practice_cards/backs/brown.gif","3","100","0","",""
"casino-fixation","43","246828","0.0-17.0-0.4","814","false","img/card_backs/set1/yellow.gif","img/card_backs/set1/green.gif","img/card_backs/set1/red.gif","img/card_backs/set1/purple.gif","img/card_backs/set2/gray.gif","img/card_backs/set2/blue.gif","img/card_backs/set2/pink.gif","img/card_backs/set2/orange.gif","""event"",""trial"",""time""
""fullscreenenter"",""1"",""3112""
","
","
","""event"",""trial"",""time""
""fullscreenenter"",""1"",""3112""
","
","","null","","null","","fixation","2021-07-07 00:16:39.016","","","","","",""
"card-selection-trial","44","250067","0.0-17.0-1.4","814","false","img/card_backs/set1/yellow.gif","img/card_backs/set1/green.gif","img/card_backs/set1/red.gif","img/card_backs/set1/purple.gif","img/card_backs/set2/gray.gif","img/card_backs/set2/blue.gif","img/card_backs/set2/pink.gif","img/card_backs/set2/orange.gif","""event"",""trial"",""time""
""fullscreenenter"",""1"",""3112""
","
","
","""event"",""trial"",""time""
""fullscreenenter"",""1"",""3112""
","
","","1231.4000000357628","","","","practice","2021-07-07 00:16:42.255","img/practice_cards/backs/brown.gif","2","-100","0","",""
"casino-fixation","45","250572","0.0-17.0-0.5","814","false","img/card_backs/set1/yellow.gif","img/card_backs/set1/green.gif","img/card_backs/set1/red.gif","img/card_backs/set1/purple.gif","img/card_backs/set2/gray.gif","img/card_backs/set2/blue.gif","img/card_backs/set2/pink.gif","img/card_backs/set2/orange.gif","""event"",""trial"",""time""
""fullscreenenter"",""1"",""3112""
","
","
","""event"",""trial"",""time""
""fullscreenenter"",""1"",""3112""
","
","","null","","null","","fixation","2021-07-07 00:16:42.760","","","","","",""
"card-selection-trial","46","253567","0.0-17.0-1.5","814","false","img/card_backs/set1/yellow.gif","img/card_backs/set1/green.gif","img/card_backs/set1/red.gif","img/card_backs/set1/purple.gif","img/card_backs/set2/gray.gif","img/card_backs/set2/blue.gif","img/card_backs/set2/pink.gif","img/card_backs/set2/orange.gif","""event"",""trial"",""time""
""fullscreenenter"",""1"",""3112""
","
","
","""event"",""trial"",""time""
""fullscreenenter"",""1"",""3112""
","
","","987.6000000238419","","","","practice","2021-07-07 00:16:45.756","img/practice_cards/backs/black.gif","1","100","0","",""
"casino-fixation","47","254072","0.0-17.0-0.6","814","false","img/card_backs/set1/yellow.gif","img/card_backs/set1/green.gif","img/card_backs/set1/red.gif","img/card_backs/set1/purple.gif","img/card_backs/set2/gray.gif","img/card_backs/set2/blue.gif","img/card_backs/set2/pink.gif","img/card_backs/set2/orange.gif","""event"",""trial"",""time""
""fullscreenenter"",""1"",""3112""
","
","
","""event"",""trial"",""time""
""fullscreenenter"",""1"",""3112""
","
","","null","","null","","fixation","2021-07-07 00:16:46.261","","","","","",""
"card-selection-trial","48","257770","0.0-17.0-1.6","814","false","img/card_backs/set1/yellow.gif","img/card_backs/set1/green.gif","img/card_backs/set1/red.gif","img/card_backs/set1/purple.gif","img/card_backs/set2/gray.gif","img/card_backs/set2/blue.gif","img/card_backs/set2/pink.gif","img/card_backs/set2/orange.gif","""event"",""trial"",""time""
""fullscreenenter"",""1"",""3112""
","
","
","""event"",""trial"",""time""
""fullscreenenter"",""1"",""3112""
","
","","1689.0999999642372","","","","practice","2021-07-07 00:16:49.958","img/practice_cards/backs/dark_green.gif","2","200","0","",""
"casino-fixation","49","258275","0.0-17.0-0.7","814","false","img/card_backs/set1/yellow.gif","img/card_backs/set1/green.gif","img/card_backs/set1/red.gif","img/card_backs/set1/purple.gif","img/card_backs/set2/gray.gif","img/card_backs/set2/blue.gif","img/card_backs/set2/pink.gif","img/card_backs/set2/orange.gif","""event"",""trial"",""time""
""fullscreenenter"",""1"",""3112""
","
","
","""event"",""trial"",""time""
""fullscreenenter"",""1"",""3112""
","
","","null","","null","","fixation","2021-07-07 00:16:50.463","","","","","",""
"card-selection-trial","50","261120","0.0-17.0-1.7","814","false","img/card_backs/set1/yellow.gif","img/card_backs/set1/green.gif","img/card_backs/set1/red.gif","img/card_backs/set1/purple.gif","img/card_backs/set2/gray.gif","img/card_backs/set2/blue.gif","img/card_backs/set2/pink.gif","img/card_backs/set2/orange.gif","""event"",""trial"",""time""
""fullscreenenter"",""1"",""3112""
","
","
","""event"",""trial"",""time""
""fullscreenenter"",""1"",""3112""
","
","","838.6999999880791","","","","practice","2021-07-07 00:16:53.308","img/practice_cards/backs/dark_blue.gif","1","-200","0","",""
"casino-fixation","51","261625","0.0-17.0-0.8","814","false","img/card_backs/set1/yellow.gif","img/card_backs/set1/green.gif","img/card_backs/set1/red.gif","img/card_backs/set1/purple.gif","img/card_backs/set2/gray.gif","img/card_backs/set2/blue.gif","img/card_backs/set2/pink.gif","img/card_backs/set2/orange.gif","""event"",""trial"",""time""
""fullscreenenter"",""1"",""3112""
","
","
","""event"",""trial"",""time""
""fullscreenenter"",""1"",""3112""
","
","","null","","null","","fixation","2021-07-07 00:16:53.813","","","","","",""
"card-selection-trial","52","264009","0.0-17.0-1.8","814","false","img/card_backs/set1/yellow.gif","img/card_backs/set1/green.gif","img/card_backs/set1/red.gif","img/card_backs/set1/purple.gif","img/card_backs/set2/gray.gif","img/card_backs/set2/blue.gif","img/card_backs/set2/pink.gif","img/card_backs/set2/orange.gif","""event"",""trial"",""time""
""fullscreenenter"",""1"",""3112""
","
","
","""event"",""trial"",""time""
""fullscreenenter"",""1"",""3112""
","
","","376.4000000357628","","","","practice","2021-07-07 00:16:56.198","img/practice_cards/backs/brown.gif","3","-100","0","",""
"casino-fixation","53","264516","0.0-17.0-0.9","814","false","img/card_backs/set1/yellow.gif","img/card_backs/set1/green.gif","img/card_backs/set1/red.gif","img/card_backs/set1/purple.gif","img/card_backs/set2/gray.gif","img/card_backs/set2/blue.gif","img/card_backs/set2/pink.gif","img/card_backs/set2/orange.gif","""event"",""trial"",""time""
""fullscreenenter"",""1"",""3112""
","
","
","""event"",""trial"",""time""
""fullscreenenter"",""1"",""3112""
","
","","null","","null","","fixation","2021-07-07 00:16:56.704","","","","","",""
"card-selection-trial","54","266890","0.0-17.0-1.9","814","false","img/card_backs/set1/yellow.gif","img/card_backs/set1/green.gif","img/card_backs/set1/red.gif","img/card_backs/set1/purple.gif","img/card_backs/set2/gray.gif","img/card_backs/set2/blue.gif","img/card_backs/set2/pink.gif","img/card_backs/set2/orange.gif","""event"",""trial"",""time""
""fullscreenenter"",""1"",""3112""
","
","
","""event"",""trial"",""time""
""fullscreenenter"",""1"",""3112""
","
","","367.30000001192093","","","","practice","2021-07-07 00:16:59.078","img/practice_cards/backs/dark_green.gif","2","200","0","",""
"casino-keyboard-response","55","272251","0.0-18.0","814","false","img/card_backs/set1/yellow.gif","img/card_backs/set1/green.gif","img/card_backs/set1/red.gif","img/card_backs/set1/purple.gif","img/card_backs/set2/gray.gif","img/card_backs/set2/blue.gif","img/card_backs/set2/pink.gif","img/card_backs/set2/orange.gif","""event"",""trial"",""time""
""fullscreenenter"",""1"",""3112""
","
","
","""event"",""trial"",""time""
""fullscreenenter"",""1"",""3112""
","
","","5359.300000011921","You earned 300 tokens during the practice round!","82","","","2021-07-07 00:17:04.439","","","","","",""
"casino-keyboard-response","56","278211","0.0-19.0-0.0","814","false","img/card_backs/set1/yellow.gif","img/card_backs/set1/green.gif","img/card_backs/set1/red.gif","img/card_backs/set1/purple.gif","img/card_backs/set2/gray.gif","img/card_backs/set2/blue.gif","img/card_backs/set2/pink.gif","img/card_backs/set2/orange.gif","""event"",""trial"",""time""
""fullscreenenter"",""1"",""3112""
","
","
","""event"",""trial"",""time""
""fullscreenenter"",""1"",""3112""
","
","","5959","Nice job! You are almost ready to play the real game.","86","","instructions","2021-07-07 00:17:10.399","","","","","",""
"casino-keyboard-response","57","286147","0.0-19.0-0.1","814","false","img/card_backs/set1/yellow.gif","img/card_backs/set1/green.gif","img/card_backs/set1/red.gif","img/card_backs/set1/purple.gif","img/card_backs/set2/gray.gif","img/card_backs/set2/blue.gif","img/card_backs/set2/pink.gif","img/card_backs/set2/orange.gif","""event"",""trial"",""time""
""fullscreenenter"",""1"",""3112""
","
","
","""event"",""trial"",""time""
""fullscreenenter"",""1"",""3112""
","
","","7934.699999988079","You will play two rounds of the real game. In each round, you will pick 100 cards in total.","73","","instructions","2021-07-07 00:17:18.335","","","","","",""
"casino-keyboard-response","58","290771","0.0-19.0-0.2","814","false","img/card_backs/set1/yellow.gif","img/card_backs/set1/green.gif","img/card_backs/set1/red.gif","img/card_backs/set1/purple.gif","img/card_backs/set2/gray.gif","img/card_backs/set2/blue.gif","img/card_backs/set2/pink.gif","img/card_backs/set2/orange.gif","""event"",""trial"",""time""
""fullscreenenter"",""1"",""3112""
","
","
","""event"",""trial"",""time""
""fullscreenenter"",""1"",""3112""
","
","","4622.800000011921","We are now going to ask you some questions about how the game works.","66","","instructions","2021-07-07 00:17:22.960","","","","","",""
"casino-keyboard-response","59","297640","0.0-19.0-0.3","814","false","img/card_backs/set1/yellow.gif","img/card_backs/set1/green.gif","img/card_backs/set1/red.gif","img/card_backs/set1/purple.gif","img/card_backs/set2/gray.gif","img/card_backs/set2/blue.gif","img/card_backs/set2/pink.gif","img/card_backs/set2/orange.gif","""event"",""trial"",""time""
""fullscreenenter"",""1"",""3112""
","
","
","""event"",""trial"",""time""
""fullscreenenter"",""1"",""3112""
","
","","6866.699999988079","Answer carefully. You will not be able to begin the game until you answer them correctly.","67","","instructions","2021-07-07 00:17:29.828","","","","","",""
"casino-comp_q","60","304707","0.0-20.0-0.0","814","false","img/card_backs/set1/yellow.gif","img/card_backs/set1/green.gif","img/card_backs/set1/red.gif","img/card_backs/set1/purple.gif","img/card_backs/set2/gray.gif","img/card_backs/set2/blue.gif","img/card_backs/set2/pink.gif","img/card_backs/set2/orange.gif","""event"",""trial"",""time""
""fullscreenenter"",""1"",""3112""
","
","
","""event"",""trial"",""time""
""fullscreenenter"",""1"",""3112""
","
","","7065.800000011921","True or False: All the decks have some cards that cause you to win tokens and some cards that cause you to lose tokens.","84","","","2021-07-07 00:17:36.895","","","","","",""
"casino-keyboard-response","61","307705","0.0-20.0-1.0","814","false","img/card_backs/set1/yellow.gif","img/card_backs/set1/green.gif","img/card_backs/set1/red.gif","img/card_backs/set1/purple.gif","img/card_backs/set2/gray.gif","img/card_backs/set2/blue.gif","img/card_backs/set2/pink.gif","img/card_backs/set2/orange.gif","""event"",""trial"",""time""
""fullscreenenter"",""1"",""3112""
","
","
","""event"",""trial"",""time""
""fullscreenenter"",""1"",""3112""
","
","","2996","True is correct! All the decks have a mix of winning and losing cards.","77","","","2021-07-07 00:17:39.893","","","","","true",""
"casino-comp_q","62","311656","0.0-21.0-0.0","814","false","img/card_backs/set1/yellow.gif","img/card_backs/set1/green.gif","img/card_backs/set1/red.gif","img/card_backs/set1/purple.gif","img/card_backs/set2/gray.gif","img/card_backs/set2/blue.gif","img/card_backs/set2/pink.gif","img/card_backs/set2/orange.gif","""event"",""trial"",""time""
""fullscreenenter"",""1"",""3112""
","
","
","""event"",""trial"",""time""
""fullscreenenter"",""1"",""3112""
","
","","3949.800000011921","True or False: You will have as much time as you want to make your response.","70","","","2021-07-07 00:17:43.844","","","","","",""
"casino-keyboard-response","63","314672","0.0-21.0-1.0","814","false","img/card_backs/set1/yellow.gif","img/card_backs/set1/green.gif","img/card_backs/set1/red.gif","img/card_backs/set1/purple.gif","img/card_backs/set2/gray.gif","img/card_backs/set2/blue.gif","img/card_backs/set2/pink.gif","img/card_backs/set2/orange.gif","""event"",""trial"",""time""
""fullscreenenter"",""1"",""3112""
","
","
","""event"",""trial"",""time""
""fullscreenenter"",""1"",""3112""
","
","","3013.099999964237","False is correct! You will only have 10 seconds to make each choice.","75","","","2021-07-07 00:17:46.860","","","","","true",""
"casino-comp_q","64","320363","0.0-22.0-0.0","814","false","img/card_backs/set1/yellow.gif","img/card_backs/set1/green.gif","img/card_backs/set1/red.gif","img/card_backs/set1/purple.gif","img/card_backs/set2/gray.gif","img/card_backs/set2/blue.gif","img/card_backs/set2/pink.gif","img/card_backs/set2/orange.gif","""event"",""trial"",""time""
""fullscreenenter"",""1"",""3112""
","
","
","""event"",""trial"",""time""
""fullscreenenter"",""1"",""3112""
","
","","5689","True or False: The location of the deck determines how lucky it is.","70","","","2021-07-07 00:17:52.551","","","","","",""
"casino-keyboard-response","65","327885","0.0-22.0-1.0","814","false","img/card_backs/set1/yellow.gif","img/card_backs/set1/green.gif","img/card_backs/set1/red.gif","img/card_backs/set1/purple.gif","img/card_backs/set2/gray.gif","img/card_backs/set2/blue.gif","img/card_backs/set2/pink.gif","img/card_backs/set2/orange.gif","""event"",""trial"",""time""
""fullscreenenter"",""1"",""3112""
","
","
","""event"",""trial"",""time""
""fullscreenenter"",""1"",""3112""
","
","","7521.100000023842","False is correct! The <i>color</i>  of the deck determines how lucky or unlucky it is.","68","","","2021-07-07 00:18:00.073","","","","","true",""
"casino-keyboard-response","66","336947","0.0-23.0-0.0","814","false","img/card_backs/set1/yellow.gif","img/card_backs/set1/green.gif","img/card_backs/set1/red.gif","img/card_backs/set1/purple.gif","img/card_backs/set2/gray.gif","img/card_backs/set2/blue.gif","img/card_backs/set2/pink.gif","img/card_backs/set2/orange.gif","""event"",""trial"",""time""
""fullscreenenter"",""1"",""3112""
","
","
","""event"",""trial"",""time""
""fullscreenenter"",""1"",""3112""
","
","","9059.900000035763","Great job! Now it's time to start the real game.","82","","instructions","2021-07-07 00:18:09.135","","","","","",""
"casino-keyboard-response","67","342185","0.0-23.0-0.1","814","false","img/card_backs/set1/yellow.gif","img/card_backs/set1/green.gif","img/card_backs/set1/red.gif","img/card_backs/set1/purple.gif","img/card_backs/set2/gray.gif","img/card_backs/set2/blue.gif","img/card_backs/set2/pink.gif","img/card_backs/set2/orange.gif","""event"",""trial"",""time""
""fullscreenenter"",""1"",""3112""
","
","
","""event"",""trial"",""time""
""fullscreenenter"",""1"",""3112""
","
","","5237.199999988079","Before we start, we're going to head into a new room of the casino.","86","","instructions","2021-07-07 00:18:14.373","","","","","",""
"casino-keyboard-response","68","348569","0.0-24.0-0.0","814","false","img/card_backs/set1/yellow.gif","img/card_backs/set1/green.gif","img/card_backs/set1/red.gif","img/card_backs/set1/purple.gif","img/card_backs/set2/gray.gif","img/card_backs/set2/blue.gif","img/card_backs/set2/pink.gif","img/card_backs/set2/orange.gif","""event"",""trial"",""time""
""fullscreenenter"",""1"",""3112""
","
","
","""event"",""trial"",""time""
""fullscreenenter"",""1"",""3112""
","
","","6382.600000023842","Here we are! The real game will use different cards, but the rules will be the same.","71","","instructions","2021-07-07 00:18:20.757","","","","","",""
"casino-keyboard-response","69","351055","0.0-24.0-0.1","814","false","img/card_backs/set1/yellow.gif","img/card_backs/set1/green.gif","img/card_backs/set1/red.gif","img/card_backs/set1/purple.gif","img/card_backs/set2/gray.gif","img/card_backs/set2/blue.gif","img/card_backs/set2/pink.gif","img/card_backs/set2/orange.gif","""event"",""trial"",""time""
""fullscreenenter"",""1"",""3112""
","
","
","""event"",""trial"",""time""
""fullscreenenter"",""1"",""3112""
","
","","2484.5","Ready? Put your fingers over the '2', '4', 6', and '8' keys so you are ready to play the game. </br> Then press 2 to start.","50","","instructions","2021-07-07 00:18:23.243","","","","","",""
"casino-fixation","70","351557","0.0-25.0-0.0","814","false","img/card_backs/set1/yellow.gif","img/card_backs/set1/green.gif","img/card_backs/set1/red.gif","img/card_backs/set1/purple.gif","img/card_backs/set2/gray.gif","img/card_backs/set2/blue.gif","img/card_backs/set2/pink.gif","img/card_backs/set2/orange.gif","""event"",""trial"",""time""
""fullscreenenter"",""1"",""3112""
","
","
","""event"",""trial"",""time""
""fullscreenenter"",""1"",""3112""
","
","","null","","null","","fixation","2021-07-07 00:18:23.745","","","","","",""
"card-selection-trial","71","354970","0.0-25.0-1.0","814","false","img/card_backs/set1/yellow.gif","img/card_backs/set1/green.gif","img/card_backs/set1/red.gif","img/card_backs/set1/purple.gif","img/card_backs/set2/gray.gif","img/card_backs/set2/blue.gif","img/card_backs/set2/pink.gif","img/card_backs/set2/orange.gif","""event"",""trial"",""time""
""fullscreenenter"",""1"",""3112""
","
","
","""event"",""trial"",""time""
""fullscreenenter"",""1"",""3112""
","
","","1403.199999988079","","","","real_trial","2021-07-07 00:18:27.158","img/card_backs/set1/purple.gif","1","110","1","",""
"casino-fixation","72","355474","0.0-25.0-0.1","814","false","img/card_backs/set1/yellow.gif","img/card_backs/set1/green.gif","img/card_backs/set1/red.gif","img/card_backs/set1/purple.gif","img/card_backs/set2/gray.gif","img/card_backs/set2/blue.gif","img/card_backs/set2/pink.gif","img/card_backs/set2/orange.gif","""event"",""trial"",""time""
""fullscreenenter"",""1"",""3112""
","
","
","""event"",""trial"",""time""
""fullscreenenter"",""1"",""3112""
","
","","null","","null","","fixation","2021-07-07 00:18:27.662","","","","","",""
"card-selection-trial","73","360189","0.0-25.0-1.1","814","false","img/card_backs/set1/yellow.gif","img/card_backs/set1/green.gif","img/card_backs/set1/red.gif","img/card_backs/set1/purple.gif","img/card_backs/set2/gray.gif","img/card_backs/set2/blue.gif","img/card_backs/set2/pink.gif","img/card_backs/set2/orange.gif","""event"",""trial"",""time""
""fullscreenenter"",""1"",""3112""
","
","
","""event"",""trial"",""time""
""fullscreenenter"",""1"",""3112""
","
","","2708.699999988079","","","","real_trial","2021-07-07 00:18:32.377","img/card_backs/set1/green.gif","2","-230","1","",""
"casino-fixation","74","360693","0.0-25.0-0.2","814","false","img/card_backs/set1/yellow.gif","img/card_backs/set1/green.gif","img/card_backs/set1/red.gif","img/card_backs/set1/purple.gif","img/card_backs/set2/gray.gif","img/card_backs/set2/blue.gif","img/card_backs/set2/pink.gif","img/card_backs/set2/orange.gif","""event"",""trial"",""time""
""fullscreenenter"",""1"",""3112""
","
","
","""event"",""trial"",""time""
""fullscreenenter"",""1"",""3112""
","
","","null","","null","","fixation","2021-07-07 00:18:32.882","","","","","",""
"card-selection-trial","75","364676","0.0-25.0-1.2","814","false","img/card_backs/set1/yellow.gif","img/card_backs/set1/green.gif","img/card_backs/set1/red.gif","img/card_backs/set1/purple.gif","img/card_backs/set2/gray.gif","img/card_backs/set2/blue.gif","img/card_backs/set2/pink.gif","img/card_backs/set2/orange.gif","""event"",""trial"",""time""
""fullscreenenter"",""1"",""3112""
","
","
","""event"",""trial"",""time""
""fullscreenenter"",""1"",""3112""
","
","","1976.9000000357628","","","","real_trial","2021-07-07 00:18:36.864","img/card_backs/set1/red.gif","2","110","1","",""
"casino-fixation","76","365181","0.0-25.0-0.3","814","false","img/card_backs/set1/yellow.gif","img/card_backs/set1/green.gif","img/card_backs/set1/red.gif","img/card_backs/set1/purple.gif","img/card_backs/set2/gray.gif","img/card_backs/set2/blue.gif","img/card_backs/set2/pink.gif","img/card_backs/set2/orange.gif","""event"",""trial"",""time""
""fullscreenenter"",""1"",""3112""
","
","
","""event"",""trial"",""time""
""fullscreenenter"",""1"",""3112""
","
","","null","","null","","fixation","2021-07-07 00:18:37.369","","","","","",""
"card-selection-trial","77","368745","0.0-25.0-1.3","814","false","img/card_backs/set1/yellow.gif","img/card_backs/set1/green.gif","img/card_backs/set1/red.gif","img/card_backs/set1/purple.gif","img/card_backs/set2/gray.gif","img/card_backs/set2/blue.gif","img/card_backs/set2/pink.gif","img/card_backs/set2/orange.gif","""event"",""trial"",""time""
""fullscreenenter"",""1"",""3112""
","
","
","""event"",""trial"",""time""
""fullscreenenter"",""1"",""3112""
","
","","1558","","","","real_trial","2021-07-07 00:18:40.933","img/card_backs/set1/yellow.gif","0","-230","1","",""
"casino-fixation","78","369250","0.0-25.0-0.4","814","false","img/card_backs/set1/yellow.gif","img/card_backs/set1/green.gif","img/card_backs/set1/red.gif","img/card_backs/set1/purple.gif","img/card_backs/set2/gray.gif","img/card_backs/set2/blue.gif","img/card_backs/set2/pink.gif","img/card_backs/set2/orange.gif","""event"",""trial"",""time""
""fullscreenenter"",""1"",""3112""
","
","
","""event"",""trial"",""time""
""fullscreenenter"",""1"",""3112""
","
","","null","","null","","fixation","2021-07-07 00:18:41.438","","","","","",""
"card-selection-trial","79","372471","0.0-25.0-1.4","814","false","img/card_backs/set1/yellow.gif","img/card_backs/set1/green.gif","img/card_backs/set1/red.gif","img/card_backs/set1/purple.gif","img/card_backs/set2/gray.gif","img/card_backs/set2/blue.gif","img/card_backs/set2/pink.gif","img/card_backs/set2/orange.gif","""event"",""trial"",""time""
""fullscreenenter"",""1"",""3112""
","
","
","""event"",""trial"",""time""
""fullscreenenter"",""1"",""3112""
","
","","1213.5","","","","real_trial","2021-07-07 00:18:44.659","img/card_backs/set1/red.gif","1","-60","1","",""
"casino-fixation","80","372977","0.0-25.0-0.5","814","false","img/card_backs/set1/yellow.gif","img/card_backs/set1/green.gif","img/card_backs/set1/red.gif","img/card_backs/set1/purple.gif","img/card_backs/set2/gray.gif","img/card_backs/set2/blue.gif","img/card_backs/set2/pink.gif","img/card_backs/set2/orange.gif","""event"",""trial"",""time""
""fullscreenenter"",""1"",""3112""
","
","
","""event"",""trial"",""time""
""fullscreenenter"",""1"",""3112""
","
","","null","","null","","fixation","2021-07-07 00:18:45.165","","","","","",""
"card-selection-trial","81","376663","0.0-25.0-1.5","814","false","img/card_backs/set1/yellow.gif","img/card_backs/set1/green.gif","img/card_backs/set1/red.gif","img/card_backs/set1/purple.gif","img/card_backs/set2/gray.gif","img/card_backs/set2/blue.gif","img/card_backs/set2/pink.gif","img/card_backs/set2/orange.gif","""event"",""trial"",""time""
""fullscreenenter"",""1"",""3112""
","
","
","""event"",""trial"",""time""
""fullscreenenter"",""1"",""3112""
","
","","1678.5","","","","real_trial","2021-07-07 00:18:48.851","img/card_backs/set1/red.gif","2","110","1","",""
"casino-fixation","82","377168","0.0-25.0-0.6","814","false","img/card_backs/set1/yellow.gif","img/card_backs/set1/green.gif","img/card_backs/set1/red.gif","img/card_backs/set1/purple.gif","img/card_backs/set2/gray.gif","img/card_backs/set2/blue.gif","img/card_backs/set2/pink.gif","img/card_backs/set2/orange.gif","""event"",""trial"",""time""
""fullscreenenter"",""1"",""3112""
","
","
","""event"",""trial"",""time""
""fullscreenenter"",""1"",""3112""
","
","","null","","null","","fixation","2021-07-07 00:18:49.356","","","","","",""
"card-selection-trial","83","380407","0.0-25.0-1.6","814","false","img/card_backs/set1/yellow.gif","img/card_backs/set1/green.gif","img/card_backs/set1/red.gif","img/card_backs/set1/purple.gif","img/card_backs/set2/gray.gif","img/card_backs/set2/blue.gif","img/card_backs/set2/pink.gif","img/card_backs/set2/orange.gif","""event"",""trial"",""time""
""fullscreenenter"",""1"",""3112""
","
","
","""event"",""trial"",""time""
""fullscreenenter"",""1"",""3112""
","
","","1229.6000000238419","","","","real_trial","2021-07-07 00:18:52.595","img/card_backs/set1/purple.gif","3","-70","1","",""
"casino-fixation","84","380912","0.0-25.0-0.7","814","false","img/card_backs/set1/yellow.gif","img/card_backs/set1/green.gif","img/card_backs/set1/red.gif","img/card_backs/set1/purple.gif","img/card_backs/set2/gray.gif","img/card_backs/set2/blue.gif","img/card_backs/set2/pink.gif","img/card_backs/set2/orange.gif","""event"",""trial"",""time""
""fullscreenenter"",""1"",""3112""
","
","
","""event"",""trial"",""time""
""fullscreenenter"",""1"",""3112""
","
","","null","","null","","fixation","2021-07-07 00:18:53.100","","","","","",""
"card-selection-trial","85","384065","0.0-25.0-1.7","814","false","img/card_backs/set1/yellow.gif","img/card_backs/set1/green.gif","img/card_backs/set1/red.gif","img/card_backs/set1/purple.gif","img/card_backs/set2/gray.gif","img/card_backs/set2/blue.gif","img/card_backs/set2/pink.gif","img/card_backs/set2/orange.gif","""event"",""trial"",""time""
""fullscreenenter"",""1"",""3112""
","
","
","""event"",""trial"",""time""
""fullscreenenter"",""1"",""3112""
","
","","1146.300000011921","","","","real_trial","2021-07-07 00:18:56.253","img/card_backs/set1/red.gif","1","110","1","",""
"casino-fixation","86","384570","0.0-25.0-0.8","814","false","img/card_backs/set1/yellow.gif","img/card_backs/set1/green.gif","img/card_backs/set1/red.gif","img/card_backs/set1/purple.gif","img/card_backs/set2/gray.gif","img/card_backs/set2/blue.gif","img/card_backs/set2/pink.gif","img/card_backs/set2/orange.gif","""event"",""trial"",""time""
""fullscreenenter"",""1"",""3112""
","
","
","""event"",""trial"",""time""
""fullscreenenter"",""1"",""3112""
","
","","null","","null","","fixation","2021-07-07 00:18:56.758","","","","","",""
"card-selection-trial","87","388593","0.0-25.0-1.8","814","false","img/card_backs/set1/yellow.gif","img/card_backs/set1/green.gif","img/card_backs/set1/red.gif","img/card_backs/set1/purple.gif","img/card_backs/set2/gray.gif","img/card_backs/set2/blue.gif","img/card_backs/set2/pink.gif","img/card_backs/set2/orange.gif","""event"",""trial"",""time""
""fullscreenenter"",""1"",""3112""
","
","
","""event"",""trial"",""time""
""fullscreenenter"",""1"",""3112""
","
","","2014.800000011921","","","","real_trial","2021-07-07 00:19:00.781","img/card_backs/set1/purple.gif","2","100","1","",""
"casino-fixation","88","389098","0.0-25.0-0.9","814","false","img/card_backs/set1/yellow.gif","img/card_backs/set1/green.gif","img/card_backs/set1/red.gif","img/card_backs/set1/purple.gif","img/card_backs/set2/gray.gif","img/card_backs/set2/blue.gif","img/card_backs/set2/pink.gif","img/card_backs/set2/orange.gif","""event"",""trial"",""time""
""fullscreenenter"",""1"",""3112""
","
","
","""event"",""trial"",""time""
""fullscreenenter"",""1"",""3112""
","
","","null","","null","","fixation","2021-07-07 00:19:01.286","","","","","",""
"card-selection-trial","89","392858","0.0-25.0-1.9","814","false","img/card_backs/set1/yellow.gif","img/card_backs/set1/green.gif","img/card_backs/set1/red.gif","img/card_backs/set1/purple.gif","img/card_backs/set2/gray.gif","img/card_backs/set2/blue.gif","img/card_backs/set2/pink.gif","img/card_backs/set2/orange.gif","""event"",""trial"",""time""
""fullscreenenter"",""1"",""3112""
","
","
","""event"",""trial"",""time""
""fullscreenenter"",""1"",""3112""
","
","","1751.5","","","","real_trial","2021-07-07 00:19:05.046","img/card_backs/set1/yellow.gif","3","180","1","",""
"casino-fixation","90","393364","0.0-25.0-0.10","814","false","img/card_backs/set1/yellow.gif","img/card_backs/set1/green.gif","img/card_backs/set1/red.gif","img/card_backs/set1/purple.gif","img/card_backs/set2/gray.gif","img/card_backs/set2/blue.gif","img/card_backs/set2/pink.gif","img/card_backs/set2/orange.gif","""event"",""trial"",""time""
""fullscreenenter"",""1"",""3112""
","
","
","""event"",""trial"",""time""
""fullscreenenter"",""1"",""3112""
","
","","null","","null","","fixation","2021-07-07 00:19:05.552","","","","","",""
"card-selection-trial","91","396511","0.0-25.0-1.10","814","false","img/card_backs/set1/yellow.gif","img/card_backs/set1/green.gif","img/card_backs/set1/red.gif","img/card_backs/set1/purple.gif","img/card_backs/set2/gray.gif","img/card_backs/set2/blue.gif","img/card_backs/set2/pink.gif","img/card_backs/set2/orange.gif","""event"",""trial"",""time""
""fullscreenenter"",""1"",""3112""
","
","
","""event"",""trial"",""time""
""fullscreenenter"",""1"",""3112""
","
","","1140.1000000238419","","","","real_trial","2021-07-07 00:19:08.699","img/card_backs/set1/purple.gif","0","-50","1","",""
"casino-fixation","92","397016","0.0-25.0-0.11","814","false","img/card_backs/set1/yellow.gif","img/card_backs/set1/green.gif","img/card_backs/set1/red.gif","img/card_backs/set1/purple.gif","img/card_backs/set2/gray.gif","img/card_backs/set2/blue.gif","img/card_backs/set2/pink.gif","img/card_backs/set2/orange.gif","""event"",""trial"",""time""
""fullscreenenter"",""1"",""3112""
","
","
","""event"",""trial"",""time""
""fullscreenenter"",""1"",""3112""
","
","","null","","null","","fixation","2021-07-07 00:19:09.204","","","","","",""
"card-selection-trial","93","399663","0.0-25.0-1.11","814","false","img/card_backs/set1/yellow.gif","img/card_backs/set1/green.gif","img/card_backs/set1/red.gif","img/card_backs/set1/purple.gif","img/card_backs/set2/gray.gif","img/card_backs/set2/blue.gif","img/card_backs/set2/pink.gif","img/card_backs/set2/orange.gif","""event"",""trial"",""time""
""fullscreenenter"",""1"",""3112""
","
","
","""event"",""trial"",""time""
""fullscreenenter"",""1"",""3112""
","
","","637.2000000476837","","","","real_trial","2021-07-07 00:19:11.851","img/card_backs/set1/yellow.gif","1","180","1","",""
"casino-fixation","94","400168","0.0-25.0-0.12","814","false","img/card_backs/set1/yellow.gif","img/card_backs/set1/green.gif","img/card_backs/set1/red.gif","img/card_backs/set1/purple.gif","img/card_backs/set2/gray.gif","img/card_backs/set2/blue.gif","img/card_backs/set2/pink.gif","img/card_backs/set2/orange.gif","""event"",""trial"",""time""
""fullscreenenter"",""1"",""3112""
","
","
","""event"",""trial"",""time""
""fullscreenenter"",""1"",""3112""
","
","","null","","null","","fixation","2021-07-07 00:19:12.356","","","","","",""
"card-selection-trial","95","402565","0.0-25.0-1.12","814","false","img/card_backs/set1/yellow.gif","img/card_backs/set1/green.gif","img/card_backs/set1/red.gif","img/card_backs/set1/purple.gif","img/card_backs/set2/gray.gif","img/card_backs/set2/blue.gif","img/card_backs/set2/pink.gif","img/card_backs/set2/orange.gif","""event"",""trial"",""time""
""fullscreenenter"",""1"",""3112""
","
","
","""event"",""trial"",""time""
""fullscreenenter"",""1"",""3112""
","
","","387.39999997615814","","","","real_trial","2021-07-07 00:19:14.753","img/card_backs/set1/green.gif","2","-250","1","",""
"casino-fixation","96","403071","0.0-25.0-0.13","814","false","img/card_backs/set1/yellow.gif","img/card_backs/set1/green.gif","img/card_backs/set1/red.gif","img/card_backs/set1/purple.gif","img/card_backs/set2/gray.gif","img/card_backs/set2/blue.gif","img/card_backs/set2/pink.gif","img/card_backs/set2/orange.gif","""event"",""trial"",""time""
""fullscreenenter"",""1"",""3112""
","
","
","""event"",""trial"",""time""
""fullscreenenter"",""1"",""3112""
","
","","null","","null","","fixation","2021-07-07 00:19:15.259","","","","","",""
"card-selection-trial","97","405735","0.0-25.0-1.13","814","false","img/card_backs/set1/yellow.gif","img/card_backs/set1/green.gif","img/card_backs/set1/red.gif","img/card_backs/set1/purple.gif","img/card_backs/set2/gray.gif","img/card_backs/set2/blue.gif","img/card_backs/set2/pink.gif","img/card_backs/set2/orange.gif","""event"",""trial"",""time""
""fullscreenenter"",""1"",""3112""
","
","
","""event"",""trial"",""time""
""fullscreenenter"",""1"",""3112""
","
","","659.1000000238419","","","","real_trial","2021-07-07 00:19:17.923","img/card_backs/set1/yellow.gif","3","-230","1","",""
"casino-fixation","98","406240","0.0-25.0-0.14","814","false","img/card_backs/set1/yellow.gif","img/card_backs/set1/green.gif","img/card_backs/set1/red.gif","img/card_backs/set1/purple.gif","img/card_backs/set2/gray.gif","img/card_backs/set2/blue.gif","img/card_backs/set2/pink.gif","img/card_backs/set2/orange.gif","""event"",""trial"",""time""
""fullscreenenter"",""1"",""3112""
","
","
","""event"",""trial"",""time""
""fullscreenenter"",""1"",""3112""
","
","","null","","null","","fixation","2021-07-07 00:19:18.428","","","","","",""
"card-selection-trial","99","409364","0.0-25.0-1.14","814","false","img/card_backs/set1/yellow.gif","img/card_backs/set1/green.gif","img/card_backs/set1/red.gif","img/card_backs/set1/purple.gif","img/card_backs/set2/gray.gif","img/card_backs/set2/blue.gif","img/card_backs/set2/pink.gif","img/card_backs/set2/orange.gif","""event"",""trial"",""time""
""fullscreenenter"",""1"",""3112""
","
","
","""event"",""trial"",""time""
""fullscreenenter"",""1"",""3112""
","
","","1116.199999988079","","","","real_trial","2021-07-07 00:19:21.552","img/card_backs/set1/green.gif","2","-240","1","",""
"casino-fixation","100","409869","0.0-25.0-0.15","814","false","img/card_backs/set1/yellow.gif","img/card_backs/set1/green.gif","img/card_backs/set1/red.gif","img/card_backs/set1/purple.gif","img/card_backs/set2/gray.gif","img/card_backs/set2/blue.gif","img/card_backs/set2/pink.gif","img/card_backs/set2/orange.gif","""event"",""trial"",""time""
""fullscreenenter"",""1"",""3112""
","
","
","""event"",""trial"",""time""
""fullscreenenter"",""1"",""3112""
","
","","null","","null","","fixation","2021-07-07 00:19:22.057","","","","","",""
"card-selection-trial","101","412538","0.0-25.0-1.15","814","false","img/card_backs/set1/yellow.gif","img/card_backs/set1/green.gif","img/card_backs/set1/red.gif","img/card_backs/set1/purple.gif","img/card_backs/set2/gray.gif","img/card_backs/set2/blue.gif","img/card_backs/set2/pink.gif","img/card_backs/set2/orange.gif","""event"",""trial"",""time""
""fullscreenenter"",""1"",""3112""
","
","
","""event"",""trial"",""time""
""fullscreenenter"",""1"",""3112""
","
","","660.7999999523163","","","","real_trial","2021-07-07 00:19:24.727","img/card_backs/set1/red.gif","1","110","1","",""
"casino-fixation","102","413043","0.0-25.0-0.16","814","false","img/card_backs/set1/yellow.gif","img/card_backs/set1/green.gif","img/card_backs/set1/red.gif","img/card_backs/set1/purple.gif","img/card_backs/set2/gray.gif","img/card_backs/set2/blue.gif","img/card_backs/set2/pink.gif","img/card_backs/set2/orange.gif","""event"",""trial"",""time""
""fullscreenenter"",""1"",""3112""
","
","
","""event"",""trial"",""time""
""fullscreenenter"",""1"",""3112""
","
","","null","","null","","fixation","2021-07-07 00:19:25.231","","","","","",""
"card-selection-trial","103","415692","0.0-25.0-1.16","814","false","img/card_backs/set1/yellow.gif","img/card_backs/set1/green.gif","img/card_backs/set1/red.gif","img/card_backs/set1/purple.gif","img/card_backs/set2/gray.gif","img/card_backs/set2/blue.gif","img/card_backs/set2/pink.gif","img/card_backs/set2/orange.gif","""event"",""trial"",""time""
""fullscreenenter"",""1"",""3112""
","
","
","""event"",""trial"",""time""
""fullscreenenter"",""1"",""3112""
","
","","639.6999999880791","","","","real_trial","2021-07-07 00:19:27.880","img/card_backs/set1/purple.gif","0","120","1","",""
"casino-fixation","104","416196","0.0-25.0-0.17","814","false","img/card_backs/set1/yellow.gif","img/card_backs/set1/green.gif","img/card_backs/set1/red.gif","img/card_backs/set1/purple.gif","img/card_backs/set2/gray.gif","img/card_backs/set2/blue.gif","img/card_backs/set2/pink.gif","img/card_backs/set2/orange.gif","""event"",""trial"",""time""
""fullscreenenter"",""1"",""3112""
","
","
","""event"",""trial"",""time""
""fullscreenenter"",""1"",""3112""
","
","","null","","null","","fixation","2021-07-07 00:19:28.384","","","","","",""
"card-selection-trial","105","418530","0.0-25.0-1.17","814","false","img/card_backs/set1/yellow.gif","img/card_backs/set1/green.gif","img/card_backs/set1/red.gif","img/card_backs/set1/purple.gif","img/card_backs/set2/gray.gif","img/card_backs/set2/blue.gif","img/card_backs/set2/pink.gif","img/card_backs/set2/orange.gif","""event"",""trial"",""time""
""fullscreenenter"",""1"",""3112""
","
","
","""event"",""trial"",""time""
""fullscreenenter"",""1"",""3112""
","
","","326.30000001192093","","","","real_trial","2021-07-07 00:19:30.718","img/card_backs/set1/purple.gif","3","100","1","",""
"casino-fixation","106","419036","0.0-25.0-0.18","814","false","img/card_backs/set1/yellow.gif","img/card_backs/set1/green.gif","img/card_backs/set1/red.gif","img/card_backs/set1/purple.gif","img/card_backs/set2/gray.gif","img/card_backs/set2/blue.gif","img/card_backs/set2/pink.gif","img/card_backs/set2/orange.gif","""event"",""trial"",""time""
""fullscreenenter"",""1"",""3112""
","
","
","""event"",""trial"",""time""
""fullscreenenter"",""1"",""3112""
","
","","null","","null","","fixation","2021-07-07 00:19:31.224","","","","","",""
"card-selection-trial","107","421995","0.0-25.0-1.18","814","false","img/card_backs/set1/yellow.gif","img/card_backs/set1/green.gif","img/card_backs/set1/red.gif","img/card_backs/set1/purple.gif","img/card_backs/set2/gray.gif","img/card_backs/set2/blue.gif","img/card_backs/set2/pink.gif","img/card_backs/set2/orange.gif","""event"",""trial"",""time""
""fullscreenenter"",""1"",""3112""
","
","
","""event"",""trial"",""time""
""fullscreenenter"",""1"",""3112""
","
","","950.4000000357628","","","","real_trial","2021-07-07 00:19:34.183","img/card_backs/set1/purple.gif","1","-70","1","",""
"casino-fixation","108","422500","0.0-25.0-0.19","814","false","img/card_backs/set1/yellow.gif","img/card_backs/set1/green.gif","img/card_backs/set1/red.gif","img/card_backs/set1/purple.gif","img/card_backs/set2/gray.gif","img/card_backs/set2/blue.gif","img/card_backs/set2/pink.gif","img/card_backs/set2/orange.gif","""event"",""trial"",""time""
""fullscreenenter"",""1"",""3112""
","
","
","""event"",""trial"",""time""
""fullscreenenter"",""1"",""3112""
","
","","null","","null","","fixation","2021-07-07 00:19:34.688","","","","","",""
"card-selection-trial","109","425414","0.0-25.0-1.19","814","false","img/card_backs/set1/yellow.gif","img/card_backs/set1/green.gif","img/card_backs/set1/red.gif","img/card_backs/set1/purple.gif","img/card_backs/set2/gray.gif","img/card_backs/set2/blue.gif","img/card_backs/set2/pink.gif","img/card_backs/set2/orange.gif","""event"",""trial"",""time""
""fullscreenenter"",""1"",""3112""
","
","
","""event"",""trial"",""time""
""fullscreenenter"",""1"",""3112""
","
","","905","","","","real_trial","2021-07-07 00:19:37.602","img/card_backs/set1/green.gif","2","180","1","",""
"casino-fixation","110","425919","0.0-25.0-0.20","814","false","img/card_backs/set1/yellow.gif","img/card_backs/set1/green.gif","img/card_backs/set1/red.gif","img/card_backs/set1/purple.gif","img/card_backs/set2/gray.gif","img/card_backs/set2/blue.gif","img/card_backs/set2/pink.gif","img/card_backs/set2/orange.gif","""event"",""trial"",""time""
""fullscreenenter"",""1"",""3112""
","
","
","""event"",""trial"",""time""
""fullscreenenter"",""1"",""3112""
","
","","null","","null","","fixation","2021-07-07 00:19:38.107","","","","","",""
"card-selection-trial","111","428926","0.0-25.0-1.20","814","false","img/card_backs/set1/yellow.gif","img/card_backs/set1/green.gif","img/card_backs/set1/red.gif","img/card_backs/set1/purple.gif","img/card_backs/set2/gray.gif","img/card_backs/set2/blue.gif","img/card_backs/set2/pink.gif","img/card_backs/set2/orange.gif","""event"",""trial"",""time""
""fullscreenenter"",""1"",""3112""
","
","
","""event"",""trial"",""time""
""fullscreenenter"",""1"",""3112""
","
","","1002.7000000476837","","","","real_trial","2021-07-07 00:19:41.114","img/card_backs/set1/red.gif","1","120","1","",""
"casino-fixation","112","429431","0.0-25.0-0.21","814","false","img/card_backs/set1/yellow.gif","img/card_backs/set1/green.gif","img/card_backs/set1/red.gif","img/card_backs/set1/purple.gif","img/card_backs/set2/gray.gif","img/card_backs/set2/blue.gif","img/card_backs/set2/pink.gif","img/card_backs/set2/orange.gif","""event"",""trial"",""time""
""fullscreenenter"",""1"",""3112""
","
","
","""event"",""trial"",""time""
""fullscreenenter"",""1"",""3112""
","
","","null","","null","","fixation","2021-07-07 00:19:41.619","","","","","",""
"card-selection-trial","113","432107","0.0-25.0-1.21","814","false","img/card_backs/set1/yellow.gif","img/card_backs/set1/green.gif","img/card_backs/set1/red.gif","img/card_backs/set1/purple.gif","img/card_backs/set2/gray.gif","img/card_backs/set2/blue.gif","img/card_backs/set2/pink.gif","img/card_backs/set2/orange.gif","""event"",""trial"",""time""
""fullscreenenter"",""1"",""3112""
","
","
","""event"",""trial"",""time""
""fullscreenenter"",""1"",""3112""
","
","","666.3999999761581","","","","real_trial","2021-07-07 00:19:44.295","img/card_backs/set1/yellow.gif","3","180","1","",""
"casino-fixation","114","432612","0.0-25.0-0.22","814","false","img/card_backs/set1/yellow.gif","img/card_backs/set1/green.gif","img/card_backs/set1/red.gif","img/card_backs/set1/purple.gif","img/card_backs/set2/gray.gif","img/card_backs/set2/blue.gif","img/card_backs/set2/pink.gif","img/card_backs/set2/orange.gif","""event"",""trial"",""time""
""fullscreenenter"",""1"",""3112""
","
","
","""event"",""trial"",""time""
""fullscreenenter"",""1"",""3112""
","
","","null","","null","","fixation","2021-07-07 00:19:44.800","","","","","",""
"card-selection-trial","115","435776","0.0-25.0-1.22","814","false","img/card_backs/set1/yellow.gif","img/card_backs/set1/green.gif","img/card_backs/set1/red.gif","img/card_backs/set1/purple.gif","img/card_backs/set2/gray.gif","img/card_backs/set2/blue.gif","img/card_backs/set2/pink.gif","img/card_backs/set2/orange.gif","""event"",""trial"",""time""
""fullscreenenter"",""1"",""3112""
","
","
","""event"",""trial"",""time""
""fullscreenenter"",""1"",""3112""
","
","","1158.800000011921","","","","real_trial","2021-07-07 00:19:47.964","img/card_backs/set1/red.gif","3","100","1","",""
"casino-fixation","116","436282","0.0-25.0-0.23","814","false","img/card_backs/set1/yellow.gif","img/card_backs/set1/green.gif","img/card_backs/set1/red.gif","img/card_backs/set1/purple.gif","img/card_backs/set2/gray.gif","img/card_backs/set2/blue.gif","img/card_backs/set2/pink.gif","img/card_backs/set2/orange.gif","""event"",""trial"",""time""
""fullscreenenter"",""1"",""3112""
","
","
","""event"",""trial"",""time""
""fullscreenenter"",""1"",""3112""
","
","","null","","null","","fixation","2021-07-07 00:19:48.470","","","","","",""
"card-selection-trial","117","439729","0.0-25.0-1.23","814","false","img/card_backs/set1/yellow.gif","img/card_backs/set1/green.gif","img/card_backs/set1/red.gif","img/card_backs/set1/purple.gif","img/card_backs/set2/gray.gif","img/card_backs/set2/blue.gif","img/card_backs/set2/pink.gif","img/card_backs/set2/orange.gif","""event"",""trial"",""time""
""fullscreenenter"",""1"",""3112""
","
","
","""event"",""trial"",""time""
""fullscreenenter"",""1"",""3112""
","
","","1443","","","","real_trial","2021-07-07 00:19:51.918","img/card_backs/set1/green.gif","1","190","1","",""
"casino-fixation","118","440235","0.0-25.0-0.24","814","false","img/card_backs/set1/yellow.gif","img/card_backs/set1/green.gif","img/card_backs/set1/red.gif","img/card_backs/set1/purple.gif","img/card_backs/set2/gray.gif","img/card_backs/set2/blue.gif","img/card_backs/set2/pink.gif","img/card_backs/set2/orange.gif","""event"",""trial"",""time""
""fullscreenenter"",""1"",""3112""
","
","
","""event"",""trial"",""time""
""fullscreenenter"",""1"",""3112""
","
","","null","","null","","fixation","2021-07-07 00:19:52.423","","","","","",""
"card-selection-trial","119","442823","0.0-25.0-1.24","814","false","img/card_backs/set1/yellow.gif","img/card_backs/set1/green.gif","img/card_backs/set1/red.gif","img/card_backs/set1/purple.gif","img/card_backs/set2/gray.gif","img/card_backs/set2/blue.gif","img/card_backs/set2/pink.gif","img/card_backs/set2/orange.gif","""event"",""trial"",""time""
""fullscreenenter"",""1"",""3112""
","
","
","""event"",""trial"",""time""
""fullscreenenter"",""1"",""3112""
","
","","583.0999999642372","","","","real_trial","2021-07-07 00:19:55.011","img/card_backs/set1/purple.gif","0","110","1","",""
"casino-fixation","120","443328","0.0-25.0-0.25","814","false","img/card_backs/set1/yellow.gif","img/card_backs/set1/green.gif","img/card_backs/set1/red.gif","img/card_backs/set1/purple.gif","img/card_backs/set2/gray.gif","img/card_backs/set2/blue.gif","img/card_backs/set2/pink.gif","img/card_backs/set2/orange.gif","""event"",""trial"",""time""
""fullscreenenter"",""1"",""3112""
","
","
","""event"",""trial"",""time""
""fullscreenenter"",""1"",""3112""
","
","","null","","null","","fixation","2021-07-07 00:19:55.516","","","","","",""
"card-selection-trial","121","445801","0.0-25.0-1.25","814","false","img/card_backs/set1/yellow.gif","img/card_backs/set1/green.gif","img/card_backs/set1/red.gif","img/card_backs/set1/purple.gif","img/card_backs/set2/gray.gif","img/card_backs/set2/blue.gif","img/card_backs/set2/pink.gif","img/card_backs/set2/orange.gif","""event"",""trial"",""time""
""fullscreenenter"",""1"",""3112""
","
","
","""event"",""trial"",""time""
""fullscreenenter"",""1"",""3112""
","
","","467.19999998807907","","","","real_trial","2021-07-07 00:19:57.989","img/card_backs/set1/green.gif","2","-230","1","",""
"casino-fixation","122","446306","0.0-25.0-0.26","814","false","img/card_backs/set1/yellow.gif","img/card_backs/set1/green.gif","img/card_backs/set1/red.gif","img/card_backs/set1/purple.gif","img/card_backs/set2/gray.gif","img/card_backs/set2/blue.gif","img/card_backs/set2/pink.gif","img/card_backs/set2/orange.gif","""event"",""trial"",""time""
""fullscreenenter"",""1"",""3112""
","
","
","""event"",""trial"",""time""
""fullscreenenter"",""1"",""3112""
","
","","null","","null","","fixation","2021-07-07 00:19:58.494","","","","","",""
"card-selection-trial","123","449081","0.0-25.0-1.26","814","false","img/card_backs/set1/yellow.gif","img/card_backs/set1/green.gif","img/card_backs/set1/red.gif","img/card_backs/set1/purple.gif","img/card_backs/set2/gray.gif","img/card_backs/set2/blue.gif","img/card_backs/set2/pink.gif","img/card_backs/set2/orange.gif","""event"",""trial"",""time""
""fullscreenenter"",""1"",""3112""
","
","
","""event"",""trial"",""time""
""fullscreenenter"",""1"",""3112""
","
","","770.5","","","","real_trial","2021-07-07 00:20:01.269","img/card_backs/set1/yellow.gif","3","190","1","",""
"casino-fixation","124","449586","0.0-25.0-0.27","814","false","img/card_backs/set1/yellow.gif","img/card_backs/set1/green.gif","img/card_backs/set1/red.gif","img/card_backs/set1/purple.gif","img/card_backs/set2/gray.gif","img/card_backs/set2/blue.gif","img/card_backs/set2/pink.gif","img/card_backs/set2/orange.gif","""event"",""trial"",""time""
""fullscreenenter"",""1"",""3112""
","
","
","""event"",""trial"",""time""
""fullscreenenter"",""1"",""3112""
","
","","null","","null","","fixation","2021-07-07 00:20:01.774","","","","","",""
"card-selection-trial","125","452918","0.0-25.0-1.27","814","false","img/card_backs/set1/yellow.gif","img/card_backs/set1/green.gif","img/card_backs/set1/red.gif","img/card_backs/set1/purple.gif","img/card_backs/set2/gray.gif","img/card_backs/set2/blue.gif","img/card_backs/set2/pink.gif","img/card_backs/set2/orange.gif","""event"",""trial"",""time""
""fullscreenenter"",""1"",""3112""
","
","
","""event"",""trial"",""time""
""fullscreenenter"",""1"",""3112""
","
","","1326.800000011921","","","","real_trial","2021-07-07 00:20:05.107","img/card_backs/set1/green.gif","3","180","1","",""
"casino-fixation","126","453423","0.0-25.0-0.28","814","false","img/card_backs/set1/yellow.gif","img/card_backs/set1/green.gif","img/card_backs/set1/red.gif","img/card_backs/set1/purple.gif","img/card_backs/set2/gray.gif","img/card_backs/set2/blue.gif","img/card_backs/set2/pink.gif","img/card_backs/set2/orange.gif","""event"",""trial"",""time""
""fullscreenenter"",""1"",""3112""
","
","
","""event"",""trial"",""time""
""fullscreenenter"",""1"",""3112""
","
","","null","","null","","fixation","2021-07-07 00:20:05.611","","","","","",""
"card-selection-trial","127","456744","0.0-25.0-1.28","814","false","img/card_backs/set1/yellow.gif","img/card_backs/set1/green.gif","img/card_backs/set1/red.gif","img/card_backs/set1/purple.gif","img/card_backs/set2/gray.gif","img/card_backs/set2/blue.gif","img/card_backs/set2/pink.gif","img/card_backs/set2/orange.gif","""event"",""trial"",""time""
""fullscreenenter"",""1"",""3112""
","
","
","""event"",""trial"",""time""
""fullscreenenter"",""1"",""3112""
","
","","1313.1000000238419","","","","real_trial","2021-07-07 00:20:08.932","img/card_backs/set1/green.gif","2","200","1","",""
"casino-fixation","128","457249","0.0-25.0-0.29","814","false","img/card_backs/set1/yellow.gif","img/card_backs/set1/green.gif","img/card_backs/set1/red.gif","img/card_backs/set1/purple.gif","img/card_backs/set2/gray.gif","img/card_backs/set2/blue.gif","img/card_backs/set2/pink.gif","img/card_backs/set2/orange.gif","""event"",""trial"",""time""
""fullscreenenter"",""1"",""3112""
","
","
","""event"",""trial"",""time""
""fullscreenenter"",""1"",""3112""
","
","","null","","null","","fixation","2021-07-07 00:20:09.437","","","","","",""
"card-selection-trial","129","460447","0.0-25.0-1.29","814","false","img/card_backs/set1/yellow.gif","img/card_backs/set1/green.gif","img/card_backs/set1/red.gif","img/card_backs/set1/purple.gif","img/card_backs/set2/gray.gif","img/card_backs/set2/blue.gif","img/card_backs/set2/pink.gif","img/card_backs/set2/orange.gif","""event"",""trial"",""time""
""fullscreenenter"",""1"",""3112""
","
","
","""event"",""trial"",""time""
""fullscreenenter"",""1"",""3112""
","
","","1189.800000011921","","","","real_trial","2021-07-07 00:20:12.635","img/card_backs/set1/green.gif","2","190","1","",""
"casino-fixation","130","460953","0.0-25.0-0.30","814","false","img/card_backs/set1/yellow.gif","img/card_backs/set1/green.gif","img/card_backs/set1/red.gif","img/card_backs/set1/purple.gif","img/card_backs/set2/gray.gif","img/card_backs/set2/blue.gif","img/card_backs/set2/pink.gif","img/card_backs/set2/orange.gif","""event"",""trial"",""time""
""fullscreenenter"",""1"",""3112""
","
","
","""event"",""trial"",""time""
""fullscreenenter"",""1"",""3112""
","
","","null","","null","","fixation","2021-07-07 00:20:13.141","","","","","",""
"card-selection-trial","131","464296","0.0-25.0-1.30","814","false","img/card_backs/set1/yellow.gif","img/card_backs/set1/green.gif","img/card_backs/set1/red.gif","img/card_backs/set1/purple.gif","img/card_backs/set2/gray.gif","img/card_backs/set2/blue.gif","img/card_backs/set2/pink.gif","img/card_backs/set2/orange.gif","""event"",""trial"",""time""
""fullscreenenter"",""1"",""3112""
","
","
","""event"",""trial"",""time""
""fullscreenenter"",""1"",""3112""
","
","","1337.6000000238419","","","","real_trial","2021-07-07 00:20:16.484","img/card_backs/set1/green.gif","1","-250","1","",""
"casino-fixation","132","464801","0.0-25.0-0.31","814","false","img/card_backs/set1/yellow.gif","img/card_backs/set1/green.gif","img/card_backs/set1/red.gif","img/card_backs/set1/purple.gif","img/card_backs/set2/gray.gif","img/card_backs/set2/blue.gif","img/card_backs/set2/pink.gif","img/card_backs/set2/orange.gif","""event"",""trial"",""time""
""fullscreenenter"",""1"",""3112""
","
","
","""event"",""trial"",""time""
""fullscreenenter"",""1"",""3112""
","
","","null","","null","","fixation","2021-07-07 00:20:16.989","","","","","",""
"card-selection-trial","133","467274","0.0-25.0-1.31","814","false","img/card_backs/set1/yellow.gif","img/card_backs/set1/green.gif","img/card_backs/set1/red.gif","img/card_backs/set1/purple.gif","img/card_backs/set2/gray.gif","img/card_backs/set2/blue.gif","img/card_backs/set2/pink.gif","img/card_backs/set2/orange.gif","""event"",""trial"",""time""
""fullscreenenter"",""1"",""3112""
","
","
","""event"",""trial"",""time""
""fullscreenenter"",""1"",""3112""
","
","","464.5","","","","real_trial","2021-07-07 00:20:19.462","img/card_backs/set1/red.gif","1","100","1","",""
"casino-fixation","134","467779","0.0-25.0-0.32","814","false","img/card_backs/set1/yellow.gif","img/card_backs/set1/green.gif","img/card_backs/set1/red.gif","img/card_backs/set1/purple.gif","img/card_backs/set2/gray.gif","img/card_backs/set2/blue.gif","img/card_backs/set2/pink.gif","img/card_backs/set2/orange.gif","""event"",""trial"",""time""
""fullscreenenter"",""1"",""3112""
","
","
","""event"",""trial"",""time""
""fullscreenenter"",""1"",""3112""
","
","","null","","null","","fixation","2021-07-07 00:20:19.967","","","","","",""
"card-selection-trial","135","470415","0.0-25.0-1.32","814","false","img/card_backs/set1/yellow.gif","img/card_backs/set1/green.gif","img/card_backs/set1/red.gif","img/card_backs/set1/purple.gif","img/card_backs/set2/gray.gif","img/card_backs/set2/blue.gif","img/card_backs/set2/pink.gif","img/card_backs/set2/orange.gif","""event"",""trial"",""time""
""fullscreenenter"",""1"",""3112""
","
","
","""event"",""trial"",""time""
""fullscreenenter"",""1"",""3112""
","
","","628.6999999880791","","","","real_trial","2021-07-07 00:20:22.603","img/card_backs/set1/green.gif","2","200","1","",""
"casino-fixation","136","470920","0.0-25.0-0.33","814","false","img/card_backs/set1/yellow.gif","img/card_backs/set1/green.gif","img/card_backs/set1/red.gif","img/card_backs/set1/purple.gif","img/card_backs/set2/gray.gif","img/card_backs/set2/blue.gif","img/card_backs/set2/pink.gif","img/card_backs/set2/orange.gif","""event"",""trial"",""time""
""fullscreenenter"",""1"",""3112""
","
","
","""event"",""trial"",""time""
""fullscreenenter"",""1"",""3112""
","
","","null","","null","","fixation","2021-07-07 00:20:23.108","","","","","",""
"card-selection-trial","137","473416","0.0-25.0-1.33","814","false","img/card_backs/set1/yellow.gif","img/card_backs/set1/green.gif","img/card_backs/set1/red.gif","img/card_backs/set1/purple.gif","img/card_backs/set2/gray.gif","img/card_backs/set2/blue.gif","img/card_backs/set2/pink.gif","img/card_backs/set2/orange.gif","""event"",""trial"",""time""
""fullscreenenter"",""1"",""3112""
","
","
","""event"",""trial"",""time""
""fullscreenenter"",""1"",""3112""
","
","","490","","","","real_trial","2021-07-07 00:20:25.604","img/card_backs/set1/green.gif","2","190","1","",""
"casino-fixation","138","473921","0.0-25.0-0.34","814","false","img/card_backs/set1/yellow.gif","img/card_backs/set1/green.gif","img/card_backs/set1/red.gif","img/card_backs/set1/purple.gif","img/card_backs/set2/gray.gif","img/card_backs/set2/blue.gif","img/card_backs/set2/pink.gif","img/card_backs/set2/orange.gif","""event"",""trial"",""time""
""fullscreenenter"",""1"",""3112""
","
","
","""event"",""trial"",""time""
""fullscreenenter"",""1"",""3112""
","
","","null","","null","","fixation","2021-07-07 00:20:26.109","","","","","",""
"card-selection-trial","139","476231","0.0-25.0-1.34","814","false","img/card_backs/set1/yellow.gif","img/card_backs/set1/green.gif","img/card_backs/set1/red.gif","img/card_backs/set1/purple.gif","img/card_backs/set2/gray.gif","img/card_backs/set2/blue.gif","img/card_backs/set2/pink.gif","img/card_backs/set2/orange.gif","""event"",""trial"",""time""
""fullscreenenter"",""1"",""3112""
","
","
","""event"",""trial"",""time""
""fullscreenenter"",""1"",""3112""
","
","","300.89999997615814","","","","real_trial","2021-07-07 00:20:28.419","img/card_backs/set1/purple.gif","2","-60","1","",""
"casino-fixation","140","476736","0.0-25.0-0.35","814","false","img/card_backs/set1/yellow.gif","img/card_backs/set1/green.gif","img/card_backs/set1/red.gif","img/card_backs/set1/purple.gif","img/card_backs/set2/gray.gif","img/card_backs/set2/blue.gif","img/card_backs/set2/pink.gif","img/card_backs/set2/orange.gif","""event"",""trial"",""time""
""fullscreenenter"",""1"",""3112""
","
","
","""event"",""trial"",""time""
""fullscreenenter"",""1"",""3112""
","
","","null","","null","","fixation","2021-07-07 00:20:28.924","","","","","",""
"card-selection-trial","141","479035","0.0-25.0-1.35","814","false","img/card_backs/set1/yellow.gif","img/card_backs/set1/green.gif","img/card_backs/set1/red.gif","img/card_backs/set1/purple.gif","img/card_backs/set2/gray.gif","img/card_backs/set2/blue.gif","img/card_backs/set2/pink.gif","img/card_backs/set2/orange.gif","""event"",""trial"",""time""
""fullscreenenter"",""1"",""3112""
","
","
","""event"",""trial"",""time""
""fullscreenenter"",""1"",""3112""
","
","","293.89999997615814","","","","real_trial","2021-07-07 00:20:31.223","img/card_backs/set1/red.gif","3","-60","1","",""
"casino-fixation","142","479540","0.0-25.0-0.36","814","false","img/card_backs/set1/yellow.gif","img/card_backs/set1/green.gif","img/card_backs/set1/red.gif","img/card_backs/set1/purple.gif","img/card_backs/set2/gray.gif","img/card_backs/set2/blue.gif","img/card_backs/set2/pink.gif","img/card_backs/set2/orange.gif","""event"",""trial"",""time""
""fullscreenenter"",""1"",""3112""
","
","
","""event"",""trial"",""time""
""fullscreenenter"",""1"",""3112""
","
","","null","","null","","fixation","2021-07-07 00:20:31.728","","","","","",""
"card-selection-trial","143","481763","0.0-25.0-1.36","814","false","img/card_backs/set1/yellow.gif","img/card_backs/set1/green.gif","img/card_backs/set1/red.gif","img/card_backs/set1/purple.gif","img/card_backs/set2/gray.gif","img/card_backs/set2/blue.gif","img/card_backs/set2/pink.gif","img/card_backs/set2/orange.gif","""event"",""trial"",""time""
""fullscreenenter"",""1"",""3112""
","
","
","""event"",""trial"",""time""
""fullscreenenter"",""1"",""3112""
","
","","214.5","","","","real_trial","2021-07-07 00:20:33.952","img/card_backs/set1/red.gif","2","120","1","",""
"casino-fixation","144","482269","0.0-25.0-0.37","814","false","img/card_backs/set1/yellow.gif","img/card_backs/set1/green.gif","img/card_backs/set1/red.gif","img/card_backs/set1/purple.gif","img/card_backs/set2/gray.gif","img/card_backs/set2/blue.gif","img/card_backs/set2/pink.gif","img/card_backs/set2/orange.gif","""event"",""trial"",""time""
""fullscreenenter"",""1"",""3112""
","
","
","""event"",""trial"",""time""
""fullscreenenter"",""1"",""3112""
","
","","null","","null","","fixation","2021-07-07 00:20:34.457","","","","","",""
"card-selection-trial","145","484591","0.0-25.0-1.37","814","false","img/card_backs/set1/yellow.gif","img/card_backs/set1/green.gif","img/card_backs/set1/red.gif","img/card_backs/set1/purple.gif","img/card_backs/set2/gray.gif","img/card_backs/set2/blue.gif","img/card_backs/set2/pink.gif","img/card_backs/set2/orange.gif","""event"",""trial"",""time""
""fullscreenenter"",""1"",""3112""
","
","
","""event"",""trial"",""time""
""fullscreenenter"",""1"",""3112""
","
","","313.4000000357628","","","","real_trial","2021-07-07 00:20:36.779","img/card_backs/set1/yellow.gif","3","-240","1","",""
"casino-fixation","146","485096","0.0-25.0-0.38","814","false","img/card_backs/set1/yellow.gif","img/card_backs/set1/green.gif","img/card_backs/set1/red.gif","img/card_backs/set1/purple.gif","img/card_backs/set2/gray.gif","img/card_backs/set2/blue.gif","img/card_backs/set2/pink.gif","img/card_backs/set2/orange.gif","""event"",""trial"",""time""
""fullscreenenter"",""1"",""3112""
","
","
","""event"",""trial"",""time""
""fullscreenenter"",""1"",""3112""
","
","","null","","null","","fixation","2021-07-07 00:20:37.284","","","","","",""
"card-selection-trial","147","487900","0.0-25.0-1.38","814","false","img/card_backs/set1/yellow.gif","img/card_backs/set1/green.gif","img/card_backs/set1/red.gif","img/card_backs/set1/purple.gif","img/card_backs/set2/gray.gif","img/card_backs/set2/blue.gif","img/card_backs/set2/pink.gif","img/card_backs/set2/orange.gif","""event"",""trial"",""time""
""fullscreenenter"",""1"",""3112""
","
","
","""event"",""trial"",""time""
""fullscreenenter"",""1"",""3112""
","
","","796.1000000238419","","","","real_trial","2021-07-07 00:20:40.088","img/card_backs/set1/green.gif","1","-230","1","",""
"casino-fixation","148","488404","0.0-25.0-0.39","814","false","img/card_backs/set1/yellow.gif","img/card_backs/set1/green.gif","img/card_backs/set1/red.gif","img/card_backs/set1/purple.gif","img/card_backs/set2/gray.gif","img/card_backs/set2/blue.gif","img/card_backs/set2/pink.gif","img/card_backs/set2/orange.gif","""event"",""trial"",""time""
""fullscreenenter"",""1"",""3112""
","
","
","""event"",""trial"",""time""
""fullscreenenter"",""1"",""3112""
","
","","null","","null","","fixation","2021-07-07 00:20:40.593","","","","","",""
"card-selection-trial","149","491220","0.0-25.0-1.39","814","false","img/card_backs/set1/yellow.gif","img/card_backs/set1/green.gif","img/card_backs/set1/red.gif","img/card_backs/set1/purple.gif","img/card_backs/set2/gray.gif","img/card_backs/set2/blue.gif","img/card_backs/set2/pink.gif","img/card_backs/set2/orange.gif","""event"",""trial"",""time""
""fullscreenenter"",""1"",""3112""
","
","
","""event"",""trial"",""time""
""fullscreenenter"",""1"",""3112""
","
","","806.1999999880791","","","","real_trial","2021-07-07 00:20:43.408","img/card_backs/set1/red.gif","1","100","1","",""
"casino-fixation","150","491725","0.0-25.0-0.40","814","false","img/card_backs/set1/yellow.gif","img/card_backs/set1/green.gif","img/card_backs/set1/red.gif","img/card_backs/set1/purple.gif","img/card_backs/set2/gray.gif","img/card_backs/set2/blue.gif","img/card_backs/set2/pink.gif","img/card_backs/set2/orange.gif","""event"",""trial"",""time""
""fullscreenenter"",""1"",""3112""
","
","
","""event"",""trial"",""time""
""fullscreenenter"",""1"",""3112""
","
","","null","","null","","fixation","2021-07-07 00:20:43.913","","","","","",""
"card-selection-trial","151","495127","0.0-25.0-1.40","814","false","img/card_backs/set1/yellow.gif","img/card_backs/set1/green.gif","img/card_backs/set1/red.gif","img/card_backs/set1/purple.gif","img/card_backs/set2/gray.gif","img/card_backs/set2/blue.gif","img/card_backs/set2/pink.gif","img/card_backs/set2/orange.gif","""event"",""trial"",""time""
""fullscreenenter"",""1"",""3112""
","
","
","""event"",""trial"",""time""
""fullscreenenter"",""1"",""3112""
","
","","1391.5999999642372","","","","real_trial","2021-07-07 00:20:47.315","img/card_backs/set1/green.gif","2","190","1","",""
"casino-fixation","152","495632","0.0-25.0-0.41","814","false","img/card_backs/set1/yellow.gif","img/card_backs/set1/green.gif","img/card_backs/set1/red.gif","img/card_backs/set1/purple.gif","img/card_backs/set2/gray.gif","img/card_backs/set2/blue.gif","img/card_backs/set2/pink.gif","img/card_backs/set2/orange.gif","""event"",""trial"",""time""
""fullscreenenter"",""1"",""3112""
","
","
","""event"",""trial"",""time""
""fullscreenenter"",""1"",""3112""
","
","","null","","null","","fixation","2021-07-07 00:20:47.820","","","","","",""
"card-selection-trial","153","498372","0.0-25.0-1.41","814","false","img/card_backs/set1/yellow.gif","img/card_backs/set1/green.gif","img/card_backs/set1/red.gif","img/card_backs/set1/purple.gif","img/card_backs/set2/gray.gif","img/card_backs/set2/blue.gif","img/card_backs/set2/pink.gif","img/card_backs/set2/orange.gif","""event"",""trial"",""time""
""fullscreenenter"",""1"",""3112""
","
","
","""event"",""trial"",""time""
""fullscreenenter"",""1"",""3112""
","
","","733.6000000238419","","","","real_trial","2021-07-07 00:20:50.561","img/card_backs/set1/red.gif","2","-50","1","",""
"casino-fixation","154","498877","0.0-25.0-0.42","814","false","img/card_backs/set1/yellow.gif","img/card_backs/set1/green.gif","img/card_backs/set1/red.gif","img/card_backs/set1/purple.gif","img/card_backs/set2/gray.gif","img/card_backs/set2/blue.gif","img/card_backs/set2/pink.gif","img/card_backs/set2/orange.gif","""event"",""trial"",""time""
""fullscreenenter"",""1"",""3112""
","
","
","""event"",""trial"",""time""
""fullscreenenter"",""1"",""3112""
","
","","null","","null","","fixation","2021-07-07 00:20:51.065","","","","","",""
"card-selection-trial","155","503207","0.0-25.0-1.42","814","false","img/card_backs/set1/yellow.gif","img/card_backs/set1/green.gif","img/card_backs/set1/red.gif","img/card_backs/set1/purple.gif","img/card_backs/set2/gray.gif","img/card_backs/set2/blue.gif","img/card_backs/set2/pink.gif","img/card_backs/set2/orange.gif","""event"",""trial"",""time""
""fullscreenenter"",""1"",""3112""
","
","
","""event"",""trial"",""time""
""fullscreenenter"",""1"",""3112""
","
","","2321.800000011921","","","","real_trial","2021-07-07 00:20:55.395","img/card_backs/set1/yellow.gif","1","190","1","",""
"casino-fixation","156","503712","0.0-25.0-0.43","814","false","img/card_backs/set1/yellow.gif","img/card_backs/set1/green.gif","img/card_backs/set1/red.gif","img/card_backs/set1/purple.gif","img/card_backs/set2/gray.gif","img/card_backs/set2/blue.gif","img/card_backs/set2/pink.gif","img/card_backs/set2/orange.gif","""event"",""trial"",""time""
""fullscreenenter"",""1"",""3112""
","
","
","""event"",""trial"",""time""
""fullscreenenter"",""1"",""3112""
","
","","null","","null","","fixation","2021-07-07 00:20:55.900","","","","","",""
"card-selection-trial","157","506182","0.0-25.0-1.43","814","false","img/card_backs/set1/yellow.gif","img/card_backs/set1/green.gif","img/card_backs/set1/red.gif","img/card_backs/set1/purple.gif","img/card_backs/set2/gray.gif","img/card_backs/set2/blue.gif","img/card_backs/set2/pink.gif","img/card_backs/set2/orange.gif","""event"",""trial"",""time""
""fullscreenenter"",""1"",""3112""
","
","
","""event"",""trial"",""time""
""fullscreenenter"",""1"",""3112""
","
","","461.89999997615814","","","","real_trial","2021-07-07 00:20:58.370","img/card_backs/set1/purple.gif","2","-70","1","",""
"casino-fixation","158","506686","0.0-25.0-0.44","814","false","img/card_backs/set1/yellow.gif","img/card_backs/set1/green.gif","img/card_backs/set1/red.gif","img/card_backs/set1/purple.gif","img/card_backs/set2/gray.gif","img/card_backs/set2/blue.gif","img/card_backs/set2/pink.gif","img/card_backs/set2/orange.gif","""event"",""trial"",""time""
""fullscreenenter"",""1"",""3112""
","
","
","""event"",""trial"",""time""
""fullscreenenter"",""1"",""3112""
","
","","null","","null","","fixation","2021-07-07 00:20:58.874","","","","","",""
"card-selection-trial","159","508763","0.0-25.0-1.44","814","false","img/card_backs/set1/yellow.gif","img/card_backs/set1/green.gif","img/card_backs/set1/red.gif","img/card_backs/set1/purple.gif","img/card_backs/set2/gray.gif","img/card_backs/set2/blue.gif","img/card_backs/set2/pink.gif","img/card_backs/set2/orange.gif","""event"",""trial"",""time""
""fullscreenenter"",""1"",""3112""
","
","
","""event"",""trial"",""time""
""fullscreenenter"",""1"",""3112""
","
","","71.19999998807907","","","","real_trial","2021-07-07 00:21:00.951","img/card_backs/set1/purple.gif","3","110","1","",""
"casino-fixation","160","509268","0.0-25.0-0.45","814","false","img/card_backs/set1/yellow.gif","img/card_backs/set1/green.gif","img/card_backs/set1/red.gif","img/card_backs/set1/purple.gif","img/card_backs/set2/gray.gif","img/card_backs/set2/blue.gif","img/card_backs/set2/pink.gif","img/card_backs/set2/orange.gif","""event"",""trial"",""time""
""fullscreenenter"",""1"",""3112""
","
","
","""event"",""trial"",""time""
""fullscreenenter"",""1"",""3112""
","
","","null","","null","","fixation","2021-07-07 00:21:01.456","","","","","",""
"card-selection-trial","161","511300","0.0-25.0-1.45","814","false","img/card_backs/set1/yellow.gif","img/card_backs/set1/green.gif","img/card_backs/set1/red.gif","img/card_backs/set1/purple.gif","img/card_backs/set2/gray.gif","img/card_backs/set2/blue.gif","img/card_backs/set2/pink.gif","img/card_backs/set2/orange.gif","""event"",""trial"",""time""
""fullscreenenter"",""1"",""3112""
","
","
","""event"",""trial"",""time""
""fullscreenenter"",""1"",""3112""
","
","","27.399999976158142","","","","real_trial","2021-07-07 00:21:03.488","img/card_backs/set1/purple.gif","0","100","1","",""
"casino-fixation","162","511806","0.0-25.0-0.46","814","false","img/card_backs/set1/yellow.gif","img/card_backs/set1/green.gif","img/card_backs/set1/red.gif","img/card_backs/set1/purple.gif","img/card_backs/set2/gray.gif","img/card_backs/set2/blue.gif","img/card_backs/set2/pink.gif","img/card_backs/set2/orange.gif","""event"",""trial"",""time""
""fullscreenenter"",""1"",""3112""
","
","
","""event"",""trial"",""time""
""fullscreenenter"",""1"",""3112""
","
","","null","","null","","fixation","2021-07-07 00:21:03.994","","","","","",""
"card-selection-trial","163","514678","0.0-25.0-1.46","814","false","img/card_backs/set1/yellow.gif","img/card_backs/set1/green.gif","img/card_backs/set1/red.gif","img/card_backs/set1/purple.gif","img/card_backs/set2/gray.gif","img/card_backs/set2/blue.gif","img/card_backs/set2/pink.gif","img/card_backs/set2/orange.gif","""event"",""trial"",""time""
""fullscreenenter"",""1"",""3112""
","
","
","""event"",""trial"",""time""
""fullscreenenter"",""1"",""3112""
","
","","865.9000000357628","","","","real_trial","2021-07-07 00:21:06.866","img/card_backs/set1/purple.gif","2","-50","1","",""
"casino-fixation","164","515183","0.0-25.0-0.47","814","false","img/card_backs/set1/yellow.gif","img/card_backs/set1/green.gif","img/card_backs/set1/red.gif","img/card_backs/set1/purple.gif","img/card_backs/set2/gray.gif","img/card_backs/set2/blue.gif","img/card_backs/set2/pink.gif","img/card_backs/set2/orange.gif","""event"",""trial"",""time""
""fullscreenenter"",""1"",""3112""
","
","
","""event"",""trial"",""time""
""fullscreenenter"",""1"",""3112""
","
","","null","","null","","fixation","2021-07-07 00:21:07.371","","","","","",""
"card-selection-trial","165","517784","0.0-25.0-1.47","814","false","img/card_backs/set1/yellow.gif","img/card_backs/set1/green.gif","img/card_backs/set1/red.gif","img/card_backs/set1/purple.gif","img/card_backs/set2/gray.gif","img/card_backs/set2/blue.gif","img/card_backs/set2/pink.gif","img/card_backs/set2/orange.gif","""event"",""trial"",""time""
""fullscreenenter"",""1"",""3112""
","
","
","""event"",""trial"",""time""
""fullscreenenter"",""1"",""3112""
","
","","593","","","","real_trial","2021-07-07 00:21:09.972","img/card_backs/set1/red.gif","3","110","1","",""
"casino-fixation","166","518289","0.0-25.0-0.48","814","false","img/card_backs/set1/yellow.gif","img/card_backs/set1/green.gif","img/card_backs/set1/red.gif","img/card_backs/set1/purple.gif","img/card_backs/set2/gray.gif","img/card_backs/set2/blue.gif","img/card_backs/set2/pink.gif","img/card_backs/set2/orange.gif","""event"",""trial"",""time""
""fullscreenenter"",""1"",""3112""
","
","
","""event"",""trial"",""time""
""fullscreenenter"",""1"",""3112""
","
","","null","","null","","fixation","2021-07-07 00:21:10.477","","","","","",""
"card-selection-trial","167","521104","0.0-25.0-1.48","814","false","img/card_backs/set1/yellow.gif","img/card_backs/set1/green.gif","img/card_backs/set1/red.gif","img/card_backs/set1/purple.gif","img/card_backs/set2/gray.gif","img/card_backs/set2/blue.gif","img/card_backs/set2/pink.gif","img/card_backs/set2/orange.gif","""event"",""trial"",""time""
""fullscreenenter"",""1"",""3112""
","
","
","""event"",""trial"",""time""
""fullscreenenter"",""1"",""3112""
","
