"trial_type","trial_index","time_elapsed","internal_node_id","sub_id","risk_good_first","block1_A","block1_B","block1_C","block1_D","block2_A","block2_B","block2_C","block2_D","interactions","blur_events","focus_events","fullscreenenter_events","fullscreenexit_events","success","rt","stimulus","key_press","button_pressed","task_part","timestamp","card_choice","choice_position","points_earned","block","correct","response"
"pavlovia","0","34","0.0-0.0","249","false","img/card_backs/set1/yellow.gif","img/card_backs/set1/purple.gif","img/card_backs/set1/red.gif","img/card_backs/set1/green.gif","img/card_backs/set2/orange.gif","img/card_backs/set2/blue.gif","img/card_backs/set2/gray.gif","img/card_backs/set2/pink.gif","""event"",""trial"",""time""
""fullscreenenter"",""1"",""15676""
","
","
","""event"",""trial"",""time""
""fullscreenenter"",""1"",""15676""
","
","","","","","","","","","","","","",""
"fullscreen","1","16619","0.0-1.0","249","false","img/card_backs/set1/yellow.gif","img/card_backs/set1/purple.gif","img/card_backs/set1/red.gif","img/card_backs/set1/green.gif","img/card_backs/set2/orange.gif","img/card_backs/set2/blue.gif","img/card_backs/set2/gray.gif","img/card_backs/set2/pink.gif","""event"",""trial"",""time""
""fullscreenenter"",""1"",""15676""
","
","
","""event"",""trial"",""time""
""fullscreenenter"",""1"",""15676""
","
","true","","","","","","","","","","","",""
"audio-keyboard-response","2","21681","0.0-2.0","249","false","img/card_backs/set1/yellow.gif","img/card_backs/set1/purple.gif","img/card_backs/set1/red.gif","img/card_backs/set1/green.gif","img/card_backs/set2/orange.gif","img/card_backs/set2/blue.gif","img/card_backs/set2/gray.gif","img/card_backs/set2/pink.gif","""event"",""trial"",""time""
""fullscreenenter"",""1"",""15676""
","
","
","""event"",""trial"",""time""
""fullscreenenter"",""1"",""15676""
","
","","4597","audio/beep_loop.wav","32","","","","","","","","",""
"audio-button-response","3","55365","0.0-3.0","249","false","img/card_backs/set1/yellow.gif","img/card_backs/set1/purple.gif","img/card_backs/set1/red.gif","img/card_backs/set1/green.gif","img/card_backs/set2/orange.gif","img/card_backs/set2/blue.gif","img/card_backs/set2/gray.gif","img/card_backs/set2/pink.gif","""event"",""trial"",""time""
""fullscreenenter"",""1"",""15676""
","
","
","""event"",""trial"",""time""
""fullscreenenter"",""1"",""15676""
","
","","NaN","audio/turtle.mp3","","3","","","","","","","",""
"audio-button-response","4","59162","0.0-4.0","249","false","img/card_backs/set1/yellow.gif","img/card_backs/set1/purple.gif","img/card_backs/set1/red.gif","img/card_backs/set1/green.gif","img/card_backs/set2/orange.gif","img/card_backs/set2/blue.gif","img/card_backs/set2/gray.gif","img/card_backs/set2/pink.gif","""event"",""trial"",""time""
""fullscreenenter"",""1"",""15676""
","
","
","""event"",""trial"",""time""
""fullscreenenter"",""1"",""15676""
","
","","NaN","audio/shark.mp3","","2","","","","","","","",""
"fullscreen","5","66327","0.0-5.0","249","false","img/card_backs/set1/yellow.gif","img/card_backs/set1/purple.gif","img/card_backs/set1/red.gif","img/card_backs/set1/green.gif","img/card_backs/set2/orange.gif","img/card_backs/set2/blue.gif","img/card_backs/set2/gray.gif","img/card_backs/set2/pink.gif","""event"",""trial"",""time""
""fullscreenenter"",""1"",""15676""
","
","
","""event"",""trial"",""time""
""fullscreenenter"",""1"",""15676""
","
","true","","","","","","","","","","","",""
"casino-keyboard-response","6","72232","0.0-6.0-0.0","249","false","img/card_backs/set1/yellow.gif","img/card_backs/set1/purple.gif","img/card_backs/set1/red.gif","img/card_backs/set1/green.gif","img/card_backs/set2/orange.gif","img/card_backs/set2/blue.gif","img/card_backs/set2/gray.gif","img/card_backs/set2/pink.gif","""event"",""trial"",""time""
""fullscreenenter"",""1"",""15676""
","
","
","""event"",""trial"",""time""
""fullscreenenter"",""1"",""15676""
","
","","5895.989999989979","Welcome to the casino!","71","","instructions","2021-07-04 15:02:00.095","","","","","",""
"casino-keyboard-response","7","84093","0.0-6.0-0.1","249","false","img/card_backs/set1/yellow.gif","img/card_backs/set1/purple.gif","img/card_backs/set1/red.gif","img/card_backs/set1/green.gif","img/card_backs/set2/orange.gif","img/card_backs/set2/blue.gif","img/card_backs/set2/gray.gif","img/card_backs/set2/pink.gif","""event"",""trial"",""time""
""fullscreenenter"",""1"",""15676""
","
","
","""event"",""trial"",""time""
""fullscreenenter"",""1"",""15676""
","
","","11854.429999977583","Today you will be playing a game to earn tokens. </br> At the end of the experiment, you will be paid a bonus based on how many tokens you win. ","69","","instructions","2021-07-04 15:02:11.956","","","","","",""
"casino-keyboard-response","8","92485","0.0-6.0-0.2","249","false","img/card_backs/set1/yellow.gif","img/card_backs/set1/purple.gif","img/card_backs/set1/red.gif","img/card_backs/set1/green.gif","img/card_backs/set2/orange.gif","img/card_backs/set2/blue.gif","img/card_backs/set2/gray.gif","img/card_backs/set2/pink.gif","""event"",""trial"",""time""
""fullscreenenter"",""1"",""15676""
","
","
","""event"",""trial"",""time""
""fullscreenenter"",""1"",""15676""
","
","","8383.144999999786","On every turn, you will be shown four different decks of cards. </br> You need to select a card from one of the four decks.  ","75","","instructions","2021-07-04 15:02:20.348","","","","","",""
"casino-keyboard-response","9","97823","0.0-6.0-0.3","249","false","img/card_backs/set1/yellow.gif","img/card_backs/set1/purple.gif","img/card_backs/set1/red.gif","img/card_backs/set1/green.gif","img/card_backs/set2/orange.gif","img/card_backs/set2/blue.gif","img/card_backs/set2/gray.gif","img/card_backs/set2/pink.gif","""event"",""trial"",""time""
""fullscreenenter"",""1"",""15676""
","
","
","""event"",""trial"",""time""
""fullscreenenter"",""1"",""15676""
","
","","5332.625000010012","On the next screen, you will see what the decks will look like. ","66","","instructions","2021-07-04 15:02:25.687","","","","","",""
"card-selection-trial","10","101835","0.0-7.0-0.0","249","false","img/card_backs/set1/yellow.gif","img/card_backs/set1/purple.gif","img/card_backs/set1/red.gif","img/card_backs/set1/green.gif","img/card_backs/set2/orange.gif","img/card_backs/set2/blue.gif","img/card_backs/set2/gray.gif","img/card_backs/set2/pink.gif","""event"",""trial"",""time""
""fullscreenenter"",""1"",""15676""
","
","
","""event"",""trial"",""time""
""fullscreenenter"",""1"",""15676""
","
","","null","","","","practice","2021-07-04 15:02:29.698","null","null","null","0","",""
"casino-keyboard-response","11","110604","0.0-8.0-0.0","249","false","img/card_backs/set1/yellow.gif","img/card_backs/set1/purple.gif","img/card_backs/set1/red.gif","img/card_backs/set1/green.gif","img/card_backs/set2/orange.gif","img/card_backs/set2/blue.gif","img/card_backs/set2/gray.gif","img/card_backs/set2/pink.gif","""event"",""trial"",""time""
""fullscreenenter"",""1"",""15676""
","
","
","""event"",""trial"",""time""
""fullscreenenter"",""1"",""15676""
","
","","8762.554999993881","You should pick a card from a deck using the '2', '4', '6', and '8' keys at the top of the keyboard.","85","","instructions","2021-07-04 15:02:38.467","","","","","",""
"casino-keyboard-response","12","117246","0.0-8.0-0.1","249","false","img/card_backs/set1/yellow.gif","img/card_backs/set1/purple.gif","img/card_backs/set1/red.gif","img/card_backs/set1/green.gif","img/card_backs/set2/orange.gif","img/card_backs/set2/blue.gif","img/card_backs/set2/gray.gif","img/card_backs/set2/pink.gif","""event"",""trial"",""time""
""fullscreenenter"",""1"",""15676""
","
","
","""event"",""trial"",""time""
""fullscreenenter"",""1"",""15676""
","
","","6636.919999989914","Once you select a card, it will turn over and you will see how many tokens you earned.","83","","instructions","2021-07-04 15:02:45.109","","","","","",""
"casino-keyboard-response","13","123781","0.0-8.0-0.2","249","false","img/card_backs/set1/yellow.gif","img/card_backs/set1/purple.gif","img/card_backs/set1/red.gif","img/card_backs/set1/green.gif","img/card_backs/set2/orange.gif","img/card_backs/set2/blue.gif","img/card_backs/set2/gray.gif","img/card_backs/set2/pink.gif","""event"",""trial"",""time""
""fullscreenenter"",""1"",""15676""
","
","
","""event"",""trial"",""time""
""fullscreenenter"",""1"",""15676""
","
","","6527.585000003455","Let's try practicing that! </br> First, try to put your fingers over the '2', '4', '6', and '8' keys. </br>  You can use whatever fingers are most comfortable for you. Try to find a comfortable position now. ","50","","instructions","2021-07-04 15:02:51.644","","","","","",""
"casino-keyboard-response","14","130018","0.0-8.0-0.3","249","false","img/card_backs/set1/yellow.gif","img/card_backs/set1/purple.gif","img/card_backs/set1/red.gif","img/card_backs/set1/green.gif","img/card_backs/set2/orange.gif","img/card_backs/set2/blue.gif","img/card_backs/set2/gray.gif","img/card_backs/set2/pink.gif","""event"",""trial"",""time""
""fullscreenenter"",""1"",""15676""
","
","
","""event"",""trial"",""time""
""fullscreenenter"",""1"",""15676""
","
","","6227.5099999969825","Okay ready? </br> On the next screen, press '2' to select the left deck. ","50","","instructions","2021-07-04 15:02:57.881","","","","","",""
"card-selection-trial","15","132877","0.0-9.0-0.0","249","false","img/card_backs/set1/yellow.gif","img/card_backs/set1/purple.gif","img/card_backs/set1/red.gif","img/card_backs/set1/green.gif","img/card_backs/set2/orange.gif","img/card_backs/set2/blue.gif","img/card_backs/set2/gray.gif","img/card_backs/set2/pink.gif","""event"",""trial"",""time""
""fullscreenenter"",""1"",""15676""
","
","
","""event"",""trial"",""time""
""fullscreenenter"",""1"",""15676""
","
","","722.2949999850243","","","","practice_card_selection","2021-07-04 15:03:00.741","img/practice_cards/backs/brown.gif","0","100","","",""
"casino-keyboard-response","16","138696","0.0-10.0-0.0","249","false","img/card_backs/set1/yellow.gif","img/card_backs/set1/purple.gif","img/card_backs/set1/red.gif","img/card_backs/set1/green.gif","img/card_backs/set2/orange.gif","img/card_backs/set2/blue.gif","img/card_backs/set2/gray.gif","img/card_backs/set2/pink.gif","""event"",""trial"",""time""
""fullscreenenter"",""1"",""15676""
","
","
","""event"",""trial"",""time""
""fullscreenenter"",""1"",""15676""
","
","","5814.3900000141","Great! Now on the next screen, try pressing '6' to select the third deck.","54","","instructions","2021-07-04 15:03:06.559","","","","","",""
"card-selection-trial","17","141438","0.0-11.0-0.0","249","false","img/card_backs/set1/yellow.gif","img/card_backs/set1/purple.gif","img/card_backs/set1/red.gif","img/card_backs/set1/green.gif","img/card_backs/set2/orange.gif","img/card_backs/set2/blue.gif","img/card_backs/set2/gray.gif","img/card_backs/set2/pink.gif","""event"",""trial"",""time""
""fullscreenenter"",""1"",""15676""
","
","
","""event"",""trial"",""time""
""fullscreenenter"",""1"",""15676""
","
","","725.1349999860395","","","","practice_card_selection","2021-07-04 15:03:09.301","img/practice_cards/backs/brown.gif","2","100","","",""
"casino-keyboard-response","18","146229","0.0-12.0-0.0","249","false","img/card_backs/set1/yellow.gif","img/card_backs/set1/purple.gif","img/card_backs/set1/red.gif","img/card_backs/set1/green.gif","img/card_backs/set2/orange.gif","img/card_backs/set2/blue.gif","img/card_backs/set2/gray.gif","img/card_backs/set2/pink.gif","""event"",""trial"",""time""
""fullscreenenter"",""1"",""15676""
","
","
","""event"",""trial"",""time""
""fullscreenenter"",""1"",""15676""
","
","","4783.460000006016","Now on the next screen, try pressing '4' to select the second deck.","52","","instructions","2021-07-04 15:03:14.093","","","","","",""
"card-selection-trial","19","148814","0.0-13.0-0.0","249","false","img/card_backs/set1/yellow.gif","img/card_backs/set1/purple.gif","img/card_backs/set1/red.gif","img/card_backs/set1/green.gif","img/card_backs/set2/orange.gif","img/card_backs/set2/blue.gif","img/card_backs/set2/gray.gif","img/card_backs/set2/pink.gif","""event"",""trial"",""time""
""fullscreenenter"",""1"",""15676""
","
","
","""event"",""trial"",""time""
""fullscreenenter"",""1"",""15676""
","
","","565.2100000006612","","","","practice_card_selection","2021-07-04 15:03:16.677","img/practice_cards/backs/black.gif","1","100","","",""
"casino-keyboard-response","20","153330","0.0-14.0-0.0","249","false","img/card_backs/set1/yellow.gif","img/card_backs/set1/purple.gif","img/card_backs/set1/red.gif","img/card_backs/set1/green.gif","img/card_backs/set2/orange.gif","img/card_backs/set2/blue.gif","img/card_backs/set2/gray.gif","img/card_backs/set2/pink.gif","""event"",""trial"",""time""
""fullscreenenter"",""1"",""15676""
","
","
","""event"",""trial"",""time""
""fullscreenenter"",""1"",""15676""
","
","","4510.44000001275","Finally, try pressing '8' to select the deck all the way on the right.","56","","instructions","2021-07-04 15:03:21.193","","","","","",""
"card-selection-trial","21","155954","0.0-15.0-0.0","249","false","img/card_backs/set1/yellow.gif","img/card_backs/set1/purple.gif","img/card_backs/set1/red.gif","img/card_backs/set1/green.gif","img/card_backs/set2/orange.gif","img/card_backs/set2/blue.gif","img/card_backs/set2/gray.gif","img/card_backs/set2/pink.gif","""event"",""trial"",""time""
""fullscreenenter"",""1"",""15676""
","
","
","""event"",""trial"",""time""
""fullscreenenter"",""1"",""15676""
","
","","604.1149999946356","","","","practice_card_selection","2021-07-04 15:03:23.817","img/practice_cards/backs/dark_blue.gif","3","200","","",""
"casino-keyboard-response","22","160610","0.0-16.0-0.0","249","false","img/card_backs/set1/yellow.gif","img/card_backs/set1/purple.gif","img/card_backs/set1/red.gif","img/card_backs/set1/green.gif","img/card_backs/set2/orange.gif","img/card_backs/set2/blue.gif","img/card_backs/set2/gray.gif","img/card_backs/set2/pink.gif","""event"",""trial"",""time""
""fullscreenenter"",""1"",""15676""
","
","
","""event"",""trial"",""time""
""fullscreenenter"",""1"",""15676""
","
","","4652.7899999928195","Great! It seems like you are getting the hang of this.","80","","instructions","2021-07-04 15:03:28.474","","","","","",""
"casino-keyboard-response","23","169489","0.0-16.0-0.1","249","false","img/card_backs/set1/yellow.gif","img/card_backs/set1/purple.gif","img/card_backs/set1/red.gif","img/card_backs/set1/green.gif","img/card_backs/set2/orange.gif","img/card_backs/set2/blue.gif","img/card_backs/set2/gray.gif","img/card_backs/set2/pink.gif","""event"",""trial"",""time""
""fullscreenenter"",""1"",""15676""
","
","
","""event"",""trial"",""time""
""fullscreenenter"",""1"",""15676""
","
","","8870.599999994738","You may have noticed that some cards will cause you to <b> win </b> tokens while other cards will cause you to <b> lose </b>  tokens.","70","","instructions","2021-07-04 15:03:37.352","","","","","",""
"casino-keyboard-response","24","179554","0.0-16.0-0.2","249","false","img/card_backs/set1/yellow.gif","img/card_backs/set1/purple.gif","img/card_backs/set1/red.gif","img/card_backs/set1/green.gif","img/card_backs/set2/orange.gif","img/card_backs/set2/blue.gif","img/card_backs/set2/gray.gif","img/card_backs/set2/pink.gif","""event"",""trial"",""time""
""fullscreenenter"",""1"",""15676""
","
","
","""event"",""trial"",""time""
""fullscreenenter"",""1"",""15676""
","
","","10060.859999997774","Each deck has a mix of cards that will cause you to win and lose tokens. </br> However, the cards in each colored deck are different.","73","","instructions","2021-07-04 15:03:47.417","","","","","",""
"casino-keyboard-response","25","188885","0.0-16.0-0.3","249","false","img/card_backs/set1/yellow.gif","img/card_backs/set1/purple.gif","img/card_backs/set1/red.gif","img/card_backs/set1/green.gif","img/card_backs/set2/orange.gif","img/card_backs/set2/blue.gif","img/card_backs/set2/gray.gif","img/card_backs/set2/pink.gif","""event"",""trial"",""time""
""fullscreenenter"",""1"",""15676""
","
","
","""event"",""trial"",""time""
""fullscreenenter"",""1"",""15676""
","
","","9324.274999991758","Some colored decks are luckier than others. </br> If you choose the lucky decks, you will earn more tokens than if you choose the unlucky decks.","69","","instructions","2021-07-04 15:03:56.750","","","","","",""
"casino-keyboard-response","26","196463","0.0-16.0-0.4","249","false","img/card_backs/set1/yellow.gif","img/card_backs/set1/purple.gif","img/card_backs/set1/red.gif","img/card_backs/set1/green.gif","img/card_backs/set2/orange.gif","img/card_backs/set2/blue.gif","img/card_backs/set2/gray.gif","img/card_backs/set2/pink.gif","""event"",""trial"",""time""
""fullscreenenter"",""1"",""15676""
","
","
","""event"",""trial"",""time""
""fullscreenenter"",""1"",""15676""
","
","","7569.82999999309","You should try to figure out which decks are lucky. </br> Then, try to choose the lucky decks so you can win the most tokens.","87","","instructions","2021-07-04 15:04:04.326","","","","","",""
"casino-keyboard-response","27","208877","0.0-16.0-0.5","249","false","img/card_backs/set1/yellow.gif","img/card_backs/set1/purple.gif","img/card_backs/set1/red.gif","img/card_backs/set1/green.gif","img/card_backs/set2/orange.gif","img/card_backs/set2/blue.gif","img/card_backs/set2/gray.gif","img/card_backs/set2/pink.gif","""event"",""trial"",""time""
""fullscreenenter"",""1"",""15676""
","
","
","""event"",""trial"",""time""
""fullscreenenter"",""1"",""15676""
","
","","12407.039999990957","To make it trickier, the casino dealer will switch the locations of the decks on every turn. </br> The color of the deck determines how lucky it is. The location does not matter.","88","","instructions","2021-07-04 15:04:16.740","","","","","",""
"casino-keyboard-response","28","218743","0.0-16.0-0.6","249","false","img/card_backs/set1/yellow.gif","img/card_backs/set1/purple.gif","img/card_backs/set1/red.gif","img/card_backs/set1/green.gif","img/card_backs/set2/orange.gif","img/card_backs/set2/blue.gif","img/card_backs/set2/gray.gif","img/card_backs/set2/pink.gif","""event"",""trial"",""time""
""fullscreenenter"",""1"",""15676""
","
","
","""event"",""trial"",""time""
""fullscreenenter"",""1"",""15676""
","
","","9859.57000000053","The mix of cards in each colored deck will stay the same throughout the game. </br> That means that a deck that is lucky early on will stay lucky.","79","","instructions","2021-07-04 15:04:26.606","","","","","",""
"casino-keyboard-response","29","228532","0.0-16.0-0.7","249","false","img/card_backs/set1/yellow.gif","img/card_backs/set1/purple.gif","img/card_backs/set1/red.gif","img/card_backs/set1/green.gif","img/card_backs/set2/orange.gif","img/card_backs/set2/blue.gif","img/card_backs/set2/gray.gif","img/card_backs/set2/pink.gif","""event"",""trial"",""time""
""fullscreenenter"",""1"",""15676""
","
","
","""event"",""trial"",""time""
""fullscreenenter"",""1"",""15676""
","
","","9783.3699999901","Remember though, all the decks have a <b> mix </b> of both <b> good </b> and <b> bad </b> cards so it may take a couple of turns to figure out if a deck is lucky.","69","","instructions","2021-07-04 15:04:36.395","","","","","",""
"casino-keyboard-response","30","237117","0.0-16.0-0.8","249","false","img/card_backs/set1/yellow.gif","img/card_backs/set1/purple.gif","img/card_backs/set1/red.gif","img/card_backs/set1/green.gif","img/card_backs/set2/orange.gif","img/card_backs/set2/blue.gif","img/card_backs/set2/gray.gif","img/card_backs/set2/pink.gif","""event"",""trial"",""time""
""fullscreenenter"",""1"",""15676""
","
","
","""event"",""trial"",""time""
""fullscreenenter"",""1"",""15676""
","
","","8578.745000006165","At the end of the game, you will be paid bonus money based on how many tokens you win. </br> If you win more tokens, you will earn more money!","72","","instructions","2021-07-04 15:04:44.980","","","","","",""
"casino-keyboard-response","31","247547","0.0-16.0-0.9","249","false","img/card_backs/set1/yellow.gif","img/card_backs/set1/purple.gif","img/card_backs/set1/red.gif","img/card_backs/set1/green.gif","img/card_backs/set2/orange.gif","img/card_backs/set2/blue.gif","img/card_backs/set2/gray.gif","img/card_backs/set2/pink.gif","""event"",""trial"",""time""
""fullscreenenter"",""1"",""15676""
","
","
","""event"",""trial"",""time""
""fullscreenenter"",""1"",""15676""
","
","","10425.159999984317","You will never <b> lose </b> money. </br> If you end up with fewer than 0 tokens, you will earn $0 of bonus money, but you will still be paid for playing the game.","83","","instructions","2021-07-04 15:04:55.410","","","","","",""
"casino-keyboard-response","32","252103","0.0-16.0-0.10","249","false","img/card_backs/set1/yellow.gif","img/card_backs/set1/purple.gif","img/card_backs/set1/red.gif","img/card_backs/set1/green.gif","img/card_backs/set2/orange.gif","img/card_backs/set2/blue.gif","img/card_backs/set2/gray.gif","img/card_backs/set2/pink.gif","""event"",""trial"",""time""
""fullscreenenter"",""1"",""15676""
","
","
","""event"",""trial"",""time""
""fullscreenenter"",""1"",""15676""
","
","","4550.465000007534","You will have 10 seconds to make each choice.","82","","instructions","2021-07-04 15:04:59.966","","","","","",""
"casino-keyboard-response","33","261066","0.0-16.0-0.11","249","false","img/card_backs/set1/yellow.gif","img/card_backs/set1/purple.gif","img/card_backs/set1/red.gif","img/card_backs/set1/green.gif","img/card_backs/set2/orange.gif","img/card_backs/set2/blue.gif","img/card_backs/set2/gray.gif","img/card_backs/set2/pink.gif","""event"",""trial"",""time""
""fullscreenenter"",""1"",""15676""
","
","
","""event"",""trial"",""time""
""fullscreenenter"",""1"",""15676""
","
","","8931.080000009388","Before you play the game for real, you will play with practice decks. </br> The tokens you earn during practice won't count toward your total.","86","","instructions","2021-07-04 15:05:08.930","","","","","",""
"casino-keyboard-response","34","266444","0.0-16.0-0.12","249","false","img/card_backs/set1/yellow.gif","img/card_backs/set1/purple.gif","img/card_backs/set1/red.gif","img/card_backs/set1/green.gif","img/card_backs/set2/orange.gif","img/card_backs/set2/blue.gif","img/card_backs/set2/gray.gif","img/card_backs/set2/pink.gif","""event"",""trial"",""time""
""fullscreenenter"",""1"",""15676""
","
","
","""event"",""trial"",""time""
""fullscreenenter"",""1"",""15676""
","
","","5371.435000008205","Ready? Remember, use the '2', '4', '6', and '8' keys to select the decks. </br> Put your fingers on those keys now and then press '2' to begin.","50","","instructions","2021-07-04 15:05:14.307","","","","","",""
"casino-fixation","35","266949","0.0-17.0-0.0","249","false","img/card_backs/set1/yellow.gif","img/card_backs/set1/purple.gif","img/card_backs/set1/red.gif","img/card_backs/set1/green.gif","img/card_backs/set2/orange.gif","img/card_backs/set2/blue.gif","img/card_backs/set2/gray.gif","img/card_backs/set2/pink.gif","""event"",""trial"",""time""
""fullscreenenter"",""1"",""15676""
","
","
","""event"",""trial"",""time""
""fullscreenenter"",""1"",""15676""
","
","","null","","null","","fixation","2021-07-04 15:05:14.813","","","","","",""
"card-selection-trial","36","271461","0.0-17.0-1.0","249","false","img/card_backs/set1/yellow.gif","img/card_backs/set1/purple.gif","img/card_backs/set1/red.gif","img/card_backs/set1/green.gif","img/card_backs/set2/orange.gif","img/card_backs/set2/blue.gif","img/card_backs/set2/gray.gif","img/card_backs/set2/pink.gif","""event"",""trial"",""time""
""fullscreenenter"",""1"",""15676""
","
","
","""event"",""trial"",""time""
""fullscreenenter"",""1"",""15676""
","
","","2473.0799999961164","","","","practice","2021-07-04 15:05:19.325","img/practice_cards/backs/dark_green.gif","1","-200","0","",""
"casino-fixation","37","271972","0.0-17.0-0.1","249","false","img/card_backs/set1/yellow.gif","img/card_backs/set1/purple.gif","img/card_backs/set1/red.gif","img/card_backs/set1/green.gif","img/card_backs/set2/orange.gif","img/card_backs/set2/blue.gif","img/card_backs/set2/gray.gif","img/card_backs/set2/pink.gif","""event"",""trial"",""time""
""fullscreenenter"",""1"",""15676""
","
","
","""event"",""trial"",""time""
""fullscreenenter"",""1"",""15676""
","
","","null","","null","","fixation","2021-07-04 15:05:19.835","","","","","",""
"card-selection-trial","38","276899","0.0-17.0-1.1","249","false","img/card_backs/set1/yellow.gif","img/card_backs/set1/purple.gif","img/card_backs/set1/red.gif","img/card_backs/set1/green.gif","img/card_backs/set2/orange.gif","img/card_backs/set2/blue.gif","img/card_backs/set2/gray.gif","img/card_backs/set2/pink.gif","""event"",""trial"",""time""
""fullscreenenter"",""1"",""15676""
","
","
","""event"",""trial"",""time""
""fullscreenenter"",""1"",""15676""
","
","","2893.645000003744","","","","practice","2021-07-04 15:05:24.763","img/practice_cards/backs/black.gif","2","-100","0","",""
"casino-fixation","39","277405","0.0-17.0-0.2","249","false","img/card_backs/set1/yellow.gif","img/card_backs/set1/purple.gif","img/card_backs/set1/red.gif","img/card_backs/set1/green.gif","img/card_backs/set2/orange.gif","img/card_backs/set2/blue.gif","img/card_backs/set2/gray.gif","img/card_backs/set2/pink.gif","""event"",""trial"",""time""
""fullscreenenter"",""1"",""15676""
","
","
","""event"",""trial"",""time""
""fullscreenenter"",""1"",""15676""
","
","","null","","null","","fixation","2021-07-04 15:05:25.269","","","","","",""
"card-selection-trial","40","280654","0.0-17.0-1.2","249","false","img/card_backs/set1/yellow.gif","img/card_backs/set1/purple.gif","img/card_backs/set1/red.gif","img/card_backs/set1/green.gif","img/card_backs/set2/orange.gif","img/card_backs/set2/blue.gif","img/card_backs/set2/gray.gif","img/card_backs/set2/pink.gif","""event"",""trial"",""time""
""fullscreenenter"",""1"",""15676""
","
","
","""event"",""trial"",""time""
""fullscreenenter"",""1"",""15676""
","
","","1228.4599999838974","","","","practice","2021-07-04 15:05:28.519","img/practice_cards/backs/dark_blue.gif","2","-200","0","",""
"casino-fixation","41","281160","0.0-17.0-0.3","249","false","img/card_backs/set1/yellow.gif","img/card_backs/set1/purple.gif","img/card_backs/set1/red.gif","img/card_backs/set1/green.gif","img/card_backs/set2/orange.gif","img/card_backs/set2/blue.gif","img/card_backs/set2/gray.gif","img/card_backs/set2/pink.gif","""event"",""trial"",""time""
""fullscreenenter"",""1"",""15676""
","
","
","""event"",""trial"",""time""
""fullscreenenter"",""1"",""15676""
","
","","null","","null","","fixation","2021-07-04 15:05:29.023","","","","","",""
"card-selection-trial","42","284253","0.0-17.0-1.3","249","false","img/card_backs/set1/yellow.gif","img/card_backs/set1/purple.gif","img/card_backs/set1/red.gif","img/card_backs/set1/green.gif","img/card_backs/set2/orange.gif","img/card_backs/set2/blue.gif","img/card_backs/set2/gray.gif","img/card_backs/set2/pink.gif","""event"",""trial"",""time""
""fullscreenenter"",""1"",""15676""
","
","
","""event"",""trial"",""time""
""fullscreenenter"",""1"",""15676""
","
","","1077.2649999998976","","","","practice","2021-07-04 15:05:32.116","img/practice_cards/backs/brown.gif","2","100","0","",""
"casino-fixation","43","284759","0.0-17.0-0.4","249","false","img/card_backs/set1/yellow.gif","img/card_backs/set1/purple.gif","img/card_backs/set1/red.gif","img/card_backs/set1/green.gif","img/card_backs/set2/orange.gif","img/card_backs/set2/blue.gif","img/card_backs/set2/gray.gif","img/card_backs/set2/pink.gif","""event"",""trial"",""time""
""fullscreenenter"",""1"",""15676""
","
","
","""event"",""trial"",""time""
""fullscreenenter"",""1"",""15676""
","
","","null","","null","","fixation","2021-07-04 15:05:32.622","","","","","",""
"card-selection-trial","44","287780","0.0-17.0-1.4","249","false","img/card_backs/set1/yellow.gif","img/card_backs/set1/purple.gif","img/card_backs/set1/red.gif","img/card_backs/set1/green.gif","img/card_backs/set2/orange.gif","img/card_backs/set2/blue.gif","img/card_backs/set2/gray.gif","img/card_backs/set2/pink.gif","""event"",""trial"",""time""
""fullscreenenter"",""1"",""15676""
","
","
","""event"",""trial"",""time""
""fullscreenenter"",""1"",""15676""
","
","","1000.4449999833014","","","","practice","2021-07-04 15:05:35.643","img/practice_cards/backs/black.gif","2","100","0","",""
"casino-fixation","45","288286","0.0-17.0-0.5","249","false","img/card_backs/set1/yellow.gif","img/card_backs/set1/purple.gif","img/card_backs/set1/red.gif","img/card_backs/set1/green.gif","img/card_backs/set2/orange.gif","img/card_backs/set2/blue.gif","img/card_backs/set2/gray.gif","img/card_backs/set2/pink.gif","""event"",""trial"",""time""
""fullscreenenter"",""1"",""15676""
","
","
","""event"",""trial"",""time""
""fullscreenenter"",""1"",""15676""
","
","","null","","null","","fixation","2021-07-04 15:05:36.150","","","","","",""
"card-selection-trial","46","291173","0.0-17.0-1.5","249","false","img/card_backs/set1/yellow.gif","img/card_backs/set1/purple.gif","img/card_backs/set1/red.gif","img/card_backs/set1/green.gif","img/card_backs/set2/orange.gif","img/card_backs/set2/blue.gif","img/card_backs/set2/gray.gif","img/card_backs/set2/pink.gif","""event"",""trial"",""time""
""fullscreenenter"",""1"",""15676""
","
","
","""event"",""trial"",""time""
""fullscreenenter"",""1"",""15676""
","
","","862.459999974817","","","","practice","2021-07-04 15:05:39.037","img/practice_cards/backs/dark_blue.gif","2","200","0","",""
"casino-fixation","47","291683","0.0-17.0-0.6","249","false","img/card_backs/set1/yellow.gif","img/card_backs/set1/purple.gif","img/card_backs/set1/red.gif","img/card_backs/set1/green.gif","img/card_backs/set2/orange.gif","img/card_backs/set2/blue.gif","img/card_backs/set2/gray.gif","img/card_backs/set2/pink.gif","""event"",""trial"",""time""
""fullscreenenter"",""1"",""15676""
","
","
","""event"",""trial"",""time""
""fullscreenenter"",""1"",""15676""
","
","","null","","null","","fixation","2021-07-04 15:05:39.547","","","","","",""
"card-selection-trial","48","294548","0.0-17.0-1.6","249","false","img/card_backs/set1/yellow.gif","img/card_backs/set1/purple.gif","img/card_backs/set1/red.gif","img/card_backs/set1/green.gif","img/card_backs/set2/orange.gif","img/card_backs/set2/blue.gif","img/card_backs/set2/gray.gif","img/card_backs/set2/pink.gif","""event"",""trial"",""time""
""fullscreenenter"",""1"",""15676""
","
","
","""event"",""trial"",""time""
""fullscreenenter"",""1"",""15676""
","
","","837.7499999769498","","","","practice","2021-07-04 15:05:42.412","img/practice_cards/backs/dark_green.gif","2","200","0","",""
"casino-fixation","49","295056","0.0-17.0-0.7","249","false","img/card_backs/set1/yellow.gif","img/card_backs/set1/purple.gif","img/card_backs/set1/red.gif","img/card_backs/set1/green.gif","img/card_backs/set2/orange.gif","img/card_backs/set2/blue.gif","img/card_backs/set2/gray.gif","img/card_backs/set2/pink.gif","""event"",""trial"",""time""
""fullscreenenter"",""1"",""15676""
","
","
","""event"",""trial"",""time""
""fullscreenenter"",""1"",""15676""
","
","","null","","null","","fixation","2021-07-04 15:05:42.920","","","","","",""
"card-selection-trial","50","297942","0.0-17.0-1.7","249","false","img/card_backs/set1/yellow.gif","img/card_backs/set1/purple.gif","img/card_backs/set1/red.gif","img/card_backs/set1/green.gif","img/card_backs/set2/orange.gif","img/card_backs/set2/blue.gif","img/card_backs/set2/gray.gif","img/card_backs/set2/pink.gif","""event"",""trial"",""time""
""fullscreenenter"",""1"",""15676""
","
","
","""event"",""trial"",""time""
""fullscreenenter"",""1"",""15676""
","
","","864.369999995688","","","","practice","2021-07-04 15:05:45.805","img/practice_cards/backs/dark_blue.gif","2","-200","0","",""
"casino-fixation","51","298446","0.0-17.0-0.8","249","false","img/card_backs/set1/yellow.gif","img/card_backs/set1/purple.gif","img/card_backs/set1/red.gif","img/card_backs/set1/green.gif","img/card_backs/set2/orange.gif","img/card_backs/set2/blue.gif","img/card_backs/set2/gray.gif","img/card_backs/set2/pink.gif","""event"",""trial"",""time""
""fullscreenenter"",""1"",""15676""
","
","
","""event"",""trial"",""time""
""fullscreenenter"",""1"",""15676""
","
","","null","","null","","fixation","2021-07-04 15:05:46.309","","","","","",""
"card-selection-trial","52","301866","0.0-17.0-1.8","249","false","img/card_backs/set1/yellow.gif","img/card_backs/set1/purple.gif","img/card_backs/set1/red.gif","img/card_backs/set1/green.gif","img/card_backs/set2/orange.gif","img/card_backs/set2/blue.gif","img/card_backs/set2/gray.gif","img/card_backs/set2/pink.gif","""event"",""trial"",""time""
""fullscreenenter"",""1"",""15676""
","
","
","""event"",""trial"",""time""
""fullscreenenter"",""1"",""15676""
","
","","1397.755000012694","","","","practice","2021-07-04 15:05:49.730","img/practice_cards/backs/dark_green.gif","3","-200","0","",""
"casino-fixation","53","302377","0.0-17.0-0.9","249","false","img/card_backs/set1/yellow.gif","img/card_backs/set1/purple.gif","img/card_backs/set1/red.gif","img/card_backs/set1/green.gif","img/card_backs/set2/orange.gif","img/card_backs/set2/blue.gif","img/card_backs/set2/gray.gif","img/card_backs/set2/pink.gif","""event"",""trial"",""time""
""fullscreenenter"",""1"",""15676""
","
","
","""event"",""trial"",""time""
""fullscreenenter"",""1"",""15676""
","
","","null","","null","","fixation","2021-07-04 15:05:50.241","","","","","",""
"card-selection-trial","54","304891","0.0-17.0-1.9","249","false","img/card_backs/set1/yellow.gif","img/card_backs/set1/purple.gif","img/card_backs/set1/red.gif","img/card_backs/set1/green.gif","img/card_backs/set2/orange.gif","img/card_backs/set2/blue.gif","img/card_backs/set2/gray.gif","img/card_backs/set2/pink.gif","""event"",""trial"",""time""
""fullscreenenter"",""1"",""15676""
","
","
","""event"",""trial"",""time""
""fullscreenenter"",""1"",""15676""
","
","","478.94000000087544","","","","practice","2021-07-04 15:05:52.754","img/practice_cards/backs/dark_blue.gif","3","-200","0","",""
"casino-keyboard-response","55","308999","0.0-18.0","249","false","img/card_backs/set1/yellow.gif","img/card_backs/set1/purple.gif","img/card_backs/set1/red.gif","img/card_backs/set1/green.gif","img/card_backs/set2/orange.gif","img/card_backs/set2/blue.gif","img/card_backs/set2/gray.gif","img/card_backs/set2/pink.gif","""event"",""trial"",""time""
""fullscreenenter"",""1"",""15676""
","
","
","""event"",""trial"",""time""
""fullscreenenter"",""1"",""15676""
","
","","4099.049999989802","You earned -500 tokens during the practice round!","82","","","2021-07-04 15:05:56.863","","","","","",""
"casino-keyboard-response","56","313742","0.0-19.0-0.0","249","false","img/card_backs/set1/yellow.gif","img/card_backs/set1/purple.gif","img/card_backs/set1/red.gif","img/card_backs/set1/green.gif","img/card_backs/set2/orange.gif","img/card_backs/set2/blue.gif","img/card_backs/set2/gray.gif","img/card_backs/set2/pink.gif","""event"",""trial"",""time""
""fullscreenenter"",""1"",""15676""
","
","
","""event"",""trial"",""time""
""fullscreenenter"",""1"",""15676""
","
","","4737.475000001723","Nice job! You are almost ready to play the real game.","86","","instructions","2021-07-04 15:06:01.605","","","","","",""
"casino-keyboard-response","57","321479","0.0-19.0-0.1","249","false","img/card_backs/set1/yellow.gif","img/card_backs/set1/purple.gif","img/card_backs/set1/red.gif","img/card_backs/set1/green.gif","img/card_backs/set2/orange.gif","img/card_backs/set2/blue.gif","img/card_backs/set2/gray.gif","img/card_backs/set2/pink.gif","""event"",""trial"",""time""
""fullscreenenter"",""1"",""15676""
","
","
","""event"",""trial"",""time""
""fullscreenenter"",""1"",""15676""
","
","","7732.120000000577","You will play two rounds of the real game. In each round, you will pick 100 cards in total.","73","","instructions","2021-07-04 15:06:09.342","","","","","",""
"casino-keyboard-response","58","326282","0.0-19.0-0.2","249","false","img/card_backs/set1/yellow.gif","img/card_backs/set1/purple.gif","img/card_backs/set1/red.gif","img/card_backs/set1/green.gif","img/card_backs/set2/orange.gif","img/card_backs/set2/blue.gif","img/card_backs/set2/gray.gif","img/card_backs/set2/pink.gif","""event"",""trial"",""time""
""fullscreenenter"",""1"",""15676""
","
","
","""event"",""trial"",""time""
""fullscreenenter"",""1"",""15676""
","
","","4794.475000002421","We are now going to ask you some questions about how the game works.","66","","instructions","2021-07-04 15:06:14.145","","","","","",""
"casino-keyboard-response","59","332576","0.0-19.0-0.3","249","false","img/card_backs/set1/yellow.gif","img/card_backs/set1/purple.gif","img/card_backs/set1/red.gif","img/card_backs/set1/green.gif","img/card_backs/set2/orange.gif","img/card_backs/set2/blue.gif","img/card_backs/set2/gray.gif","img/card_backs/set2/pink.gif","""event"",""trial"",""time""
""fullscreenenter"",""1"",""15676""
","
","
","""event"",""trial"",""time""
""fullscreenenter"",""1"",""15676""
","
","","6285.005000012461","Answer carefully. You will not be able to begin the game until you answer them correctly.","67","","instructions","2021-07-04 15:06:20.439","","","","","",""
"casino-comp_q","60","342185","0.0-20.0-0.0","249","false","img/card_backs/set1/yellow.gif","img/card_backs/set1/purple.gif","img/card_backs/set1/red.gif","img/card_backs/set1/green.gif","img/card_backs/set2/orange.gif","img/card_backs/set2/blue.gif","img/card_backs/set2/gray.gif","img/card_backs/set2/pink.gif","""event"",""trial"",""time""
""fullscreenenter"",""1"",""15676""
","
","
","""event"",""trial"",""time""
""fullscreenenter"",""1"",""15676""
","
","","9601.135000004433","True or False: All the decks have some cards that cause you to win tokens and some cards that cause you to lose tokens.","84","","","2021-07-04 15:06:30.049","","","","","",""
"casino-keyboard-response","61","345551","0.0-20.0-1.0","249","false","img/card_backs/set1/yellow.gif","img/card_backs/set1/purple.gif","img/card_backs/set1/red.gif","img/card_backs/set1/green.gif","img/card_backs/set2/orange.gif","img/card_backs/set2/blue.gif","img/card_backs/set2/gray.gif","img/card_backs/set2/pink.gif","""event"",""trial"",""time""
""fullscreenenter"",""1"",""15676""
","
","
","""event"",""trial"",""time""
""fullscreenenter"",""1"",""15676""
","
","","3359.6050000051036","True is correct! All the decks have a mix of winning and losing cards.","77","","","2021-07-04 15:06:33.415","","","","","true",""
"casino-comp_q","62","349686","0.0-21.0-0.0","249","false","img/card_backs/set1/yellow.gif","img/card_backs/set1/purple.gif","img/card_backs/set1/red.gif","img/card_backs/set1/green.gif","img/card_backs/set2/orange.gif","img/card_backs/set2/blue.gif","img/card_backs/set2/gray.gif","img/card_backs/set2/pink.gif","""event"",""trial"",""time""
""fullscreenenter"",""1"",""15676""
","
","
","""event"",""trial"",""time""
""fullscreenenter"",""1"",""15676""
","
","","4130.645000026561","True or False: You will have as much time as you want to make your response.","70","","","2021-07-04 15:06:37.550","","","","","",""
"casino-keyboard-response","63","352701","0.0-21.0-1.0","249","false","img/card_backs/set1/yellow.gif","img/card_backs/set1/purple.gif","img/card_backs/set1/red.gif","img/card_backs/set1/green.gif","img/card_backs/set2/orange.gif","img/card_backs/set2/blue.gif","img/card_backs/set2/gray.gif","img/card_backs/set2/pink.gif","""event"",""trial"",""time""
""fullscreenenter"",""1"",""15676""
","
","
","""event"",""trial"",""time""
""fullscreenenter"",""1"",""15676""
","
","","3003.5449999850243","False is correct! You will only have 10 seconds to make each choice.","75","","","2021-07-04 15:06:40.564","","","","","true",""
"casino-comp_q","64","355952","0.0-22.0-0.0","249","false","img/card_backs/set1/yellow.gif","img/card_backs/set1/purple.gif","img/card_backs/set1/red.gif","img/card_backs/set1/green.gif","img/card_backs/set2/orange.gif","img/card_backs/set2/blue.gif","img/card_backs/set2/gray.gif","img/card_backs/set2/pink.gif","""event"",""trial"",""time""
""fullscreenenter"",""1"",""15676""
","
","
","""event"",""trial"",""time""
""fullscreenenter"",""1"",""15676""
","
","","3244.4150000228547","True or False: The location of the deck determines how lucky it is.","70","","","2021-07-04 15:06:43.815","","","","","",""
"casino-keyboard-response","65","360151","0.0-22.0-1.0","249","false","img/card_backs/set1/yellow.gif","img/card_backs/set1/purple.gif","img/card_backs/set1/red.gif","img/card_backs/set1/green.gif","img/card_backs/set2/orange.gif","img/card_backs/set2/blue.gif","img/card_backs/set2/gray.gif","img/card_backs/set2/pink.gif","""event"",""trial"",""time""
""fullscreenenter"",""1"",""15676""
","
","
","""event"",""trial"",""time""
""fullscreenenter"",""1"",""15676""
","
","","4189.514999976382","False is correct! The <i>color</i>  of the deck determines how lucky or unlucky it is.","68","","","2021-07-04 15:06:48.015","","","","","true",""
"casino-keyboard-response","66","365499","0.0-23.0-0.0","249","false","img/card_backs/set1/yellow.gif","img/card_backs/set1/purple.gif","img/card_backs/set1/red.gif","img/card_backs/set1/green.gif","img/card_backs/set2/orange.gif","img/card_backs/set2/blue.gif","img/card_backs/set2/gray.gif","img/card_backs/set2/pink.gif","""event"",""trial"",""time""
""fullscreenenter"",""1"",""15676""
","
","
","""event"",""trial"",""time""
""fullscreenenter"",""1"",""15676""
","
","","5342.020000010962","Great job! Now it's time to start the real game.","82","","instructions","2021-07-04 15:06:53.362","","","","","",""
"casino-keyboard-response","67","370792","0.0-23.0-0.1","249","false","img/card_backs/set1/yellow.gif","img/card_backs/set1/purple.gif","img/card_backs/set1/red.gif","img/card_backs/set1/green.gif","img/card_backs/set2/orange.gif","img/card_backs/set2/blue.gif","img/card_backs/set2/gray.gif","img/card_backs/set2/pink.gif","""event"",""trial"",""time""
""fullscreenenter"",""1"",""15676""
","
","
","""event"",""trial"",""time""
""fullscreenenter"",""1"",""15676""
","
","","5289.245000021765","Before we start, we're going to head into a new room of the casino.","86","","instructions","2021-07-04 15:06:58.655","","","","","",""
"casino-keyboard-response","68","377223","0.0-24.0-0.0","249","false","img/card_backs/set1/yellow.gif","img/card_backs/set1/purple.gif","img/card_backs/set1/red.gif","img/card_backs/set1/green.gif","img/card_backs/set2/orange.gif","img/card_backs/set2/blue.gif","img/card_backs/set2/gray.gif","img/card_backs/set2/pink.gif","""event"",""trial"",""time""
""fullscreenenter"",""1"",""15676""
","
","
","""event"",""trial"",""time""
""fullscreenenter"",""1"",""15676""
","
","","6425.98500000895","Here we are! The real game will use different cards, but the rules will be the same.","71","","instructions","2021-07-04 15:07:05.086","","","","","",""
"casino-keyboard-response","69","386957","0.0-24.0-0.1","249","false","img/card_backs/set1/yellow.gif","img/card_backs/set1/purple.gif","img/card_backs/set1/red.gif","img/card_backs/set1/green.gif","img/card_backs/set2/orange.gif","img/card_backs/set2/blue.gif","img/card_backs/set2/gray.gif","img/card_backs/set2/pink.gif","""event"",""trial"",""time""
""fullscreenenter"",""1"",""15676""
","
","
","""event"",""trial"",""time""
""fullscreenenter"",""1"",""15676""
","
","","9726.880000001984","Ready? Put your fingers over the '2', '4', 6', and '8' keys so you are ready to play the game. </br> Then press 2 to start.","50","","instructions","2021-07-04 15:07:14.821","","","","","",""
"casino-fixation","70","387465","0.0-25.0-0.0","249","false","img/card_backs/set1/yellow.gif","img/card_backs/set1/purple.gif","img/card_backs/set1/red.gif","img/card_backs/set1/green.gif","img/card_backs/set2/orange.gif","img/card_backs/set2/blue.gif","img/card_backs/set2/gray.gif","img/card_backs/set2/pink.gif","""event"",""trial"",""time""
""fullscreenenter"",""1"",""15676""
","
","
","""event"",""trial"",""time""
""fullscreenenter"",""1"",""15676""
","
","","null","","null","","fixation","2021-07-04 15:07:15.328","","","","","",""
"card-selection-trial","71","391152","0.0-25.0-1.0","249","false","img/card_backs/set1/yellow.gif","img/card_backs/set1/purple.gif","img/card_backs/set1/red.gif","img/card_backs/set1/green.gif","img/card_backs/set2/orange.gif","img/card_backs/set2/blue.gif","img/card_backs/set2/gray.gif","img/card_backs/set2/pink.gif","""event"",""trial"",""time""
""fullscreenenter"",""1"",""15676""
","
","
","""event"",""trial"",""time""
""fullscreenenter"",""1"",""15676""
","
","","1664.2999999749009","","","","real_trial","2021-07-04 15:07:19.016","img/card_backs/set1/green.gif","1","-50","1","",""
"casino-fixation","72","391662","0.0-25.0-0.1","249","false","img/card_backs/set1/yellow.gif","img/card_backs/set1/purple.gif","img/card_backs/set1/red.gif","img/card_backs/set1/green.gif","img/card_backs/set2/orange.gif","img/card_backs/set2/blue.gif","img/card_backs/set2/gray.gif","img/card_backs/set2/pink.gif","""event"",""trial"",""time""
""fullscreenenter"",""1"",""15676""
","
","
","""event"",""trial"",""time""
""fullscreenenter"",""1"",""15676""
","
","","null","","null","","fixation","2021-07-04 15:07:19.526","","","","","",""
"card-selection-trial","73","394295","0.0-25.0-1.1","249","false","img/card_backs/set1/yellow.gif","img/card_backs/set1/purple.gif","img/card_backs/set1/red.gif","img/card_backs/set1/green.gif","img/card_backs/set2/orange.gif","img/card_backs/set2/blue.gif","img/card_backs/set2/gray.gif","img/card_backs/set2/pink.gif","""event"",""trial"",""time""
""fullscreenenter"",""1"",""15676""
","
","
","""event"",""trial"",""time""
""fullscreenenter"",""1"",""15676""
","
","","611.7999999842141","","","","real_trial","2021-07-04 15:07:22.159","img/card_backs/set1/yellow.gif","1","190","1","",""
"casino-fixation","74","394803","0.0-25.0-0.2","249","false","img/card_backs/set1/yellow.gif","img/card_backs/set1/purple.gif","img/card_backs/set1/red.gif","img/card_backs/set1/green.gif","img/card_backs/set2/orange.gif","img/card_backs/set2/blue.gif","img/card_backs/set2/gray.gif","img/card_backs/set2/pink.gif","""event"",""trial"",""time""
""fullscreenenter"",""1"",""15676""
","
","
","""event"",""trial"",""time""
""fullscreenenter"",""1"",""15676""
","
","","null","","null","","fixation","2021-07-04 15:07:22.666","","","","","",""
"card-selection-trial","75","397433","0.0-25.0-1.2","249","false","img/card_backs/set1/yellow.gif","img/card_backs/set1/purple.gif","img/card_backs/set1/red.gif","img/card_backs/set1/green.gif","img/card_backs/set2/orange.gif","img/card_backs/set2/blue.gif","img/card_backs/set2/gray.gif","img/card_backs/set2/pink.gif","""event"",""trial"",""time""
""fullscreenenter"",""1"",""15676""
","
","
","""event"",""trial"",""time""
""fullscreenenter"",""1"",""15676""
","
","","611.1200000159442","","","","real_trial","2021-07-04 15:07:25.296","img/card_backs/set1/yellow.gif","1","-230","1","",""
"casino-fixation","76","397939","0.0-25.0-0.3","249","false","img/card_backs/set1/yellow.gif","img/card_backs/set1/purple.gif","img/card_backs/set1/red.gif","img/card_backs/set1/green.gif","img/card_backs/set2/orange.gif","img/card_backs/set2/blue.gif","img/card_backs/set2/gray.gif","img/card_backs/set2/pink.gif","""event"",""trial"",""time""
""fullscreenenter"",""1"",""15676""
","
","
","""event"",""trial"",""time""
""fullscreenenter"",""1"",""15676""
","
","","null","","null","","fixation","2021-07-04 15:07:25.802","","","","","",""
"card-selection-trial","77","400373","0.0-25.0-1.3","249","false","img/card_backs/set1/yellow.gif","img/card_backs/set1/purple.gif","img/card_backs/set1/red.gif","img/card_backs/set1/green.gif","img/card_backs/set2/orange.gif","img/card_backs/set2/blue.gif","img/card_backs/set2/gray.gif","img/card_backs/set2/pink.gif","""event"",""trial"",""time""
""fullscreenenter"",""1"",""15676""
","
","
","""event"",""trial"",""time""
""fullscreenenter"",""1"",""15676""
","
","","413.4100000082981","","","","real_trial","2021-07-04 15:07:28.237","img/card_backs/set1/yellow.gif","1","-250","1","",""
"casino-fixation","78","400881","0.0-25.0-0.4","249","false","img/card_backs/set1/yellow.gif","img/card_backs/set1/purple.gif","img/card_backs/set1/red.gif","img/card_backs/set1/green.gif","img/card_backs/set2/orange.gif","img/card_backs/set2/blue.gif","img/card_backs/set2/gray.gif","img/card_backs/set2/pink.gif","""event"",""trial"",""time""
""fullscreenenter"",""1"",""15676""
","
","
","""event"",""trial"",""time""
""fullscreenenter"",""1"",""15676""
","
","","null","","null","","fixation","2021-07-04 15:07:28.744","","","","","",""
"card-selection-trial","79","403376","0.0-25.0-1.4","249","false","img/card_backs/set1/yellow.gif","img/card_backs/set1/purple.gif","img/card_backs/set1/red.gif","img/card_backs/set1/green.gif","img/card_backs/set2/orange.gif","img/card_backs/set2/blue.gif","img/card_backs/set2/gray.gif","img/card_backs/set2/pink.gif","""event"",""trial"",""time""
""fullscreenenter"",""1"",""15676""
","
","
","""event"",""trial"",""time""
""fullscreenenter"",""1"",""15676""
","
","","473.09499999391846","","","","real_trial","2021-07-04 15:07:31.239","img/card_backs/set1/purple.gif","1","-250","1","",""
"casino-fixation","80","403883","0.0-25.0-0.5","249","false","img/card_backs/set1/yellow.gif","img/card_backs/set1/purple.gif","img/card_backs/set1/red.gif","img/card_backs/set1/green.gif","img/card_backs/set2/orange.gif","img/card_backs/set2/blue.gif","img/card_backs/set2/gray.gif","img/card_backs/set2/pink.gif","""event"",""trial"",""time""
""fullscreenenter"",""1"",""15676""
","
","
","""event"",""trial"",""time""
""fullscreenenter"",""1"",""15676""
","
","","null","","null","","fixation","2021-07-04 15:07:31.747","","","","","",""
"card-selection-trial","81","406318","0.0-25.0-1.5","249","false","img/card_backs/set1/yellow.gif","img/card_backs/set1/purple.gif","img/card_backs/set1/red.gif","img/card_backs/set1/green.gif","img/card_backs/set2/orange.gif","img/card_backs/set2/blue.gif","img/card_backs/set2/gray.gif","img/card_backs/set2/pink.gif","""event"",""trial"",""time""
""fullscreenenter"",""1"",""15676""
","
","
","""event"",""trial"",""time""
""fullscreenenter"",""1"",""15676""
","
","","409.2450000171084","","","","real_trial","2021-07-04 15:07:34.181","img/card_backs/set1/purple.gif","2","180","1","",""
"casino-fixation","82","406824","0.0-25.0-0.6","249","false","img/card_backs/set1/yellow.gif","img/card_backs/set1/purple.gif","img/card_backs/set1/red.gif","img/card_backs/set1/green.gif","img/card_backs/set2/orange.gif","img/card_backs/set2/blue.gif","img/card_backs/set2/gray.gif","img/card_backs/set2/pink.gif","""event"",""trial"",""time""
""fullscreenenter"",""1"",""15676""
","
","
","""event"",""trial"",""time""
""fullscreenenter"",""1"",""15676""
","
","","null","","null","","fixation","2021-07-04 15:07:34.687","","","","","",""
"card-selection-trial","83","409445","0.0-25.0-1.6","249","false","img/card_backs/set1/yellow.gif","img/card_backs/set1/purple.gif","img/card_backs/set1/red.gif","img/card_backs/set1/green.gif","img/card_backs/set2/orange.gif","img/card_backs/set2/blue.gif","img/card_backs/set2/gray.gif","img/card_backs/set2/pink.gif","""event"",""trial"",""time""
""fullscreenenter"",""1"",""15676""
","
","
","""event"",""trial"",""time""
""fullscreenenter"",""1"",""15676""
","
","","601.0200000018813","","","","real_trial","2021-07-04 15:07:37.309","img/card_backs/set1/red.gif","2","-60","1","",""
"casino-fixation","84","409954","0.0-25.0-0.7","249","false","img/card_backs/set1/yellow.gif","img/card_backs/set1/purple.gif","img/card_backs/set1/red.gif","img/card_backs/set1/green.gif","img/card_backs/set2/orange.gif","img/card_backs/set2/blue.gif","img/card_backs/set2/gray.gif","img/card_backs/set2/pink.gif","""event"",""trial"",""time""
""fullscreenenter"",""1"",""15676""
","
","
","""event"",""trial"",""time""
""fullscreenenter"",""1"",""15676""
","
","","null","","null","","fixation","2021-07-04 15:07:37.817","","","","","",""
"card-selection-trial","85","412417","0.0-25.0-1.7","249","false","img/card_backs/set1/yellow.gif","img/card_backs/set1/purple.gif","img/card_backs/set1/red.gif","img/card_backs/set1/green.gif","img/card_backs/set2/orange.gif","img/card_backs/set2/blue.gif","img/card_backs/set2/gray.gif","img/card_backs/set2/pink.gif","""event"",""trial"",""time""
""fullscreenenter"",""1"",""15676""
","
","
","""event"",""trial"",""time""
""fullscreenenter"",""1"",""15676""
","
","","437.4249999818858","","","","real_trial","2021-07-04 15:07:40.280","img/card_backs/set1/red.gif","2","110","1","",""
"casino-fixation","86","412924","0.0-25.0-0.8","249","false","img/card_backs/set1/yellow.gif","img/card_backs/set1/purple.gif","img/card_backs/set1/red.gif","img/card_backs/set1/green.gif","img/card_backs/set2/orange.gif","img/card_backs/set2/blue.gif","img/card_backs/set2/gray.gif","img/card_backs/set2/pink.gif","""event"",""trial"",""time""
""fullscreenenter"",""1"",""15676""
","
","
","""event"",""trial"",""time""
""fullscreenenter"",""1"",""15676""
","
","","null","","null","","fixation","2021-07-04 15:07:40.787","","","","","",""
"card-selection-trial","87","415012","0.0-25.0-1.8","249","false","img/card_backs/set1/yellow.gif","img/card_backs/set1/purple.gif","img/card_backs/set1/red.gif","img/card_backs/set1/green.gif","img/card_backs/set2/orange.gif","img/card_backs/set2/blue.gif","img/card_backs/set2/gray.gif","img/card_backs/set2/pink.gif","""event"",""trial"",""time""
""fullscreenenter"",""1"",""15676""
","
","
","""event"",""trial"",""time""
""fullscreenenter"",""1"",""15676""
","
","","67.55000000703149","","","","real_trial","2021-07-04 15:07:42.875","img/card_backs/set1/green.gif","2","100","1","",""
"casino-fixation","88","415516","0.0-25.0-0.9","249","false","img/card_backs/set1/yellow.gif","img/card_backs/set1/purple.gif","img/card_backs/set1/red.gif","img/card_backs/set1/green.gif","img/card_backs/set2/orange.gif","img/card_backs/set2/blue.gif","img/card_backs/set2/gray.gif","img/card_backs/set2/pink.gif","""event"",""trial"",""time""
""fullscreenenter"",""1"",""15676""
","
","
","""event"",""trial"",""time""
""fullscreenenter"",""1"",""15676""
","
","","null","","null","","fixation","2021-07-04 15:07:43.379","","","","","",""
"card-selection-trial","89","418245","0.0-25.0-1.9","249","false","img/card_backs/set1/yellow.gif","img/card_backs/set1/purple.gif","img/card_backs/set1/red.gif","img/card_backs/set1/green.gif","img/card_backs/set2/orange.gif","img/card_backs/set2/blue.gif","img/card_backs/set2/gray.gif","img/card_backs/set2/pink.gif","""event"",""trial"",""time""
""fullscreenenter"",""1"",""15676""
","
","
","""event"",""trial"",""time""
""fullscreenenter"",""1"",""15676""
","
","","709.7000000067055","","","","real_trial","2021-07-04 15:07:46.109","img/card_backs/set1/green.gif","2","-60","1","",""
"casino-fixation","90","418749","0.0-25.0-0.10","249","false","img/card_backs/set1/yellow.gif","img/card_backs/set1/purple.gif","img/card_backs/set1/red.gif","img/card_backs/set1/green.gif","img/card_backs/set2/orange.gif","img/card_backs/set2/blue.gif","img/card_backs/set2/gray.gif","img/card_backs/set2/pink.gif","""event"",""trial"",""time""
""fullscreenenter"",""1"",""15676""
","
","
","""event"",""trial"",""time""
""fullscreenenter"",""1"",""15676""
","
","","null","","null","","fixation","2021-07-04 15:07:46.612","","","","","",""
"card-selection-trial","91","421337","0.0-25.0-1.10","249","false","img/card_backs/set1/yellow.gif","img/card_backs/set1/purple.gif","img/card_backs/set1/red.gif","img/card_backs/set1/green.gif","img/card_backs/set2/orange.gif","img/card_backs/set2/blue.gif","img/card_backs/set2/gray.gif","img/card_backs/set2/pink.gif","""event"",""trial"",""time""
""fullscreenenter"",""1"",""15676""
","
","
","""event"",""trial"",""time""
""fullscreenenter"",""1"",""15676""
","
","","565.8600000024308","","","","real_trial","2021-07-04 15:07:49.201","img/card_backs/set1/yellow.gif","2","180","1","",""
"casino-fixation","92","421849","0.0-25.0-0.11","249","false","img/card_backs/set1/yellow.gif","img/card_backs/set1/purple.gif","img/card_backs/set1/red.gif","img/card_backs/set1/green.gif","img/card_backs/set2/orange.gif","img/card_backs/set2/blue.gif","img/card_backs/set2/gray.gif","img/card_backs/set2/pink.gif","""event"",""trial"",""time""
""fullscreenenter"",""1"",""15676""
","
","
","""event"",""trial"",""time""
""fullscreenenter"",""1"",""15676""
","
","","null","","null","","fixation","2021-07-04 15:07:49.712","","","","","",""
"card-selection-trial","93","423971","0.0-25.0-1.11","249","false","img/card_backs/set1/yellow.gif","img/card_backs/set1/purple.gif","img/card_backs/set1/red.gif","img/card_backs/set1/green.gif","img/card_backs/set2/orange.gif","img/card_backs/set2/blue.gif","img/card_backs/set2/gray.gif","img/card_backs/set2/pink.gif","""event"",""trial"",""time""
""fullscreenenter"",""1"",""15676""
","
","
","""event"",""trial"",""time""
""fullscreenenter"",""1"",""15676""
","
","","101.18499997770414","","","","real_trial","2021-07-04 15:07:51.834","img/card_backs/set1/yellow.gif","2","-230","1","",""
"casino-fixation","94","424476","0.0-25.0-0.12","249","false","img/card_backs/set1/yellow.gif","img/card_backs/set1/purple.gif","img/card_backs/set1/red.gif","img/card_backs/set1/green.gif","img/card_backs/set2/orange.gif","img/card_backs/set2/blue.gif","img/card_backs/set2/gray.gif","img/card_backs/set2/pink.gif","""event"",""trial"",""time""
""fullscreenenter"",""1"",""15676""
","
","
","""event"",""trial"",""time""
""fullscreenenter"",""1"",""15676""
","
","","null","","null","","fixation","2021-07-04 15:07:52.340","","","","","",""
"card-selection-trial","95","426704","0.0-25.0-1.12","249","false","img/card_backs/set1/yellow.gif","img/card_backs/set1/purple.gif","img/card_backs/set1/red.gif","img/card_backs/set1/green.gif","img/card_backs/set2/orange.gif","img/card_backs/set2/blue.gif","img/card_backs/set2/gray.gif","img/card_backs/set2/pink.gif","""event"",""trial"",""time""
""fullscreenenter"",""1"",""15676""
","
","
","""event"",""trial"",""time""
""fullscreenenter"",""1"",""15676""
","
","","204.34500000556","","","","real_trial","2021-07-04 15:07:54.567","img/card_backs/set1/red.gif","2","-70","1","",""
"casino-fixation","96","427209","0.0-25.0-0.13","249","false","img/card_backs/set1/yellow.gif","img/card_backs/set1/purple.gif","img/card_backs/set1/red.gif","img/card_backs/set1/green.gif","img/card_backs/set2/orange.gif","img/card_backs/set2/blue.gif","img/card_backs/set2/gray.gif","img/card_backs/set2/pink.gif","""event"",""trial"",""time""
""fullscreenenter"",""1"",""15676""
","
","
","""event"",""trial"",""time""
""fullscreenenter"",""1"",""15676""
","
","","null","","null","","fixation","2021-07-04 15:07:55.072","","","","","",""
"card-selection-trial","97","429706","0.0-25.0-1.13","249","false","img/card_backs/set1/yellow.gif","img/card_backs/set1/purple.gif","img/card_backs/set1/red.gif","img/card_backs/set1/green.gif","img/card_backs/set2/orange.gif","img/card_backs/set2/blue.gif","img/card_backs/set2/gray.gif","img/card_backs/set2/pink.gif","""event"",""trial"",""time""
""fullscreenenter"",""1"",""15676""
","
","
","""event"",""trial"",""time""
""fullscreenenter"",""1"",""15676""
","
","","478.449999995064","","","","real_trial","2021-07-04 15:07:57.570","img/card_backs/set1/green.gif","2","-50","1","",""
"casino-fixation","98","430210","0.0-25.0-0.14","249","false","img/card_backs/set1/yellow.gif","img/card_backs/set1/purple.gif","img/card_backs/set1/red.gif","img/card_backs/set1/green.gif","img/card_backs/set2/orange.gif","img/card_backs/set2/blue.gif","img/card_backs/set2/gray.gif","img/card_backs/set2/pink.gif","""event"",""trial"",""time""
""fullscreenenter"",""1"",""15676""
","
","
","""event"",""trial"",""time""
""fullscreenenter"",""1"",""15676""
","
","","null","","null","","fixation","2021-07-04 15:07:58.074","","","","","",""
"card-selection-trial","99","432647","0.0-25.0-1.14","249","false","img/card_backs/set1/yellow.gif","img/card_backs/set1/purple.gif","img/card_backs/set1/red.gif","img/card_backs/set1/green.gif","img/card_backs/set2/orange.gif","img/card_backs/set2/blue.gif","img/card_backs/set2/gray.gif","img/card_backs/set2/pink.gif","""event"",""trial"",""time""
""fullscreenenter"",""1"",""15676""
","
","
","""event"",""trial"",""time""
""fullscreenenter"",""1"",""15676""
","
","","416.1550000135321","","","","real_trial","2021-07-04 15:08:00.511","img/card_backs/set1/purple.gif","2","-230","1","",""
"casino-fixation","100","433155","0.0-25.0-0.15","249","false","img/card_backs/set1/yellow.gif","img/card_backs/set1/purple.gif","img/card_backs/set1/red.gif","img/card_backs/set1/green.gif","img/card_backs/set2/orange.gif","img/card_backs/set2/blue.gif","img/card_backs/set2/gray.gif","img/card_backs/set2/pink.gif","""event"",""trial"",""time""
""fullscreenenter"",""1"",""15676""
","
","
","""event"",""trial"",""time""
""fullscreenenter"",""1"",""15676""
","
","","null","","null","","fixation","2021-07-04 15:08:01.018","","","","","",""
"card-selection-trial","101","435548","0.0-25.0-1.15","249","false","img/card_backs/set1/yellow.gif","img/card_backs/set1/purple.gif","img/card_backs/set1/red.gif","img/card_backs/set1/green.gif","img/card_backs/set2/orange.gif","img/card_backs/set2/blue.gif","img/card_backs/set2/gray.gif","img/card_backs/set2/pink.gif","""event"",""trial"",""time""
""fullscreenenter"",""1"",""15676""
","
","
","""event"",""trial"",""time""
""fullscreenenter"",""1"",""15676""
","
","","374.2550000024494","","","","real_trial","2021-07-04 15:08:03.411","img/card_backs/set1/yellow.gif","2","-230","1","",""
"casino-fixation","102","436051","0.0-25.0-0.16","249","false","img/card_backs/set1/yellow.gif","img/card_backs/set1/purple.gif","img/card_backs/set1/red.gif","img/card_backs/set1/green.gif","img/card_backs/set2/orange.gif","img/card_backs/set2/blue.gif","img/card_backs/set2/gray.gif","img/card_backs/set2/pink.gif","""event"",""trial"",""time""
""fullscreenenter"",""1"",""15676""
","
","
","""event"",""trial"",""time""
""fullscreenenter"",""1"",""15676""
","
","","null","","null","","fixation","2021-07-04 15:08:03.914","","","","","",""
"card-selection-trial","103","438409","0.0-25.0-1.16","249","false","img/card_backs/set1/yellow.gif","img/card_backs/set1/purple.gif","img/card_backs/set1/red.gif","img/card_backs/set1/green.gif","img/card_backs/set2/orange.gif","img/card_backs/set2/blue.gif","img/card_backs/set2/gray.gif","img/card_backs/set2/pink.gif","""event"",""trial"",""time""
""fullscreenenter"",""1"",""15676""
","
","
","""event"",""trial"",""time""
""fullscreenenter"",""1"",""15676""
","
","","341.38500000699423","","","","real_trial","2021-07-04 15:08:06.272","img/card_backs/set1/yellow.gif","3","190","1","",""
"casino-fixation","104","438919","0.0-25.0-0.17","249","false","img/card_backs/set1/yellow.gif","img/card_backs/set1/purple.gif","img/card_backs/set1/red.gif","img/card_backs/set1/green.gif","img/card_backs/set2/orange.gif","img/card_backs/set2/blue.gif","img/card_backs/set2/gray.gif","img/card_backs/set2/pink.gif","""event"",""trial"",""time""
""fullscreenenter"",""1"",""15676""
","
","
","""event"",""trial"",""time""
""fullscreenenter"",""1"",""15676""
","
","","null","","null","","fixation","2021-07-04 15:08:06.783","","","","","",""
"card-selection-trial","105","441288","0.0-25.0-1.17","249","false","img/card_backs/set1/yellow.gif","img/card_backs/set1/purple.gif","img/card_backs/set1/red.gif","img/card_backs/set1/green.gif","img/card_backs/set2/orange.gif","img/card_backs/set2/blue.gif","img/card_backs/set2/gray.gif","img/card_backs/set2/pink.gif","""event"",""trial"",""time""
""fullscreenenter"",""1"",""15676""
","
","
","""event"",""trial"",""time""
""fullscreenenter"",""1"",""15676""
","
","","346.3550000160467","","","","real_trial","2021-07-04 15:08:09.151","img/card_backs/set1/green.gif","3","-70","1","",""
"casino-fixation","106","441793","0.0-25.0-0.18","249","false","img/card_backs/set1/yellow.gif","img/card_backs/set1/purple.gif","img/card_backs/set1/red.gif","img/card_backs/set1/green.gif","img/card_backs/set2/orange.gif","img/card_backs/set2/blue.gif","img/card_backs/set2/gray.gif","img/card_backs/set2/pink.gif","""event"",""trial"",""time""
""fullscreenenter"",""1"",""15676""
","
","
","""event"",""trial"",""time""
""fullscreenenter"",""1"",""15676""
","
","","null","","null","","fixation","2021-07-04 15:08:09.656","","","","","",""
"card-selection-trial","107","444192","0.0-25.0-1.18","249","false","img/card_backs/set1/yellow.gif","img/card_backs/set1/purple.gif","img/card_backs/set1/red.gif","img/card_backs/set1/green.gif","img/card_backs/set2/orange.gif","img/card_backs/set2/blue.gif","img/card_backs/set2/gray.gif","img/card_backs/set2/pink.gif","""event"",""trial"",""time""
""fullscreenenter"",""1"",""15676""
","
","
","""event"",""trial"",""time""
""fullscreenenter"",""1"",""15676""
","
","","379.1049999999814","","","","real_trial","2021-07-04 15:08:12.055","img/card_backs/set1/purple.gif","3","190","1","",""
"casino-fixation","108","444697","0.0-25.0-0.19","249","false","img/card_backs/set1/yellow.gif","img/card_backs/set1/purple.gif","img/card_backs/set1/red.gif","img/card_backs/set1/green.gif","img/card_backs/set2/orange.gif","img/card_backs/set2/blue.gif","img/card_backs/set2/gray.gif","img/card_backs/set2/pink.gif","""event"",""trial"",""time""
""fullscreenenter"",""1"",""15676""
","
","
","""event"",""trial"",""time""
""fullscreenenter"",""1"",""15676""
","
","","null","","null","","fixation","2021-07-04 15:08:12.560","","","","","",""
"card-selection-trial","109","447053","0.0-25.0-1.19","249","false","img/card_backs/set1/yellow.gif","img/card_backs/set1/purple.gif","img/card_backs/set1/red.gif","img/card_backs/set1/green.gif","img/card_backs/set2/orange.gif","img/card_backs/set2/blue.gif","img/card_backs/set2/gray.gif","img/card_backs/set2/pink.gif","""event"",""trial"",""time""
""fullscreenenter"",""1"",""15676""
","
","
","""event"",""trial"",""time""
""fullscreenenter"",""1"",""15676""
","
","","331.4350000000559","","","","real_trial","2021-07-04 15:08:14.916","img/card_backs/set1/green.gif","3","-60","1","",""
"casino-fixation","110","447559","0.0-25.0-0.20","249","false","img/card_backs/set1/yellow.gif","img/card_backs/set1/purple.gif","img/card_backs/set1/red.gif","img/card_backs/set1/green.gif","img/card_backs/set2/orange.gif","img/card_backs/set2/blue.gif","img/card_backs/set2/gray.gif","img/card_backs/set2/pink.gif","""event"",""trial"",""time""
""fullscreenenter"",""1"",""15676""
","
","
","""event"",""trial"",""time""
""fullscreenenter"",""1"",""15676""
","
","","null","","null","","fixation","2021-07-04 15:08:15.423","","","","","",""
"card-selection-trial","111","449947","0.0-25.0-1.20","249","false","img/card_backs/set1/yellow.gif","img/card_backs/set1/purple.gif","img/card_backs/set1/red.gif","img/card_backs/set1/green.gif","img/card_backs/set2/orange.gif","img/card_backs/set2/blue.gif","img/card_backs/set2/gray.gif","img/card_backs/set2/pink.gif","""event"",""trial"",""time""
""fullscreenenter"",""1"",""15676""
","
","
","""event"",""trial"",""time""
""fullscreenenter"",""1"",""15676""
","
","","371.36499999905936","","","","real_trial","2021-07-04 15:08:17.810","img/card_backs/set1/red.gif","3","120","1","",""
"casino-fixation","112","450457","0.0-25.0-0.21","249","false","img/card_backs/set1/yellow.gif","img/card_backs/set1/purple.gif","img/card_backs/set1/red.gif","img/card_backs/set1/green.gif","img/card_backs/set2/orange.gif","img/card_backs/set2/blue.gif","img/card_backs/set2/gray.gif","img/card_backs/set2/pink.gif","""event"",""trial"",""time""
""fullscreenenter"",""1"",""15676""
","
","
","""event"",""trial"",""time""
""fullscreenenter"",""1"",""15676""
","
","","null","","null","","fixation","2021-07-04 15:08:18.321","","","","","",""
"card-selection-trial","113","452832","0.0-25.0-1.21","249","false","img/card_backs/set1/yellow.gif","img/card_backs/set1/purple.gif","img/card_backs/set1/red.gif","img/card_backs/set1/green.gif","img/card_backs/set2/orange.gif","img/card_backs/set2/blue.gif","img/card_backs/set2/gray.gif","img/card_backs/set2/pink.gif","""event"",""trial"",""time""
""fullscreenenter"",""1"",""15676""
","
","
","""event"",""trial"",""time""
""fullscreenenter"",""1"",""15676""
","
","","355.8000000193715","","","","real_trial","2021-07-04 15:08:20.696","img/card_backs/set1/red.gif","3","100","1","",""
"casino-fixation","114","453340","0.0-25.0-0.22","249","false","img/card_backs/set1/yellow.gif","img/card_backs/set1/purple.gif","img/card_backs/set1/red.gif","img/card_backs/set1/green.gif","img/card_backs/set2/orange.gif","img/card_backs/set2/blue.gif","img/card_backs/set2/gray.gif","img/card_backs/set2/pink.gif","""event"",""trial"",""time""
""fullscreenenter"",""1"",""15676""
","
","
","""event"",""trial"",""time""
""fullscreenenter"",""1"",""15676""
","
","","null","","null","","fixation","2021-07-04 15:08:21.203","","","","","",""
"card-selection-trial","115","455747","0.0-25.0-1.22","249","false","img/card_backs/set1/yellow.gif","img/card_backs/set1/purple.gif","img/card_backs/set1/red.gif","img/card_backs/set1/green.gif","img/card_backs/set2/orange.gif","img/card_backs/set2/blue.gif","img/card_backs/set2/gray.gif","img/card_backs/set2/pink.gif","""event"",""trial"",""time""
""fullscreenenter"",""1"",""15676""
","
","
","""event"",""trial"",""time""
""fullscreenenter"",""1"",""15676""
","
","","383.3299999823794","","","","real_trial","2021-07-04 15:08:23.611","img/card_backs/set1/green.gif","3","-50","1","",""
"casino-fixation","116","456253","0.0-25.0-0.23","249","false","img/card_backs/set1/yellow.gif","img/card_backs/set1/purple.gif","img/card_backs/set1/red.gif","img/card_backs/set1/green.gif","img/card_backs/set2/orange.gif","img/card_backs/set2/blue.gif","img/card_backs/set2/gray.gif","img/card_backs/set2/pink.gif","""event"",""trial"",""time""
""fullscreenenter"",""1"",""15676""
","
","
","""event"",""trial"",""time""
""fullscreenenter"",""1"",""15676""
","
","","null","","null","","fixation","2021-07-04 15:08:24.116","","","","","",""
"card-selection-trial","117","458665","0.0-25.0-1.23","249","false","img/card_backs/set1/yellow.gif","img/card_backs/set1/purple.gif","img/card_backs/set1/red.gif","img/card_backs/set1/green.gif","img/card_backs/set2/orange.gif","img/card_backs/set2/blue.gif","img/card_backs/set2/gray.gif","img/card_backs/set2/pink.gif","""event"",""trial"",""time""
""fullscreenenter"",""1"",""15676""
","
","
","""event"",""trial"",""time""
""fullscreenenter"",""1"",""15676""
","
","","392.0450000150595","","","","real_trial","2021-07-04 15:08:26.528","img/card_backs/set1/red.gif","3","120","1","",""
"casino-fixation","118","459170","0.0-25.0-0.24","249","false","img/card_backs/set1/yellow.gif","img/card_backs/set1/purple.gif","img/card_backs/set1/red.gif","img/card_backs/set1/green.gif","img/card_backs/set2/orange.gif","img/card_backs/set2/blue.gif","img/card_backs/set2/gray.gif","img/card_backs/set2/pink.gif","""event"",""trial"",""time""
""fullscreenenter"",""1"",""15676""
","
","
","""event"",""trial"",""time""
""fullscreenenter"",""1"",""15676""
","
","","null","","null","","fixation","2021-07-04 15:08:27.033","","","","","",""
"card-selection-trial","119","461579","0.0-25.0-1.24","249","false","img/card_backs/set1/yellow.gif","img/card_backs/set1/purple.gif","img/card_backs/set1/red.gif","img/card_backs/set1/green.gif","img/card_backs/set2/orange.gif","img/card_backs/set2/blue.gif","img/card_backs/set2/gray.gif","img/card_backs/set2/pink.gif","""event"",""trial"",""time""
""fullscreenenter"",""1"",""15676""
","
","
","""event"",""trial"",""time""
""fullscreenenter"",""1"",""15676""
","
","","389.07500001369044","","","","real_trial","2021-07-04 15:08:29.442","img/card_backs/set1/purple.gif","3","-250","1","",""
"casino-fixation","120","462087","0.0-25.0-0.25","249","false","img/card_backs/set1/yellow.gif","img/card_backs/set1/purple.gif","img/card_backs/set1/red.gif","img/card_backs/set1/green.gif","img/card_backs/set2/orange.gif","img/card_backs/set2/blue.gif","img/card_backs/set2/gray.gif","img/card_backs/set2/pink.gif","""event"",""trial"",""time""
""fullscreenenter"",""1"",""15676""
","
","
","""event"",""trial"",""time""
""fullscreenenter"",""1"",""15676""
","
","","null","","null","","fixation","2021-07-04 15:08:29.950","","","","","",""
"card-selection-trial","121","464495","0.0-25.0-1.25","249","false","img/card_backs/set1/yellow.gif","img/card_backs/set1/purple.gif","img/card_backs/set1/red.gif","img/card_backs/set1/green.gif","img/card_backs/set2/orange.gif","img/card_backs/set2/blue.gif","img/card_backs/set2/gray.gif","img/card_backs/set2/pink.gif","""event"",""trial"",""time""
""fullscreenenter"",""1"",""15676""
","
","
","""event"",""trial"",""time""
""fullscreenenter"",""1"",""15676""
","
","","395.1400000078138","","","","real_trial","2021-07-04 15:08:32.359","img/card_backs/set1/green.gif","3","110","1","",""
"casino-fixation","122","465001","0.0-25.0-0.26","249","false","img/card_backs/set1/yellow.gif","img/card_backs/set1/purple.gif","img/card_backs/set1/red.gif","img/card_backs/set1/green.gif","img/card_backs/set2/orange.gif","img/card_backs/set2/blue.gif","img/card_backs/set2/gray.gif","img/card_backs/set2/pink.gif","""event"",""trial"",""time""
""fullscreenenter"",""1"",""15676""
","
","
","""event"",""trial"",""time""
""fullscreenenter"",""1"",""15676""
","
","","null","","null","","fixation","2021-07-04 15:08:32.866","","","","","",""
"card-selection-trial","123","467431","0.0-25.0-1.26","249","false","img/card_backs/set1/yellow.gif","img/card_backs/set1/purple.gif","img/card_backs/set1/red.gif","img/card_backs/set1/green.gif","img/card_backs/set2/orange.gif","img/card_backs/set2/blue.gif","img/card_backs/set2/gray.gif","img/card_backs/set2/pink.gif","""event"",""trial"",""time""
""fullscreenenter"",""1"",""15676""
","
","
","""event"",""trial"",""time""
""fullscreenenter"",""1"",""15676""
","
","","408.70500000892207","","","","real_trial","2021-07-04 15:08:35.295","img/card_backs/set1/green.gif","3","-50","1","",""
"casino-fixation","124","467936","0.0-25.0-0.27","249","false","img/card_backs/set1/yellow.gif","img/card_backs/set1/purple.gif","img/card_backs/set1/red.gif","img/card_backs/set1/green.gif","img/card_backs/set2/orange.gif","img/card_backs/set2/blue.gif","img/card_backs/set2/gray.gif","img/card_backs/set2/pink.gif","""event"",""trial"",""time""
""fullscreenenter"",""1"",""15676""
","
","
","""event"",""trial"",""time""
""fullscreenenter"",""1"",""15676""
","
","","null","","null","","fixation","2021-07-04 15:08:35.799","","","","","",""
"card-selection-trial","125","470314","0.0-25.0-1.27","249","false","img/card_backs/set1/yellow.gif","img/card_backs/set1/purple.gif","img/card_backs/set1/red.gif","img/card_backs/set1/green.gif","img/card_backs/set2/orange.gif","img/card_backs/set2/blue.gif","img/card_backs/set2/gray.gif","img/card_backs/set2/pink.gif","""event"",""trial"",""time""
""fullscreenenter"",""1"",""15676""
","
","
","""event"",""trial"",""time""
""fullscreenenter"",""1"",""15676""
","
","","356.99500000919215","","","","real_trial","2021-07-04 15:08:38.178","img/card_backs/set1/red.gif","3","-50","1","",""
"casino-fixation","126","470819","0.0-25.0-0.28","249","false","img/card_backs/set1/yellow.gif","img/card_backs/set1/purple.gif","img/card_backs/set1/red.gif","img/card_backs/set1/green.gif","img/card_backs/set2/orange.gif","img/card_backs/set2/blue.gif","img/card_backs/set2/gray.gif","img/card_backs/set2/pink.gif","""event"",""trial"",""time""
""fullscreenenter"",""1"",""15676""
","
","
","""event"",""trial"",""time""
""fullscreenenter"",""1"",""15676""
","
","","null","","null","","fixation","2021-07-04 15:08:38.683","","","","","",""
"card-selection-trial","127","473212","0.0-25.0-1.28","249","false","img/card_backs/set1/yellow.gif","img/card_backs/set1/purple.gif","img/card_backs/set1/red.gif","img/card_backs/set1/green.gif","img/card_backs/set2/orange.gif","img/card_backs/set2/blue.gif","img/card_backs/set2/gray.gif","img/card_backs/set2/pink.gif","""event"",""trial"",""time""
""fullscreenenter"",""1"",""15676""
","
","
","""event"",""trial"",""time""
""fullscreenenter"",""1"",""15676""
","
","","372.56000001798384","","","","real_trial","2021-07-04 15:08:41.076","img/card_backs/set1/purple.gif","3","190","1","",""
"casino-fixation","128","473717","0.0-25.0-0.29","249","false","img/card_backs/set1/yellow.gif","img/card_backs/set1/purple.gif","img/card_backs/set1/red.gif","img/card_backs/set1/green.gif","img/card_backs/set2/orange.gif","img/card_backs/set2/blue.gif","img/card_backs/set2/gray.gif","img/card_backs/set2/pink.gif","""event"",""trial"",""time""
""fullscreenenter"",""1"",""15676""
","
","
","""event"",""trial"",""time""
""fullscreenenter"",""1"",""15676""
","
","","null","","null","","fixation","2021-07-04 15:08:41.581","","","","","",""
"card-selection-trial","129","476218","0.0-25.0-1.29","249","false","img/card_backs/set1/yellow.gif","img/card_backs/set1/purple.gif","img/card_backs/set1/red.gif","img/card_backs/set1/green.gif","img/card_backs/set2/orange.gif","img/card_backs/set2/blue.gif","img/card_backs/set2/gray.gif","img/card_backs/set2/pink.gif","""event"",""trial"",""time""
""fullscreenenter"",""1"",""15676""
","
","
","""event"",""trial"",""time""
""fullscreenenter"",""1"",""15676""
","
","","478.05000000516884","","","","real_trial","2021-07-04 15:08:44.081","img/card_backs/set1/red.gif","3","-50","1","",""
"casino-fixation","130","476722","0.0-25.0-0.30","249","false","img/card_backs/set1/yellow.gif","img/card_backs/set1/purple.gif","img/card_backs/set1/red.gif","img/card_backs/set1/green.gif","img/card_backs/set2/orange.gif","img/card_backs/set2/blue.gif","img/card_backs/set2/gray.gif","img/card_backs/set2/pink.gif","""event"",""trial"",""time""
""fullscreenenter"",""1"",""15676""
","
","
","""event"",""trial"",""time""
""fullscreenenter"",""1"",""15676""
","
","","null","","null","","fixation","2021-07-04 15:08:44.585","","","","","",""
"card-selection-trial","131","481683","0.0-25.0-1.30","249","false","img/card_backs/set1/yellow.gif","img/card_backs/set1/purple.gif","img/card_backs/set1/red.gif","img/card_backs/set1/green.gif","img/card_backs/set2/orange.gif","img/card_backs/set2/blue.gif","img/card_backs/set2/gray.gif","img/card_backs/set2/pink.gif","""event"",""trial"",""time""
""fullscreenenter"",""1"",""15676""
","
","
","""event"",""trial"",""time""
""fullscreenenter"",""1"",""15676""
","
","","2943.8800000061747","","","","real_trial","2021-07-04 15:08:49.546","img/card_backs/set1/yellow.gif","3","190","1","",""
"casino-fixation","132","482192","0.0-25.0-0.31","249","false","img/card_backs/set1/yellow.gif","img/card_backs/set1/purple.gif","img/card_backs/set1/red.gif","img/card_backs/set1/green.gif","img/card_backs/set2/orange.gif","img/card_backs/set2/blue.gif","img/card_backs/set2/gray.gif","img/card_backs/set2/pink.gif","""event"",""trial"",""time""
""fullscreenenter"",""1"",""15676""
","
","
","""event"",""trial"",""time""
""fullscreenenter"",""1"",""15676""
","
","","null","","null","","fixation","2021-07-04 15:08:50.055","","","","","",""
"card-selection-trial","133","485498","0.0-25.0-1.31","249","false","img/card_backs/set1/yellow.gif","img/card_backs/set1/purple.gif","img/card_backs/set1/red.gif","img/card_backs/set1/green.gif","img/card_backs/set2/orange.gif","img/card_backs/set2/blue.gif","img/card_backs/set2/gray.gif","img/card_backs/set2/pink.gif","""event"",""trial"",""time""
""fullscreenenter"",""1"",""15676""
","
","
","""event"",""trial"",""time""
""fullscreenenter"",""1"",""15676""
","
","","1284.639999998035","","","","real_trial","2021-07-04 15:08:53.361","img/card_backs/set1/purple.gif","3","180","1","",""
"casino-fixation","134","486003","0.0-25.0-0.32","249","false","img/card_backs/set1/yellow.gif","img/card_backs/set1/purple.gif","img/card_backs/set1/red.gif","img/card_backs/set1/green.gif","img/card_backs/set2/orange.gif","img/card_backs/set2/blue.gif","img/card_backs/set2/gray.gif","img/card_backs/set2/pink.gif","""event"",""trial"",""time""
""fullscreenenter"",""1"",""15676""
","
","
","""event"",""trial"",""time""
""fullscreenenter"",""1"",""15676""
","
","","null","","null","","fixation","2021-07-04 15:08:53.866","","","","","",""
"card-selection-trial","135","488219","0.0-25.0-1.32","249","false","img/card_backs/set1/yellow.gif","img/card_backs/set1/purple.gif","img/card_backs/set1/red.gif","img/card_backs/set1/green.gif","img/card_backs/set2/orange.gif","img/card_backs/set2/blue.gif","img/card_backs/set2/gray.gif","img/card_backs/set2/pink.gif","""event"",""trial"",""time""
""fullscreenenter"",""1"",""15676""
","
","
","""event"",""trial"",""time""
""fullscreenenter"",""1"",""15676""
","
","","199.76500002667308","","","","real_trial","2021-07-04 15:08:56.082","img/card_backs/set1/purple.gif","3","-230","1","",""
"casino-fixation","136","488727","0.0-25.0-0.33","249","false","img/card_backs/set1/yellow.gif","img/card_backs/set1/purple.gif","img/card_backs/set1/red.gif","img/card_backs/set1/green.gif","img/card_backs/set2/orange.gif","img/card_backs/set2/blue.gif","img/card_backs/set2/gray.gif","img/card_backs/set2/pink.gif","""event"",""trial"",""time""
""fullscreenenter"",""1"",""15676""
","
","
","""event"",""trial"",""time""
""fullscreenenter"",""1"",""15676""
","
","","null","","null","","fixation","2021-07-04 15:08:56.590","","","","","",""
"card-selection-trial","137","491296","0.0-25.0-1.33","249","false","img/card_backs/set1/yellow.gif","img/card_backs/set1/purple.gif","img/card_backs/set1/red.gif","img/card_backs/set1/green.gif","img/card_backs/set2/orange.gif","img/card_backs/set2/blue.gif","img/card_backs/set2/gray.gif","img/card_backs/set2/pink.gif","""event"",""trial"",""time""
""fullscreenenter"",""1"",""15676""
","
","
","""event"",""trial"",""time""
""fullscreenenter"",""1"",""15676""
","
","","550.9000000020023","","","","real_trial","2021-07-04 15:08:59.159","img/card_backs/set1/yellow.gif","3","-250","1","",""
"casino-fixation","138","491802","0.0-25.0-0.34","249","false","img/card_backs/set1/yellow.gif","img/card_backs/set1/purple.gif","img/card_backs/set1/red.gif","img/card_backs/set1/green.gif","img/card_backs/set2/orange.gif","img/card_backs/set2/blue.gif","img/card_backs/set2/gray.gif","img/card_backs/set2/pink.gif","""event"",""trial"",""time""
""fullscreenenter"",""1"",""15676""
","
","
","""event"",""trial"",""time""
""fullscreenenter"",""1"",""15676""
","
","","null","","null","","fixation","2021-07-04 15:08:59.665","","","","","",""
"card-selection-trial","139","493872","0.0-25.0-1.34","249","false","img/card_backs/set1/yellow.gif","img/card_backs/set1/purple.gif","img/card_backs/set1/red.gif","img/card_backs/set1/green.gif","img/card_backs/set2/orange.gif","img/card_backs/set2/blue.gif","img/card_backs/set2/gray.gif","img/card_backs/set2/pink.gif","""event"",""trial"",""time""
""fullscreenenter"",""1"",""15676""
","
","
","""event"",""trial"",""time""
""fullscreenenter"",""1"",""15676""
","
","","47.43499998585321","","","","real_trial","2021-07-04 15:09:01.735","img/card_backs/set1/yellow.gif","3","-240","1","",""
"casino-fixation","140","494377","0.0-25.0-0.35","249","false","img/card_backs/set1/yellow.gif","img/card_backs/set1/purple.gif","img/card_backs/set1/red.gif","img/card_backs/set1/green.gif","img/card_backs/set2/orange.gif","img/card_backs/set2/blue.gif","img/card_backs/set2/gray.gif","img/card_backs/set2/pink.gif","""event"",""trial"",""time""
""fullscreenenter"",""1"",""15676""
","
","
","""event"",""trial"",""time""
""fullscreenenter"",""1"",""15676""
","
","","null","","null","","fixation","2021-07-04 15:09:02.240","","","","","",""
"card-selection-trial","141","496895","0.0-25.0-1.35","249","false","img/card_backs/set1/yellow.gif","img/card_backs/set1/purple.gif","img/card_backs/set1/red.gif","img/card_backs/set1/green.gif","img/card_backs/set2/orange.gif","img/card_backs/set2/blue.gif","img/card_backs/set2/gray.gif","img/card_backs/set2/pink.gif","""event"",""trial"",""time""
""fullscreenenter"",""1"",""15676""
","
","
","""event"",""trial"",""time""
""fullscreenenter"",""1"",""15676""
","
","","496.77499997778796","","","","real_trial","2021-07-04 15:09:04.759","img/card_backs/set1/purple.gif","3","-230","1","",""
"casino-fixation","142","497405","0.0-25.0-0.36","249","false","img/card_backs/set1/yellow.gif","img/card_backs/set1/purple.gif","img/card_backs/set1/red.gif","img/card_backs/set1/green.gif","img/card_backs/set2/orange.gif","img/card_backs/set2/blue.gif","img/card_backs/set2/gray.gif","img/card_backs/set2/pink.gif","""event"",""trial"",""time""
""fullscreenenter"",""1"",""15676""
","
","
","""event"",""trial"",""time""
""fullscreenenter"",""1"",""15676""
","
","","null","","null","","fixation","2021-07-04 15:09:05.268","","","","","",""
"card-selection-trial","143","501975","0.0-25.0-1.36","249","false","img/card_backs/set1/yellow.gif","img/card_backs/set1/purple.gif","img/card_backs/set1/red.gif","img/card_backs/set1/green.gif","img/card_backs/set2/orange.gif","img/card_backs/set2/blue.gif","img/card_backs/set2/gray.gif","img/card_backs/set2/pink.gif","""event"",""trial"",""time""
""fullscreenenter"",""1"",""15676""
","
","
","""event"",""trial"",""time""
""fullscreenenter"",""1"",""15676""
","
","","2552.7799999981653","","","","real_trial","2021-07-04 15:09:09.839","img/card_backs/set1/green.gif","0","100","1","",""
"casino-fixation","144","502482","0.0-25.0-0.37","249","false","img/card_backs/set1/yellow.gif","img/card_backs/set1/purple.gif","img/card_backs/set1/red.gif","img/card_backs/set1/green.gif","img/card_backs/set2/orange.gif","img/card_backs/set2/blue.gif","img/card_backs/set2/gray.gif","img/card_backs/set2/pink.gif","""event"",""trial"",""time""
""fullscreenenter"",""1"",""15676""
","
","
","""event"",""trial"",""time""
""fullscreenenter"",""1"",""15676""
","
","","null","","null","","fixation","2021-07-04 15:09:10.345","","","","","",""
"card-selection-trial","145","504512","0.0-25.0-1.37","249","false","img/card_backs/set1/yellow.gif","img/card_backs/set1/purple.gif","img/card_backs/set1/red.gif","img/card_backs/set1/green.gif","img/card_backs/set2/orange.gif","img/card_backs/set2/blue.gif","img/card_backs/set2/gray.gif","img/card_backs/set2/pink.gif","""event"",""trial"",""time""
""fullscreenenter"",""1"",""15676""
","
","
","""event"",""trial"",""time""
""fullscreenenter"",""1"",""15676""
","
","","12.304999982006848","","","","real_trial","2021-07-04 15:09:12.376","img/card_backs/set1/purple.gif","0","200","1","",""
"casino-fixation","146","505018","0.0-25.0-0.38","249","false","img/card_backs/set1/yellow.gif","img/card_backs/set1/purple.gif","img/card_backs/set1/red.gif","img/card_backs/set1/green.gif","img/card_backs/set2/orange.gif","img/card_backs/set2/blue.gif","img/card_backs/set2/gray.gif","img/card_backs/set2/pink.gif","""event"",""trial"",""time""
""fullscreenenter"",""1"",""15676""
","
","
","""event"",""trial"",""time""
""fullscreenenter"",""1"",""15676""
","
","","null","","null","","fixation","2021-07-04 15:09:12.884","","","","","",""
"card-selection-trial","147","508285","0.0-25.0-1.38","249","false","img/card_backs/set1/yellow.gif","img/card_backs/set1/purple.gif","img/card_backs/set1/red.gif","img/card_backs/set1/green.gif","img/card_backs/set2/orange.gif","img/card_backs/set2/blue.gif","img/card_backs/set2/gray.gif","img/card_backs/set2/pink.gif","""event"",""trial"",""time""
""fullscreenenter"",""1"",""15676""
","
","
","""event"",""trial"",""time""
""fullscreenenter"",""1"",""15676""
","
","","1242.7850000094622","","","","real_trial","2021-07-04 15:09:16.148","img/card_backs/set1/red.gif","1","120","1","",""
"casino-fixation","148","508789","0.0-25.0-0.39","249","false","img/card_backs/set1/yellow.gif","img/card_backs/set1/purple.gif","img/card_backs/set1/red.gif","img/card_backs/set1/green.gif","img/card_backs/set2/orange.gif","img/card_backs/set2/blue.gif","img/card_backs/set2/gray.gif","img/card_backs/set2/pink.gif","""event"",""trial"",""time""
""fullscreenenter"",""1"",""15676""
","
","
","""event"",""trial"",""time""
""fullscreenenter"",""1"",""15676""
","
","","null","","null","","fixation","2021-07-04 15:09:16.652","","","","","",""
"card-selection-trial","149","511809","0.0-25.0-1.39","249","false","img/card_backs/set1/yellow.gif","img/card_backs/set1/purple.gif","img/card_backs/set1/red.gif","img/card_backs/set1/green.gif","img/card_backs/set2/orange.gif","img/card_backs/set2/blue.gif","img/card_backs/set2/gray.gif","img/card_backs/set2/pink.gif","""event"",""trial"",""time""
""fullscreenenter"",""1"",""15676""
","
","
","""event"",""trial"",""time""
""fullscreenenter"",""1"",""15676""
","
","","999.3050000048243","","","","real_trial","2021-07-04 15:09:19.673","img/card_backs/set1/yellow.gif","1","-250","1","",""
"casino-fixation","150","512319","0.0-25.0-0.40","249","false","img/card_backs/set1/yellow.gif","img/card_backs/set1/purple.gif","img/card_backs/set1/red.gif","img/card_backs/set1/green.gif","img/card_backs/set2/orange.gif","img/card_backs/set2/blue.gif","img/card_backs/set2/gray.gif","img/card_backs/set2/pink.gif","""event"",""trial"",""time""
""fullscreenenter"",""1"",""15676""
","
","
","""event"",""trial"",""time""
""fullscreenenter"",""1"",""15676""
","
","","null","","null","","fixation","2021-07-04 15:09:20.183","","","","","",""
"card-selection-trial","151","515250","0.0-25.0-1.40","249","false","img/card_backs/set1/yellow.gif","img/card_backs/set1/purple.gif","img/card_backs/set1/red.gif","img/card_backs/set1/green.gif","img/card_backs/set2/orange.gif","img/card_backs/set2/blue.gif","img/card_backs/set2/gray.gif","img/card_backs/set2/pink.gif","""event"",""trial"",""time""
""fullscreenenter"",""1"",""15676""
","
","
","""event"",""trial"",""time""
""fullscreenenter"",""1"",""15676""
","
","","908.4450000082143","","","","real_trial","2021-07-04 15:09:23.113","img/card_backs/set1/red.gif","1","-60","1","",""
"casino-fixation","152","515754","0.0-25.0-0.41","249","false","img/card_backs/set1/yellow.gif","img/card_backs/set1/purple.gif","img/card_backs/set1/red.gif","img/card_backs/set1/green.gif","img/card_backs/set2/orange.gif","img/card_backs/set2/blue.gif","img/card_backs/set2/gray.gif","img/card_backs/set2/pink.gif","""event"",""trial"",""time""
""fullscreenenter"",""1"",""15676""
","
","
","""event"",""trial"",""time""
""fullscreenenter"",""1"",""15676""
","
","","null","","null","","fixation","2021-07-04 15:09:23.617","","","","","",""
"card-selection-trial","153","518965","0.0-25.0-1.41","249","false","img/card_backs/set1/yellow.gif","img/card_backs/set1/purple.gif","img/card_backs/set1/red.gif","img/card_backs/set1/green.gif","img/card_backs/set2/orange.gif","img/card_backs/set2/blue.gif","img/card_backs/set2/gray.gif","img/card_backs/set2/pink.gif","""event"",""trial"",""time""
""fullscreenenter"",""1"",""15676""
","
","
","""event"",""trial"",""time""
""fullscreenenter"",""1"",""15676""
","
","","1190.969999996014","","","","real_trial","2021-07-04 15:09:26.828","img/card_backs/set1/green.gif","0","120","1","",""
"casino-fixation","154","519470","0.0-25.0-0.42","249","false","img/card_backs/set1/yellow.gif","img/card_backs/set1/purple.gif","img/card_backs/set1/red.gif","img/card_backs/set1/green.gif","img/card_backs/set2/orange.gif","img/card_backs/set2/blue.gif","img/card_backs/set2/gray.gif","img/card_backs/set2/pink.gif","""event"",""trial"",""time""
""fullscreenenter"",""1"",""15676""
","
","
","""event"",""trial"",""time""
""fullscreenenter"",""1"",""15676""
","
","","null","","null","","fixation","2021-07-04 15:09:27.333","","","","","",""
"card-selection-trial","155","522470","0.0-25.0-1.42","249","false","img/card_backs/set1/yellow.gif","img/card_backs/set1/purple.gif","img/card_backs/set1/red.gif","img/card_backs/set1/green.gif","img/card_backs/set2/orange.gif","img/card_backs/set2/blue.gif","img/card_backs/set2/gray.gif","img/card_backs/set2/pink.gif","""event"",""trial"",""time""
""fullscreenenter"",""1"",""15676""
","
","
","""event"",""trial"",""time""
""fullscreenenter"",""1"",""15676""
","
","","977.9100000159815","","","","real_trial","2021-07-04 15:09:30.334","img/card_backs/set1/green.gif","0","100","1","",""
"casino-fixation","156","522974","0.0-25.0-0.43","249","false","img/card_backs/set1/yellow.gif","img/card_backs/set1/purple.gif","img/card_backs/set1/red.gif","img/card_backs/set1/green.gif","img/card_backs/set2/orange.gif","img/card_backs/set2/blue.gif","img/card_backs/set2/gray.gif","img/card_backs/set2/pink.gif","""event"",""trial"",""time""
""fullscreenenter"",""1"",""15676""
","
","
","""event"",""trial"",""time""
""fullscreenenter"",""1"",""15676""
","
","","null","","null","","fixation","2021-07-04 15:09:30.838","","","","","",""
"card-selection-trial","157","526166","0.0-25.0-1.43","249","false","img/card_backs/set1/yellow.gif","img/card_backs/set1/purple.gif","img/card_backs/set1/red.gif","img/card_backs/set1/green.gif","img/card_backs/set2/orange.gif","img/card_backs/set2/blue.gif","img/card_backs/set2/gray.gif","img/card_backs/set2/pink.gif","""event"",""trial"",""time""
""fullscreenenter"",""1"",""15676""
","
","
","""event"",""trial"",""time""
""fullscreenenter"",""1"",""15676""
","
","","1163.2050000189338","","","","real_trial","2021-07-04 15:09:34.030","img/card_backs/set1/green.gif","3","-60","1","",""
"casino-fixation","158","526675","0.0-25.0-0.44","249","false","img/card_backs/set1/yellow.gif","img/card_backs/set1/purple.gif","img/card_backs/set1/red.gif","img/card_backs/set1/green.gif","img/card_backs/set2/orange.gif","img/card_backs/set2/blue.gif","img/card_backs/set2/gray.gif","img/card_backs/set2/pink.gif","""event"",""trial"",""time""
""fullscreenenter"",""1"",""15676""
","
","
","""event"",""trial"",""time""
""fullscreenenter"",""1"",""15676""
","
","","null","","null","","fixation","2021-07-04 15:09:34.540","","","","","",""
"card-selection-trial","159","529608","0.0-25.0-1.44","249","false","img/card_backs/set1/yellow.gif","img/card_backs/set1/purple.gif","img/card_backs/set1/red.gif","img/card_backs/set1/green.gif","img/card_backs/set2/orange.gif","img/card_backs/set2/blue.gif","img/card_backs/set2/gray.gif","img/card_backs/set2/pink.gif","""event"",""trial"",""time""
""fullscreenenter"",""1"",""15676""
","
","
","""event"",""trial"",""time""
""fullscreenenter"",""1"",""15676""
","
","","912.0849999890197","","","","real_trial","2021-07-04 15:09:37.471","img/card_backs/set1/green.gif","0","-70","1","",""
"casino-fixation","160","530113","0.0-25.0-0.45","249","false","img/card_backs/set1/yellow.gif","img/card_backs/set1/purple.gif","img/card_backs/set1/red.gif","img/card_backs/set1/green.gif","img/card_backs/set2/orange.gif","img/card_backs/set2/blue.gif","img/card_backs/set2/gray.gif","img/card_backs/set2/pink.gif","""event"",""trial"",""time""
""fullscreenenter"",""1"",""15676""
","
","
","""event"",""trial"",""time""
""fullscreenenter"",""1"",""15676""
","
","","null","","null","","fixation","2021-07-04 15:09:37.978","","","","","",""
"card-selection-trial","161","533000","0.0-25.0-1.45","249","false","img/card_backs/set1/yellow.gif","img/card_backs/set1/purple.gif","img/card_backs/set1/red.gif","img/card_backs/set1/green.gif","img/card_backs/set2/orange.gif","img/card_backs/set2/blue.gif","img/card_backs/set2/gray.gif","img/card_backs/set2/pink.gif","""event"",""trial"",""time""
""fullscreenenter"",""1"",""15676""
","
","
","""event"",""trial"",""time""
""fullscreenenter"",""1"",""15676""
","
","","863.8750000100117","","","","real_trial","2021-07-04 15:09:40.864","img/card_backs/set1/green.gif","0","120","1","",""
"casino-fixation","162","533507","0.0-25.0-0.46","249","false","img/card_backs/set1/yellow.gif","img/card_backs/set1/purple.gif","img/card_backs/set1/red.gif","img/card_backs/set1/green.gif","img/card_backs/set2/orange.gif","img/card_backs/set2/blue.gif","img/card_backs/set2/gray.gif","img/card_backs/set2/pink.gif","""event"",""trial"",""time""
""fullscreenenter"",""1"",""15676""
","
","
","""event"",""trial"",""time""
""fullscreenenter"",""1"",""15676""
","
","","null","","null","","fixation","2021-07-04 15:09:41.371","","","","","",""
"card-selection-trial","163","536547","0.0-25.0-1.46","249","false","img/card_backs/set1/yellow.gif","img/card_backs/set1/purple.gif","img/card_backs/set1/red.gif","img/card_backs/set1/green.gif","img/card_backs/set2/orange.gif","img/card_backs/set2/blue.gif","img/card_backs/set2/gray.gif","img/card_backs/set2/pink.gif","""event"",""trial"",""time""
""fullscreenenter"",""1"",""15676""
","
","
","""event"",""trial"",""time""
""fullscreenenter"",""1"",""15676""
","
","","1020.8350000029895","","","","real_trial","2021-07-04 15:09:44.411","img/card_backs/set1/green.gif","1","-70","1","",""
"casino-fixation","164","537054","0.0-25.0-0.47","249","false","img/card_backs/set1/yellow.gif","img/card_backs/set1/purple.gif","img/card_backs/set1/red.gif","img/card_backs/set1/green.gif","img/card_backs/set2/orange.gif","img/card_backs/set2/blue.gif","img/card_backs/set2/gray.gif","img/card_backs/set2/pink.gif","""event"",""trial"",""time""
""fullscreenenter"",""1"",""15676""
","
","
","""event"",""trial"",""time""
""fullscreenenter"",""1"",""15676""
","
","","null","","null","","fixation","2021-07-04 15:09:44.918","","","","","",""
"card-selection-trial","165","539884","0.0-25.0-1.47","249","false","img/card_backs/set1/yellow.gif","img/card_backs/set1/purple.gif","img/card_backs/set1/red.gif","img/card_backs/set1/green.gif","img/card_backs/set2/orange.gif","img/card_backs/set2/blue.gif","img/card_backs/set2/gray.gif","img/card_backs/set2/pink.gif","""event"",""trial"",""time""
""fullscreenenter"",""1"",""15676""
","
","
","""event"",""trial"",""time""
""fullscreenenter"",""1"",""15676""
","
","","809.2750000068918","","","","real_trial","2021-07-04 15:09:47.747","img/card_backs/set1/green.gif","0","-50","1","",""
"casino-fixation","166","540390","0.0-25.0-0.48","249","false","img/card_backs/set1/yellow.gif","img/card_backs/set1/purple.gif","img/card_backs/set1/red.gif","img/card_backs/set1/green.gif","img/card_backs/set2/orange.gif","img/card_backs/set2/blue.gif","img/card_backs/set2/gray.gif","img/card_backs/set2/pink.gif","""event"",""trial"",""time""
""fullscreenenter"",""1"",""15676""
","
","
","""event"",""trial"",""time""
""fullscreenenter"",""1"",""15676""
","
