"trial_type","trial_index","time_elapsed","internal_node_id","sub_id","risk_good_first","block1_A","block1_B","block1_C","block1_D","block2_A","block2_B","block2_C","block2_D","interactions","blur_events","focus_events","fullscreenenter_events","fullscreenexit_events","success","rt","stimulus","key_press","button_pressed","task_part","timestamp","card_choice","choice_position","points_earned","block","correct","response"
"pavlovia","0","4","0.0-0.0","A577","false","img/card_backs/set1/green.gif","img/card_backs/set1/yellow.gif","img/card_backs/set1/red.gif","img/card_backs/set1/purple.gif","img/card_backs/set2/blue.gif","img/card_backs/set2/orange.gif","img/card_backs/set2/pink.gif","img/card_backs/set2/gray.gif","""event"",""trial"",""time""
""fullscreenenter"",""1"",""4580""
","
","
","""event"",""trial"",""time""
""fullscreenenter"",""1"",""4580""
","
","","","","","","","","","","","","",""
"fullscreen","1","5553","0.0-1.0","A577","false","img/card_backs/set1/green.gif","img/card_backs/set1/yellow.gif","img/card_backs/set1/red.gif","img/card_backs/set1/purple.gif","img/card_backs/set2/blue.gif","img/card_backs/set2/orange.gif","img/card_backs/set2/pink.gif","img/card_backs/set2/gray.gif","""event"",""trial"",""time""
""fullscreenenter"",""1"",""4580""
","
","
","""event"",""trial"",""time""
""fullscreenenter"",""1"",""4580""
","
","true","","","","","","","","","","","",""
"audio-keyboard-response","2","7311","0.0-2.0","A577","false","img/card_backs/set1/green.gif","img/card_backs/set1/yellow.gif","img/card_backs/set1/red.gif","img/card_backs/set1/purple.gif","img/card_backs/set2/blue.gif","img/card_backs/set2/orange.gif","img/card_backs/set2/pink.gif","img/card_backs/set2/gray.gif","""event"",""trial"",""time""
""fullscreenenter"",""1"",""4580""
","
","
","""event"",""trial"",""time""
""fullscreenenter"",""1"",""4580""
","
","","1591","audio/beep_loop.wav","32","","","","","","","","",""
"audio-button-response","3","9045","0.0-3.0","A577","false","img/card_backs/set1/green.gif","img/card_backs/set1/yellow.gif","img/card_backs/set1/red.gif","img/card_backs/set1/purple.gif","img/card_backs/set2/blue.gif","img/card_backs/set2/orange.gif","img/card_backs/set2/pink.gif","img/card_backs/set2/gray.gif","""event"",""trial"",""time""
""fullscreenenter"",""1"",""4580""
","
","
","""event"",""trial"",""time""
""fullscreenenter"",""1"",""4580""
","
","","NaN","audio/turtle.mp3","","3","","","","","","","",""
"audio-button-response","4","10980","0.0-4.0","A577","false","img/card_backs/set1/green.gif","img/card_backs/set1/yellow.gif","img/card_backs/set1/red.gif","img/card_backs/set1/purple.gif","img/card_backs/set2/blue.gif","img/card_backs/set2/orange.gif","img/card_backs/set2/pink.gif","img/card_backs/set2/gray.gif","""event"",""trial"",""time""
""fullscreenenter"",""1"",""4580""
","
","
","""event"",""trial"",""time""
""fullscreenenter"",""1"",""4580""
","
","","NaN","audio/shark.mp3","","2","","","","","","","",""
"fullscreen","5","14212","0.0-5.0","A577","false","img/card_backs/set1/green.gif","img/card_backs/set1/yellow.gif","img/card_backs/set1/red.gif","img/card_backs/set1/purple.gif","img/card_backs/set2/blue.gif","img/card_backs/set2/orange.gif","img/card_backs/set2/pink.gif","img/card_backs/set2/gray.gif","""event"",""trial"",""time""
""fullscreenenter"",""1"",""4580""
","
","
","""event"",""trial"",""time""
""fullscreenenter"",""1"",""4580""
","
","true","","","","","","","","","","","",""
"casino-keyboard-response","6","17390","0.0-6.0-0.0","A577","false","img/card_backs/set1/green.gif","img/card_backs/set1/yellow.gif","img/card_backs/set1/red.gif","img/card_backs/set1/purple.gif","img/card_backs/set2/blue.gif","img/card_backs/set2/orange.gif","img/card_backs/set2/pink.gif","img/card_backs/set2/gray.gif","""event"",""trial"",""time""
""fullscreenenter"",""1"",""4580""
","
","
","""event"",""trial"",""time""
""fullscreenenter"",""1"",""4580""
","
","","3175.4000000953674","Welcome to the casino!","71","","instructions","2021-08-03 16:49:25.509","","","","","",""
"casino-keyboard-response","7","26912","0.0-6.0-0.1","A577","false","img/card_backs/set1/green.gif","img/card_backs/set1/yellow.gif","img/card_backs/set1/red.gif","img/card_backs/set1/purple.gif","img/card_backs/set2/blue.gif","img/card_backs/set2/orange.gif","img/card_backs/set2/pink.gif","img/card_backs/set2/gray.gif","""event"",""trial"",""time""
""fullscreenenter"",""1"",""4580""
","
","
","""event"",""trial"",""time""
""fullscreenenter"",""1"",""4580""
","
","","9519.799999952316","Today you will be playing a game to earn tokens. </br> At the end of the experiment, you will be paid a bonus based on how many tokens you win. ","69","","instructions","2021-08-03 16:49:35.030","","","","","",""
"casino-keyboard-response","8","37166","0.0-6.0-0.2","A577","false","img/card_backs/set1/green.gif","img/card_backs/set1/yellow.gif","img/card_backs/set1/red.gif","img/card_backs/set1/purple.gif","img/card_backs/set2/blue.gif","img/card_backs/set2/orange.gif","img/card_backs/set2/pink.gif","img/card_backs/set2/gray.gif","""event"",""trial"",""time""
""fullscreenenter"",""1"",""4580""
","
","
","""event"",""trial"",""time""
""fullscreenenter"",""1"",""4580""
","
","","10253.399999976158","On every turn, you will be shown four different decks of cards. </br> You need to select a card from one of the four decks.  ","75","","instructions","2021-08-03 16:49:45.284","","","","","",""
"casino-keyboard-response","9","41662","0.0-6.0-0.3","A577","false","img/card_backs/set1/green.gif","img/card_backs/set1/yellow.gif","img/card_backs/set1/red.gif","img/card_backs/set1/purple.gif","img/card_backs/set2/blue.gif","img/card_backs/set2/orange.gif","img/card_backs/set2/pink.gif","img/card_backs/set2/gray.gif","""event"",""trial"",""time""
""fullscreenenter"",""1"",""4580""
","
","
","""event"",""trial"",""time""
""fullscreenenter"",""1"",""4580""
","
","","4494.700000047684","On the next screen, you will see what the decks will look like. ","66","","instructions","2021-08-03 16:49:49.780","","","","","",""
"card-selection-trial","10","45667","0.0-7.0-0.0","A577","false","img/card_backs/set1/green.gif","img/card_backs/set1/yellow.gif","img/card_backs/set1/red.gif","img/card_backs/set1/purple.gif","img/card_backs/set2/blue.gif","img/card_backs/set2/orange.gif","img/card_backs/set2/pink.gif","img/card_backs/set2/gray.gif","""event"",""trial"",""time""
""fullscreenenter"",""1"",""4580""
","
","
","""event"",""trial"",""time""
""fullscreenenter"",""1"",""4580""
","
","","null","","","","practice","2021-08-03 16:49:53.785","null","null","null","0","",""
"casino-keyboard-response","11","53260","0.0-8.0-0.0","A577","false","img/card_backs/set1/green.gif","img/card_backs/set1/yellow.gif","img/card_backs/set1/red.gif","img/card_backs/set1/purple.gif","img/card_backs/set2/blue.gif","img/card_backs/set2/orange.gif","img/card_backs/set2/pink.gif","img/card_backs/set2/gray.gif","""event"",""trial"",""time""
""fullscreenenter"",""1"",""4580""
","
","
","""event"",""trial"",""time""
""fullscreenenter"",""1"",""4580""
","
","","7591.5","You should pick a card from a deck using the '2', '4', '6', and '8' keys at the top of the keyboard.","85","","instructions","2021-08-03 16:50:01.378","","","","","",""
"casino-keyboard-response","12","58452","0.0-8.0-0.1","A577","false","img/card_backs/set1/green.gif","img/card_backs/set1/yellow.gif","img/card_backs/set1/red.gif","img/card_backs/set1/purple.gif","img/card_backs/set2/blue.gif","img/card_backs/set2/orange.gif","img/card_backs/set2/pink.gif","img/card_backs/set2/gray.gif","""event"",""trial"",""time""
""fullscreenenter"",""1"",""4580""
","
","
","""event"",""trial"",""time""
""fullscreenenter"",""1"",""4580""
","
","","5190.600000023842","Once you select a card, it will turn over and you will see how many tokens you earned.","83","","instructions","2021-08-03 16:50:06.570","","","","","",""
"casino-keyboard-response","13","73090","0.0-8.0-0.2","A577","false","img/card_backs/set1/green.gif","img/card_backs/set1/yellow.gif","img/card_backs/set1/red.gif","img/card_backs/set1/purple.gif","img/card_backs/set2/blue.gif","img/card_backs/set2/orange.gif","img/card_backs/set2/pink.gif","img/card_backs/set2/gray.gif","""event"",""trial"",""time""
""fullscreenenter"",""1"",""4580""
","
","
","""event"",""trial"",""time""
""fullscreenenter"",""1"",""4580""
","
","","14637.5","Let's try practicing that! </br> First, try to put your fingers over the '2', '4', '6', and '8' keys. </br>  You can use whatever fingers are most comfortable for you. Try to find a comfortable position now. ","50","","instructions","2021-08-03 16:50:21.208","","","","","",""
"casino-keyboard-response","14","78750","0.0-8.0-0.3","A577","false","img/card_backs/set1/green.gif","img/card_backs/set1/yellow.gif","img/card_backs/set1/red.gif","img/card_backs/set1/purple.gif","img/card_backs/set2/blue.gif","img/card_backs/set2/orange.gif","img/card_backs/set2/pink.gif","img/card_backs/set2/gray.gif","""event"",""trial"",""time""
""fullscreenenter"",""1"",""4580""
","
","
","""event"",""trial"",""time""
""fullscreenenter"",""1"",""4580""
","
","","5658.600000023842","Okay ready? </br> On the next screen, press '2' to select the left deck. ","50","","instructions","2021-08-03 16:50:26.868","","","","","",""
"card-selection-trial","15","81637","0.0-9.0-0.0","A577","false","img/card_backs/set1/green.gif","img/card_backs/set1/yellow.gif","img/card_backs/set1/red.gif","img/card_backs/set1/purple.gif","img/card_backs/set2/blue.gif","img/card_backs/set2/orange.gif","img/card_backs/set2/pink.gif","img/card_backs/set2/gray.gif","""event"",""trial"",""time""
""fullscreenenter"",""1"",""4580""
","
","
","""event"",""trial"",""time""
""fullscreenenter"",""1"",""4580""
","
","","878.7999999523163","","","","practice_card_selection","2021-08-03 16:50:29.755","img/practice_cards/backs/brown.gif","0","-100","","",""
"casino-keyboard-response","16","87208","0.0-10.0-0.0","A577","false","img/card_backs/set1/green.gif","img/card_backs/set1/yellow.gif","img/card_backs/set1/red.gif","img/card_backs/set1/purple.gif","img/card_backs/set2/blue.gif","img/card_backs/set2/orange.gif","img/card_backs/set2/pink.gif","img/card_backs/set2/gray.gif","""event"",""trial"",""time""
""fullscreenenter"",""1"",""4580""
","
","
","""event"",""trial"",""time""
""fullscreenenter"",""1"",""4580""
","
","","5569.600000023842","Great! Now on the next screen, try pressing '6' to select the third deck.","54","","instructions","2021-08-03 16:50:35.326","","","","","",""
"card-selection-trial","17","89778","0.0-11.0-0.0","A577","false","img/card_backs/set1/green.gif","img/card_backs/set1/yellow.gif","img/card_backs/set1/red.gif","img/card_backs/set1/purple.gif","img/card_backs/set2/blue.gif","img/card_backs/set2/orange.gif","img/card_backs/set2/pink.gif","img/card_backs/set2/gray.gif","""event"",""trial"",""time""
""fullscreenenter"",""1"",""4580""
","
","
","""event"",""trial"",""time""
""fullscreenenter"",""1"",""4580""
","
","","562.3999999761581","","","","practice_card_selection","2021-08-03 16:50:37.896","img/practice_cards/backs/brown.gif","2","-100","","",""
"casino-keyboard-response","18","94198","0.0-12.0-0.0","A577","false","img/card_backs/set1/green.gif","img/card_backs/set1/yellow.gif","img/card_backs/set1/red.gif","img/card_backs/set1/purple.gif","img/card_backs/set2/blue.gif","img/card_backs/set2/orange.gif","img/card_backs/set2/pink.gif","img/card_backs/set2/gray.gif","""event"",""trial"",""time""
""fullscreenenter"",""1"",""4580""
","
","
","""event"",""trial"",""time""
""fullscreenenter"",""1"",""4580""
","
","","4418.799999952316","Now on the next screen, try pressing '4' to select the second deck.","52","","instructions","2021-08-03 16:50:42.316","","","","","",""
"card-selection-trial","19","96623","0.0-13.0-0.0","A577","false","img/card_backs/set1/green.gif","img/card_backs/set1/yellow.gif","img/card_backs/set1/red.gif","img/card_backs/set1/purple.gif","img/card_backs/set2/blue.gif","img/card_backs/set2/orange.gif","img/card_backs/set2/pink.gif","img/card_backs/set2/gray.gif","""event"",""trial"",""time""
""fullscreenenter"",""1"",""4580""
","
","
","""event"",""trial"",""time""
""fullscreenenter"",""1"",""4580""
","
","","419.39999997615814","","","","practice_card_selection","2021-08-03 16:50:44.741","img/practice_cards/backs/dark_blue.gif","1","-200","","",""
"casino-keyboard-response","20","101014","0.0-14.0-0.0","A577","false","img/card_backs/set1/green.gif","img/card_backs/set1/yellow.gif","img/card_backs/set1/red.gif","img/card_backs/set1/purple.gif","img/card_backs/set2/blue.gif","img/card_backs/set2/orange.gif","img/card_backs/set2/pink.gif","img/card_backs/set2/gray.gif","""event"",""trial"",""time""
""fullscreenenter"",""1"",""4580""
","
","
","""event"",""trial"",""time""
""fullscreenenter"",""1"",""4580""
","
","","4390","Finally, try pressing '8' to select the deck all the way on the right.","56","","instructions","2021-08-03 16:50:49.132","","","","","",""
"card-selection-trial","21","103432","0.0-15.0-0.0","A577","false","img/card_backs/set1/green.gif","img/card_backs/set1/yellow.gif","img/card_backs/set1/red.gif","img/card_backs/set1/purple.gif","img/card_backs/set2/blue.gif","img/card_backs/set2/orange.gif","img/card_backs/set2/pink.gif","img/card_backs/set2/gray.gif","""event"",""trial"",""time""
""fullscreenenter"",""1"",""4580""
","
","
","""event"",""trial"",""time""
""fullscreenenter"",""1"",""4580""
","
","","412.10000002384186","","","","practice_card_selection","2021-08-03 16:50:51.550","img/practice_cards/backs/dark_blue.gif","3","-200","","",""
"casino-keyboard-response","22","107146","0.0-16.0-0.0","A577","false","img/card_backs/set1/green.gif","img/card_backs/set1/yellow.gif","img/card_backs/set1/red.gif","img/card_backs/set1/purple.gif","img/card_backs/set2/blue.gif","img/card_backs/set2/orange.gif","img/card_backs/set2/pink.gif","img/card_backs/set2/gray.gif","""event"",""trial"",""time""
""fullscreenenter"",""1"",""4580""
","
","
","""event"",""trial"",""time""
""fullscreenenter"",""1"",""4580""
","
","","3712.1999999284744","Great! It seems like you are getting the hang of this.","80","","instructions","2021-08-03 16:50:55.264","","","","","",""
"casino-keyboard-response","23","114546","0.0-16.0-0.1","A577","false","img/card_backs/set1/green.gif","img/card_backs/set1/yellow.gif","img/card_backs/set1/red.gif","img/card_backs/set1/purple.gif","img/card_backs/set2/blue.gif","img/card_backs/set2/orange.gif","img/card_backs/set2/pink.gif","img/card_backs/set2/gray.gif","""event"",""trial"",""time""
""fullscreenenter"",""1"",""4580""
","
","
","""event"",""trial"",""time""
""fullscreenenter"",""1"",""4580""
","
","","7399.100000023842","You may have noticed that some cards will cause you to <b> win </b> tokens while other cards will cause you to <b> lose </b>  tokens.","70","","instructions","2021-08-03 16:51:02.664","","","","","",""
"casino-keyboard-response","24","123086","0.0-16.0-0.2","A577","false","img/card_backs/set1/green.gif","img/card_backs/set1/yellow.gif","img/card_backs/set1/red.gif","img/card_backs/set1/purple.gif","img/card_backs/set2/blue.gif","img/card_backs/set2/orange.gif","img/card_backs/set2/pink.gif","img/card_backs/set2/gray.gif","""event"",""trial"",""time""
""fullscreenenter"",""1"",""4580""
","
","
","""event"",""trial"",""time""
""fullscreenenter"",""1"",""4580""
","
","","8538.600000023842","Each deck has a mix of cards that will cause you to win and lose tokens. </br> However, the cards in each colored deck are different.","73","","instructions","2021-08-03 16:51:11.204","","","","","",""
"casino-keyboard-response","25","131337","0.0-16.0-0.3","A577","false","img/card_backs/set1/green.gif","img/card_backs/set1/yellow.gif","img/card_backs/set1/red.gif","img/card_backs/set1/purple.gif","img/card_backs/set2/blue.gif","img/card_backs/set2/orange.gif","img/card_backs/set2/pink.gif","img/card_backs/set2/gray.gif","""event"",""trial"",""time""
""fullscreenenter"",""1"",""4580""
","
","
","""event"",""trial"",""time""
""fullscreenenter"",""1"",""4580""
","
","","8250.299999952316","Some colored decks are luckier than others. </br> If you choose the lucky decks, you will earn more tokens than if you choose the unlucky decks.","69","","instructions","2021-08-03 16:51:19.455","","","","","",""
"casino-keyboard-response","26","138566","0.0-16.0-0.4","A577","false","img/card_backs/set1/green.gif","img/card_backs/set1/yellow.gif","img/card_backs/set1/red.gif","img/card_backs/set1/purple.gif","img/card_backs/set2/blue.gif","img/card_backs/set2/orange.gif","img/card_backs/set2/pink.gif","img/card_backs/set2/gray.gif","""event"",""trial"",""time""
""fullscreenenter"",""1"",""4580""
","
","
","""event"",""trial"",""time""
""fullscreenenter"",""1"",""4580""
","
","","7226.899999976158","You should try to figure out which decks are lucky. </br> Then, try to choose the lucky decks so you can win the most tokens.","87","","instructions","2021-08-03 16:51:26.684","","","","","",""
"casino-keyboard-response","27","149901","0.0-16.0-0.5","A577","false","img/card_backs/set1/green.gif","img/card_backs/set1/yellow.gif","img/card_backs/set1/red.gif","img/card_backs/set1/purple.gif","img/card_backs/set2/blue.gif","img/card_backs/set2/orange.gif","img/card_backs/set2/pink.gif","img/card_backs/set2/gray.gif","""event"",""trial"",""time""
""fullscreenenter"",""1"",""4580""
","
","
","""event"",""trial"",""time""
""fullscreenenter"",""1"",""4580""
","
","","11334","To make it trickier, the casino dealer will switch the locations of the decks on every turn. </br> The color of the deck determines how lucky it is. The location does not matter.","88","","instructions","2021-08-03 16:51:38.019","","","","","",""
"casino-keyboard-response","28","168084","0.0-16.0-0.6","A577","false","img/card_backs/set1/green.gif","img/card_backs/set1/yellow.gif","img/card_backs/set1/red.gif","img/card_backs/set1/purple.gif","img/card_backs/set2/blue.gif","img/card_backs/set2/orange.gif","img/card_backs/set2/pink.gif","img/card_backs/set2/gray.gif","""event"",""trial"",""time""
""fullscreenenter"",""1"",""4580""
","
","
","""event"",""trial"",""time""
""fullscreenenter"",""1"",""4580""
","
","","18182.399999976158","The mix of cards in each colored deck will stay the same throughout the game. </br> That means that a deck that is lucky early on will stay lucky.","79","","instructions","2021-08-03 16:51:56.202","","","","","",""
"casino-keyboard-response","29","176082","0.0-16.0-0.7","A577","false","img/card_backs/set1/green.gif","img/card_backs/set1/yellow.gif","img/card_backs/set1/red.gif","img/card_backs/set1/purple.gif","img/card_backs/set2/blue.gif","img/card_backs/set2/orange.gif","img/card_backs/set2/pink.gif","img/card_backs/set2/gray.gif","""event"",""trial"",""time""
""fullscreenenter"",""1"",""4580""
","
","
","""event"",""trial"",""time""
""fullscreenenter"",""1"",""4580""
","
","","7996.300000071526","Remember though, all the decks have a <b> mix </b> of both <b> good </b> and <b> bad </b> cards so it may take a couple of turns to figure out if a deck is lucky.","69","","instructions","2021-08-03 16:52:04.200","","","","","",""
"casino-keyboard-response","30","184317","0.0-16.0-0.8","A577","false","img/card_backs/set1/green.gif","img/card_backs/set1/yellow.gif","img/card_backs/set1/red.gif","img/card_backs/set1/purple.gif","img/card_backs/set2/blue.gif","img/card_backs/set2/orange.gif","img/card_backs/set2/pink.gif","img/card_backs/set2/gray.gif","""event"",""trial"",""time""
""fullscreenenter"",""1"",""4580""
","
","
","""event"",""trial"",""time""
""fullscreenenter"",""1"",""4580""
","
","","8234","At the end of the game, you will be paid bonus money based on how many tokens you win. </br> If you win more tokens, you will earn more money!","72","","instructions","2021-08-03 16:52:12.435","","","","","",""
"casino-keyboard-response","31","194618","0.0-16.0-0.9","A577","false","img/card_backs/set1/green.gif","img/card_backs/set1/yellow.gif","img/card_backs/set1/red.gif","img/card_backs/set1/purple.gif","img/card_backs/set2/blue.gif","img/card_backs/set2/orange.gif","img/card_backs/set2/pink.gif","img/card_backs/set2/gray.gif","""event"",""trial"",""time""
""fullscreenenter"",""1"",""4580""
","
","
","""event"",""trial"",""time""
""fullscreenenter"",""1"",""4580""
","
","","10300","You will never <b> lose </b> money. </br> If you end up with fewer than 0 tokens, you will earn $0 of bonus money, but you will still be paid for playing the game.","83","","instructions","2021-08-03 16:52:22.736","","","","","",""
"casino-keyboard-response","32","199279","0.0-16.0-0.10","A577","false","img/card_backs/set1/green.gif","img/card_backs/set1/yellow.gif","img/card_backs/set1/red.gif","img/card_backs/set1/purple.gif","img/card_backs/set2/blue.gif","img/card_backs/set2/orange.gif","img/card_backs/set2/pink.gif","img/card_backs/set2/gray.gif","""event"",""trial"",""time""
""fullscreenenter"",""1"",""4580""
","
","
","""event"",""trial"",""time""
""fullscreenenter"",""1"",""4580""
","
","","4660.100000023842","You will have 10 seconds to make each choice.","82","","instructions","2021-08-03 16:52:27.397","","","","","",""
"casino-keyboard-response","33","207986","0.0-16.0-0.11","A577","false","img/card_backs/set1/green.gif","img/card_backs/set1/yellow.gif","img/card_backs/set1/red.gif","img/card_backs/set1/purple.gif","img/card_backs/set2/blue.gif","img/card_backs/set2/orange.gif","img/card_backs/set2/pink.gif","img/card_backs/set2/gray.gif","""event"",""trial"",""time""
""fullscreenenter"",""1"",""4580""
","
","
","""event"",""trial"",""time""
""fullscreenenter"",""1"",""4580""
","
","","8704.299999952316","Before you play the game for real, you will play with practice decks. </br> The tokens you earn during practice won't count toward your total.","86","","instructions","2021-08-03 16:52:36.104","","","","","",""
"casino-keyboard-response","34","219061","0.0-16.0-0.12","A577","false","img/card_backs/set1/green.gif","img/card_backs/set1/yellow.gif","img/card_backs/set1/red.gif","img/card_backs/set1/purple.gif","img/card_backs/set2/blue.gif","img/card_backs/set2/orange.gif","img/card_backs/set2/pink.gif","img/card_backs/set2/gray.gif","""event"",""trial"",""time""
""fullscreenenter"",""1"",""4580""
","
","
","""event"",""trial"",""time""
""fullscreenenter"",""1"",""4580""
","
","","11074.100000023842","Ready? Remember, use the '2', '4', '6', and '8' keys to select the decks. </br> Put your fingers on those keys now and then press '2' to begin.","50","","instructions","2021-08-03 16:52:47.179","","","","","",""
"casino-fixation","35","219563","0.0-17.0-0.0","A577","false","img/card_backs/set1/green.gif","img/card_backs/set1/yellow.gif","img/card_backs/set1/red.gif","img/card_backs/set1/purple.gif","img/card_backs/set2/blue.gif","img/card_backs/set2/orange.gif","img/card_backs/set2/pink.gif","img/card_backs/set2/gray.gif","""event"",""trial"",""time""
""fullscreenenter"",""1"",""4580""
","
","
","""event"",""trial"",""time""
""fullscreenenter"",""1"",""4580""
","
","","null","","null","","fixation","2021-08-03 16:52:47.681","","","","","",""
"card-selection-trial","36","222645","0.0-17.0-1.0","A577","false","img/card_backs/set1/green.gif","img/card_backs/set1/yellow.gif","img/card_backs/set1/red.gif","img/card_backs/set1/purple.gif","img/card_backs/set2/blue.gif","img/card_backs/set2/orange.gif","img/card_backs/set2/pink.gif","img/card_backs/set2/gray.gif","""event"",""trial"",""time""
""fullscreenenter"",""1"",""4580""
","
","
","""event"",""trial"",""time""
""fullscreenenter"",""1"",""4580""
","
","","1073.7999999523163","","","","practice","2021-08-03 16:52:50.763","img/practice_cards/backs/dark_green.gif","0","-200","0","",""
"casino-fixation","37","223150","0.0-17.0-0.1","A577","false","img/card_backs/set1/green.gif","img/card_backs/set1/yellow.gif","img/card_backs/set1/red.gif","img/card_backs/set1/purple.gif","img/card_backs/set2/blue.gif","img/card_backs/set2/orange.gif","img/card_backs/set2/pink.gif","img/card_backs/set2/gray.gif","""event"",""trial"",""time""
""fullscreenenter"",""1"",""4580""
","
","
","""event"",""trial"",""time""
""fullscreenenter"",""1"",""4580""
","
","","null","","null","","fixation","2021-08-03 16:52:51.268","","","","","",""
"card-selection-trial","38","225983","0.0-17.0-1.1","A577","false","img/card_backs/set1/green.gif","img/card_backs/set1/yellow.gif","img/card_backs/set1/red.gif","img/card_backs/set1/purple.gif","img/card_backs/set2/blue.gif","img/card_backs/set2/orange.gif","img/card_backs/set2/pink.gif","img/card_backs/set2/gray.gif","""event"",""trial"",""time""
""fullscreenenter"",""1"",""4580""
","
","
","""event"",""trial"",""time""
""fullscreenenter"",""1"",""4580""
","
","","828.7999999523163","","","","practice","2021-08-03 16:52:54.101","img/practice_cards/backs/dark_blue.gif","1","200","0","",""
"casino-fixation","39","226488","0.0-17.0-0.2","A577","false","img/card_backs/set1/green.gif","img/card_backs/set1/yellow.gif","img/card_backs/set1/red.gif","img/card_backs/set1/purple.gif","img/card_backs/set2/blue.gif","img/card_backs/set2/orange.gif","img/card_backs/set2/pink.gif","img/card_backs/set2/gray.gif","""event"",""trial"",""time""
""fullscreenenter"",""1"",""4580""
","
","
","""event"",""trial"",""time""
""fullscreenenter"",""1"",""4580""
","
","","null","","null","","fixation","2021-08-03 16:52:54.606","","","","","",""
"card-selection-trial","40","229006","0.0-17.0-1.2","A577","false","img/card_backs/set1/green.gif","img/card_backs/set1/yellow.gif","img/card_backs/set1/red.gif","img/card_backs/set1/purple.gif","img/card_backs/set2/blue.gif","img/card_backs/set2/orange.gif","img/card_backs/set2/pink.gif","img/card_backs/set2/gray.gif","""event"",""trial"",""time""
""fullscreenenter"",""1"",""4580""
","
","
","""event"",""trial"",""time""
""fullscreenenter"",""1"",""4580""
","
","","512.7999999523163","","","","practice","2021-08-03 16:52:57.124","img/practice_cards/backs/dark_blue.gif","1","200","0","",""
"casino-fixation","41","229512","0.0-17.0-0.3","A577","false","img/card_backs/set1/green.gif","img/card_backs/set1/yellow.gif","img/card_backs/set1/red.gif","img/card_backs/set1/purple.gif","img/card_backs/set2/blue.gif","img/card_backs/set2/orange.gif","img/card_backs/set2/pink.gif","img/card_backs/set2/gray.gif","""event"",""trial"",""time""
""fullscreenenter"",""1"",""4580""
","
","
","""event"",""trial"",""time""
""fullscreenenter"",""1"",""4580""
","
","","null","","null","","fixation","2021-08-03 16:52:57.630","","","","","",""
"card-selection-trial","42","232003","0.0-17.0-1.3","A577","false","img/card_backs/set1/green.gif","img/card_backs/set1/yellow.gif","img/card_backs/set1/red.gif","img/card_backs/set1/purple.gif","img/card_backs/set2/blue.gif","img/card_backs/set2/orange.gif","img/card_backs/set2/pink.gif","img/card_backs/set2/gray.gif","""event"",""trial"",""time""
""fullscreenenter"",""1"",""4580""
","
","
","""event"",""trial"",""time""
""fullscreenenter"",""1"",""4580""
","
","","483.39999997615814","","","","practice","2021-08-03 16:53:00.121","img/practice_cards/backs/dark_blue.gif","1","-200","0","",""
"casino-fixation","43","232508","0.0-17.0-0.4","A577","false","img/card_backs/set1/green.gif","img/card_backs/set1/yellow.gif","img/card_backs/set1/red.gif","img/card_backs/set1/purple.gif","img/card_backs/set2/blue.gif","img/card_backs/set2/orange.gif","img/card_backs/set2/pink.gif","img/card_backs/set2/gray.gif","""event"",""trial"",""time""
""fullscreenenter"",""1"",""4580""
","
","
","""event"",""trial"",""time""
""fullscreenenter"",""1"",""4580""
","
","","null","","null","","fixation","2021-08-03 16:53:00.626","","","","","",""
"card-selection-trial","44","234987","0.0-17.0-1.4","A577","false","img/card_backs/set1/green.gif","img/card_backs/set1/yellow.gif","img/card_backs/set1/red.gif","img/card_backs/set1/purple.gif","img/card_backs/set2/blue.gif","img/card_backs/set2/orange.gif","img/card_backs/set2/pink.gif","img/card_backs/set2/gray.gif","""event"",""trial"",""time""
""fullscreenenter"",""1"",""4580""
","
","
","""event"",""trial"",""time""
""fullscreenenter"",""1"",""4580""
","
","","474.90000009536743","","","","practice","2021-08-03 16:53:03.105","img/practice_cards/backs/brown.gif","1","100","0","",""
"casino-fixation","45","235488","0.0-17.0-0.5","A577","false","img/card_backs/set1/green.gif","img/card_backs/set1/yellow.gif","img/card_backs/set1/red.gif","img/card_backs/set1/purple.gif","img/card_backs/set2/blue.gif","img/card_backs/set2/orange.gif","img/card_backs/set2/pink.gif","img/card_backs/set2/gray.gif","""event"",""trial"",""time""
""fullscreenenter"",""1"",""4580""
","
","
","""event"",""trial"",""time""
""fullscreenenter"",""1"",""4580""
","
","","null","","null","","fixation","2021-08-03 16:53:03.606","","","","","",""
"card-selection-trial","46","237965","0.0-17.0-1.5","A577","false","img/card_backs/set1/green.gif","img/card_backs/set1/yellow.gif","img/card_backs/set1/red.gif","img/card_backs/set1/purple.gif","img/card_backs/set2/blue.gif","img/card_backs/set2/orange.gif","img/card_backs/set2/pink.gif","img/card_backs/set2/gray.gif","""event"",""trial"",""time""
""fullscreenenter"",""1"",""4580""
","
","
","""event"",""trial"",""time""
""fullscreenenter"",""1"",""4580""
","
","","472.5","","","","practice","2021-08-03 16:53:06.083","img/practice_cards/backs/brown.gif","1","-100","0","",""
"casino-fixation","47","238470","0.0-17.0-0.6","A577","false","img/card_backs/set1/green.gif","img/card_backs/set1/yellow.gif","img/card_backs/set1/red.gif","img/card_backs/set1/purple.gif","img/card_backs/set2/blue.gif","img/card_backs/set2/orange.gif","img/card_backs/set2/pink.gif","img/card_backs/set2/gray.gif","""event"",""trial"",""time""
""fullscreenenter"",""1"",""4580""
","
","
","""event"",""trial"",""time""
""fullscreenenter"",""1"",""4580""
","
","","null","","null","","fixation","2021-08-03 16:53:06.588","","","","","",""
"card-selection-trial","48","240908","0.0-17.0-1.6","A577","false","img/card_backs/set1/green.gif","img/card_backs/set1/yellow.gif","img/card_backs/set1/red.gif","img/card_backs/set1/purple.gif","img/card_backs/set2/blue.gif","img/card_backs/set2/orange.gif","img/card_backs/set2/pink.gif","img/card_backs/set2/gray.gif","""event"",""trial"",""time""
""fullscreenenter"",""1"",""4580""
","
","
","""event"",""trial"",""time""
""fullscreenenter"",""1"",""4580""
","
","","430.39999997615814","","","","practice","2021-08-03 16:53:09.026","img/practice_cards/backs/brown.gif","2","-100","0","",""
"casino-fixation","49","241413","0.0-17.0-0.7","A577","false","img/card_backs/set1/green.gif","img/card_backs/set1/yellow.gif","img/card_backs/set1/red.gif","img/card_backs/set1/purple.gif","img/card_backs/set2/blue.gif","img/card_backs/set2/orange.gif","img/card_backs/set2/pink.gif","img/card_backs/set2/gray.gif","""event"",""trial"",""time""
""fullscreenenter"",""1"",""4580""
","
","
","""event"",""trial"",""time""
""fullscreenenter"",""1"",""4580""
","
","","null","","null","","fixation","2021-08-03 16:53:09.531","","","","","",""
"card-selection-trial","50","243863","0.0-17.0-1.7","A577","false","img/card_backs/set1/green.gif","img/card_backs/set1/yellow.gif","img/card_backs/set1/red.gif","img/card_backs/set1/purple.gif","img/card_backs/set2/blue.gif","img/card_backs/set2/orange.gif","img/card_backs/set2/pink.gif","img/card_backs/set2/gray.gif","""event"",""trial"",""time""
""fullscreenenter"",""1"",""4580""
","
","
","""event"",""trial"",""time""
""fullscreenenter"",""1"",""4580""
","
","","444.3000000715256","","","","practice","2021-08-03 16:53:11.981","img/practice_cards/backs/dark_blue.gif","1","-200","0","",""
"casino-fixation","51","244368","0.0-17.0-0.8","A577","false","img/card_backs/set1/green.gif","img/card_backs/set1/yellow.gif","img/card_backs/set1/red.gif","img/card_backs/set1/purple.gif","img/card_backs/set2/blue.gif","img/card_backs/set2/orange.gif","img/card_backs/set2/pink.gif","img/card_backs/set2/gray.gif","""event"",""trial"",""time""
""fullscreenenter"",""1"",""4580""
","
","
","""event"",""trial"",""time""
""fullscreenenter"",""1"",""4580""
","
","","null","","null","","fixation","2021-08-03 16:53:12.486","","","","","",""
"card-selection-trial","52","246833","0.0-17.0-1.8","A577","false","img/card_backs/set1/green.gif","img/card_backs/set1/yellow.gif","img/card_backs/set1/red.gif","img/card_backs/set1/purple.gif","img/card_backs/set2/blue.gif","img/card_backs/set2/orange.gif","img/card_backs/set2/pink.gif","img/card_backs/set2/gray.gif","""event"",""trial"",""time""
""fullscreenenter"",""1"",""4580""
","
","
","""event"",""trial"",""time""
""fullscreenenter"",""1"",""4580""
","
","","460.89999997615814","","","","practice","2021-08-03 16:53:14.952","img/practice_cards/backs/dark_blue.gif","3","-200","0","",""
"casino-fixation","53","247336","0.0-17.0-0.9","A577","false","img/card_backs/set1/green.gif","img/card_backs/set1/yellow.gif","img/card_backs/set1/red.gif","img/card_backs/set1/purple.gif","img/card_backs/set2/blue.gif","img/card_backs/set2/orange.gif","img/card_backs/set2/pink.gif","img/card_backs/set2/gray.gif","""event"",""trial"",""time""
""fullscreenenter"",""1"",""4580""
","
","
","""event"",""trial"",""time""
""fullscreenenter"",""1"",""4580""
","
","","null","","null","","fixation","2021-08-03 16:53:15.454","","","","","",""
"card-selection-trial","54","249849","0.0-17.0-1.9","A577","false","img/card_backs/set1/green.gif","img/card_backs/set1/yellow.gif","img/card_backs/set1/red.gif","img/card_backs/set1/purple.gif","img/card_backs/set2/blue.gif","img/card_backs/set2/orange.gif","img/card_backs/set2/pink.gif","img/card_backs/set2/gray.gif","""event"",""trial"",""time""
""fullscreenenter"",""1"",""4580""
","
","
","""event"",""trial"",""time""
""fullscreenenter"",""1"",""4580""
","
","","506.2999999523163","","","","practice","2021-08-03 16:53:17.967","img/practice_cards/backs/black.gif","1","-100","0","",""
"casino-keyboard-response","55","252622","0.0-18.0","A577","false","img/card_backs/set1/green.gif","img/card_backs/set1/yellow.gif","img/card_backs/set1/red.gif","img/card_backs/set1/purple.gif","img/card_backs/set2/blue.gif","img/card_backs/set2/orange.gif","img/card_backs/set2/pink.gif","img/card_backs/set2/gray.gif","""event"",""trial"",""time""
""fullscreenenter"",""1"",""4580""
","
","
","""event"",""trial"",""time""
""fullscreenenter"",""1"",""4580""
","
","","2772.2999999523163","You earned -600 tokens during the practice round!","82","","","2021-08-03 16:53:20.741","","","","","",""
"casino-keyboard-response","56","256898","0.0-19.0-0.0","A577","false","img/card_backs/set1/green.gif","img/card_backs/set1/yellow.gif","img/card_backs/set1/red.gif","img/card_backs/set1/purple.gif","img/card_backs/set2/blue.gif","img/card_backs/set2/orange.gif","img/card_backs/set2/pink.gif","img/card_backs/set2/gray.gif","""event"",""trial"",""time""
""fullscreenenter"",""1"",""4580""
","
","
","""event"",""trial"",""time""
""fullscreenenter"",""1"",""4580""
","
","","4274.700000047684","Nice job! You are almost ready to play the real game.","86","","instructions","2021-08-03 16:53:25.016","","","","","",""
"casino-keyboard-response","57","264067","0.0-19.0-0.1","A577","false","img/card_backs/set1/green.gif","img/card_backs/set1/yellow.gif","img/card_backs/set1/red.gif","img/card_backs/set1/purple.gif","img/card_backs/set2/blue.gif","img/card_backs/set2/orange.gif","img/card_backs/set2/pink.gif","img/card_backs/set2/gray.gif","""event"",""trial"",""time""
""fullscreenenter"",""1"",""4580""
","
","
","""event"",""trial"",""time""
""fullscreenenter"",""1"",""4580""
","
","","7168","You will play two rounds of the real game. In each round, you will pick 100 cards in total.","73","","instructions","2021-08-03 16:53:32.185","","","","","",""
"casino-keyboard-response","58","268396","0.0-19.0-0.2","A577","false","img/card_backs/set1/green.gif","img/card_backs/set1/yellow.gif","img/card_backs/set1/red.gif","img/card_backs/set1/purple.gif","img/card_backs/set2/blue.gif","img/card_backs/set2/orange.gif","img/card_backs/set2/pink.gif","img/card_backs/set2/gray.gif","""event"",""trial"",""time""
""fullscreenenter"",""1"",""4580""
","
","
","""event"",""trial"",""time""
""fullscreenenter"",""1"",""4580""
","
","","4327.799999952316","We are now going to ask you some questions about how the game works.","66","","instructions","2021-08-03 16:53:36.514","","","","","",""
"casino-keyboard-response","59","274619","0.0-19.0-0.3","A577","false","img/card_backs/set1/green.gif","img/card_backs/set1/yellow.gif","img/card_backs/set1/red.gif","img/card_backs/set1/purple.gif","img/card_backs/set2/blue.gif","img/card_backs/set2/orange.gif","img/card_backs/set2/pink.gif","img/card_backs/set2/gray.gif","""event"",""trial"",""time""
""fullscreenenter"",""1"",""4580""
","
","
","""event"",""trial"",""time""
""fullscreenenter"",""1"",""4580""
","
","","6221.399999976158","Answer carefully. You will not be able to begin the game until you answer them correctly.","67","","instructions","2021-08-03 16:53:42.737","","","","","",""
"casino-comp_q","60","281563","0.0-20.0-0.0","A577","false","img/card_backs/set1/green.gif","img/card_backs/set1/yellow.gif","img/card_backs/set1/red.gif","img/card_backs/set1/purple.gif","img/card_backs/set2/blue.gif","img/card_backs/set2/orange.gif","img/card_backs/set2/pink.gif","img/card_backs/set2/gray.gif","""event"",""trial"",""time""
""fullscreenenter"",""1"",""4580""
","
","
","""event"",""trial"",""time""
""fullscreenenter"",""1"",""4580""
","
","","6942.200000047684","True or False: All the decks have some cards that cause you to win tokens and some cards that cause you to lose tokens.","84","","","2021-08-03 16:53:49.681","","","","","",""
"casino-keyboard-response","61","285214","0.0-20.0-1.0","A577","false","img/card_backs/set1/green.gif","img/card_backs/set1/yellow.gif","img/card_backs/set1/red.gif","img/card_backs/set1/purple.gif","img/card_backs/set2/blue.gif","img/card_backs/set2/orange.gif","img/card_backs/set2/pink.gif","img/card_backs/set2/gray.gif","""event"",""trial"",""time""
""fullscreenenter"",""1"",""4580""
","
","
","""event"",""trial"",""time""
""fullscreenenter"",""1"",""4580""
","
","","3648.7000000476837","True is correct! All the decks have a mix of winning and losing cards.","77","","","2021-08-03 16:53:53.332","","","","","true",""
"casino-comp_q","62","288995","0.0-21.0-0.0","A577","false","img/card_backs/set1/green.gif","img/card_backs/set1/yellow.gif","img/card_backs/set1/red.gif","img/card_backs/set1/purple.gif","img/card_backs/set2/blue.gif","img/card_backs/set2/orange.gif","img/card_backs/set2/pink.gif","img/card_backs/set2/gray.gif","""event"",""trial"",""time""
""fullscreenenter"",""1"",""4580""
","
","
","""event"",""trial"",""time""
""fullscreenenter"",""1"",""4580""
","
","","3780.100000023842","True or False: You will have as much time as you want to make your response.","70","","","2021-08-03 16:53:57.113","","","","","",""
"casino-keyboard-response","63","292280","0.0-21.0-1.0","A577","false","img/card_backs/set1/green.gif","img/card_backs/set1/yellow.gif","img/card_backs/set1/red.gif","img/card_backs/set1/purple.gif","img/card_backs/set2/blue.gif","img/card_backs/set2/orange.gif","img/card_backs/set2/pink.gif","img/card_backs/set2/gray.gif","""event"",""trial"",""time""
""fullscreenenter"",""1"",""4580""
","
","
","""event"",""trial"",""time""
""fullscreenenter"",""1"",""4580""
","
","","3282.5","False is correct! You will only have 10 seconds to make each choice.","75","","","2021-08-03 16:54:00.398","","","","","true",""
"casino-comp_q","64","297464","0.0-22.0-0.0","A577","false","img/card_backs/set1/green.gif","img/card_backs/set1/yellow.gif","img/card_backs/set1/red.gif","img/card_backs/set1/purple.gif","img/card_backs/set2/blue.gif","img/card_backs/set2/orange.gif","img/card_backs/set2/pink.gif","img/card_backs/set2/gray.gif","""event"",""trial"",""time""
""fullscreenenter"",""1"",""4580""
","
","
","""event"",""trial"",""time""
""fullscreenenter"",""1"",""4580""
","
","","5183.699999928474","True or False: The location of the deck determines how lucky it is.","70","","","2021-08-03 16:54:05.582","","","","","",""
"casino-keyboard-response","65","302458","0.0-22.0-1.0","A577","false","img/card_backs/set1/green.gif","img/card_backs/set1/yellow.gif","img/card_backs/set1/red.gif","img/card_backs/set1/purple.gif","img/card_backs/set2/blue.gif","img/card_backs/set2/orange.gif","img/card_backs/set2/pink.gif","img/card_backs/set2/gray.gif","""event"",""trial"",""time""
""fullscreenenter"",""1"",""4580""
","
","
","""event"",""trial"",""time""
""fullscreenenter"",""1"",""4580""
","
","","4992.5","False is correct! The <i>color</i>  of the deck determines how lucky or unlucky it is.","68","","","2021-08-03 16:54:10.576","","","","","true",""
"casino-keyboard-response","66","306510","0.0-23.0-0.0","A577","false","img/card_backs/set1/green.gif","img/card_backs/set1/yellow.gif","img/card_backs/set1/red.gif","img/card_backs/set1/purple.gif","img/card_backs/set2/blue.gif","img/card_backs/set2/orange.gif","img/card_backs/set2/pink.gif","img/card_backs/set2/gray.gif","""event"",""trial"",""time""
""fullscreenenter"",""1"",""4580""
","
","
","""event"",""trial"",""time""
""fullscreenenter"",""1"",""4580""
","
","","4050.600000023842","Great job! Now it's time to start the real game.","82","","instructions","2021-08-03 16:54:14.628","","","","","",""
"casino-keyboard-response","67","311734","0.0-23.0-0.1","A577","false","img/card_backs/set1/green.gif","img/card_backs/set1/yellow.gif","img/card_backs/set1/red.gif","img/card_backs/set1/purple.gif","img/card_backs/set2/blue.gif","img/card_backs/set2/orange.gif","img/card_backs/set2/pink.gif","img/card_backs/set2/gray.gif","""event"",""trial"",""time""
""fullscreenenter"",""1"",""4580""
","
","
","""event"",""trial"",""time""
""fullscreenenter"",""1"",""4580""
","
","","5223.5","Before we start, we're going to head into a new room of the casino.","86","","instructions","2021-08-03 16:54:19.852","","","","","",""
"casino-keyboard-response","68","318032","0.0-24.0-0.0","A577","false","img/card_backs/set1/green.gif","img/card_backs/set1/yellow.gif","img/card_backs/set1/red.gif","img/card_backs/set1/purple.gif","img/card_backs/set2/blue.gif","img/card_backs/set2/orange.gif","img/card_backs/set2/pink.gif","img/card_backs/set2/gray.gif","""event"",""trial"",""time""
""fullscreenenter"",""1"",""4580""
","
","
","""event"",""trial"",""time""
""fullscreenenter"",""1"",""4580""
","
","","6296.600000023842","Here we are! The real game will use different cards, but the rules will be the same.","71","","instructions","2021-08-03 16:54:26.150","","","","","",""
"casino-keyboard-response","69","327811","0.0-24.0-0.1","A577","false","img/card_backs/set1/green.gif","img/card_backs/set1/yellow.gif","img/card_backs/set1/red.gif","img/card_backs/set1/purple.gif","img/card_backs/set2/blue.gif","img/card_backs/set2/orange.gif","img/card_backs/set2/pink.gif","img/card_backs/set2/gray.gif","""event"",""trial"",""time""
""fullscreenenter"",""1"",""4580""
","
","
","""event"",""trial"",""time""
""fullscreenenter"",""1"",""4580""
","
","","9778.199999928474","Ready? Put your fingers over the '2', '4', 6', and '8' keys so you are ready to play the game. </br> Then press 2 to start.","50","","instructions","2021-08-03 16:54:35.929","","","","","",""
"casino-fixation","70","328312","0.0-25.0-0.0","A577","false","img/card_backs/set1/green.gif","img/card_backs/set1/yellow.gif","img/card_backs/set1/red.gif","img/card_backs/set1/purple.gif","img/card_backs/set2/blue.gif","img/card_backs/set2/orange.gif","img/card_backs/set2/pink.gif","img/card_backs/set2/gray.gif","""event"",""trial"",""time""
""fullscreenenter"",""1"",""4580""
","
","
","""event"",""trial"",""time""
""fullscreenenter"",""1"",""4580""
","
","","null","","null","","fixation","2021-08-03 16:54:36.430","","","","","",""
"card-selection-trial","71","331133","0.0-25.0-1.0","A577","false","img/card_backs/set1/green.gif","img/card_backs/set1/yellow.gif","img/card_backs/set1/red.gif","img/card_backs/set1/purple.gif","img/card_backs/set2/blue.gif","img/card_backs/set2/orange.gif","img/card_backs/set2/pink.gif","img/card_backs/set2/gray.gif","""event"",""trial"",""time""
""fullscreenenter"",""1"",""4580""
","
","
","""event"",""trial"",""time""
""fullscreenenter"",""1"",""4580""
","
","","814.9000000953674","","","","real_trial","2021-08-03 16:54:39.251","img/card_backs/set1/red.gif","1","-50","1","",""
"casino-fixation","72","331638","0.0-25.0-0.1","A577","false","img/card_backs/set1/green.gif","img/card_backs/set1/yellow.gif","img/card_backs/set1/red.gif","img/card_backs/set1/purple.gif","img/card_backs/set2/blue.gif","img/card_backs/set2/orange.gif","img/card_backs/set2/pink.gif","img/card_backs/set2/gray.gif","""event"",""trial"",""time""
""fullscreenenter"",""1"",""4580""
","
","
","""event"",""trial"",""time""
""fullscreenenter"",""1"",""4580""
","
","","null","","null","","fixation","2021-08-03 16:54:39.756","","","","","",""
"card-selection-trial","73","338333","0.0-25.0-1.1","A577","false","img/card_backs/set1/green.gif","img/card_backs/set1/yellow.gif","img/card_backs/set1/red.gif","img/card_backs/set1/purple.gif","img/card_backs/set2/blue.gif","img/card_backs/set2/orange.gif","img/card_backs/set2/pink.gif","img/card_backs/set2/gray.gif","""event"",""trial"",""time""
""fullscreenenter"",""1"",""4580""
","
","
","""event"",""trial"",""time""
""fullscreenenter"",""1"",""4580""
","
","","4686.700000047684","","","","real_trial","2021-08-03 16:54:46.451","img/card_backs/set1/purple.gif","2","100","1","",""
"casino-fixation","74","338837","0.0-25.0-0.2","A577","false","img/card_backs/set1/green.gif","img/card_backs/set1/yellow.gif","img/card_backs/set1/red.gif","img/card_backs/set1/purple.gif","img/card_backs/set2/blue.gif","img/card_backs/set2/orange.gif","img/card_backs/set2/pink.gif","img/card_backs/set2/gray.gif","""event"",""trial"",""time""
""fullscreenenter"",""1"",""4580""
","
","
","""event"",""trial"",""time""
""fullscreenenter"",""1"",""4580""
","
","","null","","null","","fixation","2021-08-03 16:54:46.955","","","","","",""
"card-selection-trial","75","341768","0.0-25.0-1.2","A577","false","img/card_backs/set1/green.gif","img/card_backs/set1/yellow.gif","img/card_backs/set1/red.gif","img/card_backs/set1/purple.gif","img/card_backs/set2/blue.gif","img/card_backs/set2/orange.gif","img/card_backs/set2/pink.gif","img/card_backs/set2/gray.gif","""event"",""trial"",""time""
""fullscreenenter"",""1"",""4580""
","
","
","""event"",""trial"",""time""
""fullscreenenter"",""1"",""4580""
","
","","924.6999999284744","","","","real_trial","2021-08-03 16:54:49.886","img/card_backs/set1/purple.gif","3","-70","1","",""
"casino-fixation","76","342273","0.0-25.0-0.3","A577","false","img/card_backs/set1/green.gif","img/card_backs/set1/yellow.gif","img/card_backs/set1/red.gif","img/card_backs/set1/purple.gif","img/card_backs/set2/blue.gif","img/card_backs/set2/orange.gif","img/card_backs/set2/pink.gif","img/card_backs/set2/gray.gif","""event"",""trial"",""time""
""fullscreenenter"",""1"",""4580""
","
","
","""event"",""trial"",""time""
""fullscreenenter"",""1"",""4580""
","
","","null","","null","","fixation","2021-08-03 16:54:50.391","","","","","",""
"card-selection-trial","77","345082","0.0-25.0-1.3","A577","false","img/card_backs/set1/green.gif","img/card_backs/set1/yellow.gif","img/card_backs/set1/red.gif","img/card_backs/set1/purple.gif","img/card_backs/set2/blue.gif","img/card_backs/set2/orange.gif","img/card_backs/set2/pink.gif","img/card_backs/set2/gray.gif","""event"",""trial"",""time""
""fullscreenenter"",""1"",""4580""
","
","
","""event"",""trial"",""time""
""fullscreenenter"",""1"",""4580""
","
","","803.7000000476837","","","","real_trial","2021-08-03 16:54:53.200","img/card_backs/set1/purple.gif","3","-60","1","",""
"casino-fixation","78","345585","0.0-25.0-0.4","A577","false","img/card_backs/set1/green.gif","img/card_backs/set1/yellow.gif","img/card_backs/set1/red.gif","img/card_backs/set1/purple.gif","img/card_backs/set2/blue.gif","img/card_backs/set2/orange.gif","img/card_backs/set2/pink.gif","img/card_backs/set2/gray.gif","""event"",""trial"",""time""
""fullscreenenter"",""1"",""4580""
","
","
","""event"",""trial"",""time""
""fullscreenenter"",""1"",""4580""
","
","","null","","null","","fixation","2021-08-03 16:54:53.703","","","","","",""
"card-selection-trial","79","349105","0.0-25.0-1.4","A577","false","img/card_backs/set1/green.gif","img/card_backs/set1/yellow.gif","img/card_backs/set1/red.gif","img/card_backs/set1/purple.gif","img/card_backs/set2/blue.gif","img/card_backs/set2/orange.gif","img/card_backs/set2/pink.gif","img/card_backs/set2/gray.gif","""event"",""trial"",""time""
""fullscreenenter"",""1"",""4580""
","
","
","""event"",""trial"",""time""
""fullscreenenter"",""1"",""4580""
","
","","1512.8999999761581","","","","real_trial","2021-08-03 16:54:57.223","img/card_backs/set1/yellow.gif","3","180","1","",""
"casino-fixation","80","349610","0.0-25.0-0.5","A577","false","img/card_backs/set1/green.gif","img/card_backs/set1/yellow.gif","img/card_backs/set1/red.gif","img/card_backs/set1/purple.gif","img/card_backs/set2/blue.gif","img/card_backs/set2/orange.gif","img/card_backs/set2/pink.gif","img/card_backs/set2/gray.gif","""event"",""trial"",""time""
""fullscreenenter"",""1"",""4580""
","
","
","""event"",""trial"",""time""
""fullscreenenter"",""1"",""4580""
","
","","null","","null","","fixation","2021-08-03 16:54:57.728","","","","","",""
"card-selection-trial","81","352407","0.0-25.0-1.5","A577","false","img/card_backs/set1/green.gif","img/card_backs/set1/yellow.gif","img/card_backs/set1/red.gif","img/card_backs/set1/purple.gif","img/card_backs/set2/blue.gif","img/card_backs/set2/orange.gif","img/card_backs/set2/pink.gif","img/card_backs/set2/gray.gif","""event"",""trial"",""time""
""fullscreenenter"",""1"",""4580""
","
","
","""event"",""trial"",""time""
""fullscreenenter"",""1"",""4580""
","
","","789.1000000238419","","","","real_trial","2021-08-03 16:55:00.525","img/card_backs/set1/yellow.gif","2","-250","1","",""
"casino-fixation","82","352910","0.0-25.0-0.6","A577","false","img/card_backs/set1/green.gif","img/card_backs/set1/yellow.gif","img/card_backs/set1/red.gif","img/card_backs/set1/purple.gif","img/card_backs/set2/blue.gif","img/card_backs/set2/orange.gif","img/card_backs/set2/pink.gif","img/card_backs/set2/gray.gif","""event"",""trial"",""time""
""fullscreenenter"",""1"",""4580""
","
","
","""event"",""trial"",""time""
""fullscreenenter"",""1"",""4580""
","
","","null","","null","","fixation","2021-08-03 16:55:01.028","","","","","",""
"card-selection-trial","83","355891","0.0-25.0-1.6","A577","false","img/card_backs/set1/green.gif","img/card_backs/set1/yellow.gif","img/card_backs/set1/red.gif","img/card_backs/set1/purple.gif","img/card_backs/set2/blue.gif","img/card_backs/set2/orange.gif","img/card_backs/set2/pink.gif","img/card_backs/set2/gray.gif","""event"",""trial"",""time""
""fullscreenenter"",""1"",""4580""
","
","
","""event"",""trial"",""time""
""fullscreenenter"",""1"",""4580""
","
","","976.7000000476837","","","","real_trial","2021-08-03 16:55:04.009","img/card_backs/set1/yellow.gif","2","-230","1","",""
"casino-fixation","84","356395","0.0-25.0-0.7","A577","false","img/card_backs/set1/green.gif","img/card_backs/set1/yellow.gif","img/card_backs/set1/red.gif","img/card_backs/set1/purple.gif","img/card_backs/set2/blue.gif","img/card_backs/set2/orange.gif","img/card_backs/set2/pink.gif","img/card_backs/set2/gray.gif","""event"",""trial"",""time""
""fullscreenenter"",""1"",""4580""
","
","
","""event"",""trial"",""time""
""fullscreenenter"",""1"",""4580""
","
","","null","","null","","fixation","2021-08-03 16:55:04.513","","","","","",""
"card-selection-trial","85","359294","0.0-25.0-1.7","A577","false","img/card_backs/set1/green.gif","img/card_backs/set1/yellow.gif","img/card_backs/set1/red.gif","img/card_backs/set1/purple.gif","img/card_backs/set2/blue.gif","img/card_backs/set2/orange.gif","img/card_backs/set2/pink.gif","img/card_backs/set2/gray.gif","""event"",""trial"",""time""
""fullscreenenter"",""1"",""4580""
","
","
","""event"",""trial"",""time""
""fullscreenenter"",""1"",""4580""
","
","","894.7999999523163","","","","real_trial","2021-08-03 16:55:07.412","img/card_backs/set1/red.gif","1","-50","1","",""
"casino-fixation","86","359798","0.0-25.0-0.8","A577","false","img/card_backs/set1/green.gif","img/card_backs/set1/yellow.gif","img/card_backs/set1/red.gif","img/card_backs/set1/purple.gif","img/card_backs/set2/blue.gif","img/card_backs/set2/orange.gif","img/card_backs/set2/pink.gif","img/card_backs/set2/gray.gif","""event"",""trial"",""time""
""fullscreenenter"",""1"",""4580""
","
","
","""event"",""trial"",""time""
""fullscreenenter"",""1"",""4580""
","
","","null","","null","","fixation","2021-08-03 16:55:07.916","","","","","",""
"card-selection-trial","87","362672","0.0-25.0-1.8","A577","false","img/card_backs/set1/green.gif","img/card_backs/set1/yellow.gif","img/card_backs/set1/red.gif","img/card_backs/set1/purple.gif","img/card_backs/set2/blue.gif","img/card_backs/set2/orange.gif","img/card_backs/set2/pink.gif","img/card_backs/set2/gray.gif","""event"",""trial"",""time""
""fullscreenenter"",""1"",""4580""
","
","
","""event"",""trial"",""time""
""fullscreenenter"",""1"",""4580""
","
","","869.6000000238419","","","","real_trial","2021-08-03 16:55:10.790","img/card_backs/set1/red.gif","3","-60","1","",""
"casino-fixation","88","363177","0.0-25.0-0.9","A577","false","img/card_backs/set1/green.gif","img/card_backs/set1/yellow.gif","img/card_backs/set1/red.gif","img/card_backs/set1/purple.gif","img/card_backs/set2/blue.gif","img/card_backs/set2/orange.gif","img/card_backs/set2/pink.gif","img/card_backs/set2/gray.gif","""event"",""trial"",""time""
""fullscreenenter"",""1"",""4580""
","
","
","""event"",""trial"",""time""
""fullscreenenter"",""1"",""4580""
","
","","null","","null","","fixation","2021-08-03 16:55:11.295","","","","","",""
"card-selection-trial","89","366150","0.0-25.0-1.9","A577","false","img/card_backs/set1/green.gif","img/card_backs/set1/yellow.gif","img/card_backs/set1/red.gif","img/card_backs/set1/purple.gif","img/card_backs/set2/blue.gif","img/card_backs/set2/orange.gif","img/card_backs/set2/pink.gif","img/card_backs/set2/gray.gif","""event"",""trial"",""time""
""fullscreenenter"",""1"",""4580""
","
","
","""event"",""trial"",""time""
""fullscreenenter"",""1"",""4580""
","
","","968.5999999046326","","","","real_trial","2021-08-03 16:55:14.268","img/card_backs/set1/green.gif","0","-240","1","",""
"casino-fixation","90","366655","0.0-25.0-0.10","A577","false","img/card_backs/set1/green.gif","img/card_backs/set1/yellow.gif","img/card_backs/set1/red.gif","img/card_backs/set1/purple.gif","img/card_backs/set2/blue.gif","img/card_backs/set2/orange.gif","img/card_backs/set2/pink.gif","img/card_backs/set2/gray.gif","""event"",""trial"",""time""
""fullscreenenter"",""1"",""4580""
","
","
","""event"",""trial"",""time""
""fullscreenenter"",""1"",""4580""
","
","","null","","null","","fixation","2021-08-03 16:55:14.773","","","","","",""
"card-selection-trial","91","369407","0.0-25.0-1.10","A577","false","img/card_backs/set1/green.gif","img/card_backs/set1/yellow.gif","img/card_backs/set1/red.gif","img/card_backs/set1/purple.gif","img/card_backs/set2/blue.gif","img/card_backs/set2/orange.gif","img/card_backs/set2/pink.gif","img/card_backs/set2/gray.gif","""event"",""trial"",""time""
""fullscreenenter"",""1"",""4580""
","
","
","""event"",""trial"",""time""
""fullscreenenter"",""1"",""4580""
","
","","743.3999999761581","","","","real_trial","2021-08-03 16:55:17.525","img/card_backs/set1/green.gif","3","190","1","",""
"casino-fixation","92","369911","0.0-25.0-0.11","A577","false","img/card_backs/set1/green.gif","img/card_backs/set1/yellow.gif","img/card_backs/set1/red.gif","img/card_backs/set1/purple.gif","img/card_backs/set2/blue.gif","img/card_backs/set2/orange.gif","img/card_backs/set2/pink.gif","img/card_backs/set2/gray.gif","""event"",""trial"",""time""
""fullscreenenter"",""1"",""4580""
","
","
","""event"",""trial"",""time""
""fullscreenenter"",""1"",""4580""
","
","","null","","null","","fixation","2021-08-03 16:55:18.029","","","","","",""
"card-selection-trial","93","372704","0.0-25.0-1.11","A577","false","img/card_backs/set1/green.gif","img/card_backs/set1/yellow.gif","img/card_backs/set1/red.gif","img/card_backs/set1/purple.gif","img/card_backs/set2/blue.gif","img/card_backs/set2/orange.gif","img/card_backs/set2/pink.gif","img/card_backs/set2/gray.gif","""event"",""trial"",""time""
""fullscreenenter"",""1"",""4580""
","
","
","""event"",""trial"",""time""
""fullscreenenter"",""1"",""4580""
","
","","784","","","","real_trial","2021-08-03 16:55:20.822","img/card_backs/set1/green.gif","1","-240","1","",""
"casino-fixation","94","373209","0.0-25.0-0.12","A577","false","img/card_backs/set1/green.gif","img/card_backs/set1/yellow.gif","img/card_backs/set1/red.gif","img/card_backs/set1/purple.gif","img/card_backs/set2/blue.gif","img/card_backs/set2/orange.gif","img/card_backs/set2/pink.gif","img/card_backs/set2/gray.gif","""event"",""trial"",""time""
""fullscreenenter"",""1"",""4580""
","
","
","""event"",""trial"",""time""
""fullscreenenter"",""1"",""4580""
","
","","null","","null","","fixation","2021-08-03 16:55:21.327","","","","","",""
"card-selection-trial","95","376407","0.0-25.0-1.12","A577","false","img/card_backs/set1/green.gif","img/card_backs/set1/yellow.gif","img/card_backs/set1/red.gif","img/card_backs/set1/purple.gif","img/card_backs/set2/blue.gif","img/card_backs/set2/orange.gif","img/card_backs/set2/pink.gif","img/card_backs/set2/gray.gif","""event"",""trial"",""time""
""fullscreenenter"",""1"",""4580""
","
","
","""event"",""trial"",""time""
""fullscreenenter"",""1"",""4580""
","
","","1190.7999999523163","","","","real_trial","2021-08-03 16:55:24.525","img/card_backs/set1/green.gif","2","200","1","",""
"casino-fixation","96","376912","0.0-25.0-0.13","A577","false","img/card_backs/set1/green.gif","img/card_backs/set1/yellow.gif","img/card_backs/set1/red.gif","img/card_backs/set1/purple.gif","img/card_backs/set2/blue.gif","img/card_backs/set2/orange.gif","img/card_backs/set2/pink.gif","img/card_backs/set2/gray.gif","""event"",""trial"",""time""
""fullscreenenter"",""1"",""4580""
","
","
","""event"",""trial"",""time""
""fullscreenenter"",""1"",""4580""
","
","","null","","null","","fixation","2021-08-03 16:55:25.030","","","","","",""
"card-selection-trial","97","379676","0.0-25.0-1.13","A577","false","img/card_backs/set1/green.gif","img/card_backs/set1/yellow.gif","img/card_backs/set1/red.gif","img/card_backs/set1/purple.gif","img/card_backs/set2/blue.gif","img/card_backs/set2/orange.gif","img/card_backs/set2/pink.gif","img/card_backs/set2/gray.gif","""event"",""trial"",""time""
""fullscreenenter"",""1"",""4580""
","
","
","""event"",""trial"",""time""
""fullscreenenter"",""1"",""4580""
","
","","758.6999999284744","","","","real_trial","2021-08-03 16:55:27.794","img/card_backs/set1/green.gif","1","-230","1","",""
"casino-fixation","98","380180","0.0-25.0-0.14","A577","false","img/card_backs/set1/green.gif","img/card_backs/set1/yellow.gif","img/card_backs/set1/red.gif","img/card_backs/set1/purple.gif","img/card_backs/set2/blue.gif","img/card_backs/set2/orange.gif","img/card_backs/set2/pink.gif","img/card_backs/set2/gray.gif","""event"",""trial"",""time""
""fullscreenenter"",""1"",""4580""
","
","
","""event"",""trial"",""time""
""fullscreenenter"",""1"",""4580""
","
","","null","","null","","fixation","2021-08-03 16:55:28.298","","","","","",""
"card-selection-trial","99","382951","0.0-25.0-1.14","A577","false","img/card_backs/set1/green.gif","img/card_backs/set1/yellow.gif","img/card_backs/set1/red.gif","img/card_backs/set1/purple.gif","img/card_backs/set2/blue.gif","img/card_backs/set2/orange.gif","img/card_backs/set2/pink.gif","img/card_backs/set2/gray.gif","""event"",""trial"",""time""
""fullscreenenter"",""1"",""4580""
","
","
","""event"",""trial"",""time""
""fullscreenenter"",""1"",""4580""
","
","","761","","","","real_trial","2021-08-03 16:55:31.069","img/card_backs/set1/green.gif","1","180","1","",""
"casino-fixation","100","383455","0.0-25.0-0.15","A577","false","img/card_backs/set1/green.gif","img/card_backs/set1/yellow.gif","img/card_backs/set1/red.gif","img/card_backs/set1/purple.gif","img/card_backs/set2/blue.gif","img/card_backs/set2/orange.gif","img/card_backs/set2/pink.gif","img/card_backs/set2/gray.gif","""event"",""trial"",""time""
""fullscreenenter"",""1"",""4580""
","
","
","""event"",""trial"",""time""
""fullscreenenter"",""1"",""4580""
","
","","null","","null","","fixation","2021-08-03 16:55:31.573","","","","","",""
"card-selection-trial","101","386932","0.0-25.0-1.15","A577","false","img/card_backs/set1/green.gif","img/card_backs/set1/yellow.gif","img/card_backs/set1/red.gif","img/card_backs/set1/purple.gif","img/card_backs/set2/blue.gif","img/card_backs/set2/orange.gif","img/card_backs/set2/pink.gif","img/card_backs/set2/gray.gif","""event"",""trial"",""time""
""fullscreenenter"",""1"",""4580""
","
","
","""event"",""trial"",""time""
""fullscreenenter"",""1"",""4580""
","
","","1470.5","","","","real_trial","2021-08-03 16:55:35.050","img/card_backs/set1/purple.gif","2","110","1","",""
"casino-fixation","102","387437","0.0-25.0-0.16","A577","false","img/card_backs/set1/green.gif","img/card_backs/set1/yellow.gif","img/card_backs/set1/red.gif","img/card_backs/set1/purple.gif","img/card_backs/set2/blue.gif","img/card_backs/set2/orange.gif","img/card_backs/set2/pink.gif","img/card_backs/set2/gray.gif","""event"",""trial"",""time""
""fullscreenenter"",""1"",""4580""
","
","
","""event"",""trial"",""time""
""fullscreenenter"",""1"",""4580""
","
","","null","","null","","fixation","2021-08-03 16:55:35.555","","","","","",""
"card-selection-trial","103","390189","0.0-25.0-1.16","A577","false","img/card_backs/set1/green.gif","img/card_backs/set1/yellow.gif","img/card_backs/set1/red.gif","img/card_backs/set1/purple.gif","img/card_backs/set2/blue.gif","img/card_backs/set2/orange.gif","img/card_backs/set2/pink.gif","img/card_backs/set2/gray.gif","""event"",""trial"",""time""
""fullscreenenter"",""1"",""4580""
","
","
","""event"",""trial"",""time""
""fullscreenenter"",""1"",""4580""
","
","","747","","","","real_trial","2021-08-03 16:55:38.307","img/card_backs/set1/purple.gif","3","110","1","",""
"casino-fixation","104","390694","0.0-25.0-0.17","A577","false","img/card_backs/set1/green.gif","img/card_backs/set1/yellow.gif","img/card_backs/set1/red.gif","img/card_backs/set1/purple.gif","img/card_backs/set2/blue.gif","img/card_backs/set2/orange.gif","img/card_backs/set2/pink.gif","img/card_backs/set2/gray.gif","""event"",""trial"",""time""
""fullscreenenter"",""1"",""4580""
","
","
","""event"",""trial"",""time""
""fullscreenenter"",""1"",""4580""
","
","","null","","null","","fixation","2021-08-03 16:55:38.812","","","","","",""
"card-selection-trial","105","393231","0.0-25.0-1.17","A577","false","img/card_backs/set1/green.gif","img/card_backs/set1/yellow.gif","img/card_backs/set1/red.gif","img/card_backs/set1/purple.gif","img/card_backs/set2/blue.gif","img/card_backs/set2/orange.gif","img/card_backs/set2/pink.gif","img/card_backs/set2/gray.gif","""event"",""trial"",""time""
""fullscreenenter"",""1"",""4580""
","
","
","""event"",""trial"",""time""
""fullscreenenter"",""1"",""4580""
","
","","531.5","","","","real_trial","2021-08-03 16:55:41.349","img/card_backs/set1/purple.gif","3","100","1","",""
"casino-fixation","106","393735","0.0-25.0-0.18","A577","false","img/card_backs/set1/green.gif","img/card_backs/set1/yellow.gif","img/card_backs/set1/red.gif","img/card_backs/set1/purple.gif","img/card_backs/set2/blue.gif","img/card_backs/set2/orange.gif","img/card_backs/set2/pink.gif","img/card_backs/set2/gray.gif","""event"",""trial"",""time""
""fullscreenenter"",""1"",""4580""
","
","
","""event"",""trial"",""time""
""fullscreenenter"",""1"",""4580""
","
","","null","","null","","fixation","2021-08-03 16:55:41.854","","","","","",""
"card-selection-trial","107","396412","0.0-25.0-1.18","A577","false","img/card_backs/set1/green.gif","img/card_backs/set1/yellow.gif","img/card_backs/set1/red.gif","img/card_backs/set1/purple.gif","img/card_backs/set2/blue.gif","img/card_backs/set2/orange.gif","img/card_backs/set2/pink.gif","img/card_backs/set2/gray.gif","""event"",""trial"",""time""
""fullscreenenter"",""1"",""4580""
","
","
","""event"",""trial"",""time""
""fullscreenenter"",""1"",""4580""
","
","","671","","","","real_trial","2021-08-03 16:55:44.530","img/card_backs/set1/purple.gif","0","110","1","",""
"casino-fixation","108","396917","0.0-25.0-0.19","A577","false","img/card_backs/set1/green.gif","img/card_backs/set1/yellow.gif","img/card_backs/set1/red.gif","img/card_backs/set1/purple.gif","img/card_backs/set2/blue.gif","img/card_backs/set2/orange.gif","img/card_backs/set2/pink.gif","img/card_backs/set2/gray.gif","""event"",""trial"",""time""
""fullscreenenter"",""1"",""4580""
","
","
","""event"",""trial"",""time""
""fullscreenenter"",""1"",""4580""
","
","","null","","null","","fixation","2021-08-03 16:55:45.035","","","","","",""
"card-selection-trial","109","399895","0.0-25.0-1.19","A577","false","img/card_backs/set1/green.gif","img/card_backs/set1/yellow.gif","img/card_backs/set1/red.gif","img/card_backs/set1/purple.gif","img/card_backs/set2/blue.gif","img/card_backs/set2/orange.gif","img/card_backs/set2/pink.gif","img/card_backs/set2/gray.gif","""event"",""trial"",""time""
""fullscreenenter"",""1"",""4580""
","
","
","""event"",""trial"",""time""
""fullscreenenter"",""1"",""4580""
","
","","970.0999999046326","","","","real_trial","2021-08-03 16:55:48.013","img/card_backs/set1/purple.gif","2","110","1","",""
"casino-fixation","110","400401","0.0-25.0-0.20","A577","false","img/card_backs/set1/green.gif","img/card_backs/set1/yellow.gif","img/card_backs/set1/red.gif","img/card_backs/set1/purple.gif","img/card_backs/set2/blue.gif","img/card_backs/set2/orange.gif","img/card_backs/set2/pink.gif","img/card_backs/set2/gray.gif","""event"",""trial"",""time""
""fullscreenenter"",""1"",""4580""
","
","
","""event"",""trial"",""time""
""fullscreenenter"",""1"",""4580""
","
","","null","","null","","fixation","2021-08-03 16:55:48.519","","","","","",""
"card-selection-trial","111","403189","0.0-25.0-1.20","A577","false","img/card_backs/set1/green.gif","img/card_backs/set1/yellow.gif","img/card_backs/set1/red.gif","img/card_backs/set1/purple.gif","img/card_backs/set2/blue.gif","img/card_backs/set2/orange.gif","img/card_backs/set2/pink.gif","img/card_backs/set2/gray.gif","""event"",""trial"",""time""
""fullscreenenter"",""1"",""4580""
","
","
","""event"",""trial"",""time""
""fullscreenenter"",""1"",""4580""
","
","","781.3999999761581","","","","real_trial","2021-08-03 16:55:51.307","img/card_backs/set1/purple.gif","1","120","1","",""
"casino-fixation","112","403691","0.0-25.0-0.21","A577","false","img/card_backs/set1/green.gif","img/card_backs/set1/yellow.gif","img/card_backs/set1/red.gif","img/card_backs/set1/purple.gif","img/card_backs/set2/blue.gif","img/card_backs/set2/orange.gif","img/card_backs/set2/pink.gif","img/card_backs/set2/gray.gif","""event"",""trial"",""time""
""fullscreenenter"",""1"",""4580""
","
","
","""event"",""trial"",""time""
""fullscreenenter"",""1"",""4580""
","
","","null","","null","","fixation","2021-08-03 16:55:51.809","","","","","",""
"card-selection-trial","113","406304","0.0-25.0-1.21","A577","false","img/card_backs/set1/green.gif","img/card_backs/set1/yellow.gif","img/card_backs/set1/red.gif","img/card_backs/set1/purple.gif","img/card_backs/set2/blue.gif","img/card_backs/set2/orange.gif","img/card_backs/set2/pink.gif","img/card_backs/set2/gray.gif","""event"",""trial"",""time""
""fullscreenenter"",""1"",""4580""
","
","
","""event"",""trial"",""time""
""fullscreenenter"",""1"",""4580""
","
","","605.0999999046326","","","","real_trial","2021-08-03 16:55:54.422","img/card_backs/set1/purple.gif","1","-50","1","",""
"casino-fixation","114","406808","0.0-25.0-0.22","A577","false","img/card_backs/set1/green.gif","img/card_backs/set1/yellow.gif","img/card_backs/set1/red.gif","img/card_backs/set1/purple.gif","img/card_backs/set2/blue.gif","img/card_backs/set2/orange.gif","img/card_backs/set2/pink.gif","img/card_backs/set2/gray.gif","""event"",""trial"",""time""
""fullscreenenter"",""1"",""4580""
","
","
","""event"",""trial"",""time""
""fullscreenenter"",""1"",""4580""
","
","","null","","null","","fixation","2021-08-03 16:55:54.926","","","","","",""
"card-selection-trial","115","409404","0.0-25.0-1.22","A577","false","img/card_backs/set1/green.gif","img/card_backs/set1/yellow.gif","img/card_backs/set1/red.gif","img/card_backs/set1/purple.gif","img/card_backs/set2/blue.gif","img/card_backs/set2/orange.gif","img/card_backs/set2/pink.gif","img/card_backs/set2/gray.gif","""event"",""trial"",""time""
""fullscreenenter"",""1"",""4580""
","
","
","""event"",""trial"",""time""
""fullscreenenter"",""1"",""4580""
","
","","588.7999999523163","","","","real_trial","2021-08-03 16:55:57.522","img/card_backs/set1/purple.gif","0","110","1","",""
"casino-fixation","116","409908","0.0-25.0-0.23","A577","false","img/card_backs/set1/green.gif","img/card_backs/set1/yellow.gif","img/card_backs/set1/red.gif","img/card_backs/set1/purple.gif","img/card_backs/set2/blue.gif","img/card_backs/set2/orange.gif","img/card_backs/set2/pink.gif","img/card_backs/set2/gray.gif","""event"",""trial"",""time""
""fullscreenenter"",""1"",""4580""
","
","
","""event"",""trial"",""time""
""fullscreenenter"",""1"",""4580""
","
","","null","","null","","fixation","2021-08-03 16:55:58.026","","","","","",""
"card-selection-trial","117","412491","0.0-25.0-1.23","A577","false","img/card_backs/set1/green.gif","img/card_backs/set1/yellow.gif","img/card_backs/set1/red.gif","img/card_backs/set1/purple.gif","img/card_backs/set2/blue.gif","img/card_backs/set2/orange.gif","img/card_backs/set2/pink.gif","img/card_backs/set2/gray.gif","""event"",""trial"",""time""
""fullscreenenter"",""1"",""4580""
","
","
","""event"",""trial"",""time""
""fullscreenenter"",""1"",""4580""
","
","","576.7999999523163","","","","real_trial","2021-08-03 16:56:00.609","img/card_backs/set1/purple.gif","3","120","1","",""
"casino-fixation","118","412997","0.0-25.0-0.24","A577","false","img/card_backs/set1/green.gif","img/card_backs/set1/yellow.gif","img/card_backs/set1/red.gif","img/card_backs/set1/purple.gif","img/card_backs/set2/blue.gif","img/card_backs/set2/orange.gif","img/card_backs/set2/pink.gif","img/card_backs/set2/gray.gif","""event"",""trial"",""time""
""fullscreenenter"",""1"",""4580""
","
","
","""event"",""trial"",""time""
""fullscreenenter"",""1"",""4580""
","
","","null","","null","","fixation","2021-08-03 16:56:01.115","","","","","",""
"card-selection-trial","119","415513","0.0-25.0-1.24","A577","false","img/card_backs/set1/green.gif","img/card_backs/set1/yellow.gif","img/card_backs/set1/red.gif","img/card_backs/set1/purple.gif","img/card_backs/set2/blue.gif","img/card_backs/set2/orange.gif","img/card_backs/set2/pink.gif","img/card_backs/set2/gray.gif","""event"",""trial"",""time""
""fullscreenenter"",""1"",""4580""
","
","
","""event"",""trial"",""time""
""fullscreenenter"",""1"",""4580""
","
","","509.2999999523163","","","","real_trial","2021-08-03 16:56:03.631","img/card_backs/set1/purple.gif","3","-60","1","",""
"casino-fixation","120","416015","0.0-25.0-0.25","A577","false","img/card_backs/set1/green.gif","img/card_backs/set1/yellow.gif","img/card_backs/set1/red.gif","img/card_backs/set1/purple.gif","img/card_backs/set2/blue.gif","img/card_backs/set2/orange.gif","img/card_backs/set2/pink.gif","img/card_backs/set2/gray.gif","""event"",""trial"",""time""
""fullscreenenter"",""1"",""4580""
","
","
","""event"",""trial"",""time""
""fullscreenenter"",""1"",""4580""
","
","","null","","null","","fixation","2021-08-03 16:56:04.133","","","","","",""
"card-selection-trial","121","418569","0.0-25.0-1.25","A577","false","img/card_backs/set1/green.gif","img/card_backs/set1/yellow.gif","img/card_backs/set1/red.gif","img/card_backs/set1/purple.gif","img/card_backs/set2/blue.gif","img/card_backs/set2/orange.gif","img/card_backs/set2/pink.gif","img/card_backs/set2/gray.gif","""event"",""trial"",""time""
""fullscreenenter"",""1"",""4580""
","
","
","""event"",""trial"",""time""
""fullscreenenter"",""1"",""4580""
","
","","545.2999999523163","","","","real_trial","2021-08-03 16:56:06.688","img/card_backs/set1/purple.gif","1","100","1","",""
"casino-fixation","122","419074","0.0-25.0-0.26","A577","false","img/card_backs/set1/green.gif","img/card_backs/set1/yellow.gif","img/card_backs/set1/red.gif","img/card_backs/set1/purple.gif","img/card_backs/set2/blue.gif","img/card_backs/set2/orange.gif","img/card_backs/set2/pink.gif","img/card_backs/set2/gray.gif","""event"",""trial"",""time""
""fullscreenenter"",""1"",""4580""
","
","
","""event"",""trial"",""time""
""fullscreenenter"",""1"",""4580""
","
","","null","","null","","fixation","2021-08-03 16:56:07.193","","","","","",""
"card-selection-trial","123","421670","0.0-25.0-1.26","A577","false","img/card_backs/set1/green.gif","img/card_backs/set1/yellow.gif","img/card_backs/set1/red.gif","img/card_backs/set1/purple.gif","img/card_backs/set2/blue.gif","img/card_backs/set2/orange.gif","img/card_backs/set2/pink.gif","img/card_backs/set2/gray.gif","""event"",""trial"",""time""
""fullscreenenter"",""1"",""4580""
","
","
","""event"",""trial"",""time""
""fullscreenenter"",""1"",""4580""
","
","","585.2999999523163","","","","real_trial","2021-08-03 16:56:09.788","img/card_backs/set1/purple.gif","1","-50","1","",""
"casino-fixation","124","422174","0.0-25.0-0.27","A577","false","img/card_backs/set1/green.gif","img/card_backs/set1/yellow.gif","img/card_backs/set1/red.gif","img/card_backs/set1/purple.gif","img/card_backs/set2/blue.gif","img/card_backs/set2/orange.gif","img/card_backs/set2/pink.gif","img/card_backs/set2/gray.gif","""event"",""trial"",""time""
""fullscreenenter"",""1"",""4580""
","
","
","""event"",""trial"",""time""
""fullscreenenter"",""1"",""4580""
","
","","null","","null","","fixation","2021-08-03 16:56:10.293","","","","","",""
"card-selection-trial","125","425083","0.0-25.0-1.27","A577","false","img/card_backs/set1/green.gif","img/card_backs/set1/yellow.gif","img/card_backs/set1/red.gif","img/card_backs/set1/purple.gif","img/card_backs/set2/blue.gif","img/card_backs/set2/orange.gif","img/card_backs/set2/pink.gif","img/card_backs/set2/gray.gif","""event"",""trial"",""time""
""fullscreenenter"",""1"",""4580""
","
","
","""event"",""trial"",""time""
""fullscreenenter"",""1"",""4580""
","
","","900.5","","","","real_trial","2021-08-03 16:56:13.201","img/card_backs/set1/purple.gif","2","100","1","",""
"casino-fixation","126","425585","0.0-25.0-0.28","A577","false","img/card_backs/set1/green.gif","img/card_backs/set1/yellow.gif","img/card_backs/set1/red.gif","img/card_backs/set1/purple.gif","img/card_backs/set2/blue.gif","img/card_backs/set2/orange.gif","img/card_backs/set2/pink.gif","img/card_backs/set2/gray.gif","""event"",""trial"",""time""
""fullscreenenter"",""1"",""4580""
","
","
","""event"",""trial"",""time""
""fullscreenenter"",""1"",""4580""
","
","","null","","null","","fixation","2021-08-03 16:56:13.704","","","","","",""
"card-selection-trial","127","428102","0.0-25.0-1.28","A577","false","img/card_backs/set1/green.gif","img/card_backs/set1/yellow.gif","img/card_backs/set1/red.gif","img/card_backs/set1/purple.gif","img/card_backs/set2/blue.gif","img/card_backs/set2/orange.gif","img/card_backs/set2/pink.gif","img/card_backs/set2/gray.gif","""event"",""trial"",""time""
""fullscreenenter"",""1"",""4580""
","
","
","""event"",""trial"",""time""
""fullscreenenter"",""1"",""4580""
","
","","511","","","","real_trial","2021-08-03 16:56:16.220","img/card_backs/set1/purple.gif","0","110","1","",""
"casino-fixation","128","428606","0.0-25.0-0.29","A577","false","img/card_backs/set1/green.gif","img/card_backs/set1/yellow.gif","img/card_backs/set1/red.gif","img/card_backs/set1/purple.gif","img/card_backs/set2/blue.gif","img/card_backs/set2/orange.gif","img/card_backs/set2/pink.gif","img/card_backs/set2/gray.gif","""event"",""trial"",""time""
""fullscreenenter"",""1"",""4580""
","
","
","""event"",""trial"",""time""
""fullscreenenter"",""1"",""4580""
","
","","null","","null","","fixation","2021-08-03 16:56:16.724","","","","","",""
"card-selection-trial","129","431138","0.0-25.0-1.29","A577","false","img/card_backs/set1/green.gif","img/card_backs/set1/yellow.gif","img/card_backs/set1/red.gif","img/card_backs/set1/purple.gif","img/card_backs/set2/blue.gif","img/card_backs/set2/orange.gif","img/card_backs/set2/pink.gif","img/card_backs/set2/gray.gif","""event"",""trial"",""time""
""fullscreenenter"",""1"",""4580""
","
","
","""event"",""trial"",""time""
""fullscreenenter"",""1"",""4580""
","
","","523","","","","real_trial","2021-08-03 16:56:19.256","img/card_backs/set1/purple.gif","1","110","1","",""
"casino-fixation","130","431642","0.0-25.0-0.30","A577","false","img/card_backs/set1/green.gif","img/card_backs/set1/yellow.gif","img/card_backs/set1/red.gif","img/card_backs/set1/purple.gif","img/card_backs/set2/blue.gif","img/card_backs/set2/orange.gif","img/card_backs/set2/pink.gif","img/card_backs/set2/gray.gif","""event"",""trial"",""time""
""fullscreenenter"",""1"",""4580""
","
","
","""event"",""trial"",""time""
""fullscreenenter"",""1"",""4580""
","
","","null","","null","","fixation","2021-08-03 16:56:19.761","","","","","",""
"card-selection-trial","131","434042","0.0-25.0-1.30","A577","false","img/card_backs/set1/green.gif","img/card_backs/set1/yellow.gif","img/card_backs/set1/red.gif","img/card_backs/set1/purple.gif","img/card_backs/set2/blue.gif","img/card_backs/set2/orange.gif","img/card_backs/set2/pink.gif","img/card_backs/set2/gray.gif","""event"",""trial"",""time""
""fullscreenenter"",""1"",""4580""
","
","
","""event"",""trial"",""time""
""fullscreenenter"",""1"",""4580""
","
","","390.39999997615814","","","","real_trial","2021-08-03 16:56:22.161","img/card_backs/set1/purple.gif","0","-70","1","",""
"casino-fixation","132","434545","0.0-25.0-0.31","A577","false","img/card_backs/set1/green.gif","img/card_backs/set1/yellow.gif","img/card_backs/set1/red.gif","img/card_backs/set1/purple.gif","img/card_backs/set2/blue.gif","img/card_backs/set2/orange.gif","img/card_backs/set2/pink.gif","img/card_backs/set2/gray.gif","""event"",""trial"",""time""
""fullscreenenter"",""1"",""4580""
","
","
","""event"",""trial"",""time""
""fullscreenenter"",""1"",""4580""
","
","","null","","null","","fixation","2021-08-03 16:56:22.663","","","","","",""
"card-selection-trial","133","437117","0.0-25.0-1.31","A577","false","img/card_backs/set1/green.gif","img/card_backs/set1/yellow.gif","img/card_backs/set1/red.gif","img/card_backs/set1/purple.gif","img/card_backs/set2/blue.gif","img/card_backs/set2/orange.gif","img/card_backs/set2/pink.gif","img/card_backs/set2/gray.gif","""event"",""trial"",""time""
""fullscreenenter"",""1"",""4580""
","
","
","""event"",""trial"",""time""
""fullscreenenter"",""1"",""4580""
","
","","565","","","","real_trial","2021-08-03 16:56:25.235","img/card_backs/set1/purple.gif","1","120","1","",""
"casino-fixation","134","437621","0.0-25.0-0.32","A577","false","img/card_backs/set1/green.gif","img/card_backs/set1/yellow.gif","img/card_backs/set1/red.gif","img/card_backs/set1/purple.gif","img/card_backs/set2/blue.gif","img/card_backs/set2/orange.gif","img/card_backs/set2/pink.gif","img/card_backs/set2/gray.gif","""event"",""trial"",""time""
""fullscreenenter"",""1"",""4580""
","
","
","""event"",""trial"",""time""
""fullscreenenter"",""1"",""4580""
","
","","null","","null","","fixation","2021-08-03 16:56:25.739","","","","","",""
"card-selection-trial","135","440019","0.0-25.0-1.32","A577","false","img/card_backs/set1/green.gif","img/card_backs/set1/yellow.gif","img/card_backs/set1/red.gif","img/card_backs/set1/purple.gif","img/card_backs/set2/blue.gif","img/card_backs/set2/orange.gif","img/card_backs/set2/pink.gif","img/card_backs/set2/gray.gif","""event"",""trial"",""time""
""fullscreenenter"",""1"",""4580""
","
","
","""event"",""trial"",""time""
""fullscreenenter"",""1"",""4580""
","
","","388.10000002384186","","","","real_trial","2021-08-03 16:56:28.137","img/card_backs/set1/purple.gif","0","110","1","",""
"casino-fixation","136","440524","0.0-25.0-0.33","A577","false","img/card_backs/set1/green.gif","img/card_backs/set1/yellow.gif","img/card_backs/set1/red.gif","img/card_backs/set1/purple.gif","img/card_backs/set2/blue.gif","img/card_backs/set2/orange.gif","img/card_backs/set2/pink.gif","img/card_backs/set2/gray.gif","""event"",""trial"",""time""
""fullscreenenter"",""1"",""4580""
","
","
","""event"",""trial"",""time""
""fullscreenenter"",""1"",""4580""
","
","","null","","null","","fixation","2021-08-03 16:56:28.642","","","","","",""
"card-selection-trial","137","442875","0.0-25.0-1.33","A577","false","img/card_backs/set1/green.gif","img/card_backs/set1/yellow.gif","img/card_backs/set1/red.gif","img/card_backs/set1/purple.gif","img/card_backs/set2/blue.gif","img/card_backs/set2/orange.gif","img/card_backs/set2/pink.gif","img/card_backs/set2/gray.gif","""event"",""trial"",""time""
""fullscreenenter"",""1"",""4580""
","
","
","""event"",""trial"",""time""
""fullscreenenter"",""1"",""4580""
","
","","341.60000002384186","","","","real_trial","2021-08-03 16:56:30.994","img/card_backs/set1/purple.gif","0","100","1","",""
"casino-fixation","138","443380","0.0-25.0-0.34","A577","false","img/card_backs/set1/green.gif","img/card_backs/set1/yellow.gif","img/card_backs/set1/red.gif","img/card_backs/set1/purple.gif","img/card_backs/set2/blue.gif","img/card_backs/set2/orange.gif","img/card_backs/set2/pink.gif","img/card_backs/set2/gray.gif","""event"",""trial"",""time""
""fullscreenenter"",""1"",""4580""
","
","
","""event"",""trial"",""time""
""fullscreenenter"",""1"",""4580""
","
","","null","","null","","fixation","2021-08-03 16:56:31.498","","","","","",""
"card-selection-trial","139","445859","0.0-25.0-1.34","A577","false","img/card_backs/set1/green.gif","img/card_backs/set1/yellow.gif","img/card_backs/set1/red.gif","img/card_backs/set1/purple.gif","img/card_backs/set2/blue.gif","img/card_backs/set2/orange.gif","img/card_backs/set2/pink.gif","img/card_backs/set2/gray.gif","""event"",""trial"",""time""
""fullscreenenter"",""1"",""4580""
","
","
","""event"",""trial"",""time""
""fullscreenenter"",""1"",""4580""
","
","","473.7999999523163","","","","real_trial","2021-08-03 16:56:33.977","img/card_backs/set1/purple.gif","1","-60","1","",""
"casino-fixation","140","446364","0.0-25.0-0.35","A577","false","img/card_backs/set1/green.gif","img/card_backs/set1/yellow.gif","img/card_backs/set1/red.gif","img/card_backs/set1/purple.gif","img/card_backs/set2/blue.gif","img/card_backs/set2/orange.gif","img/card_backs/set2/pink.gif","img/card_backs/set2/gray.gif","""event"",""trial"",""time""
""fullscreenenter"",""1"",""4580""
","
","
","""event"",""trial"",""time""
""fullscreenenter"",""1"",""4580""
","
","","null","","null","","fixation","2021-08-03 16:56:34.482","","","","","",""
"card-selection-trial","141","448895","0.0-25.0-1.35","A577","false","img/card_backs/set1/green.gif","img/card_backs/set1/yellow.gif","img/card_backs/set1/red.gif","img/card_backs/set1/purple.gif","img/card_backs/set2/blue.gif","img/card_backs/set2/orange.gif","img/card_backs/set2/pink.gif","img/card_backs/set2/gray.gif","""event"",""trial"",""time""
""fullscreenenter"",""1"",""4580""
","
","
","""event"",""trial"",""time""
""fullscreenenter"",""1"",""4580""
","
","","525","","","","real_trial","2021-08-03 16:56:37.014","img/card_backs/set1/purple.gif","3","-70","1","",""
"casino-fixation","142","449400","0.0-25.0-0.36","A577","false","img/card_backs/set1/green.gif","img/card_backs/set1/yellow.gif","img/card_backs/set1/red.gif","img/card_backs/set1/purple.gif","img/card_backs/set2/blue.gif","img/card_backs/set2/orange.gif","img/card_backs/set2/pink.gif","img/card_backs/set2/gray.gif","""event"",""trial"",""time""
""fullscreenenter"",""1"",""4580""
","
","
","""event"",""trial"",""time""
""fullscreenenter"",""1"",""4580""
","
","","null","","null","","fixation","2021-08-03 16:56:37.518","","","","","",""
"card-selection-trial","143","451931","0.0-25.0-1.36","A577","false","img/card_backs/set1/green.gif","img/card_backs/set1/yellow.gif","img/card_backs/set1/red.gif","img/card_backs/set1/purple.gif","img/card_backs/set2/blue.gif","img/card_backs/set2/orange.gif","img/card_backs/set2/pink.gif","img/card_backs/set2/gray.gif","""event"",""trial"",""time""
""fullscreenenter"",""1"",""4580""
","
","
","""event"",""trial"",""time""
""fullscreenenter"",""1"",""4580""
","
","","525.8000000715256","","","","real_trial","2021-08-03 16:56:40.049","img/card_backs/set1/purple.gif","1","120","1","",""
"casino-fixation","144","452436","0.0-25.0-0.37","A577","false","img/card_backs/set1/green.gif","img/card_backs/set1/yellow.gif","img/card_backs/set1/red.gif","img/card_backs/set1/purple.gif","img/card_backs/set2/blue.gif","img/card_backs/set2/orange.gif","img/card_backs/set2/pink.gif","img/card_backs/set2/gray.gif","""event"",""trial"",""time""
""fullscreenenter"",""1"",""4580""
","
","
","""event"",""trial"",""time""
""fullscreenenter"",""1"",""4580""
","
","","null","","null","","fixation","2021-08-03 16:56:40.554","","","","","",""
"card-selection-trial","145","455292","0.0-25.0-1.37","A577","false","img/card_backs/set1/green.gif","img/card_backs/set1/yellow.gif","img/card_backs/set1/red.gif","img/card_backs/set1/purple.gif","img/card_backs/set2/blue.gif","img/card_backs/set2/orange.gif","img/card_backs/set2/pink.gif","img/card_backs/set2/gray.gif","""event"",""trial"",""time""
""fullscreenenter"",""1"",""4580""
","
","
","""event"",""trial"",""time""
""fullscreenenter"",""1"",""4580""
","
","","849.7999999523163","","","","real_trial","2021-08-03 16:56:43.410","img/card_backs/set1/purple.gif","2","-60","1","",""
"casino-fixation","146","455797","0.0-25.0-0.38","A577","false","img/card_backs/set1/green.gif","img/card_backs/set1/yellow.gif","img/card_backs/set1/red.gif","img/card_backs/set1/purple.gif","img/card_backs/set2/blue.gif","img/card_backs/set2/orange.gif","img/card_backs/set2/pink.gif","img/card_backs/set2/gray.gif","""event"",""trial"",""time""
""fullscreenenter"",""1"",""4580""
","
","
","""event"",""trial"",""time""
""fullscreenenter"",""1"",""4580""
","
","","null","","null","","fixation","2021-08-03 16:56:43.915","","","","","",""
"card-selection-trial","147","458468","0.0-25.0-1.38","A577","false","img/card_backs/set1/green.gif","img/card_backs/set1/yellow.gif","img/card_backs/set1/red.gif","img/card_backs/set1/purple.gif","img/card_backs/set2/blue.gif","img/card_backs/set2/orange.gif","img/card_backs/set2/pink.gif","img/card_backs/set2/gray.gif","""event"",""trial"",""time""
""fullscreenenter"",""1"",""4580""
","
","
","""event"",""trial"",""time""
""fullscreenenter"",""1"",""4580""
","
","","664","","","","real_trial","2021-08-03 16:56:46.586","img/card_backs/set1/purple.gif","2","110","1","",""
"casino-fixation","148","458973","0.0-25.0-0.39","A577","false","img/card_backs/set1/green.gif","img/card_backs/set1/yellow.gif","img/card_backs/set1/red.gif","img/card_backs/set1/purple.gif","img/card_backs/set2/blue.gif","img/card_backs/set2/orange.gif","img/card_backs/set2/pink.gif","img/card_backs/set2/gray.gif","""event"",""trial"",""time""
""fullscreenenter"",""1"",""4580""
","
","
","""event"",""trial"",""time""
""fullscreenenter"",""1"",""4580""
","
","","null","","null","","fixation","2021-08-03 16:56:47.091","","","","","",""
"card-selection-trial","149","461382","0.0-25.0-1.39","A577","false","img/card_backs/set1/green.gif","img/card_backs/set1/yellow.gif","img/card_backs/set1/red.gif","img/card_backs/set1/purple.gif","img/card_backs/set2/blue.gif","img/card_backs/set2/orange.gif","img/card_backs/set2/pink.gif","img/card_backs/set2/gray.gif","""event"",""trial"",""time""
""fullscreenenter"",""1"",""4580""
","
","
","""event"",""trial"",""time""
""fullscreenenter"",""1"",""4580""
","
","","402.2999999523163","","","","real_trial","2021-08-03 16:56:49.500","img/card_backs/set1/purple.gif","0","-70","1","",""
"casino-fixation","150","461887","0.0-25.0-0.40","A577","false","img/card_backs/set1/green.gif","img/card_backs/set1/yellow.gif","img/card_backs/set1/red.gif","img/card_backs/set1/purple.gif","img/card_backs/set2/blue.gif","img/card_backs/set2/orange.gif","img/card_backs/set2/pink.gif","img/card_backs/set2/gray.gif","""event"",""trial"",""time""
""fullscreenenter"",""1"",""4580""
","
","
","""event"",""trial"",""time""
""fullscreenenter"",""1"",""4580""
","
","","null","","null","","fixation","2021-08-03 16:56:50.005","","","","","",""
"card-selection-trial","151","464383","0.0-25.0-1.40","A577","false","img/card_backs/set1/green.gif","img/card_backs/set1/yellow.gif","img/card_backs/set1/red.gif","img/card_backs/set1/purple.gif","img/card_backs/set2/blue.gif","img/card_backs/set2/orange.gif","img/card_backs/set2/pink.gif","img/card_backs/set2/gray.gif","""event"",""trial"",""time""
""fullscreenenter"",""1"",""4580""
","
","
","""event"",""trial"",""time""
""fullscreenenter"",""1"",""4580""
","
","","490.39999997615814","","","","real_trial","2021-08-03 16:56:52.501","img/card_backs/set1/purple.gif","3","-50","1","",""
"casino-fixation","152","464888","0.0-25.0-0.41","A577","false","img/card_backs/set1/green.gif","img/card_backs/set1/yellow.gif","img/card_backs/set1/red.gif","img/card_backs/set1/purple.gif","img/card_backs/set2/blue.gif","img/card_backs/set2/orange.gif","img/card_backs/set2/pink.gif","img/card_backs/set2/gray.gif","""event"",""trial"",""time""
""fullscreenenter"",""1"",""4580""
","
","
","""event"",""trial"",""time""
""fullscreenenter"",""1"",""4580""
","
","","null","","null","","fixation","2021-08-03 16:56:53.006","","","","","",""
"card-selection-trial","153","467350","0.0-25.0-1.41","A577","false","img/card_backs/set1/green.gif","img/card_backs/set1/yellow.gif","img/card_backs/set1/red.gif","img/card_backs/set1/purple.gif","img/card_backs/set2/blue.gif","img/card_backs/set2/orange.gif","img/card_backs/set2/pink.gif","img/card_backs/set2/gray.gif","""event"",""trial"",""time""
""fullscreenenter"",""1"",""4580""
","
","
","""event"",""trial"",""time""
""fullscreenenter"",""1"",""4580""
","
","","456.7000000476837","","","","real_trial","2021-08-03 16:56:55.468","img/card_backs/set1/purple.gif","0","110","1","",""
"casino-fixation","154","467854","0.0-25.0-0.42","A577","false","img/card_backs/set1/green.gif","img/card_backs/set1/yellow.gif","img/card_backs/set1/red.gif","img/card_backs/set1/purple.gif","img/card_backs/set2/blue.gif","img/card_backs/set2/orange.gif","img/card_backs/set2/pink.gif","img/card_backs/set2/gray.gif","""event"",""trial"",""time""
""fullscreenenter"",""1"",""4580""
","
","
","""event"",""trial"",""time""
""fullscreenenter"",""1"",""4580""
","
","","null","","null","","fixation","2021-08-03 16:56:55.972","","","","","",""
"card-selection-trial","155","470518","0.0-25.0-1.42","A577","false","img/card_backs/set1/green.gif","img/card_backs/set1/yellow.gif","img/card_backs/set1/red.gif","img/card_backs/set1/purple.gif","img/card_backs/set2/blue.gif","img/card_backs/set2/orange.gif","img/card_backs/set2/pink.gif","img/card_backs/set2/gray.gif","""event"",""trial"",""time""
""fullscreenenter"",""1"",""4580""
","
","
","""event"",""trial"",""time""
""fullscreenenter"",""1"",""4580""
","
","","654.5","","","","real_trial","2021-08-03 16:56:58.636","img/card_backs/set1/purple.gif","2","-60","1","",""
"casino-fixation","156","471024","0.0-25.0-0.43","A577","false","img/card_backs/set1/green.gif","img/card_backs/set1/yellow.gif","img/card_backs/set1/red.gif","img/card_backs/set1/purple.gif","img/card_backs/set2/blue.gif","img/card_backs/set2/orange.gif","img/card_backs/set2/pink.gif","img/card_backs/set2/gray.gif","""event"",""trial"",""time""
""fullscreenenter"",""1"",""4580""
","
","
","""event"",""trial"",""time""
""fullscreenenter"",""1"",""4580""
","
","","null","","null","","fixation","2021-08-03 16:56:59.142","","","","","",""
"card-selection-trial","157","473497","0.0-25.0-1.43","A577","false","img/card_backs/set1/green.gif","img/card_backs/set1/yellow.gif","img/card_backs/set1/red.gif","img/card_backs/set1/purple.gif","img/card_backs/set2/blue.gif","img/card_backs/set2/orange.gif","img/card_backs/set2/pink.gif","img/card_backs/set2/gray.gif","""event"",""trial"",""time""
""fullscreenenter"",""1"",""4580""
","
","
","""event"",""trial"",""time""
""fullscreenenter"",""1"",""4580""
","
","","465.10000002384186","","","","real_trial","2021-08-03 16:57:01.615","img/card_backs/set1/purple.gif","1","120","1","",""
"casino-fixation","158","474002","0.0-25.0-0.44","A577","false","img/card_backs/set1/green.gif","img/card_backs/set1/yellow.gif","img/card_backs/set1/red.gif","img/card_backs/set1/purple.gif","img/card_backs/set2/blue.gif","img/card_backs/set2/orange.gif","img/card_backs/set2/pink.gif","img/card_backs/set2/gray.gif","""event"",""trial"",""time""
""fullscreenenter"",""1"",""4580""
","
","
","""event"",""trial"",""time""
""fullscreenenter"",""1"",""4580""
","
","","null","","null","","fixation","2021-08-03 16:57:02.120","","","","","",""
"card-selection-trial","159","476748","0.0-25.0-1.44","A577","false","img/card_backs/set1/green.gif","img/card_backs/set1/yellow.gif","img/card_backs/set1/red.gif","img/card_backs/set1/purple.gif","img/card_backs/set2/blue.gif","img/card_backs/set2/orange.gif","img/card_backs/set2/pink.gif","img/card_backs/set2/gray.gif","""event"",""trial"",""time""
""fullscreenenter"",""1"",""4580""
","
","
","""event"",""trial"",""time""
""fullscreenenter"",""1"",""4580""
","
","","741.2999999523163","","","","real_trial","2021-08-03 16:57:04.866","img/card_backs/set1/purple.gif","2","-70","1","",""
"casino-fixation","160","477252","0.0-25.0-0.45","A577","false","img/card_backs/set1/green.gif","img/card_backs/set1/yellow.gif","img/card_backs/set1/red.gif","img/card_backs/set1/purple.gif","img/card_backs/set2/blue.gif","img/card_backs/set2/orange.gif","img/card_backs/set2/pink.gif","img/card_backs/set2/gray.gif","""event"",""trial"",""time""
""fullscreenenter"",""1"",""4580""
","
","
","""event"",""trial"",""time""
""fullscreenenter"",""1"",""4580""
","
","","null","","null","","fixation","2021-08-03 16:57:05.371","","","","","",""
"card-selection-trial","161","479655","0.0-25.0-1.45","A577","false","img/card_backs/set1/green.gif","img/card_backs/set1/yellow.gif","img/card_backs/set1/red.gif","img/card_backs/set1/purple.gif","img/card_backs/set2/blue.gif","img/card_backs/set2/orange.gif","img/card_backs/set2/pink.gif","img/card_backs/set2/gray.gif","""event"",""trial"",""time""
""fullscreenenter"",""1"",""4580""
","
","
","""event"",""trial"",""time""
""fullscreenenter"",""1"",""4580""
","
","","397.1999999284744","","","","real_trial","2021-08-03 16:57:07.773","img/card_backs/set1/purple.gif","0","-70","1","",""
"casino-fixation","162","480161","0.0-25.0-0.46","A577","false","img/card_backs/set1/green.gif","img/card_backs/set1/yellow.gif","img/card_backs/set1/red.gif","img/card_backs/set1/purple.gif","img/card_backs/set2/blue.gif","img/card_backs/set2/orange.gif","img/card_backs/set2/pink.gif","img/card_backs/set2/gray.gif","""event"",""trial"",""time""
""fullscreenenter"",""1"",""4580""
","
","
","""event"",""trial"",""time""
""fullscreenenter"",""1"",""4580""
","
","","null","","null","","fixation","2021-08-03 16:57:08.279","","","","","",""
"card-selection-trial","163","483203","0.0-25.0-1.46","A577","false","img/card_backs/set1/green.gif","img/card_backs/set1/yellow.gif","img/card_backs/set1/red.gif","img/card_backs/set1/purple.gif","img/card_backs/set2/blue.gif","img/card_backs/set2/orange.gif","img/card_backs/set2/pink.gif","img/card_backs/set2/gray.gif","""event"",""trial"",""time""
""fullscreenenter"",""1"",""4580""
","
","
","""event"",""trial"",""time""
""fullscreenenter"",""1"",""4580""
","
","","1037.1000000238419","","","","real_trial","2021-08-03 16:57:11.321","img/card_backs/set1/purple.gif","0","100","1","",""
"casino-fixation","164","483708","0.0-25.0-0.47","A577","false","img/card_backs/set1/green.gif","img/card_backs/set1/yellow.gif","img/card_backs/set1/red.gif","img/card_backs/set1/purple.gif","img/card_backs/set2/blue.gif","img/card_backs/set2/orange.gif","img/card_backs/set2/pink.gif","img/card_backs/set2/gray.gif","""event"",""trial"",""time""
""fullscreenenter"",""1"",""4580""
","
","
","""event"",""trial"",""time""
""fullscreenenter"",""1"",""4580""
","
","","null","","null","","fixation","2021-08-03 16:57:11.826","","","","","",""
"card-selection-trial","165","486412","0.0-25.0-1.47","A577","false","img/card_backs/set1/green.gif","img/card_backs/set1/yellow.gif","img/card_backs/set1/red.gif","img/card_backs/set1/purple.gif","img/card_backs/set2/blue.gif","img/card_backs/set2/orange.gif","img/card_backs/set2/pink.gif","img/card_backs/set2/gray.gif","""event"",""trial"",""time""
""fullscreenenter"",""1"",""4580""
","
","
","""event"",""trial"",""time""
""fullscreenenter"",""1"",""4580""
","
","","696.1999999284744","","","","real_trial","2021-08-03 16:57:14.531","img/card_backs/set1/purple.gif","1","-70","1","",""
"casino-fixation","166","486918","0.0-25.0-0.48","A577","false","img/card_backs/set1/green.gif","img/card_backs/set1/yellow.gif","img/card_backs/set1/red.gif","img/card_backs/set1/purple.gif","img/card_backs/set2/blue.gif","img/card_backs/set2/orange.gif","img/card_backs/set2/pink.gif","img/card_backs/set2/gray.gif","""event"",""trial"",""time""
""fullscreenenter"",""1"",""4580""
","
","
","""event"",""trial"",""time""
""fullscreenenter"",""1"",""4580""
","
","","null","","null","","fixation","2021-08-03 16:57:15.036","","","","","",""
"card-selection-trial","167","489612","0.0-25.0-1.48","A577","false","img/card_backs/set1/green.gif","img/card_backs/set1/yellow.gif","img/card_backs/set1/red.gif","img/card_backs/set1/purple.gif","img/card_backs/set2/blue.gif","img/card_backs/set2/orange.gif","img/card_backs/set2/pink.gif","img/card_backs/set2/gray.gif","""event"",""trial"",""time""
""fullscreenenter"",""1"",""4580""
","
","
