"trial_type","trial_index","time_elapsed","internal_node_id","sub_id","risk_good_first","block1_A","block1_B","block1_C","block1_D","block2_A","block2_B","block2_C","block2_D","interactions","blur_events","focus_events","fullscreenenter_events","fullscreenexit_events","success","rt","stimulus","key_press","button_pressed","task_part","timestamp","card_choice","choice_position","points_earned","block","correct","response"
"pavlovia","0","11","0.0-0.0","959","false","img/card_backs/set1/red.gif","img/card_backs/set1/yellow.gif","img/card_backs/set1/purple.gif","img/card_backs/set1/green.gif","img/card_backs/set2/blue.gif","img/card_backs/set2/pink.gif","img/card_backs/set2/orange.gif","img/card_backs/set2/gray.gif","""event"",""trial"",""time""
""fullscreenenter"",""1"",""2363""
","
","
","""event"",""trial"",""time""
""fullscreenenter"",""1"",""2363""
","
","","","","","","","","","","","","",""
"fullscreen","1","3347","0.0-1.0","959","false","img/card_backs/set1/red.gif","img/card_backs/set1/yellow.gif","img/card_backs/set1/purple.gif","img/card_backs/set1/green.gif","img/card_backs/set2/blue.gif","img/card_backs/set2/pink.gif","img/card_backs/set2/orange.gif","img/card_backs/set2/gray.gif","""event"",""trial"",""time""
""fullscreenenter"",""1"",""2363""
","
","
","""event"",""trial"",""time""
""fullscreenenter"",""1"",""2363""
","
","true","","","","","","","","","","","",""
"audio-keyboard-response","2","5716","0.0-2.0","959","false","img/card_backs/set1/red.gif","img/card_backs/set1/yellow.gif","img/card_backs/set1/purple.gif","img/card_backs/set1/green.gif","img/card_backs/set2/blue.gif","img/card_backs/set2/pink.gif","img/card_backs/set2/orange.gif","img/card_backs/set2/gray.gif","""event"",""trial"",""time""
""fullscreenenter"",""1"",""2363""
","
","
","""event"",""trial"",""time""
""fullscreenenter"",""1"",""2363""
","
","","2101","audio/beep_loop.wav","32","","","","","","","","",""
"audio-button-response","3","8322","0.0-3.0","959","false","img/card_backs/set1/red.gif","img/card_backs/set1/yellow.gif","img/card_backs/set1/purple.gif","img/card_backs/set1/green.gif","img/card_backs/set2/blue.gif","img/card_backs/set2/pink.gif","img/card_backs/set2/orange.gif","img/card_backs/set2/gray.gif","""event"",""trial"",""time""
""fullscreenenter"",""1"",""2363""
","
","
","""event"",""trial"",""time""
""fullscreenenter"",""1"",""2363""
","
","","NaN","audio/turtle.mp3","","3","","","","","","","",""
"audio-button-response","4","10459","0.0-4.0","959","false","img/card_backs/set1/red.gif","img/card_backs/set1/yellow.gif","img/card_backs/set1/purple.gif","img/card_backs/set1/green.gif","img/card_backs/set2/blue.gif","img/card_backs/set2/pink.gif","img/card_backs/set2/orange.gif","img/card_backs/set2/gray.gif","""event"",""trial"",""time""
""fullscreenenter"",""1"",""2363""
","
","
","""event"",""trial"",""time""
""fullscreenenter"",""1"",""2363""
","
","","NaN","audio/shark.mp3","","2","","","","","","","",""
"fullscreen","5","14171","0.0-5.0","959","false","img/card_backs/set1/red.gif","img/card_backs/set1/yellow.gif","img/card_backs/set1/purple.gif","img/card_backs/set1/green.gif","img/card_backs/set2/blue.gif","img/card_backs/set2/pink.gif","img/card_backs/set2/orange.gif","img/card_backs/set2/gray.gif","""event"",""trial"",""time""
""fullscreenenter"",""1"",""2363""
","
","
","""event"",""trial"",""time""
""fullscreenenter"",""1"",""2363""
","
","true","","","","","","","","","","","",""
"casino-keyboard-response","6","17655","0.0-6.0-0.0","959","false","img/card_backs/set1/red.gif","img/card_backs/set1/yellow.gif","img/card_backs/set1/purple.gif","img/card_backs/set1/green.gif","img/card_backs/set2/blue.gif","img/card_backs/set2/pink.gif","img/card_backs/set2/orange.gif","img/card_backs/set2/gray.gif","""event"",""trial"",""time""
""fullscreenenter"",""1"",""2363""
","
","
","""event"",""trial"",""time""
""fullscreenenter"",""1"",""2363""
","
","","3480.0350000004983","Welcome to the casino!","71","","instructions","2021-06-30 20:31:48.060","","","","","",""
"casino-keyboard-response","7","27017","0.0-6.0-0.1","959","false","img/card_backs/set1/red.gif","img/card_backs/set1/yellow.gif","img/card_backs/set1/purple.gif","img/card_backs/set1/green.gif","img/card_backs/set2/blue.gif","img/card_backs/set2/pink.gif","img/card_backs/set2/orange.gif","img/card_backs/set2/gray.gif","""event"",""trial"",""time""
""fullscreenenter"",""1"",""2363""
","
","
","""event"",""trial"",""time""
""fullscreenenter"",""1"",""2363""
","
","","9360.190000006696","Today you will be playing a game to earn tokens. </br> At the end of the experiment, you will be paid a bonus based on how many tokens you win. ","69","","instructions","2021-06-30 20:31:57.422","","","","","",""
"casino-keyboard-response","8","34338","0.0-6.0-0.2","959","false","img/card_backs/set1/red.gif","img/card_backs/set1/yellow.gif","img/card_backs/set1/purple.gif","img/card_backs/set1/green.gif","img/card_backs/set2/blue.gif","img/card_backs/set2/pink.gif","img/card_backs/set2/orange.gif","img/card_backs/set2/gray.gif","""event"",""trial"",""time""
""fullscreenenter"",""1"",""2363""
","
","
","""event"",""trial"",""time""
""fullscreenenter"",""1"",""2363""
","
","","7318.134999994072","On every turn, you will be shown four different decks of cards. </br> You need to select a card from one of the four decks.  ","75","","instructions","2021-06-30 20:32:04.743","","","","","",""
"casino-keyboard-response","9","38995","0.0-6.0-0.3","959","false","img/card_backs/set1/red.gif","img/card_backs/set1/yellow.gif","img/card_backs/set1/purple.gif","img/card_backs/set1/green.gif","img/card_backs/set2/blue.gif","img/card_backs/set2/pink.gif","img/card_backs/set2/orange.gif","img/card_backs/set2/gray.gif","""event"",""trial"",""time""
""fullscreenenter"",""1"",""2363""
","
","
","""event"",""trial"",""time""
""fullscreenenter"",""1"",""2363""
","
","","4654.970000003232","On the next screen, you will see what the decks will look like. ","66","","instructions","2021-06-30 20:32:09.400","","","","","",""
"card-selection-trial","10","43000","0.0-7.0-0.0","959","false","img/card_backs/set1/red.gif","img/card_backs/set1/yellow.gif","img/card_backs/set1/purple.gif","img/card_backs/set1/green.gif","img/card_backs/set2/blue.gif","img/card_backs/set2/pink.gif","img/card_backs/set2/orange.gif","img/card_backs/set2/gray.gif","""event"",""trial"",""time""
""fullscreenenter"",""1"",""2363""
","
","
","""event"",""trial"",""time""
""fullscreenenter"",""1"",""2363""
","
","","null","","","","practice","2021-06-30 20:32:13.405","null","null","null","0","",""
"casino-keyboard-response","11","50401","0.0-8.0-0.0","959","false","img/card_backs/set1/red.gif","img/card_backs/set1/yellow.gif","img/card_backs/set1/purple.gif","img/card_backs/set1/green.gif","img/card_backs/set2/blue.gif","img/card_backs/set2/pink.gif","img/card_backs/set2/orange.gif","img/card_backs/set2/gray.gif","""event"",""trial"",""time""
""fullscreenenter"",""1"",""2363""
","
","
","""event"",""trial"",""time""
""fullscreenenter"",""1"",""2363""
","
","","7398.684999992838","You should pick a card from a deck using the '2', '4', '6', and '8' keys at the top of the keyboard.","85","","instructions","2021-06-30 20:32:20.806","","","","","",""
"casino-keyboard-response","12","55769","0.0-8.0-0.1","959","false","img/card_backs/set1/red.gif","img/card_backs/set1/yellow.gif","img/card_backs/set1/purple.gif","img/card_backs/set1/green.gif","img/card_backs/set2/blue.gif","img/card_backs/set2/pink.gif","img/card_backs/set2/orange.gif","img/card_backs/set2/gray.gif","""event"",""trial"",""time""
""fullscreenenter"",""1"",""2363""
","
","
","""event"",""trial"",""time""
""fullscreenenter"",""1"",""2363""
","
","","5365.909999993164","Once you select a card, it will turn over and you will see how many tokens you earned.","83","","instructions","2021-06-30 20:32:26.174","","","","","",""
"casino-keyboard-response","13","70735","0.0-8.0-0.2","959","false","img/card_backs/set1/red.gif","img/card_backs/set1/yellow.gif","img/card_backs/set1/purple.gif","img/card_backs/set1/green.gif","img/card_backs/set2/blue.gif","img/card_backs/set2/pink.gif","img/card_backs/set2/orange.gif","img/card_backs/set2/gray.gif","""event"",""trial"",""time""
""fullscreenenter"",""1"",""2363""
","
","
","""event"",""trial"",""time""
""fullscreenenter"",""1"",""2363""
","
","","14963.294999994105","Let's try practicing that! </br> First, try to put your fingers over the '2', '4', '6', and '8' keys. </br>  You can use whatever fingers are most comfortable for you. Try to find a comfortable position now. ","50","","instructions","2021-06-30 20:32:41.140","","","","","",""
"casino-keyboard-response","14","76504","0.0-8.0-0.3","959","false","img/card_backs/set1/red.gif","img/card_backs/set1/yellow.gif","img/card_backs/set1/purple.gif","img/card_backs/set1/green.gif","img/card_backs/set2/blue.gif","img/card_backs/set2/pink.gif","img/card_backs/set2/orange.gif","img/card_backs/set2/gray.gif","""event"",""trial"",""time""
""fullscreenenter"",""1"",""2363""
","
","
","""event"",""trial"",""time""
""fullscreenenter"",""1"",""2363""
","
","","5767.114999995101","Okay ready? </br> On the next screen, press '2' to select the left deck. ","50","","instructions","2021-06-30 20:32:46.909","","","","","",""
"card-selection-trial","15","79199","0.0-9.0-0.0","959","false","img/card_backs/set1/red.gif","img/card_backs/set1/yellow.gif","img/card_backs/set1/purple.gif","img/card_backs/set1/green.gif","img/card_backs/set2/blue.gif","img/card_backs/set2/pink.gif","img/card_backs/set2/orange.gif","img/card_backs/set2/gray.gif","""event"",""trial"",""time""
""fullscreenenter"",""1"",""2363""
","
","
","""event"",""trial"",""time""
""fullscreenenter"",""1"",""2363""
","
","","640.7900000049267","","","","practice_card_selection","2021-06-30 20:32:49.604","img/practice_cards/backs/dark_green.gif","0","200","","",""
"casino-keyboard-response","16","85100","0.0-10.0-0.0","959","false","img/card_backs/set1/red.gif","img/card_backs/set1/yellow.gif","img/card_backs/set1/purple.gif","img/card_backs/set1/green.gif","img/card_backs/set2/blue.gif","img/card_backs/set2/pink.gif","img/card_backs/set2/orange.gif","img/card_backs/set2/gray.gif","""event"",""trial"",""time""
""fullscreenenter"",""1"",""2363""
","
","
","""event"",""trial"",""time""
""fullscreenenter"",""1"",""2363""
","
","","5898.704999999609","Great! Now on the next screen, try pressing '6' to select the third deck.","54","","instructions","2021-06-30 20:32:55.505","","","","","",""
"card-selection-trial","17","87500","0.0-11.0-0.0","959","false","img/card_backs/set1/red.gif","img/card_backs/set1/yellow.gif","img/card_backs/set1/purple.gif","img/card_backs/set1/green.gif","img/card_backs/set2/blue.gif","img/card_backs/set2/pink.gif","img/card_backs/set2/orange.gif","img/card_backs/set2/gray.gif","""event"",""trial"",""time""
""fullscreenenter"",""1"",""2363""
","
","
","""event"",""trial"",""time""
""fullscreenenter"",""1"",""2363""
","
","","383.97000000986736","","","","practice_card_selection","2021-06-30 20:32:57.905","img/practice_cards/backs/black.gif","2","100","","",""
"casino-keyboard-response","18","92026","0.0-12.0-0.0","959","false","img/card_backs/set1/red.gif","img/card_backs/set1/yellow.gif","img/card_backs/set1/purple.gif","img/card_backs/set1/green.gif","img/card_backs/set2/blue.gif","img/card_backs/set2/pink.gif","img/card_backs/set2/orange.gif","img/card_backs/set2/gray.gif","""event"",""trial"",""time""
""fullscreenenter"",""1"",""2363""
","
","
","""event"",""trial"",""time""
""fullscreenenter"",""1"",""2363""
","
","","4524.275000003399","Now on the next screen, try pressing '4' to select the second deck.","52","","instructions","2021-06-30 20:33:02.431","","","","","",""
"card-selection-trial","19","94478","0.0-13.0-0.0","959","false","img/card_backs/set1/red.gif","img/card_backs/set1/yellow.gif","img/card_backs/set1/purple.gif","img/card_backs/set1/green.gif","img/card_backs/set2/blue.gif","img/card_backs/set2/pink.gif","img/card_backs/set2/orange.gif","img/card_backs/set2/gray.gif","""event"",""trial"",""time""
""fullscreenenter"",""1"",""2363""
","
","
","""event"",""trial"",""time""
""fullscreenenter"",""1"",""2363""
","
","","437.47499999881256","","","","practice_card_selection","2021-06-30 20:33:04.883","img/practice_cards/backs/black.gif","1","100","","",""
"casino-keyboard-response","20","99147","0.0-14.0-0.0","959","false","img/card_backs/set1/red.gif","img/card_backs/set1/yellow.gif","img/card_backs/set1/purple.gif","img/card_backs/set1/green.gif","img/card_backs/set2/blue.gif","img/card_backs/set2/pink.gif","img/card_backs/set2/orange.gif","img/card_backs/set2/gray.gif","""event"",""trial"",""time""
""fullscreenenter"",""1"",""2363""
","
","
","""event"",""trial"",""time""
""fullscreenenter"",""1"",""2363""
","
","","4667.765000005602","Finally, try pressing '8' to select the deck all the way on the right.","56","","instructions","2021-06-30 20:33:09.552","","","","","",""
"card-selection-trial","21","101627","0.0-15.0-0.0","959","false","img/card_backs/set1/red.gif","img/card_backs/set1/yellow.gif","img/card_backs/set1/purple.gif","img/card_backs/set1/green.gif","img/card_backs/set2/blue.gif","img/card_backs/set2/pink.gif","img/card_backs/set2/orange.gif","img/card_backs/set2/gray.gif","""event"",""trial"",""time""
""fullscreenenter"",""1"",""2363""
","
","
","""event"",""trial"",""time""
""fullscreenenter"",""1"",""2363""
","
","","464.02499999385327","","","","practice_card_selection","2021-06-30 20:33:12.032","img/practice_cards/backs/black.gif","3","-100","","",""
"casino-keyboard-response","22","105582","0.0-16.0-0.0","959","false","img/card_backs/set1/red.gif","img/card_backs/set1/yellow.gif","img/card_backs/set1/purple.gif","img/card_backs/set1/green.gif","img/card_backs/set2/blue.gif","img/card_backs/set2/pink.gif","img/card_backs/set2/orange.gif","img/card_backs/set2/gray.gif","""event"",""trial"",""time""
""fullscreenenter"",""1"",""2363""
","
","
","""event"",""trial"",""time""
""fullscreenenter"",""1"",""2363""
","
","","3953.5800000012387","Great! It seems like you are getting the hang of this.","80","","instructions","2021-06-30 20:33:15.987","","","","","",""
"casino-keyboard-response","23","112919","0.0-16.0-0.1","959","false","img/card_backs/set1/red.gif","img/card_backs/set1/yellow.gif","img/card_backs/set1/purple.gif","img/card_backs/set1/green.gif","img/card_backs/set2/blue.gif","img/card_backs/set2/pink.gif","img/card_backs/set2/orange.gif","img/card_backs/set2/gray.gif","""event"",""trial"",""time""
""fullscreenenter"",""1"",""2363""
","
","
","""event"",""trial"",""time""
""fullscreenenter"",""1"",""2363""
","
","","7334.799999996903","You may have noticed that some cards will cause you to <b> win </b> tokens while other cards will cause you to <b> lose </b>  tokens.","70","","instructions","2021-06-30 20:33:23.324","","","","","",""
"casino-keyboard-response","24","121522","0.0-16.0-0.2","959","false","img/card_backs/set1/red.gif","img/card_backs/set1/yellow.gif","img/card_backs/set1/purple.gif","img/card_backs/set1/green.gif","img/card_backs/set2/blue.gif","img/card_backs/set2/pink.gif","img/card_backs/set2/orange.gif","img/card_backs/set2/gray.gif","""event"",""trial"",""time""
""fullscreenenter"",""1"",""2363""
","
","
","""event"",""trial"",""time""
""fullscreenenter"",""1"",""2363""
","
","","8601.37499999837","Each deck has a mix of cards that will cause you to win and lose tokens. </br> However, the cards in each colored deck are different.","73","","instructions","2021-06-30 20:33:31.928","","","","","",""
"casino-keyboard-response","25","130069","0.0-16.0-0.3","959","false","img/card_backs/set1/red.gif","img/card_backs/set1/yellow.gif","img/card_backs/set1/purple.gif","img/card_backs/set1/green.gif","img/card_backs/set2/blue.gif","img/card_backs/set2/pink.gif","img/card_backs/set2/orange.gif","img/card_backs/set2/gray.gif","""event"",""trial"",""time""
""fullscreenenter"",""1"",""2363""
","
","
","""event"",""trial"",""time""
""fullscreenenter"",""1"",""2363""
","
","","8544.00500000338","Some colored decks are luckier than others. </br> If you choose the lucky decks, you will earn more tokens than if you choose the unlucky decks.","69","","instructions","2021-06-30 20:33:40.474","","","","","",""
"casino-keyboard-response","26","138417","0.0-16.0-0.4","959","false","img/card_backs/set1/red.gif","img/card_backs/set1/yellow.gif","img/card_backs/set1/purple.gif","img/card_backs/set1/green.gif","img/card_backs/set2/blue.gif","img/card_backs/set2/pink.gif","img/card_backs/set2/orange.gif","img/card_backs/set2/gray.gif","""event"",""trial"",""time""
""fullscreenenter"",""1"",""2363""
","
","
","""event"",""trial"",""time""
""fullscreenenter"",""1"",""2363""
","
","","8346.014999988256","You should try to figure out which decks are lucky. </br> Then, try to choose the lucky decks so you can win the most tokens.","87","","instructions","2021-06-30 20:33:48.822","","","","","",""
"casino-keyboard-response","27","149728","0.0-16.0-0.5","959","false","img/card_backs/set1/red.gif","img/card_backs/set1/yellow.gif","img/card_backs/set1/purple.gif","img/card_backs/set1/green.gif","img/card_backs/set2/blue.gif","img/card_backs/set2/pink.gif","img/card_backs/set2/orange.gif","img/card_backs/set2/gray.gif","""event"",""trial"",""time""
""fullscreenenter"",""1"",""2363""
","
","
","""event"",""trial"",""time""
""fullscreenenter"",""1"",""2363""
","
","","11308.13499999931","To make it trickier, the casino dealer will switch the locations of the decks on every turn. </br> The color of the deck determines how lucky it is. The location does not matter.","88","","instructions","2021-06-30 20:34:00.133","","","","","",""
"casino-keyboard-response","28","159262","0.0-16.0-0.6","959","false","img/card_backs/set1/red.gif","img/card_backs/set1/yellow.gif","img/card_backs/set1/purple.gif","img/card_backs/set1/green.gif","img/card_backs/set2/blue.gif","img/card_backs/set2/pink.gif","img/card_backs/set2/orange.gif","img/card_backs/set2/gray.gif","""event"",""trial"",""time""
""fullscreenenter"",""1"",""2363""
","
","
","""event"",""trial"",""time""
""fullscreenenter"",""1"",""2363""
","
","","9532.005000000936","The mix of cards in each colored deck will stay the same throughout the game. </br> That means that a deck that is lucky early on will stay lucky.","79","","instructions","2021-06-30 20:34:09.667","","","","","",""
"casino-keyboard-response","29","167958","0.0-16.0-0.7","959","false","img/card_backs/set1/red.gif","img/card_backs/set1/yellow.gif","img/card_backs/set1/purple.gif","img/card_backs/set1/green.gif","img/card_backs/set2/blue.gif","img/card_backs/set2/pink.gif","img/card_backs/set2/orange.gif","img/card_backs/set2/gray.gif","""event"",""trial"",""time""
""fullscreenenter"",""1"",""2363""
","
","
","""event"",""trial"",""time""
""fullscreenenter"",""1"",""2363""
","
","","8693.719999995665","Remember though, all the decks have a <b> mix </b> of both <b> good </b> and <b> bad </b> cards so it may take a couple of turns to figure out if a deck is lucky.","69","","instructions","2021-06-30 20:34:18.363","","","","","",""
"casino-keyboard-response","30","176195","0.0-16.0-0.8","959","false","img/card_backs/set1/red.gif","img/card_backs/set1/yellow.gif","img/card_backs/set1/purple.gif","img/card_backs/set1/green.gif","img/card_backs/set2/blue.gif","img/card_backs/set2/pink.gif","img/card_backs/set2/orange.gif","img/card_backs/set2/gray.gif","""event"",""trial"",""time""
""fullscreenenter"",""1"",""2363""
","
","
","""event"",""trial"",""time""
""fullscreenenter"",""1"",""2363""
","
","","8234.94500000379","At the end of the game, you will be paid bonus money based on how many tokens you win. </br> If you win more tokens, you will earn more money!","72","","instructions","2021-06-30 20:34:26.600","","","","","",""
"casino-keyboard-response","31","187004","0.0-16.0-0.9","959","false","img/card_backs/set1/red.gif","img/card_backs/set1/yellow.gif","img/card_backs/set1/purple.gif","img/card_backs/set1/green.gif","img/card_backs/set2/blue.gif","img/card_backs/set2/pink.gif","img/card_backs/set2/orange.gif","img/card_backs/set2/gray.gif","""event"",""trial"",""time""
""fullscreenenter"",""1"",""2363""
","
","
","""event"",""trial"",""time""
""fullscreenenter"",""1"",""2363""
","
","","10807.755000001634","You will never <b> lose </b> money. </br> If you end up with fewer than 0 tokens, you will earn $0 of bonus money, but you will still be paid for playing the game.","83","","instructions","2021-06-30 20:34:37.410","","","","","",""
"casino-keyboard-response","32","191124","0.0-16.0-0.10","959","false","img/card_backs/set1/red.gif","img/card_backs/set1/yellow.gif","img/card_backs/set1/purple.gif","img/card_backs/set1/green.gif","img/card_backs/set2/blue.gif","img/card_backs/set2/pink.gif","img/card_backs/set2/orange.gif","img/card_backs/set2/gray.gif","""event"",""trial"",""time""
""fullscreenenter"",""1"",""2363""
","
","
","""event"",""trial"",""time""
""fullscreenenter"",""1"",""2363""
","
","","4117.750000004889","You will have 10 seconds to make each choice.","82","","instructions","2021-06-30 20:34:41.530","","","","","",""
"casino-keyboard-response","33","199635","0.0-16.0-0.11","959","false","img/card_backs/set1/red.gif","img/card_backs/set1/yellow.gif","img/card_backs/set1/purple.gif","img/card_backs/set1/green.gif","img/card_backs/set2/blue.gif","img/card_backs/set2/pink.gif","img/card_backs/set2/orange.gif","img/card_backs/set2/gray.gif","""event"",""trial"",""time""
""fullscreenenter"",""1"",""2363""
","
","
","""event"",""trial"",""time""
""fullscreenenter"",""1"",""2363""
","
","","8507.030000007944","Before you play the game for real, you will play with practice decks. </br> The tokens you earn during practice won't count toward your total.","86","","instructions","2021-06-30 20:34:50.040","","","","","",""
"casino-keyboard-response","34","211169","0.0-16.0-0.12","959","false","img/card_backs/set1/red.gif","img/card_backs/set1/yellow.gif","img/card_backs/set1/purple.gif","img/card_backs/set1/green.gif","img/card_backs/set2/blue.gif","img/card_backs/set2/pink.gif","img/card_backs/set2/orange.gif","img/card_backs/set2/gray.gif","""event"",""trial"",""time""
""fullscreenenter"",""1"",""2363""
","
","
","""event"",""trial"",""time""
""fullscreenenter"",""1"",""2363""
","
","","11532.089999993332","Ready? Remember, use the '2', '4', '6', and '8' keys to select the decks. </br> Put your fingers on those keys now and then press '2' to begin.","50","","instructions","2021-06-30 20:35:01.574","","","","","",""
"casino-fixation","35","211672","0.0-17.0-0.0","959","false","img/card_backs/set1/red.gif","img/card_backs/set1/yellow.gif","img/card_backs/set1/purple.gif","img/card_backs/set1/green.gif","img/card_backs/set2/blue.gif","img/card_backs/set2/pink.gif","img/card_backs/set2/orange.gif","img/card_backs/set2/gray.gif","""event"",""trial"",""time""
""fullscreenenter"",""1"",""2363""
","
","
","""event"",""trial"",""time""
""fullscreenenter"",""1"",""2363""
","
","","null","","null","","fixation","2021-06-30 20:35:02.077","","","","","",""
"card-selection-trial","36","216183","0.0-17.0-1.0","959","false","img/card_backs/set1/red.gif","img/card_backs/set1/yellow.gif","img/card_backs/set1/purple.gif","img/card_backs/set1/green.gif","img/card_backs/set2/blue.gif","img/card_backs/set2/pink.gif","img/card_backs/set2/orange.gif","img/card_backs/set2/gray.gif","""event"",""trial"",""time""
""fullscreenenter"",""1"",""2363""
","
","
","""event"",""trial"",""time""
""fullscreenenter"",""1"",""2363""
","
","","2499.775000003865","","","","practice","2021-06-30 20:35:06.588","img/practice_cards/backs/dark_blue.gif","0","-200","0","",""
"casino-fixation","37","216686","0.0-17.0-0.1","959","false","img/card_backs/set1/red.gif","img/card_backs/set1/yellow.gif","img/card_backs/set1/purple.gif","img/card_backs/set1/green.gif","img/card_backs/set2/blue.gif","img/card_backs/set2/pink.gif","img/card_backs/set2/orange.gif","img/card_backs/set2/gray.gif","""event"",""trial"",""time""
""fullscreenenter"",""1"",""2363""
","
","
","""event"",""trial"",""time""
""fullscreenenter"",""1"",""2363""
","
","","null","","null","","fixation","2021-06-30 20:35:07.091","","","","","",""
"card-selection-trial","38","220146","0.0-17.0-1.1","959","false","img/card_backs/set1/red.gif","img/card_backs/set1/yellow.gif","img/card_backs/set1/purple.gif","img/card_backs/set1/green.gif","img/card_backs/set2/blue.gif","img/card_backs/set2/pink.gif","img/card_backs/set2/orange.gif","img/card_backs/set2/gray.gif","""event"",""trial"",""time""
""fullscreenenter"",""1"",""2363""
","
","
","""event"",""trial"",""time""
""fullscreenenter"",""1"",""2363""
","
","","1447.569999989355","","","","practice","2021-06-30 20:35:10.551","img/practice_cards/backs/dark_green.gif","1","200","0","",""
"casino-fixation","39","220648","0.0-17.0-0.2","959","false","img/card_backs/set1/red.gif","img/card_backs/set1/yellow.gif","img/card_backs/set1/purple.gif","img/card_backs/set1/green.gif","img/card_backs/set2/blue.gif","img/card_backs/set2/pink.gif","img/card_backs/set2/orange.gif","img/card_backs/set2/gray.gif","""event"",""trial"",""time""
""fullscreenenter"",""1"",""2363""
","
","
","""event"",""trial"",""time""
""fullscreenenter"",""1"",""2363""
","
","","null","","null","","fixation","2021-06-30 20:35:11.053","","","","","",""
"card-selection-trial","40","223254","0.0-17.0-1.2","959","false","img/card_backs/set1/red.gif","img/card_backs/set1/yellow.gif","img/card_backs/set1/purple.gif","img/card_backs/set1/green.gif","img/card_backs/set2/blue.gif","img/card_backs/set2/pink.gif","img/card_backs/set2/orange.gif","img/card_backs/set2/gray.gif","""event"",""trial"",""time""
""fullscreenenter"",""1"",""2363""
","
","
","""event"",""trial"",""time""
""fullscreenenter"",""1"",""2363""
","
","","595.5850000027567","","","","practice","2021-06-30 20:35:13.659","img/practice_cards/backs/black.gif","2","100","0","",""
"casino-fixation","41","223756","0.0-17.0-0.3","959","false","img/card_backs/set1/red.gif","img/card_backs/set1/yellow.gif","img/card_backs/set1/purple.gif","img/card_backs/set1/green.gif","img/card_backs/set2/blue.gif","img/card_backs/set2/pink.gif","img/card_backs/set2/orange.gif","img/card_backs/set2/gray.gif","""event"",""trial"",""time""
""fullscreenenter"",""1"",""2363""
","
","
","""event"",""trial"",""time""
""fullscreenenter"",""1"",""2363""
","
","","null","","null","","fixation","2021-06-30 20:35:14.161","","","","","",""
"card-selection-trial","42","226334","0.0-17.0-1.3","959","false","img/card_backs/set1/red.gif","img/card_backs/set1/yellow.gif","img/card_backs/set1/purple.gif","img/card_backs/set1/green.gif","img/card_backs/set2/blue.gif","img/card_backs/set2/pink.gif","img/card_backs/set2/orange.gif","img/card_backs/set2/gray.gif","""event"",""trial"",""time""
""fullscreenenter"",""1"",""2363""
","
","
","""event"",""trial"",""time""
""fullscreenenter"",""1"",""2363""
","
","","566.225000002305","","","","practice","2021-06-30 20:35:16.739","img/practice_cards/backs/brown.gif","3","-100","0","",""
"casino-fixation","43","226836","0.0-17.0-0.4","959","false","img/card_backs/set1/red.gif","img/card_backs/set1/yellow.gif","img/card_backs/set1/purple.gif","img/card_backs/set1/green.gif","img/card_backs/set2/blue.gif","img/card_backs/set2/pink.gif","img/card_backs/set2/orange.gif","img/card_backs/set2/gray.gif","""event"",""trial"",""time""
""fullscreenenter"",""1"",""2363""
","
","
","""event"",""trial"",""time""
""fullscreenenter"",""1"",""2363""
","
","","null","","null","","fixation","2021-06-30 20:35:17.241","","","","","",""
"card-selection-trial","44","230205","0.0-17.0-1.4","959","false","img/card_backs/set1/red.gif","img/card_backs/set1/yellow.gif","img/card_backs/set1/purple.gif","img/card_backs/set1/green.gif","img/card_backs/set2/blue.gif","img/card_backs/set2/pink.gif","img/card_backs/set2/orange.gif","img/card_backs/set2/gray.gif","""event"",""trial"",""time""
""fullscreenenter"",""1"",""2363""
","
","
","""event"",""trial"",""time""
""fullscreenenter"",""1"",""2363""
","
","","1359.054999993532","","","","practice","2021-06-30 20:35:20.610","img/practice_cards/backs/dark_blue.gif","1","-200","0","",""
"casino-fixation","45","230707","0.0-17.0-0.5","959","false","img/card_backs/set1/red.gif","img/card_backs/set1/yellow.gif","img/card_backs/set1/purple.gif","img/card_backs/set1/green.gif","img/card_backs/set2/blue.gif","img/card_backs/set2/pink.gif","img/card_backs/set2/orange.gif","img/card_backs/set2/gray.gif","""event"",""trial"",""time""
""fullscreenenter"",""1"",""2363""
","
","
","""event"",""trial"",""time""
""fullscreenenter"",""1"",""2363""
","
","","null","","null","","fixation","2021-06-30 20:35:21.113","","","","","",""
"card-selection-trial","46","233057","0.0-17.0-1.5","959","false","img/card_backs/set1/red.gif","img/card_backs/set1/yellow.gif","img/card_backs/set1/purple.gif","img/card_backs/set1/green.gif","img/card_backs/set2/blue.gif","img/card_backs/set2/pink.gif","img/card_backs/set2/orange.gif","img/card_backs/set2/gray.gif","""event"",""trial"",""time""
""fullscreenenter"",""1"",""2363""
","
","
","""event"",""trial"",""time""
""fullscreenenter"",""1"",""2363""
","
","","338.4400000068126","","","","practice","2021-06-30 20:35:23.462","img/practice_cards/backs/brown.gif","2","-100","0","",""
"casino-fixation","47","233558","0.0-17.0-0.6","959","false","img/card_backs/set1/red.gif","img/card_backs/set1/yellow.gif","img/card_backs/set1/purple.gif","img/card_backs/set1/green.gif","img/card_backs/set2/blue.gif","img/card_backs/set2/pink.gif","img/card_backs/set2/orange.gif","img/card_backs/set2/gray.gif","""event"",""trial"",""time""
""fullscreenenter"",""1"",""2363""
","
","
","""event"",""trial"",""time""
""fullscreenenter"",""1"",""2363""
","
","","null","","null","","fixation","2021-06-30 20:35:23.964","","","","","",""
"card-selection-trial","48","235858","0.0-17.0-1.6","959","false","img/card_backs/set1/red.gif","img/card_backs/set1/yellow.gif","img/card_backs/set1/purple.gif","img/card_backs/set1/green.gif","img/card_backs/set2/blue.gif","img/card_backs/set2/pink.gif","img/card_backs/set2/orange.gif","img/card_backs/set2/gray.gif","""event"",""trial"",""time""
""fullscreenenter"",""1"",""2363""
","
","
","""event"",""trial"",""time""
""fullscreenenter"",""1"",""2363""
","
","","290.12499999953434","","","","practice","2021-06-30 20:35:26.264","img/practice_cards/backs/brown.gif","1","-100","0","",""
"casino-fixation","49","236360","0.0-17.0-0.7","959","false","img/card_backs/set1/red.gif","img/card_backs/set1/yellow.gif","img/card_backs/set1/purple.gif","img/card_backs/set1/green.gif","img/card_backs/set2/blue.gif","img/card_backs/set2/pink.gif","img/card_backs/set2/orange.gif","img/card_backs/set2/gray.gif","""event"",""trial"",""time""
""fullscreenenter"",""1"",""2363""
","
","
","""event"",""trial"",""time""
""fullscreenenter"",""1"",""2363""
","
","","null","","null","","fixation","2021-06-30 20:35:26.765","","","","","",""
"card-selection-trial","50","239770","0.0-17.0-1.7","959","false","img/card_backs/set1/red.gif","img/card_backs/set1/yellow.gif","img/card_backs/set1/purple.gif","img/card_backs/set1/green.gif","img/card_backs/set2/blue.gif","img/card_backs/set2/pink.gif","img/card_backs/set2/orange.gif","img/card_backs/set2/gray.gif","""event"",""trial"",""time""
""fullscreenenter"",""1"",""2363""
","
","
","""event"",""trial"",""time""
""fullscreenenter"",""1"",""2363""
","
","","1399.4299999903888","","","","practice","2021-06-30 20:35:30.175","img/practice_cards/backs/dark_green.gif","2","-200","0","",""
"casino-fixation","51","240272","0.0-17.0-0.8","959","false","img/card_backs/set1/red.gif","img/card_backs/set1/yellow.gif","img/card_backs/set1/purple.gif","img/card_backs/set1/green.gif","img/card_backs/set2/blue.gif","img/card_backs/set2/pink.gif","img/card_backs/set2/orange.gif","img/card_backs/set2/gray.gif","""event"",""trial"",""time""
""fullscreenenter"",""1"",""2363""
","
","
","""event"",""trial"",""time""
""fullscreenenter"",""1"",""2363""
","
","","null","","null","","fixation","2021-06-30 20:35:30.677","","","","","",""
"card-selection-trial","52","242663","0.0-17.0-1.8","959","false","img/card_backs/set1/red.gif","img/card_backs/set1/yellow.gif","img/card_backs/set1/purple.gif","img/card_backs/set1/green.gif","img/card_backs/set2/blue.gif","img/card_backs/set2/pink.gif","img/card_backs/set2/orange.gif","img/card_backs/set2/gray.gif","""event"",""trial"",""time""
""fullscreenenter"",""1"",""2363""
","
","
","""event"",""trial"",""time""
""fullscreenenter"",""1"",""2363""
","
","","379.84000000869855","","","","practice","2021-06-30 20:35:33.068","img/practice_cards/backs/dark_blue.gif","0","-200","0","",""
"casino-fixation","53","243165","0.0-17.0-0.9","959","false","img/card_backs/set1/red.gif","img/card_backs/set1/yellow.gif","img/card_backs/set1/purple.gif","img/card_backs/set1/green.gif","img/card_backs/set2/blue.gif","img/card_backs/set2/pink.gif","img/card_backs/set2/orange.gif","img/card_backs/set2/gray.gif","""event"",""trial"",""time""
""fullscreenenter"",""1"",""2363""
","
","
","""event"",""trial"",""time""
""fullscreenenter"",""1"",""2363""
","
","","null","","null","","fixation","2021-06-30 20:35:33.570","","","","","",""
"card-selection-trial","54","245787","0.0-17.0-1.9","959","false","img/card_backs/set1/red.gif","img/card_backs/set1/yellow.gif","img/card_backs/set1/purple.gif","img/card_backs/set1/green.gif","img/card_backs/set2/blue.gif","img/card_backs/set2/pink.gif","img/card_backs/set2/orange.gif","img/card_backs/set2/gray.gif","""event"",""trial"",""time""
""fullscreenenter"",""1"",""2363""
","
","
","""event"",""trial"",""time""
""fullscreenenter"",""1"",""2363""
","
","","610.6399999989662","","","","practice","2021-06-30 20:35:36.192","img/practice_cards/backs/black.gif","3","100","0","",""
"casino-keyboard-response","55","248838","0.0-18.0","959","false","img/card_backs/set1/red.gif","img/card_backs/set1/yellow.gif","img/card_backs/set1/purple.gif","img/card_backs/set1/green.gif","img/card_backs/set2/blue.gif","img/card_backs/set2/pink.gif","img/card_backs/set2/orange.gif","img/card_backs/set2/gray.gif","""event"",""trial"",""time""
""fullscreenenter"",""1"",""2363""
","
","
","""event"",""trial"",""time""
""fullscreenenter"",""1"",""2363""
","
","","3049.075000002631","You earned -700 tokens during the practice round!","82","","","2021-06-30 20:35:39.243","","","","","",""
"casino-keyboard-response","56","253590","0.0-19.0-0.0","959","false","img/card_backs/set1/red.gif","img/card_backs/set1/yellow.gif","img/card_backs/set1/purple.gif","img/card_backs/set1/green.gif","img/card_backs/set2/blue.gif","img/card_backs/set2/pink.gif","img/card_backs/set2/orange.gif","img/card_backs/set2/gray.gif","""event"",""trial"",""time""
""fullscreenenter"",""1"",""2363""
","
","
","""event"",""trial"",""time""
""fullscreenenter"",""1"",""2363""
","
","","4749.8649999906775","Nice job! You are almost ready to play the real game.","86","","instructions","2021-06-30 20:35:43.995","","","","","",""
"casino-keyboard-response","57","260224","0.0-19.0-0.1","959","false","img/card_backs/set1/red.gif","img/card_backs/set1/yellow.gif","img/card_backs/set1/purple.gif","img/card_backs/set1/green.gif","img/card_backs/set2/blue.gif","img/card_backs/set2/pink.gif","img/card_backs/set2/orange.gif","img/card_backs/set2/gray.gif","""event"",""trial"",""time""
""fullscreenenter"",""1"",""2363""
","
","
","""event"",""trial"",""time""
""fullscreenenter"",""1"",""2363""
","
","","6631.670000002487","You will play two rounds of the real game. In each round, you will pick 100 cards in total.","73","","instructions","2021-06-30 20:35:50.629","","","","","",""
"casino-keyboard-response","58","264501","0.0-19.0-0.2","959","false","img/card_backs/set1/red.gif","img/card_backs/set1/yellow.gif","img/card_backs/set1/purple.gif","img/card_backs/set1/green.gif","img/card_backs/set2/blue.gif","img/card_backs/set2/pink.gif","img/card_backs/set2/orange.gif","img/card_backs/set2/gray.gif","""event"",""trial"",""time""
""fullscreenenter"",""1"",""2363""
","
","
","""event"",""trial"",""time""
""fullscreenenter"",""1"",""2363""
","
","","4274.210000003222","We are now going to ask you some questions about how the game works.","66","","instructions","2021-06-30 20:35:54.906","","","","","",""
"casino-keyboard-response","59","271358","0.0-19.0-0.3","959","false","img/card_backs/set1/red.gif","img/card_backs/set1/yellow.gif","img/card_backs/set1/purple.gif","img/card_backs/set1/green.gif","img/card_backs/set2/blue.gif","img/card_backs/set2/pink.gif","img/card_backs/set2/orange.gif","img/card_backs/set2/gray.gif","""event"",""trial"",""time""
""fullscreenenter"",""1"",""2363""
","
","
","""event"",""trial"",""time""
""fullscreenenter"",""1"",""2363""
","
","","6855.410000003758","Answer carefully. You will not be able to begin the game until you answer them correctly.","67","","instructions","2021-06-30 20:36:01.763","","","","","",""
"casino-comp_q","60","278759","0.0-20.0-0.0","959","false","img/card_backs/set1/red.gif","img/card_backs/set1/yellow.gif","img/card_backs/set1/purple.gif","img/card_backs/set1/green.gif","img/card_backs/set2/blue.gif","img/card_backs/set2/pink.gif","img/card_backs/set2/orange.gif","img/card_backs/set2/gray.gif","""event"",""trial"",""time""
""fullscreenenter"",""1"",""2363""
","
","
","""event"",""trial"",""time""
""fullscreenenter"",""1"",""2363""
","
","","7397.874999995111","True or False: All the decks have some cards that cause you to win tokens and some cards that cause you to lose tokens.","84","","","2021-06-30 20:36:09.165","","","","","",""
"casino-keyboard-response","61","282216","0.0-20.0-1.0","959","false","img/card_backs/set1/red.gif","img/card_backs/set1/yellow.gif","img/card_backs/set1/purple.gif","img/card_backs/set1/green.gif","img/card_backs/set2/blue.gif","img/card_backs/set2/pink.gif","img/card_backs/set2/orange.gif","img/card_backs/set2/gray.gif","""event"",""trial"",""time""
""fullscreenenter"",""1"",""2363""
","
","
","""event"",""trial"",""time""
""fullscreenenter"",""1"",""2363""
","
","","3453.989999994519","True is correct! All the decks have a mix of winning and losing cards.","77","","","2021-06-30 20:36:12.621","","","","","true",""
"casino-comp_q","62","285665","0.0-21.0-0.0","959","false","img/card_backs/set1/red.gif","img/card_backs/set1/yellow.gif","img/card_backs/set1/purple.gif","img/card_backs/set1/green.gif","img/card_backs/set2/blue.gif","img/card_backs/set2/pink.gif","img/card_backs/set2/orange.gif","img/card_backs/set2/gray.gif","""event"",""trial"",""time""
""fullscreenenter"",""1"",""2363""
","
","
","""event"",""trial"",""time""
""fullscreenenter"",""1"",""2363""
","
","","3446.6000000102213","True or False: You will have as much time as you want to make your response.","70","","","2021-06-30 20:36:16.070","","","","","",""
"casino-keyboard-response","63","288905","0.0-21.0-1.0","959","false","img/card_backs/set1/red.gif","img/card_backs/set1/yellow.gif","img/card_backs/set1/purple.gif","img/card_backs/set1/green.gif","img/card_backs/set2/blue.gif","img/card_backs/set2/pink.gif","img/card_backs/set2/orange.gif","img/card_backs/set2/gray.gif","""event"",""trial"",""time""
""fullscreenenter"",""1"",""2363""
","
","
","""event"",""trial"",""time""
""fullscreenenter"",""1"",""2363""
","
","","3236.5500000014435","False is correct! You will only have 10 seconds to make each choice.","75","","","2021-06-30 20:36:19.310","","","","","true",""
"casino-comp_q","64","292755","0.0-22.0-0.0","959","false","img/card_backs/set1/red.gif","img/card_backs/set1/yellow.gif","img/card_backs/set1/purple.gif","img/card_backs/set1/green.gif","img/card_backs/set2/blue.gif","img/card_backs/set2/pink.gif","img/card_backs/set2/orange.gif","img/card_backs/set2/gray.gif","""event"",""trial"",""time""
""fullscreenenter"",""1"",""2363""
","
","
","""event"",""trial"",""time""
""fullscreenenter"",""1"",""2363""
","
","","3848.715000000084","True or False: The location of the deck determines how lucky it is.","70","","","2021-06-30 20:36:23.160","","","","","",""
"casino-keyboard-response","65","295625","0.0-22.0-1.0","959","false","img/card_backs/set1/red.gif","img/card_backs/set1/yellow.gif","img/card_backs/set1/purple.gif","img/card_backs/set1/green.gif","img/card_backs/set2/blue.gif","img/card_backs/set2/pink.gif","img/card_backs/set2/orange.gif","img/card_backs/set2/gray.gif","""event"",""trial"",""time""
""fullscreenenter"",""1"",""2363""
","
","
","""event"",""trial"",""time""
""fullscreenenter"",""1"",""2363""
","
","","2868.205000006128","False is correct! The <i>color</i>  of the deck determines how lucky or unlucky it is.","68","","","2021-06-30 20:36:26.031","","","","","true",""
"casino-keyboard-response","66","300641","0.0-23.0-0.0","959","false","img/card_backs/set1/red.gif","img/card_backs/set1/yellow.gif","img/card_backs/set1/purple.gif","img/card_backs/set1/green.gif","img/card_backs/set2/blue.gif","img/card_backs/set2/pink.gif","img/card_backs/set2/orange.gif","img/card_backs/set2/gray.gif","""event"",""trial"",""time""
""fullscreenenter"",""1"",""2363""
","
","
","""event"",""trial"",""time""
""fullscreenenter"",""1"",""2363""
","
","","5012.235000001965","Great job! Now it's time to start the real game.","82","","instructions","2021-06-30 20:36:31.046","","","","","",""
"casino-keyboard-response","67","305980","0.0-23.0-0.1","959","false","img/card_backs/set1/red.gif","img/card_backs/set1/yellow.gif","img/card_backs/set1/purple.gif","img/card_backs/set1/green.gif","img/card_backs/set2/blue.gif","img/card_backs/set2/pink.gif","img/card_backs/set2/orange.gif","img/card_backs/set2/gray.gif","""event"",""trial"",""time""
""fullscreenenter"",""1"",""2363""
","
","
","""event"",""trial"",""time""
""fullscreenenter"",""1"",""2363""
","
","","5338.049999991199","Before we start, we're going to head into a new room of the casino.","86","","instructions","2021-06-30 20:36:36.385","","","","","",""
"casino-keyboard-response","68","312242","0.0-24.0-0.0","959","false","img/card_backs/set1/red.gif","img/card_backs/set1/yellow.gif","img/card_backs/set1/purple.gif","img/card_backs/set1/green.gif","img/card_backs/set2/blue.gif","img/card_backs/set2/pink.gif","img/card_backs/set2/orange.gif","img/card_backs/set2/gray.gif","""event"",""trial"",""time""
""fullscreenenter"",""1"",""2363""
","
","
","""event"",""trial"",""time""
""fullscreenenter"",""1"",""2363""
","
","","6259.424999996554","Here we are! The real game will use different cards, but the rules will be the same.","71","","instructions","2021-06-30 20:36:42.647","","","","","",""
"casino-keyboard-response","69","321306","0.0-24.0-0.1","959","false","img/card_backs/set1/red.gif","img/card_backs/set1/yellow.gif","img/card_backs/set1/purple.gif","img/card_backs/set1/green.gif","img/card_backs/set2/blue.gif","img/card_backs/set2/pink.gif","img/card_backs/set2/orange.gif","img/card_backs/set2/gray.gif","""event"",""trial"",""time""
""fullscreenenter"",""1"",""2363""
","
","
","""event"",""trial"",""time""
""fullscreenenter"",""1"",""2363""
","
","","9061.639999999898","Ready? Put your fingers over the '2', '4', 6', and '8' keys so you are ready to play the game. </br> Then press 2 to start.","50","","instructions","2021-06-30 20:36:51.711","","","","","",""
"casino-fixation","70","321809","0.0-25.0-0.0","959","false","img/card_backs/set1/red.gif","img/card_backs/set1/yellow.gif","img/card_backs/set1/purple.gif","img/card_backs/set1/green.gif","img/card_backs/set2/blue.gif","img/card_backs/set2/pink.gif","img/card_backs/set2/orange.gif","img/card_backs/set2/gray.gif","""event"",""trial"",""time""
""fullscreenenter"",""1"",""2363""
","
","
","""event"",""trial"",""time""
""fullscreenenter"",""1"",""2363""
","
","","null","","null","","fixation","2021-06-30 20:36:52.214","","","","","",""
"card-selection-trial","71","326254","0.0-25.0-1.0","959","false","img/card_backs/set1/red.gif","img/card_backs/set1/yellow.gif","img/card_backs/set1/purple.gif","img/card_backs/set1/green.gif","img/card_backs/set2/blue.gif","img/card_backs/set2/pink.gif","img/card_backs/set2/orange.gif","img/card_backs/set2/gray.gif","""event"",""trial"",""time""
""fullscreenenter"",""1"",""2363""
","
","
","""event"",""trial"",""time""
""fullscreenenter"",""1"",""2363""
","
","","2433.245000007446","","","","real_trial","2021-06-30 20:36:56.660","img/card_backs/set1/purple.gif","1","120","1","",""
"casino-fixation","72","326757","0.0-25.0-0.1","959","false","img/card_backs/set1/red.gif","img/card_backs/set1/yellow.gif","img/card_backs/set1/purple.gif","img/card_backs/set1/green.gif","img/card_backs/set2/blue.gif","img/card_backs/set2/pink.gif","img/card_backs/set2/orange.gif","img/card_backs/set2/gray.gif","""event"",""trial"",""time""
""fullscreenenter"",""1"",""2363""
","
","
","""event"",""trial"",""time""
""fullscreenenter"",""1"",""2363""
","
","","null","","null","","fixation","2021-06-30 20:36:57.162","","","","","",""
"card-selection-trial","73","330720","0.0-25.0-1.1","959","false","img/card_backs/set1/red.gif","img/card_backs/set1/yellow.gif","img/card_backs/set1/purple.gif","img/card_backs/set1/green.gif","img/card_backs/set2/blue.gif","img/card_backs/set2/pink.gif","img/card_backs/set2/orange.gif","img/card_backs/set2/gray.gif","""event"",""trial"",""time""
""fullscreenenter"",""1"",""2363""
","
","
","""event"",""trial"",""time""
""fullscreenenter"",""1"",""2363""
","
","","1950.219999998808","","","","real_trial","2021-06-30 20:37:01.125","img/card_backs/set1/red.gif","2","200","1","",""
"casino-fixation","74","331222","0.0-25.0-0.2","959","false","img/card_backs/set1/red.gif","img/card_backs/set1/yellow.gif","img/card_backs/set1/purple.gif","img/card_backs/set1/green.gif","img/card_backs/set2/blue.gif","img/card_backs/set2/pink.gif","img/card_backs/set2/orange.gif","img/card_backs/set2/gray.gif","""event"",""trial"",""time""
""fullscreenenter"",""1"",""2363""
","
","
","""event"",""trial"",""time""
""fullscreenenter"",""1"",""2363""
","
","","null","","null","","fixation","2021-06-30 20:37:01.627","","","","","",""
"card-selection-trial","75","333936","0.0-25.0-1.2","959","false","img/card_backs/set1/red.gif","img/card_backs/set1/yellow.gif","img/card_backs/set1/purple.gif","img/card_backs/set1/green.gif","img/card_backs/set2/blue.gif","img/card_backs/set2/pink.gif","img/card_backs/set2/orange.gif","img/card_backs/set2/gray.gif","""event"",""trial"",""time""
""fullscreenenter"",""1"",""2363""
","
","
","""event"",""trial"",""time""
""fullscreenenter"",""1"",""2363""
","
","","704.7000000020489","","","","real_trial","2021-06-30 20:37:04.342","img/card_backs/set1/purple.gif","3","120","1","",""
"casino-fixation","76","334438","0.0-25.0-0.3","959","false","img/card_backs/set1/red.gif","img/card_backs/set1/yellow.gif","img/card_backs/set1/purple.gif","img/card_backs/set1/green.gif","img/card_backs/set2/blue.gif","img/card_backs/set2/pink.gif","img/card_backs/set2/orange.gif","img/card_backs/set2/gray.gif","""event"",""trial"",""time""
""fullscreenenter"",""1"",""2363""
","
","
","""event"",""trial"",""time""
""fullscreenenter"",""1"",""2363""
","
","","null","","null","","fixation","2021-06-30 20:37:04.843","","","","","",""
"card-selection-trial","77","336799","0.0-25.0-1.3","959","false","img/card_backs/set1/red.gif","img/card_backs/set1/yellow.gif","img/card_backs/set1/purple.gif","img/card_backs/set1/green.gif","img/card_backs/set2/blue.gif","img/card_backs/set2/pink.gif","img/card_backs/set2/orange.gif","img/card_backs/set2/gray.gif","""event"",""trial"",""time""
""fullscreenenter"",""1"",""2363""
","
","
","""event"",""trial"",""time""
""fullscreenenter"",""1"",""2363""
","
","","350.75499999220483","","","","real_trial","2021-06-30 20:37:07.204","img/card_backs/set1/red.gif","0","-250","1","",""
"casino-fixation","78","337301","0.0-25.0-0.4","959","false","img/card_backs/set1/red.gif","img/card_backs/set1/yellow.gif","img/card_backs/set1/purple.gif","img/card_backs/set1/green.gif","img/card_backs/set2/blue.gif","img/card_backs/set2/pink.gif","img/card_backs/set2/orange.gif","img/card_backs/set2/gray.gif","""event"",""trial"",""time""
""fullscreenenter"",""1"",""2363""
","
","
","""event"",""trial"",""time""
""fullscreenenter"",""1"",""2363""
","
","","null","","null","","fixation","2021-06-30 20:37:07.706","","","","","",""
"card-selection-trial","79","340347","0.0-25.0-1.4","959","false","img/card_backs/set1/red.gif","img/card_backs/set1/yellow.gif","img/card_backs/set1/purple.gif","img/card_backs/set1/green.gif","img/card_backs/set2/blue.gif","img/card_backs/set2/pink.gif","img/card_backs/set2/orange.gif","img/card_backs/set2/gray.gif","""event"",""trial"",""time""
""fullscreenenter"",""1"",""2363""
","
","
","""event"",""trial"",""time""
""fullscreenenter"",""1"",""2363""
","
","","1035.9949999983655","","","","real_trial","2021-06-30 20:37:10.752","img/card_backs/set1/red.gif","2","-230","1","",""
"casino-fixation","80","340849","0.0-25.0-0.5","959","false","img/card_backs/set1/red.gif","img/card_backs/set1/yellow.gif","img/card_backs/set1/purple.gif","img/card_backs/set1/green.gif","img/card_backs/set2/blue.gif","img/card_backs/set2/pink.gif","img/card_backs/set2/orange.gif","img/card_backs/set2/gray.gif","""event"",""trial"",""time""
""fullscreenenter"",""1"",""2363""
","
","
","""event"",""trial"",""time""
""fullscreenenter"",""1"",""2363""
","
","","null","","null","","fixation","2021-06-30 20:37:11.254","","","","","",""
"card-selection-trial","81","343443","0.0-25.0-1.5","959","false","img/card_backs/set1/red.gif","img/card_backs/set1/yellow.gif","img/card_backs/set1/purple.gif","img/card_backs/set1/green.gif","img/card_backs/set2/blue.gif","img/card_backs/set2/pink.gif","img/card_backs/set2/orange.gif","img/card_backs/set2/gray.gif","""event"",""trial"",""time""
""fullscreenenter"",""1"",""2363""
","
","
","""event"",""trial"",""time""
""fullscreenenter"",""1"",""2363""
","
","","582.9999999987194","","","","real_trial","2021-06-30 20:37:13.848","img/card_backs/set1/red.gif","1","190","1","",""
"casino-fixation","82","343945","0.0-25.0-0.6","959","false","img/card_backs/set1/red.gif","img/card_backs/set1/yellow.gif","img/card_backs/set1/purple.gif","img/card_backs/set1/green.gif","img/card_backs/set2/blue.gif","img/card_backs/set2/pink.gif","img/card_backs/set2/orange.gif","img/card_backs/set2/gray.gif","""event"",""trial"",""time""
""fullscreenenter"",""1"",""2363""
","
","
","""event"",""trial"",""time""
""fullscreenenter"",""1"",""2363""
","
","","null","","null","","fixation","2021-06-30 20:37:14.350","","","","","",""
"card-selection-trial","83","346411","0.0-25.0-1.6","959","false","img/card_backs/set1/red.gif","img/card_backs/set1/yellow.gif","img/card_backs/set1/purple.gif","img/card_backs/set1/green.gif","img/card_backs/set2/blue.gif","img/card_backs/set2/pink.gif","img/card_backs/set2/orange.gif","img/card_backs/set2/gray.gif","""event"",""trial"",""time""
""fullscreenenter"",""1"",""2363""
","
","
","""event"",""trial"",""time""
""fullscreenenter"",""1"",""2363""
","
","","454.52500000828877","","","","real_trial","2021-06-30 20:37:16.816","img/card_backs/set1/yellow.gif","3","190","1","",""
"casino-fixation","84","346912","0.0-25.0-0.7","959","false","img/card_backs/set1/red.gif","img/card_backs/set1/yellow.gif","img/card_backs/set1/purple.gif","img/card_backs/set1/green.gif","img/card_backs/set2/blue.gif","img/card_backs/set2/pink.gif","img/card_backs/set2/orange.gif","img/card_backs/set2/gray.gif","""event"",""trial"",""time""
""fullscreenenter"",""1"",""2363""
","
","
","""event"",""trial"",""time""
""fullscreenenter"",""1"",""2363""
","
","","null","","null","","fixation","2021-06-30 20:37:17.317","","","","","",""
"card-selection-trial","85","349236","0.0-25.0-1.7","959","false","img/card_backs/set1/red.gif","img/card_backs/set1/yellow.gif","img/card_backs/set1/purple.gif","img/card_backs/set1/green.gif","img/card_backs/set2/blue.gif","img/card_backs/set2/pink.gif","img/card_backs/set2/orange.gif","img/card_backs/set2/gray.gif","""event"",""trial"",""time""
""fullscreenenter"",""1"",""2363""
","
","
","""event"",""trial"",""time""
""fullscreenenter"",""1"",""2363""
","
","","314.2399999924237","","","","real_trial","2021-06-30 20:37:19.641","img/card_backs/set1/red.gif","1","190","1","",""
"casino-fixation","86","349738","0.0-25.0-0.8","959","false","img/card_backs/set1/red.gif","img/card_backs/set1/yellow.gif","img/card_backs/set1/purple.gif","img/card_backs/set1/green.gif","img/card_backs/set2/blue.gif","img/card_backs/set2/pink.gif","img/card_backs/set2/orange.gif","img/card_backs/set2/gray.gif","""event"",""trial"",""time""
""fullscreenenter"",""1"",""2363""
","
","
","""event"",""trial"",""time""
""fullscreenenter"",""1"",""2363""
","
","","null","","null","","fixation","2021-06-30 20:37:20.143","","","","","",""
"card-selection-trial","87","352026","0.0-25.0-1.8","959","false","img/card_backs/set1/red.gif","img/card_backs/set1/yellow.gif","img/card_backs/set1/purple.gif","img/card_backs/set1/green.gif","img/card_backs/set2/blue.gif","img/card_backs/set2/pink.gif","img/card_backs/set2/orange.gif","img/card_backs/set2/gray.gif","""event"",""trial"",""time""
""fullscreenenter"",""1"",""2363""
","
","
","""event"",""trial"",""time""
""fullscreenenter"",""1"",""2363""
","
","","276.1749999917811","","","","real_trial","2021-06-30 20:37:22.431","img/card_backs/set1/green.gif","3","-70","1","",""
"casino-fixation","88","352528","0.0-25.0-0.9","959","false","img/card_backs/set1/red.gif","img/card_backs/set1/yellow.gif","img/card_backs/set1/purple.gif","img/card_backs/set1/green.gif","img/card_backs/set2/blue.gif","img/card_backs/set2/pink.gif","img/card_backs/set2/orange.gif","img/card_backs/set2/gray.gif","""event"",""trial"",""time""
""fullscreenenter"",""1"",""2363""
","
","
","""event"",""trial"",""time""
""fullscreenenter"",""1"",""2363""
","
","","null","","null","","fixation","2021-06-30 20:37:22.933","","","","","",""
"card-selection-trial","89","354823","0.0-25.0-1.9","959","false","img/card_backs/set1/red.gif","img/card_backs/set1/yellow.gif","img/card_backs/set1/purple.gif","img/card_backs/set1/green.gif","img/card_backs/set2/blue.gif","img/card_backs/set2/pink.gif","img/card_backs/set2/orange.gif","img/card_backs/set2/gray.gif","""event"",""trial"",""time""
""fullscreenenter"",""1"",""2363""
","
","
","""event"",""trial"",""time""
""fullscreenenter"",""1"",""2363""
","
","","283.73999999894295","","","","real_trial","2021-06-30 20:37:25.228","img/card_backs/set1/yellow.gif","1","-230","1","",""
"casino-fixation","90","355325","0.0-25.0-0.10","959","false","img/card_backs/set1/red.gif","img/card_backs/set1/yellow.gif","img/card_backs/set1/purple.gif","img/card_backs/set1/green.gif","img/card_backs/set2/blue.gif","img/card_backs/set2/pink.gif","img/card_backs/set2/orange.gif","img/card_backs/set2/gray.gif","""event"",""trial"",""time""
""fullscreenenter"",""1"",""2363""
","
","
","""event"",""trial"",""time""
""fullscreenenter"",""1"",""2363""
","
","","null","","null","","fixation","2021-06-30 20:37:25.730","","","","","",""
"card-selection-trial","91","357576","0.0-25.0-1.10","959","false","img/card_backs/set1/red.gif","img/card_backs/set1/yellow.gif","img/card_backs/set1/purple.gif","img/card_backs/set1/green.gif","img/card_backs/set2/blue.gif","img/card_backs/set2/pink.gif","img/card_backs/set2/orange.gif","img/card_backs/set2/gray.gif","""event"",""trial"",""time""
""fullscreenenter"",""1"",""2363""
","
","
","""event"",""trial"",""time""
""fullscreenenter"",""1"",""2363""
","
","","240.25000000256114","","","","real_trial","2021-06-30 20:37:27.981","img/card_backs/set1/yellow.gif","1","200","1","",""
"casino-fixation","92","358077","0.0-25.0-0.11","959","false","img/card_backs/set1/red.gif","img/card_backs/set1/yellow.gif","img/card_backs/set1/purple.gif","img/card_backs/set1/green.gif","img/card_backs/set2/blue.gif","img/card_backs/set2/pink.gif","img/card_backs/set2/orange.gif","img/card_backs/set2/gray.gif","""event"",""trial"",""time""
""fullscreenenter"",""1"",""2363""
","
","
","""event"",""trial"",""time""
""fullscreenenter"",""1"",""2363""
","
","","null","","null","","fixation","2021-06-30 20:37:28.482","","","","","",""
"card-selection-trial","93","360511","0.0-25.0-1.11","959","false","img/card_backs/set1/red.gif","img/card_backs/set1/yellow.gif","img/card_backs/set1/purple.gif","img/card_backs/set1/green.gif","img/card_backs/set2/blue.gif","img/card_backs/set2/pink.gif","img/card_backs/set2/orange.gif","img/card_backs/set2/gray.gif","""event"",""trial"",""time""
""fullscreenenter"",""1"",""2363""
","
","
","""event"",""trial"",""time""
""fullscreenenter"",""1"",""2363""
","
","","424.40499999793246","","","","real_trial","2021-06-30 20:37:30.917","img/card_backs/set1/purple.gif","3","110","1","",""
"casino-fixation","94","361013","0.0-25.0-0.12","959","false","img/card_backs/set1/red.gif","img/card_backs/set1/yellow.gif","img/card_backs/set1/purple.gif","img/card_backs/set1/green.gif","img/card_backs/set2/blue.gif","img/card_backs/set2/pink.gif","img/card_backs/set2/orange.gif","img/card_backs/set2/gray.gif","""event"",""trial"",""time""
""fullscreenenter"",""1"",""2363""
","
","
","""event"",""trial"",""time""
""fullscreenenter"",""1"",""2363""
","
","","null","","null","","fixation","2021-06-30 20:37:31.418","","","","","",""
"card-selection-trial","95","363334","0.0-25.0-1.12","959","false","img/card_backs/set1/red.gif","img/card_backs/set1/yellow.gif","img/card_backs/set1/purple.gif","img/card_backs/set1/green.gif","img/card_backs/set2/blue.gif","img/card_backs/set2/pink.gif","img/card_backs/set2/orange.gif","img/card_backs/set2/gray.gif","""event"",""trial"",""time""
""fullscreenenter"",""1"",""2363""
","
","
","""event"",""trial"",""time""
""fullscreenenter"",""1"",""2363""
","
","","310.8150000043679","","","","real_trial","2021-06-30 20:37:33.739","img/card_backs/set1/yellow.gif","3","-240","1","",""
"casino-fixation","96","363836","0.0-25.0-0.13","959","false","img/card_backs/set1/red.gif","img/card_backs/set1/yellow.gif","img/card_backs/set1/purple.gif","img/card_backs/set1/green.gif","img/card_backs/set2/blue.gif","img/card_backs/set2/pink.gif","img/card_backs/set2/orange.gif","img/card_backs/set2/gray.gif","""event"",""trial"",""time""
""fullscreenenter"",""1"",""2363""
","
","
","""event"",""trial"",""time""
""fullscreenenter"",""1"",""2363""
","
","","null","","null","","fixation","2021-06-30 20:37:34.241","","","","","",""
"card-selection-trial","97","368713","0.0-25.0-1.13","959","false","img/card_backs/set1/red.gif","img/card_backs/set1/yellow.gif","img/card_backs/set1/purple.gif","img/card_backs/set1/green.gif","img/card_backs/set2/blue.gif","img/card_backs/set2/pink.gif","img/card_backs/set2/orange.gif","img/card_backs/set2/gray.gif","""event"",""trial"",""time""
""fullscreenenter"",""1"",""2363""
","
","
","""event"",""trial"",""time""
""fullscreenenter"",""1"",""2363""
","
","","2867.070000007516","","","","real_trial","2021-06-30 20:37:39.118","img/card_backs/set1/purple.gif","2","-70","1","",""
"casino-fixation","98","369215","0.0-25.0-0.14","959","false","img/card_backs/set1/red.gif","img/card_backs/set1/yellow.gif","img/card_backs/set1/purple.gif","img/card_backs/set1/green.gif","img/card_backs/set2/blue.gif","img/card_backs/set2/pink.gif","img/card_backs/set2/orange.gif","img/card_backs/set2/gray.gif","""event"",""trial"",""time""
""fullscreenenter"",""1"",""2363""
","
","
","""event"",""trial"",""time""
""fullscreenenter"",""1"",""2363""
","
","","null","","null","","fixation","2021-06-30 20:37:39.620","","","","","",""
"card-selection-trial","99","372886","0.0-25.0-1.14","959","false","img/card_backs/set1/red.gif","img/card_backs/set1/yellow.gif","img/card_backs/set1/purple.gif","img/card_backs/set1/green.gif","img/card_backs/set2/blue.gif","img/card_backs/set2/pink.gif","img/card_backs/set2/orange.gif","img/card_backs/set2/gray.gif","""event"",""trial"",""time""
""fullscreenenter"",""1"",""2363""
","
","
","""event"",""trial"",""time""
""fullscreenenter"",""1"",""2363""
","
","","1662.064999996801","","","","real_trial","2021-06-30 20:37:43.291","img/card_backs/set1/yellow.gif","2","-240","1","",""
"casino-fixation","100","373388","0.0-25.0-0.15","959","false","img/card_backs/set1/red.gif","img/card_backs/set1/yellow.gif","img/card_backs/set1/purple.gif","img/card_backs/set1/green.gif","img/card_backs/set2/blue.gif","img/card_backs/set2/pink.gif","img/card_backs/set2/orange.gif","img/card_backs/set2/gray.gif","""event"",""trial"",""time""
""fullscreenenter"",""1"",""2363""
","
","
","""event"",""trial"",""time""
""fullscreenenter"",""1"",""2363""
","
","","null","","null","","fixation","2021-06-30 20:37:43.793","","","","","",""
"card-selection-trial","101","380419","0.0-25.0-1.15","959","false","img/card_backs/set1/red.gif","img/card_backs/set1/yellow.gif","img/card_backs/set1/purple.gif","img/card_backs/set1/green.gif","img/card_backs/set2/blue.gif","img/card_backs/set2/pink.gif","img/card_backs/set2/orange.gif","img/card_backs/set2/gray.gif","""event"",""trial"",""time""
""fullscreenenter"",""1"",""2363""
","
","
","""event"",""trial"",""time""
""fullscreenenter"",""1"",""2363""
","
","","5019.905000008293","","","","real_trial","2021-06-30 20:37:50.824","img/card_backs/set1/yellow.gif","3","200","1","",""
"casino-fixation","102","380921","0.0-25.0-0.16","959","false","img/card_backs/set1/red.gif","img/card_backs/set1/yellow.gif","img/card_backs/set1/purple.gif","img/card_backs/set1/green.gif","img/card_backs/set2/blue.gif","img/card_backs/set2/pink.gif","img/card_backs/set2/orange.gif","img/card_backs/set2/gray.gif","""event"",""trial"",""time""
""fullscreenenter"",""1"",""2363""
","
","
","""event"",""trial"",""time""
""fullscreenenter"",""1"",""2363""
","
","","null","","null","","fixation","2021-06-30 20:37:51.326","","","","","",""
"card-selection-trial","103","384244","0.0-25.0-1.16","959","false","img/card_backs/set1/red.gif","img/card_backs/set1/yellow.gif","img/card_backs/set1/purple.gif","img/card_backs/set1/green.gif","img/card_backs/set2/blue.gif","img/card_backs/set2/pink.gif","img/card_backs/set2/orange.gif","img/card_backs/set2/gray.gif","""event"",""trial"",""time""
""fullscreenenter"",""1"",""2363""
","
","
","""event"",""trial"",""time""
""fullscreenenter"",""1"",""2363""
","
","","1311.744999999064","","","","real_trial","2021-06-30 20:37:54.649","img/card_backs/set1/yellow.gif","1","200","1","",""
"casino-fixation","104","384746","0.0-25.0-0.17","959","false","img/card_backs/set1/red.gif","img/card_backs/set1/yellow.gif","img/card_backs/set1/purple.gif","img/card_backs/set1/green.gif","img/card_backs/set2/blue.gif","img/card_backs/set2/pink.gif","img/card_backs/set2/orange.gif","img/card_backs/set2/gray.gif","""event"",""trial"",""time""
""fullscreenenter"",""1"",""2363""
","
","
","""event"",""trial"",""time""
""fullscreenenter"",""1"",""2363""
","
","","null","","null","","fixation","2021-06-30 20:37:55.152","","","","","",""
"card-selection-trial","105","391455","0.0-25.0-1.17","959","false","img/card_backs/set1/red.gif","img/card_backs/set1/yellow.gif","img/card_backs/set1/purple.gif","img/card_backs/set1/green.gif","img/card_backs/set2/blue.gif","img/card_backs/set2/pink.gif","img/card_backs/set2/orange.gif","img/card_backs/set2/gray.gif","""event"",""trial"",""time""
""fullscreenenter"",""1"",""2363""
","
","
","""event"",""trial"",""time""
""fullscreenenter"",""1"",""2363""
","
","","4696.534999995492","","","","real_trial","2021-06-30 20:38:01.860","img/card_backs/set1/purple.gif","2","-70","1","",""
"casino-fixation","106","391958","0.0-25.0-0.18","959","false","img/card_backs/set1/red.gif","img/card_backs/set1/yellow.gif","img/card_backs/set1/purple.gif","img/card_backs/set1/green.gif","img/card_backs/set2/blue.gif","img/card_backs/set2/pink.gif","img/card_backs/set2/orange.gif","img/card_backs/set2/gray.gif","""event"",""trial"",""time""
""fullscreenenter"",""1"",""2363""
","
","
","""event"",""trial"",""time""
""fullscreenenter"",""1"",""2363""
","
","","null","","null","","fixation","2021-06-30 20:38:02.363","","","","","",""
"card-selection-trial","107","395381","0.0-25.0-1.18","959","false","img/card_backs/set1/red.gif","img/card_backs/set1/yellow.gif","img/card_backs/set1/purple.gif","img/card_backs/set1/green.gif","img/card_backs/set2/blue.gif","img/card_backs/set2/pink.gif","img/card_backs/set2/orange.gif","img/card_backs/set2/gray.gif","""event"",""trial"",""time""
""fullscreenenter"",""1"",""2363""
","
","
","""event"",""trial"",""time""
""fullscreenenter"",""1"",""2363""
","
","","1412.0750000001863","","","","real_trial","2021-06-30 20:38:05.786","img/card_backs/set1/purple.gif","0","-60","1","",""
"casino-fixation","108","395883","0.0-25.0-0.19","959","false","img/card_backs/set1/red.gif","img/card_backs/set1/yellow.gif","img/card_backs/set1/purple.gif","img/card_backs/set1/green.gif","img/card_backs/set2/blue.gif","img/card_backs/set2/pink.gif","img/card_backs/set2/orange.gif","img/card_backs/set2/gray.gif","""event"",""trial"",""time""
""fullscreenenter"",""1"",""2363""
","
","
","""event"",""trial"",""time""
""fullscreenenter"",""1"",""2363""
","
","","null","","null","","fixation","2021-06-30 20:38:06.288","","","","","",""
"card-selection-trial","109","399205","0.0-25.0-1.19","959","false","img/card_backs/set1/red.gif","img/card_backs/set1/yellow.gif","img/card_backs/set1/purple.gif","img/card_backs/set1/green.gif","img/card_backs/set2/blue.gif","img/card_backs/set2/pink.gif","img/card_backs/set2/orange.gif","img/card_backs/set2/gray.gif","""event"",""trial"",""time""
""fullscreenenter"",""1"",""2363""
","
","
","""event"",""trial"",""time""
""fullscreenenter"",""1"",""2363""
","
","","1311.4950000017416","","","","real_trial","2021-06-30 20:38:09.610","img/card_backs/set1/purple.gif","2","100","1","",""
"casino-fixation","110","399707","0.0-25.0-0.20","959","false","img/card_backs/set1/red.gif","img/card_backs/set1/yellow.gif","img/card_backs/set1/purple.gif","img/card_backs/set1/green.gif","img/card_backs/set2/blue.gif","img/card_backs/set2/pink.gif","img/card_backs/set2/orange.gif","img/card_backs/set2/gray.gif","""event"",""trial"",""time""
""fullscreenenter"",""1"",""2363""
","
","
","""event"",""trial"",""time""
""fullscreenenter"",""1"",""2363""
","
","","null","","null","","fixation","2021-06-30 20:38:10.112","","","","","",""
"card-selection-trial","111","404599","0.0-25.0-1.20","959","false","img/card_backs/set1/red.gif","img/card_backs/set1/yellow.gif","img/card_backs/set1/purple.gif","img/card_backs/set1/green.gif","img/card_backs/set2/blue.gif","img/card_backs/set2/pink.gif","img/card_backs/set2/orange.gif","img/card_backs/set2/gray.gif","""event"",""trial"",""time""
""fullscreenenter"",""1"",""2363""
","
","
","""event"",""trial"",""time""
""fullscreenenter"",""1"",""2363""
","
","","2881.439999997383","","","","real_trial","2021-06-30 20:38:15.004","img/card_backs/set1/red.gif","2","200","1","",""
"casino-fixation","112","405101","0.0-25.0-0.21","959","false","img/card_backs/set1/red.gif","img/card_backs/set1/yellow.gif","img/card_backs/set1/purple.gif","img/card_backs/set1/green.gif","img/card_backs/set2/blue.gif","img/card_backs/set2/pink.gif","img/card_backs/set2/orange.gif","img/card_backs/set2/gray.gif","""event"",""trial"",""time""
""fullscreenenter"",""1"",""2363""
","
","
","""event"",""trial"",""time""
""fullscreenenter"",""1"",""2363""
","
","","null","","null","","fixation","2021-06-30 20:38:15.506","","","","","",""
"card-selection-trial","113","408413","0.0-25.0-1.21","959","false","img/card_backs/set1/red.gif","img/card_backs/set1/yellow.gif","img/card_backs/set1/purple.gif","img/card_backs/set1/green.gif","img/card_backs/set2/blue.gif","img/card_backs/set2/pink.gif","img/card_backs/set2/orange.gif","img/card_backs/set2/gray.gif","""event"",""trial"",""time""
""fullscreenenter"",""1"",""2363""
","
","
","""event"",""trial"",""time""
""fullscreenenter"",""1"",""2363""
","
","","1301.6400000051362","","","","real_trial","2021-06-30 20:38:18.818","img/card_backs/set1/red.gif","1","-240","1","",""
"casino-fixation","114","408916","0.0-25.0-0.22","959","false","img/card_backs/set1/red.gif","img/card_backs/set1/yellow.gif","img/card_backs/set1/purple.gif","img/card_backs/set1/green.gif","img/card_backs/set2/blue.gif","img/card_backs/set2/pink.gif","img/card_backs/set2/orange.gif","img/card_backs/set2/gray.gif","""event"",""trial"",""time""
""fullscreenenter"",""1"",""2363""
","
","
","""event"",""trial"",""time""
""fullscreenenter"",""1"",""2363""
","
","","null","","null","","fixation","2021-06-30 20:38:19.321","","","","","",""
"card-selection-trial","115","412086","0.0-25.0-1.22","959","false","img/card_backs/set1/red.gif","img/card_backs/set1/yellow.gif","img/card_backs/set1/purple.gif","img/card_backs/set1/green.gif","img/card_backs/set2/blue.gif","img/card_backs/set2/pink.gif","img/card_backs/set2/orange.gif","img/card_backs/set2/gray.gif","""event"",""trial"",""time""
""fullscreenenter"",""1"",""2363""
","
","
","""event"",""trial"",""time""
""fullscreenenter"",""1"",""2363""
","
","","1158.8249999913387","","","","real_trial","2021-06-30 20:38:22.491","img/card_backs/set1/red.gif","0","190","1","",""
"casino-fixation","116","412589","0.0-25.0-0.23","959","false","img/card_backs/set1/red.gif","img/card_backs/set1/yellow.gif","img/card_backs/set1/purple.gif","img/card_backs/set1/green.gif","img/card_backs/set2/blue.gif","img/card_backs/set2/pink.gif","img/card_backs/set2/orange.gif","img/card_backs/set2/gray.gif","""event"",""trial"",""time""
""fullscreenenter"",""1"",""2363""
","
","
","""event"",""trial"",""time""
""fullscreenenter"",""1"",""2363""
","
","","null","","null","","fixation","2021-06-30 20:38:22.994","","","","","",""
"card-selection-trial","117","415713","0.0-25.0-1.23","959","false","img/card_backs/set1/red.gif","img/card_backs/set1/yellow.gif","img/card_backs/set1/purple.gif","img/card_backs/set1/green.gif","img/card_backs/set2/blue.gif","img/card_backs/set2/pink.gif","img/card_backs/set2/orange.gif","img/card_backs/set2/gray.gif","""event"",""trial"",""time""
""fullscreenenter"",""1"",""2363""
","
","
","""event"",""trial"",""time""
""fullscreenenter"",""1"",""2363""
","
","","1113.2999999972526","","","","real_trial","2021-06-30 20:38:26.118","img/card_backs/set1/red.gif","1","200","1","",""
"casino-fixation","118","416215","0.0-25.0-0.24","959","false","img/card_backs/set1/red.gif","img/card_backs/set1/yellow.gif","img/card_backs/set1/purple.gif","img/card_backs/set1/green.gif","img/card_backs/set2/blue.gif","img/card_backs/set2/pink.gif","img/card_backs/set2/orange.gif","img/card_backs/set2/gray.gif","""event"",""trial"",""time""
""fullscreenenter"",""1"",""2363""
","
","
","""event"",""trial"",""time""
""fullscreenenter"",""1"",""2363""
","
","","null","","null","","fixation","2021-06-30 20:38:26.620","","","","","",""
"card-selection-trial","119","420318","0.0-25.0-1.24","959","false","img/card_backs/set1/red.gif","img/card_backs/set1/yellow.gif","img/card_backs/set1/purple.gif","img/card_backs/set1/green.gif","img/card_backs/set2/blue.gif","img/card_backs/set2/pink.gif","img/card_backs/set2/orange.gif","img/card_backs/set2/gray.gif","""event"",""trial"",""time""
""fullscreenenter"",""1"",""2363""
","
","
","""event"",""trial"",""time""
""fullscreenenter"",""1"",""2363""
","
","","2091.8349999992643","","","","real_trial","2021-06-30 20:38:30.724","img/card_backs/set1/yellow.gif","2","-250","1","",""
"casino-fixation","120","420820","0.0-25.0-0.25","959","false","img/card_backs/set1/red.gif","img/card_backs/set1/yellow.gif","img/card_backs/set1/purple.gif","img/card_backs/set1/green.gif","img/card_backs/set2/blue.gif","img/card_backs/set2/pink.gif","img/card_backs/set2/orange.gif","img/card_backs/set2/gray.gif","""event"",""trial"",""time""
""fullscreenenter"",""1"",""2363""
","
","
","""event"",""trial"",""time""
""fullscreenenter"",""1"",""2363""
","
","","null","","null","","fixation","2021-06-30 20:38:31.226","","","","","",""
"card-selection-trial","121","424196","0.0-25.0-1.25","959","false","img/card_backs/set1/red.gif","img/card_backs/set1/yellow.gif","img/card_backs/set1/purple.gif","img/card_backs/set1/green.gif","img/card_backs/set2/blue.gif","img/card_backs/set2/pink.gif","img/card_backs/set2/orange.gif","img/card_backs/set2/gray.gif","""event"",""trial"",""time""
""fullscreenenter"",""1"",""2363""
","
","
","""event"",""trial"",""time""
""fullscreenenter"",""1"",""2363""
","
","","1365.8999999897787","","","","real_trial","2021-06-30 20:38:34.601","img/card_backs/set1/yellow.gif","3","190","1","",""
"casino-fixation","122","424699","0.0-25.0-0.26","959","false","img/card_backs/set1/red.gif","img/card_backs/set1/yellow.gif","img/card_backs/set1/purple.gif","img/card_backs/set1/green.gif","img/card_backs/set2/blue.gif","img/card_backs/set2/pink.gif","img/card_backs/set2/orange.gif","img/card_backs/set2/gray.gif","""event"",""trial"",""time""
""fullscreenenter"",""1"",""2363""
","
","
","""event"",""trial"",""time""
""fullscreenenter"",""1"",""2363""
","
","","null","","null","","fixation","2021-06-30 20:38:35.104","","","","","",""
"card-selection-trial","123","428887","0.0-25.0-1.26","959","false","img/card_backs/set1/red.gif","img/card_backs/set1/yellow.gif","img/card_backs/set1/purple.gif","img/card_backs/set1/green.gif","img/card_backs/set2/blue.gif","img/card_backs/set2/pink.gif","img/card_backs/set2/orange.gif","img/card_backs/set2/gray.gif","""event"",""trial"",""time""
""fullscreenenter"",""1"",""2363""
","
","
","""event"",""trial"",""time""
""fullscreenenter"",""1"",""2363""
","
","","2176.384999998845","","","","real_trial","2021-06-30 20:38:39.292","img/card_backs/set1/purple.gif","3","-70","1","",""
"casino-fixation","124","429389","0.0-25.0-0.27","959","false","img/card_backs/set1/red.gif","img/card_backs/set1/yellow.gif","img/card_backs/set1/purple.gif","img/card_backs/set1/green.gif","img/card_backs/set2/blue.gif","img/card_backs/set2/pink.gif","img/card_backs/set2/orange.gif","img/card_backs/set2/gray.gif","""event"",""trial"",""time""
""fullscreenenter"",""1"",""2363""
","
","
","""event"",""trial"",""time""
""fullscreenenter"",""1"",""2363""
","
","","null","","null","","fixation","2021-06-30 20:38:39.794","","","","","",""
"card-selection-trial","125","433904","0.0-25.0-1.27","959","false","img/card_backs/set1/red.gif","img/card_backs/set1/yellow.gif","img/card_backs/set1/purple.gif","img/card_backs/set1/green.gif","img/card_backs/set2/blue.gif","img/card_backs/set2/pink.gif","img/card_backs/set2/orange.gif","img/card_backs/set2/gray.gif","""event"",""trial"",""time""
""fullscreenenter"",""1"",""2363""
","
","
","""event"",""trial"",""time""
""fullscreenenter"",""1"",""2363""
","
","","2505.120000001625","","","","real_trial","2021-06-30 20:38:44.309","img/card_backs/set1/green.gif","1","110","1","",""
"casino-fixation","126","434406","0.0-25.0-0.28","959","false","img/card_backs/set1/red.gif","img/card_backs/set1/yellow.gif","img/card_backs/set1/purple.gif","img/card_backs/set1/green.gif","img/card_backs/set2/blue.gif","img/card_backs/set2/pink.gif","img/card_backs/set2/orange.gif","img/card_backs/set2/gray.gif","""event"",""trial"",""time""
""fullscreenenter"",""1"",""2363""
","
","
","""event"",""trial"",""time""
""fullscreenenter"",""1"",""2363""
","
","","null","","null","","fixation","2021-06-30 20:38:44.811","","","","","",""
"card-selection-trial","127","437555","0.0-25.0-1.28","959","false","img/card_backs/set1/red.gif","img/card_backs/set1/yellow.gif","img/card_backs/set1/purple.gif","img/card_backs/set1/green.gif","img/card_backs/set2/blue.gif","img/card_backs/set2/pink.gif","img/card_backs/set2/orange.gif","img/card_backs/set2/gray.gif","""event"",""trial"",""time""
""fullscreenenter"",""1"",""2363""
","
","
","""event"",""trial"",""time""
""fullscreenenter"",""1"",""2363""
","
","","1138.394999987213","","","","real_trial","2021-06-30 20:38:47.960","img/card_backs/set1/green.gif","1","-60","1","",""
"casino-fixation","128","438058","0.0-25.0-0.29","959","false","img/card_backs/set1/red.gif","img/card_backs/set1/yellow.gif","img/card_backs/set1/purple.gif","img/card_backs/set1/green.gif","img/card_backs/set2/blue.gif","img/card_backs/set2/pink.gif","img/card_backs/set2/orange.gif","img/card_backs/set2/gray.gif","""event"",""trial"",""time""
""fullscreenenter"",""1"",""2363""
","
","
","""event"",""trial"",""time""
""fullscreenenter"",""1"",""2363""
","
","","null","","null","","fixation","2021-06-30 20:38:48.463","","","","","",""
"card-selection-trial","129","440723","0.0-25.0-1.29","959","false","img/card_backs/set1/red.gif","img/card_backs/set1/yellow.gif","img/card_backs/set1/purple.gif","img/card_backs/set1/green.gif","img/card_backs/set2/blue.gif","img/card_backs/set2/pink.gif","img/card_backs/set2/orange.gif","img/card_backs/set2/gray.gif","""event"",""trial"",""time""
""fullscreenenter"",""1"",""2363""
","
","
","""event"",""trial"",""time""
""fullscreenenter"",""1"",""2363""
","
","","655.4599999944912","","","","real_trial","2021-06-30 20:38:51.129","img/card_backs/set1/green.gif","1","-60","1","",""
"casino-fixation","130","441225","0.0-25.0-0.30","959","false","img/card_backs/set1/red.gif","img/card_backs/set1/yellow.gif","img/card_backs/set1/purple.gif","img/card_backs/set1/green.gif","img/card_backs/set2/blue.gif","img/card_backs/set2/pink.gif","img/card_backs/set2/orange.gif","img/card_backs/set2/gray.gif","""event"",""trial"",""time""
""fullscreenenter"",""1"",""2363""
","
","
","""event"",""trial"",""time""
""fullscreenenter"",""1"",""2363""
","
","","null","","null","","fixation","2021-06-30 20:38:51.630","","","","","",""
"card-selection-trial","131","445344","0.0-25.0-1.30","959","false","img/card_backs/set1/red.gif","img/card_backs/set1/yellow.gif","img/card_backs/set1/purple.gif","img/card_backs/set1/green.gif","img/card_backs/set2/blue.gif","img/card_backs/set2/pink.gif","img/card_backs/set2/orange.gif","img/card_backs/set2/gray.gif","""event"",""trial"",""time""
""fullscreenenter"",""1"",""2363""
","
","
","""event"",""trial"",""time""
""fullscreenenter"",""1"",""2363""
","
","","2107.8699999925448","","","","real_trial","2021-06-30 20:38:55.750","img/card_backs/set1/red.gif","1","200","1","",""
"casino-fixation","132","445847","0.0-25.0-0.31","959","false","img/card_backs/set1/red.gif","img/card_backs/set1/yellow.gif","img/card_backs/set1/purple.gif","img/card_backs/set1/green.gif","img/card_backs/set2/blue.gif","img/card_backs/set2/pink.gif","img/card_backs/set2/orange.gif","img/card_backs/set2/gray.gif","""event"",""trial"",""time""
""fullscreenenter"",""1"",""2363""
","
","
","""event"",""trial"",""time""
""fullscreenenter"",""1"",""2363""
","
","","null","","null","","fixation","2021-06-30 20:38:56.252","","","","","",""
"card-selection-trial","133","449297","0.0-25.0-1.31","959","false","img/card_backs/set1/red.gif","img/card_backs/set1/yellow.gif","img/card_backs/set1/purple.gif","img/card_backs/set1/green.gif","img/card_backs/set2/blue.gif","img/card_backs/set2/pink.gif","img/card_backs/set2/orange.gif","img/card_backs/set2/gray.gif","""event"",""trial"",""time""
""fullscreenenter"",""1"",""2363""
","
","
","""event"",""trial"",""time""
""fullscreenenter"",""1"",""2363""
","
","","1440.4799999902025","","","","real_trial","2021-06-30 20:38:59.702","img/card_backs/set1/yellow.gif","2","190","1","",""
"casino-fixation","134","449799","0.0-25.0-0.32","959","false","img/card_backs/set1/red.gif","img/card_backs/set1/yellow.gif","img/card_backs/set1/purple.gif","img/card_backs/set1/green.gif","img/card_backs/set2/blue.gif","img/card_backs/set2/pink.gif","img/card_backs/set2/orange.gif","img/card_backs/set2/gray.gif","""event"",""trial"",""time""
""fullscreenenter"",""1"",""2363""
","
","
","""event"",""trial"",""time""
""fullscreenenter"",""1"",""2363""
","
","","null","","null","","fixation","2021-06-30 20:39:00.204","","","","","",""
"card-selection-trial","135","452976","0.0-25.0-1.32","959","false","img/card_backs/set1/red.gif","img/card_backs/set1/yellow.gif","img/card_backs/set1/purple.gif","img/card_backs/set1/green.gif","img/card_backs/set2/blue.gif","img/card_backs/set2/pink.gif","img/card_backs/set2/orange.gif","img/card_backs/set2/gray.gif","""event"",""trial"",""time""
""fullscreenenter"",""1"",""2363""
","
","
","""event"",""trial"",""time""
""fullscreenenter"",""1"",""2363""
","
","","1167.2850000031758","","","","real_trial","2021-06-30 20:39:03.381","img/card_backs/set1/red.gif","2","190","1","",""
"casino-fixation","136","453478","0.0-25.0-0.33","959","false","img/card_backs/set1/red.gif","img/card_backs/set1/yellow.gif","img/card_backs/set1/purple.gif","img/card_backs/set1/green.gif","img/card_backs/set2/blue.gif","img/card_backs/set2/pink.gif","img/card_backs/set2/orange.gif","img/card_backs/set2/gray.gif","""event"",""trial"",""time""
""fullscreenenter"",""1"",""2363""
","
","
","""event"",""trial"",""time""
""fullscreenenter"",""1"",""2363""
","
","","null","","null","","fixation","2021-06-30 20:39:03.883","","","","","",""
"card-selection-trial","137","457159","0.0-25.0-1.33","959","false","img/card_backs/set1/red.gif","img/card_backs/set1/yellow.gif","img/card_backs/set1/purple.gif","img/card_backs/set1/green.gif","img/card_backs/set2/blue.gif","img/card_backs/set2/pink.gif","img/card_backs/set2/orange.gif","img/card_backs/set2/gray.gif","""event"",""trial"",""time""
""fullscreenenter"",""1"",""2363""
","
","
","""event"",""trial"",""time""
""fullscreenenter"",""1"",""2363""
","
","","1670.3200000047218","","","","real_trial","2021-06-30 20:39:07.564","img/card_backs/set1/red.gif","0","-250","1","",""
"casino-fixation","138","457660","0.0-25.0-0.34","959","false","img/card_backs/set1/red.gif","img/card_backs/set1/yellow.gif","img/card_backs/set1/purple.gif","img/card_backs/set1/green.gif","img/card_backs/set2/blue.gif","img/card_backs/set2/pink.gif","img/card_backs/set2/orange.gif","img/card_backs/set2/gray.gif","""event"",""trial"",""time""
""fullscreenenter"",""1"",""2363""
","
","
","""event"",""trial"",""time""
""fullscreenenter"",""1"",""2363""
","
","","null","","null","","fixation","2021-06-30 20:39:08.066","","","","","",""
"card-selection-trial","139","462077","0.0-25.0-1.34","959","false","img/card_backs/set1/red.gif","img/card_backs/set1/yellow.gif","img/card_backs/set1/purple.gif","img/card_backs/set1/green.gif","img/card_backs/set2/blue.gif","img/card_backs/set2/pink.gif","img/card_backs/set2/orange.gif","img/card_backs/set2/gray.gif","""event"",""trial"",""time""
""fullscreenenter"",""1"",""2363""
","
","
","""event"",""trial"",""time""
""fullscreenenter"",""1"",""2363""
","
","","2405.7749999919906","","","","real_trial","2021-06-30 20:39:12.482","img/card_backs/set1/red.gif","3","-240","1","",""
"casino-fixation","140","462579","0.0-25.0-0.35","959","false","img/card_backs/set1/red.gif","img/card_backs/set1/yellow.gif","img/card_backs/set1/purple.gif","img/card_backs/set1/green.gif","img/card_backs/set2/blue.gif","img/card_backs/set2/pink.gif","img/card_backs/set2/orange.gif","img/card_backs/set2/gray.gif","""event"",""trial"",""time""
""fullscreenenter"",""1"",""2363""
","
","
","""event"",""trial"",""time""
""fullscreenenter"",""1"",""2363""
","
","","null","","null","","fixation","2021-06-30 20:39:12.984","","","","","",""
"card-selection-trial","141","465465","0.0-25.0-1.35","959","false","img/card_backs/set1/red.gif","img/card_backs/set1/yellow.gif","img/card_backs/set1/purple.gif","img/card_backs/set1/green.gif","img/card_backs/set2/blue.gif","img/card_backs/set2/pink.gif","img/card_backs/set2/orange.gif","img/card_backs/set2/gray.gif","""event"",""trial"",""time""
""fullscreenenter"",""1"",""2363""
","
","
","""event"",""trial"",""time""
""fullscreenenter"",""1"",""2363""
","
","","874.0450000041164","","","","real_trial","2021-06-30 20:39:15.870","img/card_backs/set1/yellow.gif","3","200","1","",""
"casino-fixation","142","465967","0.0-25.0-0.36","959","false","img/card_backs/set1/red.gif","img/card_backs/set1/yellow.gif","img/card_backs/set1/purple.gif","img/card_backs/set1/green.gif","img/card_backs/set2/blue.gif","img/card_backs/set2/pink.gif","img/card_backs/set2/orange.gif","img/card_backs/set2/gray.gif","""event"",""trial"",""time""
""fullscreenenter"",""1"",""2363""
","
","
","""event"",""trial"",""time""
""fullscreenenter"",""1"",""2363""
","
","","null","","null","","fixation","2021-06-30 20:39:16.372","","","","","",""
"card-selection-trial","143","469087","0.0-25.0-1.36","959","false","img/card_backs/set1/red.gif","img/card_backs/set1/yellow.gif","img/card_backs/set1/purple.gif","img/card_backs/set1/green.gif","img/card_backs/set2/blue.gif","img/card_backs/set2/pink.gif","img/card_backs/set2/orange.gif","img/card_backs/set2/gray.gif","""event"",""trial"",""time""
""fullscreenenter"",""1"",""2363""
","
","
","""event"",""trial"",""time""
""fullscreenenter"",""1"",""2363""
","
","","1107.5250000139931","","","","real_trial","2021-06-30 20:39:19.492","img/card_backs/set1/yellow.gif","1","-250","1","",""
"casino-fixation","144","469589","0.0-25.0-0.37","959","false","img/card_backs/set1/red.gif","img/card_backs/set1/yellow.gif","img/card_backs/set1/purple.gif","img/card_backs/set1/green.gif","img/card_backs/set2/blue.gif","img/card_backs/set2/pink.gif","img/card_backs/set2/orange.gif","img/card_backs/set2/gray.gif","""event"",""trial"",""time""
""fullscreenenter"",""1"",""2363""
","
","
","""event"",""trial"",""time""
""fullscreenenter"",""1"",""2363""
","
","","null","","null","","fixation","2021-06-30 20:39:19.994","","","","","",""
"card-selection-trial","145","473067","0.0-25.0-1.37","959","false","img/card_backs/set1/red.gif","img/card_backs/set1/yellow.gif","img/card_backs/set1/purple.gif","img/card_backs/set1/green.gif","img/card_backs/set2/blue.gif","img/card_backs/set2/pink.gif","img/card_backs/set2/orange.gif","img/card_backs/set2/gray.gif","""event"",""trial"",""time""
""fullscreenenter"",""1"",""2363""
","
","
","""event"",""trial"",""time""
""fullscreenenter"",""1"",""2363""
","
","","1467.8100000019185","","","","real_trial","2021-06-30 20:39:23.472","img/card_backs/set1/yellow.gif","2","-230","1","",""
"casino-fixation","146","473569","0.0-25.0-0.38","959","false","img/card_backs/set1/red.gif","img/card_backs/set1/yellow.gif","img/card_backs/set1/purple.gif","img/card_backs/set1/green.gif","img/card_backs/set2/blue.gif","img/card_backs/set2/pink.gif","img/card_backs/set2/orange.gif","img/card_backs/set2/gray.gif","""event"",""trial"",""time""
""fullscreenenter"",""1"",""2363""
","
","
","""event"",""trial"",""time""
""fullscreenenter"",""1"",""2363""
","
","","null","","null","","fixation","2021-06-30 20:39:23.974","","","","","",""
"card-selection-trial","147","476671","0.0-25.0-1.38","959","false","img/card_backs/set1/red.gif","img/card_backs/set1/yellow.gif","img/card_backs/set1/purple.gif","img/card_backs/set1/green.gif","img/card_backs/set2/blue.gif","img/card_backs/set2/pink.gif","img/card_backs/set2/orange.gif","img/card_backs/set2/gray.gif","""event"",""trial"",""time""
""fullscreenenter"",""1"",""2363""
","
","
","""event"",""trial"",""time""
""fullscreenenter"",""1"",""2363""
","
","","1091.5050000039628","","","","real_trial","2021-06-30 20:39:27.076","img/card_backs/set1/yellow.gif","0","180","1","",""
"casino-fixation","148","477172","0.0-25.0-0.39","959","false","img/card_backs/set1/red.gif","img/card_backs/set1/yellow.gif","img/card_backs/set1/purple.gif","img/card_backs/set1/green.gif","img/card_backs/set2/blue.gif","img/card_backs/set2/pink.gif","img/card_backs/set2/orange.gif","img/card_backs/set2/gray.gif","""event"",""trial"",""time""
""fullscreenenter"",""1"",""2363""
","
","
","""event"",""trial"",""time""
""fullscreenenter"",""1"",""2363""
","
","","null","","null","","fixation","2021-06-30 20:39:27.577","","","","","",""
"card-selection-trial","149","480493","0.0-25.0-1.39","959","false","img/card_backs/set1/red.gif","img/card_backs/set1/yellow.gif","img/card_backs/set1/purple.gif","img/card_backs/set1/green.gif","img/card_backs/set2/blue.gif","img/card_backs/set2/pink.gif","img/card_backs/set2/orange.gif","img/card_backs/set2/gray.gif","""event"",""trial"",""time""
""fullscreenenter"",""1"",""2363""
","
","
","""event"",""trial"",""time""
""fullscreenenter"",""1"",""2363""
","
","","1311.0799999994924","","","","real_trial","2021-06-30 20:39:30.899","img/card_backs/set1/yellow.gif","3","180","1","",""
"casino-fixation","150","480996","0.0-25.0-0.40","959","false","img/card_backs/set1/red.gif","img/card_backs/set1/yellow.gif","img/card_backs/set1/purple.gif","img/card_backs/set1/green.gif","img/card_backs/set2/blue.gif","img/card_backs/set2/pink.gif","img/card_backs/set2/orange.gif","img/card_backs/set2/gray.gif","""event"",""trial"",""time""
""fullscreenenter"",""1"",""2363""
","
","
","""event"",""trial"",""time""
""fullscreenenter"",""1"",""2363""
","
","","null","","null","","fixation","2021-06-30 20:39:31.401","","","","","",""
"card-selection-trial","151","484075","0.0-25.0-1.40","959","false","img/card_backs/set1/red.gif","img/card_backs/set1/yellow.gif","img/card_backs/set1/purple.gif","img/card_backs/set1/green.gif","img/card_backs/set2/blue.gif","img/card_backs/set2/pink.gif","img/card_backs/set2/orange.gif","img/card_backs/set2/gray.gif","""event"",""trial"",""time""
""fullscreenenter"",""1"",""2363""
","
","
","""event"",""trial"",""time""
""fullscreenenter"",""1"",""2363""
","
","","1067.9000000091037","","","","real_trial","2021-06-30 20:39:34.480","img/card_backs/set1/yellow.gif","1","-250","1","",""
"casino-fixation","152","484577","0.0-25.0-0.41","959","false","img/card_backs/set1/red.gif","img/card_backs/set1/yellow.gif","img/card_backs/set1/purple.gif","img/card_backs/set1/green.gif","img/card_backs/set2/blue.gif","img/card_backs/set2/pink.gif","img/card_backs/set2/orange.gif","img/card_backs/set2/gray.gif","""event"",""trial"",""time""
""fullscreenenter"",""1"",""2363""
","
","
","""event"",""trial"",""time""
""fullscreenenter"",""1"",""2363""
","
","","null","","null","","fixation","2021-06-30 20:39:34.982","","","","","",""
"card-selection-trial","153","489930","0.0-25.0-1.41","959","false","img/card_backs/set1/red.gif","img/card_backs/set1/yellow.gif","img/card_backs/set1/purple.gif","img/card_backs/set1/green.gif","img/card_backs/set2/blue.gif","img/card_backs/set2/pink.gif","img/card_backs/set2/orange.gif","img/card_backs/set2/gray.gif","""event"",""trial"",""time""
""fullscreenenter"",""1"",""2363""
","
","
","""event"",""trial"",""time""
""fullscreenenter"",""1"",""2363""
","
","","3342.1200000011595","","","","real_trial","2021-06-30 20:39:40.336","img/card_backs/set1/green.gif","3","-70","1","",""
"casino-fixation","154","490433","0.0-25.0-0.42","959","false","img/card_backs/set1/red.gif","img/card_backs/set1/yellow.gif","img/card_backs/set1/purple.gif","img/card_backs/set1/green.gif","img/card_backs/set2/blue.gif","img/card_backs/set2/pink.gif","img/card_backs/set2/orange.gif","img/card_backs/set2/gray.gif","""event"",""trial"",""time""
""fullscreenenter"",""1"",""2363""
","
","
","""event"",""trial"",""time""
""fullscreenenter"",""1"",""2363""
","
","","null","","null","","fixation","2021-06-30 20:39:40.838","","","","","",""
"card-selection-trial","155","493475","0.0-25.0-1.42","959","false","img/card_backs/set1/red.gif","img/card_backs/set1/yellow.gif","img/card_backs/set1/purple.gif","img/card_backs/set1/green.gif","img/card_backs/set2/blue.gif","img/card_backs/set2/pink.gif","img/card_backs/set2/orange.gif","img/card_backs/set2/gray.gif","""event"",""trial"",""time""
""fullscreenenter"",""1"",""2363""
","
","
","""event"",""trial"",""time""
""fullscreenenter"",""1"",""2363""
","
","","1031.3549999991665","","","","real_trial","2021-06-30 20:39:43.880","img/card_backs/set1/purple.gif","3","-70","1","",""
"casino-fixation","156","493977","0.0-25.0-0.43","959","false","img/card_backs/set1/red.gif","img/card_backs/set1/yellow.gif","img/card_backs/set1/purple.gif","img/card_backs/set1/green.gif","img/card_backs/set2/blue.gif","img/card_backs/set2/pink.gif","img/card_backs/set2/orange.gif","img/card_backs/set2/gray.gif","""event"",""trial"",""time""
""fullscreenenter"",""1"",""2363""
","
","
","""event"",""trial"",""time""
""fullscreenenter"",""1"",""2363""
","
","","null","","null","","fixation","2021-06-30 20:39:44.382","","","","","",""
"card-selection-trial","157","498390","0.0-25.0-1.43","959","false","img/card_backs/set1/red.gif","img/card_backs/set1/yellow.gif","img/card_backs/set1/purple.gif","img/card_backs/set1/green.gif","img/card_backs/set2/blue.gif","img/card_backs/set2/pink.gif","img/card_backs/set2/orange.gif","img/card_backs/set2/gray.gif","""event"",""trial"",""time""
""fullscreenenter"",""1"",""2363""
","
","
","""event"",""trial"",""time""
""fullscreenenter"",""1"",""2363""
","
","","2402.7749999950174","","","","real_trial","2021-06-30 20:39:48.795","img/card_backs/set1/yellow.gif","0","180","1","",""
"casino-fixation","158","498892","0.0-25.0-0.44","959","false","img/card_backs/set1/red.gif","img/card_backs/set1/yellow.gif","img/card_backs/set1/purple.gif","img/card_backs/set1/green.gif","img/card_backs/set2/blue.gif","img/card_backs/set2/pink.gif","img/card_backs/set2/orange.gif","img/card_backs/set2/gray.gif","""event"",""trial"",""time""
""fullscreenenter"",""1"",""2363""
","
","
","""event"",""trial"",""time""
""fullscreenenter"",""1"",""2363""
","
","","null","","null","","fixation","2021-06-30 20:39:49.297","","","","","",""
"card-selection-trial","159","503942","0.0-25.0-1.44","959","false","img/card_backs/set1/red.gif","img/card_backs/set1/yellow.gif","img/card_backs/set1/purple.gif","img/card_backs/set1/green.gif","img/card_backs/set2/blue.gif","img/card_backs/set2/pink.gif","img/card_backs/set2/orange.gif","img/card_backs/set2/gray.gif","""event"",""trial"",""time""
""fullscreenenter"",""1"",""2363""
","
","
","""event"",""trial"",""time""
""fullscreenenter"",""1"",""2363""
","
","","3039.9449999968056","","","","real_trial","2021-06-30 20:39:54.347","img/card_backs/set1/red.gif","3","-230","1","",""
"casino-fixation","160","504444","0.0-25.0-0.45","959","false","img/card_backs/set1/red.gif","img/card_backs/set1/yellow.gif","img/card_backs/set1/purple.gif","img/card_backs/set1/green.gif","img/card_backs/set2/blue.gif","img/card_backs/set2/pink.gif","img/card_backs/set2/orange.gif","img/card_backs/set2/gray.gif","""event"",""trial"",""time""
""fullscreenenter"",""1"",""2363""
","
","
","""event"",""trial"",""time""
""fullscreenenter"",""1"",""2363""
","
","","null","","null","","fixation","2021-06-30 20:39:54.849","","","","","",""
"card-selection-trial","161","507731","0.0-25.0-1.45","959","false","img/card_backs/set1/red.gif","img/card_backs/set1/yellow.gif","img/card_backs/set1/purple.gif","img/card_backs/set1/green.gif","img/card_backs/set2/blue.gif","img/card_backs/set2/pink.gif","img/card_backs/set2/orange.gif","img/card_backs/set2/gray.gif","""event"",""trial"",""time""
""fullscreenenter"",""1"",""2363""
","
","
","""event"",""trial"",""time""
""fullscreenenter"",""1"",""2363""
","
","","1276.5399999916553","","","","real_trial","2021-06-30 20:39:58.136","img/card_backs/set1/yellow.gif","3","200","1","",""
"casino-fixation","162","508233","0.0-25.0-0.46","959","false","img/card_backs/set1/red.gif","img/card_backs/set1/yellow.gif","img/card_backs/set1/purple.gif","img/card_backs/set1/green.gif","img/card_backs/set2/blue.gif","img/card_backs/set2/pink.gif","img/card_backs/set2/orange.gif","img/card_backs/set2/gray.gif","""event"",""trial"",""time""
""fullscreenenter"",""1"",""2363""
","
","
","""event"",""trial"",""time""
""fullscreenenter"",""1"",""2363""
","
","","null","","null","","fixation","2021-06-30 20:39:58.638","","","","","",""
"card-selection-trial","163","511266","0.0-25.0-1.46","959","false","img/card_backs/set1/red.gif","img/card_backs/set1/yellow.gif","img/card_backs/set1/purple.gif","img/card_backs/set1/green.gif","img/card_backs/set2/blue.gif","img/card_backs/set2/pink.gif","img/card_backs/set2/orange.gif","img/card_backs/set2/gray.gif","""event"",""trial"",""time""
""fullscreenenter"",""1"",""2363""
","
","
","""event"",""trial"",""time""
""fullscreenenter"",""1"",""2363""
","
","","1022.899999996298","","","","real_trial","2021-06-30 20:40:01.671","img/card_backs/set1/yellow.gif","1","180","1","",""
"casino-fixation","164","511768","0.0-25.0-0.47","959","false","img/card_backs/set1/red.gif","img/card_backs/set1/yellow.gif","img/card_backs/set1/purple.gif","img/card_backs/set1/green.gif","img/card_backs/set2/blue.gif","img/card_backs/set2/pink.gif","img/card_backs/set2/orange.gif","img/card_backs/set2/gray.gif","""event"",""trial"",""time""
""fullscreenenter"",""1"",""2363""
","
","
","""event"",""trial"",""time""
""fullscreenenter"",""1"",""2363""
","
","","null","","null","","fixation","2021-06-30 20:40:02.173","","","","","",""
"card-selection-trial","165","514617","0.0-25.0-1.47","959","false","img/card_backs/set1/red.gif","img/card_backs/set1/yellow.gif","img/card_backs/set1/purple.gif","img/card_backs/set1/green.gif","img/card_backs/set2/blue.gif","img/card_backs/set2/pink.gif","img/card_backs/set2/orange.gif","img/card_backs/set2/gray.gif","""event"",""trial"",""time""
""fullscreenenter"",""1"",""2363""
","
","
","""event"",""trial"",""time""
""fullscreenenter"",""1"",""2363""
","
","","839.1750000009779","","","","real_trial","2021-06-30 20:40:05.022","img/card_backs/set1/yellow.gif","1","-240","1","",""
"casino-fixation","166","515119","0.0-25.0-0.48","959","false","img/card_backs/set1/red.gif","img/card_backs/set1/yellow.gif","img/card_backs/set1/purple.gif","img/card_backs/set1/green.gif","img/card_backs/set2/blue.gif","img/card_backs/set2/pink.gif","img/card_backs/set2/orange.gif","img/card_backs/set2/gray.gif","""event"",""trial"",""time""
""fullscreenenter"",""1"",""2363""
","
","
","""event"",""trial"",""time""
""fullscreenenter"",""1"",""2363""
","
","","null","","null","","fixation","2021-06-30 20:40:05.524","","","","","",""
