"trial_type","trial_index","time_elapsed","internal_node_id","sub_id","risk_good_first","block1_A","block1_B","block1_C","block1_D","block2_A","block2_B","block2_C","block2_D","interactions","blur_events","focus_events","fullscreenenter_events","fullscreenexit_events","success","rt","stimulus","key_press","button_pressed","task_part","timestamp","card_choice","choice_position","points_earned","block","correct","response"
"pavlovia","0","4","0.0-0.0","570","true","img/card_backs/set1/red.gif","img/card_backs/set1/yellow.gif","img/card_backs/set1/purple.gif","img/card_backs/set1/green.gif","img/card_backs/set2/pink.gif","img/card_backs/set2/orange.gif","img/card_backs/set2/gray.gif","img/card_backs/set2/blue.gif","""event"",""trial"",""time""
""blur"",""0"",""0""
""focus"",""0"",""0""
""fullscreenenter"",""1"",""4128""
","""event"",""trial"",""time""
""blur"",""0"",""0""
","""event"",""trial"",""time""
""focus"",""0"",""0""
","""event"",""trial"",""time""
""fullscreenenter"",""1"",""4128""
","
","","","","","","","","","","","","",""
"fullscreen","1","5117","0.0-1.0","570","true","img/card_backs/set1/red.gif","img/card_backs/set1/yellow.gif","img/card_backs/set1/purple.gif","img/card_backs/set1/green.gif","img/card_backs/set2/pink.gif","img/card_backs/set2/orange.gif","img/card_backs/set2/gray.gif","img/card_backs/set2/blue.gif","""event"",""trial"",""time""
""blur"",""0"",""0""
""focus"",""0"",""0""
""fullscreenenter"",""1"",""4128""
","""event"",""trial"",""time""
""blur"",""0"",""0""
","""event"",""trial"",""time""
""focus"",""0"",""0""
","""event"",""trial"",""time""
""fullscreenenter"",""1"",""4128""
","
","true","","","","","","","","","","","",""
"audio-keyboard-response","2","22320","0.0-2.0","570","true","img/card_backs/set1/red.gif","img/card_backs/set1/yellow.gif","img/card_backs/set1/purple.gif","img/card_backs/set1/green.gif","img/card_backs/set2/pink.gif","img/card_backs/set2/orange.gif","img/card_backs/set2/gray.gif","img/card_backs/set2/blue.gif","""event"",""trial"",""time""
""blur"",""0"",""0""
""focus"",""0"",""0""
""fullscreenenter"",""1"",""4128""
","""event"",""trial"",""time""
""blur"",""0"",""0""
","""event"",""trial"",""time""
""focus"",""0"",""0""
","""event"",""trial"",""time""
""fullscreenenter"",""1"",""4128""
","
","","17136","audio/beep_loop.wav","32","","","","","","","","",""
"audio-button-response","3","26993","0.0-3.0","570","true","img/card_backs/set1/red.gif","img/card_backs/set1/yellow.gif","img/card_backs/set1/purple.gif","img/card_backs/set1/green.gif","img/card_backs/set2/pink.gif","img/card_backs/set2/orange.gif","img/card_backs/set2/gray.gif","img/card_backs/set2/blue.gif","""event"",""trial"",""time""
""blur"",""0"",""0""
""focus"",""0"",""0""
""fullscreenenter"",""1"",""4128""
","""event"",""trial"",""time""
""blur"",""0"",""0""
","""event"",""trial"",""time""
""focus"",""0"",""0""
","""event"",""trial"",""time""
""fullscreenenter"",""1"",""4128""
","
","","NaN","audio/turtle.mp3","","3","","","","","","","",""
"audio-button-response","4","30375","0.0-4.0","570","true","img/card_backs/set1/red.gif","img/card_backs/set1/yellow.gif","img/card_backs/set1/purple.gif","img/card_backs/set1/green.gif","img/card_backs/set2/pink.gif","img/card_backs/set2/orange.gif","img/card_backs/set2/gray.gif","img/card_backs/set2/blue.gif","""event"",""trial"",""time""
""blur"",""0"",""0""
""focus"",""0"",""0""
""fullscreenenter"",""1"",""4128""
","""event"",""trial"",""time""
""blur"",""0"",""0""
","""event"",""trial"",""time""
""focus"",""0"",""0""
","""event"",""trial"",""time""
""fullscreenenter"",""1"",""4128""
","
","","NaN","audio/shark.mp3","","2","","","","","","","",""
"fullscreen","5","36954","0.0-5.0","570","true","img/card_backs/set1/red.gif","img/card_backs/set1/yellow.gif","img/card_backs/set1/purple.gif","img/card_backs/set1/green.gif","img/card_backs/set2/pink.gif","img/card_backs/set2/orange.gif","img/card_backs/set2/gray.gif","img/card_backs/set2/blue.gif","""event"",""trial"",""time""
""blur"",""0"",""0""
""focus"",""0"",""0""
""fullscreenenter"",""1"",""4128""
","""event"",""trial"",""time""
""blur"",""0"",""0""
","""event"",""trial"",""time""
""focus"",""0"",""0""
","""event"",""trial"",""time""
""fullscreenenter"",""1"",""4128""
","
","true","","","","","","","","","","","",""
"casino-keyboard-response","6","41177","0.0-6.0-0.0","570","true","img/card_backs/set1/red.gif","img/card_backs/set1/yellow.gif","img/card_backs/set1/purple.gif","img/card_backs/set1/green.gif","img/card_backs/set2/pink.gif","img/card_backs/set2/orange.gif","img/card_backs/set2/gray.gif","img/card_backs/set2/blue.gif","""event"",""trial"",""time""
""blur"",""0"",""0""
""focus"",""0"",""0""
""fullscreenenter"",""1"",""4128""
","""event"",""trial"",""time""
""blur"",""0"",""0""
","""event"",""trial"",""time""
""focus"",""0"",""0""
","""event"",""trial"",""time""
""fullscreenenter"",""1"",""4128""
","
","","4220.799999713898","Welcome to the casino!","71","","instructions","2021-06-23 18:04:49.061","","","","","",""
"casino-keyboard-response","7","53434","0.0-6.0-0.1","570","true","img/card_backs/set1/red.gif","img/card_backs/set1/yellow.gif","img/card_backs/set1/purple.gif","img/card_backs/set1/green.gif","img/card_backs/set2/pink.gif","img/card_backs/set2/orange.gif","img/card_backs/set2/gray.gif","img/card_backs/set2/blue.gif","""event"",""trial"",""time""
""blur"",""0"",""0""
""focus"",""0"",""0""
""fullscreenenter"",""1"",""4128""
","""event"",""trial"",""time""
""blur"",""0"",""0""
","""event"",""trial"",""time""
""focus"",""0"",""0""
","""event"",""trial"",""time""
""fullscreenenter"",""1"",""4128""
","
","","12254","Today you will be playing a game to earn tokens. </br> At the end of the experiment, you will be paid a bonus based on how many tokens you win. ","69","","instructions","2021-06-23 18:05:01.317","","","","","",""
"casino-keyboard-response","8","60912","0.0-6.0-0.2","570","true","img/card_backs/set1/red.gif","img/card_backs/set1/yellow.gif","img/card_backs/set1/purple.gif","img/card_backs/set1/green.gif","img/card_backs/set2/pink.gif","img/card_backs/set2/orange.gif","img/card_backs/set2/gray.gif","img/card_backs/set2/blue.gif","""event"",""trial"",""time""
""blur"",""0"",""0""
""focus"",""0"",""0""
""fullscreenenter"",""1"",""4128""
","""event"",""trial"",""time""
""blur"",""0"",""0""
","""event"",""trial"",""time""
""focus"",""0"",""0""
","""event"",""trial"",""time""
""fullscreenenter"",""1"",""4128""
","
","","7475.89999961853","On every turn, you will be shown four different decks of cards. </br> You need to select a card from one of the four decks.  ","75","","instructions","2021-06-23 18:05:08.795","","","","","",""
"casino-keyboard-response","9","67847","0.0-6.0-0.3","570","true","img/card_backs/set1/red.gif","img/card_backs/set1/yellow.gif","img/card_backs/set1/purple.gif","img/card_backs/set1/green.gif","img/card_backs/set2/pink.gif","img/card_backs/set2/orange.gif","img/card_backs/set2/gray.gif","img/card_backs/set2/blue.gif","""event"",""trial"",""time""
""blur"",""0"",""0""
""focus"",""0"",""0""
""fullscreenenter"",""1"",""4128""
","""event"",""trial"",""time""
""blur"",""0"",""0""
","""event"",""trial"",""time""
""focus"",""0"",""0""
","""event"",""trial"",""time""
""fullscreenenter"",""1"",""4128""
","
","","6932.799999713898","On the next screen, you will see what the decks will look like. ","66","","instructions","2021-06-23 18:05:15.730","","","","","",""
"card-selection-trial","10","71863","0.0-7.0-0.0","570","true","img/card_backs/set1/red.gif","img/card_backs/set1/yellow.gif","img/card_backs/set1/purple.gif","img/card_backs/set1/green.gif","img/card_backs/set2/pink.gif","img/card_backs/set2/orange.gif","img/card_backs/set2/gray.gif","img/card_backs/set2/blue.gif","""event"",""trial"",""time""
""blur"",""0"",""0""
""focus"",""0"",""0""
""fullscreenenter"",""1"",""4128""
","""event"",""trial"",""time""
""blur"",""0"",""0""
","""event"",""trial"",""time""
""focus"",""0"",""0""
","""event"",""trial"",""time""
""fullscreenenter"",""1"",""4128""
","
","","null","","","","practice","2021-06-23 18:05:19.746","null","null","null","0","",""
"casino-keyboard-response","11","88343","0.0-8.0-0.0","570","true","img/card_backs/set1/red.gif","img/card_backs/set1/yellow.gif","img/card_backs/set1/purple.gif","img/card_backs/set1/green.gif","img/card_backs/set2/pink.gif","img/card_backs/set2/orange.gif","img/card_backs/set2/gray.gif","img/card_backs/set2/blue.gif","""event"",""trial"",""time""
""blur"",""0"",""0""
""focus"",""0"",""0""
""fullscreenenter"",""1"",""4128""
","""event"",""trial"",""time""
""blur"",""0"",""0""
","""event"",""trial"",""time""
""focus"",""0"",""0""
","""event"",""trial"",""time""
""fullscreenenter"",""1"",""4128""
","
","","16478.199999809265","You should pick a card from a deck using the '2', '4', '6', and '8' keys at the top of the keyboard.","85","","instructions","2021-06-23 18:05:36.226","","","","","",""
"casino-keyboard-response","12","95461","0.0-8.0-0.1","570","true","img/card_backs/set1/red.gif","img/card_backs/set1/yellow.gif","img/card_backs/set1/purple.gif","img/card_backs/set1/green.gif","img/card_backs/set2/pink.gif","img/card_backs/set2/orange.gif","img/card_backs/set2/gray.gif","img/card_backs/set2/blue.gif","""event"",""trial"",""time""
""blur"",""0"",""0""
""focus"",""0"",""0""
""fullscreenenter"",""1"",""4128""
","""event"",""trial"",""time""
""blur"",""0"",""0""
","""event"",""trial"",""time""
""focus"",""0"",""0""
","""event"",""trial"",""time""
""fullscreenenter"",""1"",""4128""
","
","","7115.599999904633","Once you select a card, it will turn over and you will see how many tokens you earned.","83","","instructions","2021-06-23 18:05:43.344","","","","","",""
"casino-keyboard-response","13","114048","0.0-8.0-0.2","570","true","img/card_backs/set1/red.gif","img/card_backs/set1/yellow.gif","img/card_backs/set1/purple.gif","img/card_backs/set1/green.gif","img/card_backs/set2/pink.gif","img/card_backs/set2/orange.gif","img/card_backs/set2/gray.gif","img/card_backs/set2/blue.gif","""event"",""trial"",""time""
""blur"",""0"",""0""
""focus"",""0"",""0""
""fullscreenenter"",""1"",""4128""
","""event"",""trial"",""time""
""blur"",""0"",""0""
","""event"",""trial"",""time""
""focus"",""0"",""0""
","""event"",""trial"",""time""
""fullscreenenter"",""1"",""4128""
","
","","18585.800000190735","Let's try practicing that! </br> First, try to put your fingers over the '2', '4', '6', and '8' keys. </br>  You can use whatever fingers are most comfortable for you. Try to find a comfortable position now. ","50","","instructions","2021-06-23 18:06:01.931","","","","","",""
"casino-keyboard-response","14","120172","0.0-8.0-0.3","570","true","img/card_backs/set1/red.gif","img/card_backs/set1/yellow.gif","img/card_backs/set1/purple.gif","img/card_backs/set1/green.gif","img/card_backs/set2/pink.gif","img/card_backs/set2/orange.gif","img/card_backs/set2/gray.gif","img/card_backs/set2/blue.gif","""event"",""trial"",""time""
""blur"",""0"",""0""
""focus"",""0"",""0""
""fullscreenenter"",""1"",""4128""
","""event"",""trial"",""time""
""blur"",""0"",""0""
","""event"",""trial"",""time""
""focus"",""0"",""0""
","""event"",""trial"",""time""
""fullscreenenter"",""1"",""4128""
","
","","6121.5","Okay ready? </br> On the next screen, press '2' to select the left deck. ","50","","instructions","2021-06-23 18:06:08.055","","","","","",""
"card-selection-trial","15","123173","0.0-9.0-0.0","570","true","img/card_backs/set1/red.gif","img/card_backs/set1/yellow.gif","img/card_backs/set1/purple.gif","img/card_backs/set1/green.gif","img/card_backs/set2/pink.gif","img/card_backs/set2/orange.gif","img/card_backs/set2/gray.gif","img/card_backs/set2/blue.gif","""event"",""trial"",""time""
""blur"",""0"",""0""
""focus"",""0"",""0""
""fullscreenenter"",""1"",""4128""
","""event"",""trial"",""time""
""blur"",""0"",""0""
","""event"",""trial"",""time""
""focus"",""0"",""0""
","""event"",""trial"",""time""
""fullscreenenter"",""1"",""4128""
","
","","975.8999996185303","","","","practice_card_selection","2021-06-23 18:06:11.056","img/practice_cards/backs/brown.gif","0","100","","",""
"casino-keyboard-response","16","129175","0.0-10.0-0.0","570","true","img/card_backs/set1/red.gif","img/card_backs/set1/yellow.gif","img/card_backs/set1/purple.gif","img/card_backs/set1/green.gif","img/card_backs/set2/pink.gif","img/card_backs/set2/orange.gif","img/card_backs/set2/gray.gif","img/card_backs/set2/blue.gif","""event"",""trial"",""time""
""blur"",""0"",""0""
""focus"",""0"",""0""
""fullscreenenter"",""1"",""4128""
","""event"",""trial"",""time""
""blur"",""0"",""0""
","""event"",""trial"",""time""
""focus"",""0"",""0""
","""event"",""trial"",""time""
""fullscreenenter"",""1"",""4128""
","
","","6000.699999809265","Great! Now on the next screen, try pressing '6' to select the third deck.","54","","instructions","2021-06-23 18:06:17.059","","","","","",""
"card-selection-trial","17","131898","0.0-11.0-0.0","570","true","img/card_backs/set1/red.gif","img/card_backs/set1/yellow.gif","img/card_backs/set1/purple.gif","img/card_backs/set1/green.gif","img/card_backs/set2/pink.gif","img/card_backs/set2/orange.gif","img/card_backs/set2/gray.gif","img/card_backs/set2/blue.gif","""event"",""trial"",""time""
""blur"",""0"",""0""
""focus"",""0"",""0""
""fullscreenenter"",""1"",""4128""
","""event"",""trial"",""time""
""blur"",""0"",""0""
","""event"",""trial"",""time""
""focus"",""0"",""0""
","""event"",""trial"",""time""
""fullscreenenter"",""1"",""4128""
","
","","702.5999999046326","","","","practice_card_selection","2021-06-23 18:06:19.781","img/practice_cards/backs/black.gif","2","-100","","",""
"casino-keyboard-response","18","136601","0.0-12.0-0.0","570","true","img/card_backs/set1/red.gif","img/card_backs/set1/yellow.gif","img/card_backs/set1/purple.gif","img/card_backs/set1/green.gif","img/card_backs/set2/pink.gif","img/card_backs/set2/orange.gif","img/card_backs/set2/gray.gif","img/card_backs/set2/blue.gif","""event"",""trial"",""time""
""blur"",""0"",""0""
""focus"",""0"",""0""
""fullscreenenter"",""1"",""4128""
","""event"",""trial"",""time""
""blur"",""0"",""0""
","""event"",""trial"",""time""
""focus"",""0"",""0""
","""event"",""trial"",""time""
""fullscreenenter"",""1"",""4128""
","
","","4701.599999904633","Now on the next screen, try pressing '4' to select the second deck.","52","","instructions","2021-06-23 18:06:24.484","","","","","",""
"card-selection-trial","19","139360","0.0-13.0-0.0","570","true","img/card_backs/set1/red.gif","img/card_backs/set1/yellow.gif","img/card_backs/set1/purple.gif","img/card_backs/set1/green.gif","img/card_backs/set2/pink.gif","img/card_backs/set2/orange.gif","img/card_backs/set2/gray.gif","img/card_backs/set2/blue.gif","""event"",""trial"",""time""
""blur"",""0"",""0""
""focus"",""0"",""0""
""fullscreenenter"",""1"",""4128""
","""event"",""trial"",""time""
""blur"",""0"",""0""
","""event"",""trial"",""time""
""focus"",""0"",""0""
","""event"",""trial"",""time""
""fullscreenenter"",""1"",""4128""
","
","","745.1000003814697","","","","practice_card_selection","2021-06-23 18:06:27.243","img/practice_cards/backs/dark_green.gif","1","-200","","",""
"casino-keyboard-response","20","144284","0.0-14.0-0.0","570","true","img/card_backs/set1/red.gif","img/card_backs/set1/yellow.gif","img/card_backs/set1/purple.gif","img/card_backs/set1/green.gif","img/card_backs/set2/pink.gif","img/card_backs/set2/orange.gif","img/card_backs/set2/gray.gif","img/card_backs/set2/blue.gif","""event"",""trial"",""time""
""blur"",""0"",""0""
""focus"",""0"",""0""
""fullscreenenter"",""1"",""4128""
","""event"",""trial"",""time""
""blur"",""0"",""0""
","""event"",""trial"",""time""
""focus"",""0"",""0""
","""event"",""trial"",""time""
""fullscreenenter"",""1"",""4128""
","
","","4922.699999809265","Finally, try pressing '8' to select the deck all the way on the right.","56","","instructions","2021-06-23 18:06:32.167","","","","","",""
"card-selection-trial","21","146986","0.0-15.0-0.0","570","true","img/card_backs/set1/red.gif","img/card_backs/set1/yellow.gif","img/card_backs/set1/purple.gif","img/card_backs/set1/green.gif","img/card_backs/set2/pink.gif","img/card_backs/set2/orange.gif","img/card_backs/set2/gray.gif","img/card_backs/set2/blue.gif","""event"",""trial"",""time""
""blur"",""0"",""0""
""focus"",""0"",""0""
""fullscreenenter"",""1"",""4128""
","""event"",""trial"",""time""
""blur"",""0"",""0""
","""event"",""trial"",""time""
""focus"",""0"",""0""
","""event"",""trial"",""time""
""fullscreenenter"",""1"",""4128""
","
","","683.2000002861023","","","","practice_card_selection","2021-06-23 18:06:34.869","img/practice_cards/backs/black.gif","3","-100","","",""
"casino-keyboard-response","22","153983","0.0-16.0-0.0","570","true","img/card_backs/set1/red.gif","img/card_backs/set1/yellow.gif","img/card_backs/set1/purple.gif","img/card_backs/set1/green.gif","img/card_backs/set2/pink.gif","img/card_backs/set2/orange.gif","img/card_backs/set2/gray.gif","img/card_backs/set2/blue.gif","""event"",""trial"",""time""
""blur"",""0"",""0""
""focus"",""0"",""0""
""fullscreenenter"",""1"",""4128""
","""event"",""trial"",""time""
""blur"",""0"",""0""
","""event"",""trial"",""time""
""focus"",""0"",""0""
","""event"",""trial"",""time""
""fullscreenenter"",""1"",""4128""
","
","","6996.39999961853","Great! It seems like you are getting the hang of this.","80","","instructions","2021-06-23 18:06:41.867","","","","","",""
"casino-keyboard-response","23","162976","0.0-16.0-0.1","570","true","img/card_backs/set1/red.gif","img/card_backs/set1/yellow.gif","img/card_backs/set1/purple.gif","img/card_backs/set1/green.gif","img/card_backs/set2/pink.gif","img/card_backs/set2/orange.gif","img/card_backs/set2/gray.gif","img/card_backs/set2/blue.gif","""event"",""trial"",""time""
""blur"",""0"",""0""
""focus"",""0"",""0""
""fullscreenenter"",""1"",""4128""
","""event"",""trial"",""time""
""blur"",""0"",""0""
","""event"",""trial"",""time""
""focus"",""0"",""0""
","""event"",""trial"",""time""
""fullscreenenter"",""1"",""4128""
","
","","8991.400000095367","You may have noticed that some cards will cause you to <b> win </b> tokens while other cards will cause you to <b> lose </b>  tokens.","70","","instructions","2021-06-23 18:06:50.859","","","","","",""
"casino-keyboard-response","24","173122","0.0-16.0-0.2","570","true","img/card_backs/set1/red.gif","img/card_backs/set1/yellow.gif","img/card_backs/set1/purple.gif","img/card_backs/set1/green.gif","img/card_backs/set2/pink.gif","img/card_backs/set2/orange.gif","img/card_backs/set2/gray.gif","img/card_backs/set2/blue.gif","""event"",""trial"",""time""
""blur"",""0"",""0""
""focus"",""0"",""0""
""fullscreenenter"",""1"",""4128""
","""event"",""trial"",""time""
""blur"",""0"",""0""
","""event"",""trial"",""time""
""focus"",""0"",""0""
","""event"",""trial"",""time""
""fullscreenenter"",""1"",""4128""
","
","","10144.5","Each deck has a mix of cards that will cause you to win and lose tokens. </br> However, the cards in each colored deck are different.","73","","instructions","2021-06-23 18:07:01.006","","","","","",""
"casino-keyboard-response","25","182519","0.0-16.0-0.3","570","true","img/card_backs/set1/red.gif","img/card_backs/set1/yellow.gif","img/card_backs/set1/purple.gif","img/card_backs/set1/green.gif","img/card_backs/set2/pink.gif","img/card_backs/set2/orange.gif","img/card_backs/set2/gray.gif","img/card_backs/set2/blue.gif","""event"",""trial"",""time""
""blur"",""0"",""0""
""focus"",""0"",""0""
""fullscreenenter"",""1"",""4128""
","""event"",""trial"",""time""
""blur"",""0"",""0""
","""event"",""trial"",""time""
""focus"",""0"",""0""
","""event"",""trial"",""time""
""fullscreenenter"",""1"",""4128""
","
","","9394.699999809265","Some colored decks are luckier than others. </br> If you choose the lucky decks, you will earn more tokens than if you choose the unlucky decks.","69","","instructions","2021-06-23 18:07:10.402","","","","","",""
"casino-keyboard-response","26","190917","0.0-16.0-0.4","570","true","img/card_backs/set1/red.gif","img/card_backs/set1/yellow.gif","img/card_backs/set1/purple.gif","img/card_backs/set1/green.gif","img/card_backs/set2/pink.gif","img/card_backs/set2/orange.gif","img/card_backs/set2/gray.gif","img/card_backs/set2/blue.gif","""event"",""trial"",""time""
""blur"",""0"",""0""
""focus"",""0"",""0""
""fullscreenenter"",""1"",""4128""
","""event"",""trial"",""time""
""blur"",""0"",""0""
","""event"",""trial"",""time""
""focus"",""0"",""0""
","""event"",""trial"",""time""
""fullscreenenter"",""1"",""4128""
","
","","8395.900000095367","You should try to figure out which decks are lucky. </br> Then, try to choose the lucky decks so you can win the most tokens.","87","","instructions","2021-06-23 18:07:18.800","","","","","",""
"casino-keyboard-response","27","203706","0.0-16.0-0.5","570","true","img/card_backs/set1/red.gif","img/card_backs/set1/yellow.gif","img/card_backs/set1/purple.gif","img/card_backs/set1/green.gif","img/card_backs/set2/pink.gif","img/card_backs/set2/orange.gif","img/card_backs/set2/gray.gif","img/card_backs/set2/blue.gif","""event"",""trial"",""time""
""blur"",""0"",""0""
""focus"",""0"",""0""
""fullscreenenter"",""1"",""4128""
","""event"",""trial"",""time""
""blur"",""0"",""0""
","""event"",""trial"",""time""
""focus"",""0"",""0""
","""event"",""trial"",""time""
""fullscreenenter"",""1"",""4128""
","
","","12786.400000095367","To make it trickier, the casino dealer will switch the locations of the decks on every turn. </br> The color of the deck determines how lucky it is. The location does not matter.","88","","instructions","2021-06-23 18:07:31.589","","","","","",""
"casino-keyboard-response","28","215630","0.0-16.0-0.6","570","true","img/card_backs/set1/red.gif","img/card_backs/set1/yellow.gif","img/card_backs/set1/purple.gif","img/card_backs/set1/green.gif","img/card_backs/set2/pink.gif","img/card_backs/set2/orange.gif","img/card_backs/set2/gray.gif","img/card_backs/set2/blue.gif","""event"",""trial"",""time""
""blur"",""0"",""0""
""focus"",""0"",""0""
""fullscreenenter"",""1"",""4128""
","""event"",""trial"",""time""
""blur"",""0"",""0""
","""event"",""trial"",""time""
""focus"",""0"",""0""
","""event"",""trial"",""time""
""fullscreenenter"",""1"",""4128""
","
","","11921.299999713898","The mix of cards in each colored deck will stay the same throughout the game. </br> That means that a deck that is lucky early on will stay lucky.","79","","instructions","2021-06-23 18:07:43.513","","","","","",""
"casino-keyboard-response","29","240573","0.0-16.0-0.7","570","true","img/card_backs/set1/red.gif","img/card_backs/set1/yellow.gif","img/card_backs/set1/purple.gif","img/card_backs/set1/green.gif","img/card_backs/set2/pink.gif","img/card_backs/set2/orange.gif","img/card_backs/set2/gray.gif","img/card_backs/set2/blue.gif","""event"",""trial"",""time""
""blur"",""0"",""0""
""focus"",""0"",""0""
""fullscreenenter"",""1"",""4128""
","""event"",""trial"",""time""
""blur"",""0"",""0""
","""event"",""trial"",""time""
""focus"",""0"",""0""
","""event"",""trial"",""time""
""fullscreenenter"",""1"",""4128""
","
","","24939.39999961853","Remember though, all the decks have a <b> mix </b> of both <b> good </b> and <b> bad </b> cards so it may take a couple of turns to figure out if a deck is lucky.","69","","instructions","2021-06-23 18:08:08.457","","","","","",""
"casino-keyboard-response","30","252664","0.0-16.0-0.8","570","true","img/card_backs/set1/red.gif","img/card_backs/set1/yellow.gif","img/card_backs/set1/purple.gif","img/card_backs/set1/green.gif","img/card_backs/set2/pink.gif","img/card_backs/set2/orange.gif","img/card_backs/set2/gray.gif","img/card_backs/set2/blue.gif","""event"",""trial"",""time""
""blur"",""0"",""0""
""focus"",""0"",""0""
""fullscreenenter"",""1"",""4128""
","""event"",""trial"",""time""
""blur"",""0"",""0""
","""event"",""trial"",""time""
""focus"",""0"",""0""
","""event"",""trial"",""time""
""fullscreenenter"",""1"",""4128""
","
","","12088.099999904633","At the end of the game, you will be paid bonus money based on how many tokens you win. </br> If you win more tokens, you will earn more money!","72","","instructions","2021-06-23 18:08:20.547","","","","","",""
"casino-keyboard-response","31","263943","0.0-16.0-0.9","570","true","img/card_backs/set1/red.gif","img/card_backs/set1/yellow.gif","img/card_backs/set1/purple.gif","img/card_backs/set1/green.gif","img/card_backs/set2/pink.gif","img/card_backs/set2/orange.gif","img/card_backs/set2/gray.gif","img/card_backs/set2/blue.gif","""event"",""trial"",""time""
""blur"",""0"",""0""
""focus"",""0"",""0""
""fullscreenenter"",""1"",""4128""
","""event"",""trial"",""time""
""blur"",""0"",""0""
","""event"",""trial"",""time""
""focus"",""0"",""0""
","""event"",""trial"",""time""
""fullscreenenter"",""1"",""4128""
","
","","11276.199999809265","You will never <b> lose </b> money. </br> If you end up with fewer than 0 tokens, you will earn $0 of bonus money, but you will still be paid for playing the game.","83","","instructions","2021-06-23 18:08:31.826","","","","","",""
"casino-keyboard-response","32","268748","0.0-16.0-0.10","570","true","img/card_backs/set1/red.gif","img/card_backs/set1/yellow.gif","img/card_backs/set1/purple.gif","img/card_backs/set1/green.gif","img/card_backs/set2/pink.gif","img/card_backs/set2/orange.gif","img/card_backs/set2/gray.gif","img/card_backs/set2/blue.gif","""event"",""trial"",""time""
""blur"",""0"",""0""
""focus"",""0"",""0""
""fullscreenenter"",""1"",""4128""
","""event"",""trial"",""time""
""blur"",""0"",""0""
","""event"",""trial"",""time""
""focus"",""0"",""0""
","""event"",""trial"",""time""
""fullscreenenter"",""1"",""4128""
","
","","4801.900000095367","You will have 10 seconds to make each choice.","82","","instructions","2021-06-23 18:08:36.631","","","","","",""
"casino-keyboard-response","33","279777","0.0-16.0-0.11","570","true","img/card_backs/set1/red.gif","img/card_backs/set1/yellow.gif","img/card_backs/set1/purple.gif","img/card_backs/set1/green.gif","img/card_backs/set2/pink.gif","img/card_backs/set2/orange.gif","img/card_backs/set2/gray.gif","img/card_backs/set2/blue.gif","""event"",""trial"",""time""
""blur"",""0"",""0""
""focus"",""0"",""0""
""fullscreenenter"",""1"",""4128""
","""event"",""trial"",""time""
""blur"",""0"",""0""
","""event"",""trial"",""time""
""focus"",""0"",""0""
","""event"",""trial"",""time""
""fullscreenenter"",""1"",""4128""
","
","","11026.400000095367","Before you play the game for real, you will play with practice decks. </br> The tokens you earn during practice won't count toward your total.","86","","instructions","2021-06-23 18:08:47.660","","","","","",""
"casino-keyboard-response","34","291278","0.0-16.0-0.12","570","true","img/card_backs/set1/red.gif","img/card_backs/set1/yellow.gif","img/card_backs/set1/purple.gif","img/card_backs/set1/green.gif","img/card_backs/set2/pink.gif","img/card_backs/set2/orange.gif","img/card_backs/set2/gray.gif","img/card_backs/set2/blue.gif","""event"",""trial"",""time""
""blur"",""0"",""0""
""focus"",""0"",""0""
""fullscreenenter"",""1"",""4128""
","""event"",""trial"",""time""
""blur"",""0"",""0""
","""event"",""trial"",""time""
""focus"",""0"",""0""
","""event"",""trial"",""time""
""fullscreenenter"",""1"",""4128""
","
","","11498.60000038147","Ready? Remember, use the '2', '4', '6', and '8' keys to select the decks. </br> Put your fingers on those keys now and then press '2' to begin.","50","","instructions","2021-06-23 18:08:59.161","","","","","",""
"casino-fixation","35","291792","0.0-17.0-0.0","570","true","img/card_backs/set1/red.gif","img/card_backs/set1/yellow.gif","img/card_backs/set1/purple.gif","img/card_backs/set1/green.gif","img/card_backs/set2/pink.gif","img/card_backs/set2/orange.gif","img/card_backs/set2/gray.gif","img/card_backs/set2/blue.gif","""event"",""trial"",""time""
""blur"",""0"",""0""
""focus"",""0"",""0""
""fullscreenenter"",""1"",""4128""
","""event"",""trial"",""time""
""blur"",""0"",""0""
","""event"",""trial"",""time""
""focus"",""0"",""0""
","""event"",""trial"",""time""
""fullscreenenter"",""1"",""4128""
","
","","null","","null","","fixation","2021-06-23 18:08:59.676","","","","","",""
"card-selection-trial","36","295466","0.0-17.0-1.0","570","true","img/card_backs/set1/red.gif","img/card_backs/set1/yellow.gif","img/card_backs/set1/purple.gif","img/card_backs/set1/green.gif","img/card_backs/set2/pink.gif","img/card_backs/set2/orange.gif","img/card_backs/set2/gray.gif","img/card_backs/set2/blue.gif","""event"",""trial"",""time""
""blur"",""0"",""0""
""focus"",""0"",""0""
""fullscreenenter"",""1"",""4128""
","""event"",""trial"",""time""
""blur"",""0"",""0""
","""event"",""trial"",""time""
""focus"",""0"",""0""
","""event"",""trial"",""time""
""fullscreenenter"",""1"",""4128""
","
","","1661.9000000953674","","","","practice","2021-06-23 18:09:03.349","img/practice_cards/backs/brown.gif","1","100","0","",""
"casino-fixation","37","295973","0.0-17.0-0.1","570","true","img/card_backs/set1/red.gif","img/card_backs/set1/yellow.gif","img/card_backs/set1/purple.gif","img/card_backs/set1/green.gif","img/card_backs/set2/pink.gif","img/card_backs/set2/orange.gif","img/card_backs/set2/gray.gif","img/card_backs/set2/blue.gif","""event"",""trial"",""time""
""blur"",""0"",""0""
""focus"",""0"",""0""
""fullscreenenter"",""1"",""4128""
","""event"",""trial"",""time""
""blur"",""0"",""0""
","""event"",""trial"",""time""
""focus"",""0"",""0""
","""event"",""trial"",""time""
""fullscreenenter"",""1"",""4128""
","
","","null","","null","","fixation","2021-06-23 18:09:03.856","","","","","",""
"card-selection-trial","38","299208","0.0-17.0-1.1","570","true","img/card_backs/set1/red.gif","img/card_backs/set1/yellow.gif","img/card_backs/set1/purple.gif","img/card_backs/set1/green.gif","img/card_backs/set2/pink.gif","img/card_backs/set2/orange.gif","img/card_backs/set2/gray.gif","img/card_backs/set2/blue.gif","""event"",""trial"",""time""
""blur"",""0"",""0""
""focus"",""0"",""0""
""fullscreenenter"",""1"",""4128""
","""event"",""trial"",""time""
""blur"",""0"",""0""
","""event"",""trial"",""time""
""focus"",""0"",""0""
","""event"",""trial"",""time""
""fullscreenenter"",""1"",""4128""
","
","","1220.5","","","","practice","2021-06-23 18:09:07.091","img/practice_cards/backs/brown.gif","1","-100","0","",""
"casino-fixation","39","299716","0.0-17.0-0.2","570","true","img/card_backs/set1/red.gif","img/card_backs/set1/yellow.gif","img/card_backs/set1/purple.gif","img/card_backs/set1/green.gif","img/card_backs/set2/pink.gif","img/card_backs/set2/orange.gif","img/card_backs/set2/gray.gif","img/card_backs/set2/blue.gif","""event"",""trial"",""time""
""blur"",""0"",""0""
""focus"",""0"",""0""
""fullscreenenter"",""1"",""4128""
","""event"",""trial"",""time""
""blur"",""0"",""0""
","""event"",""trial"",""time""
""focus"",""0"",""0""
","""event"",""trial"",""time""
""fullscreenenter"",""1"",""4128""
","
","","null","","null","","fixation","2021-06-23 18:09:07.599","","","","","",""
"card-selection-trial","40","302022","0.0-17.0-1.2","570","true","img/card_backs/set1/red.gif","img/card_backs/set1/yellow.gif","img/card_backs/set1/purple.gif","img/card_backs/set1/green.gif","img/card_backs/set2/pink.gif","img/card_backs/set2/orange.gif","img/card_backs/set2/gray.gif","img/card_backs/set2/blue.gif","""event"",""trial"",""time""
""blur"",""0"",""0""
""focus"",""0"",""0""
""fullscreenenter"",""1"",""4128""
","""event"",""trial"",""time""
""blur"",""0"",""0""
","""event"",""trial"",""time""
""focus"",""0"",""0""
","""event"",""trial"",""time""
""fullscreenenter"",""1"",""4128""
","
","","295.2999997138977","","","","practice","2021-06-23 18:09:09.905","img/practice_cards/backs/brown.gif","2","-100","0","",""
"casino-fixation","41","302523","0.0-17.0-0.3","570","true","img/card_backs/set1/red.gif","img/card_backs/set1/yellow.gif","img/card_backs/set1/purple.gif","img/card_backs/set1/green.gif","img/card_backs/set2/pink.gif","img/card_backs/set2/orange.gif","img/card_backs/set2/gray.gif","img/card_backs/set2/blue.gif","""event"",""trial"",""time""
""blur"",""0"",""0""
""focus"",""0"",""0""
""fullscreenenter"",""1"",""4128""
","""event"",""trial"",""time""
""blur"",""0"",""0""
","""event"",""trial"",""time""
""focus"",""0"",""0""
","""event"",""trial"",""time""
""fullscreenenter"",""1"",""4128""
","
","","null","","null","","fixation","2021-06-23 18:09:10.406","","","","","",""
"card-selection-trial","42","305386","0.0-17.0-1.3","570","true","img/card_backs/set1/red.gif","img/card_backs/set1/yellow.gif","img/card_backs/set1/purple.gif","img/card_backs/set1/green.gif","img/card_backs/set2/pink.gif","img/card_backs/set2/orange.gif","img/card_backs/set2/gray.gif","img/card_backs/set2/blue.gif","""event"",""trial"",""time""
""blur"",""0"",""0""
""focus"",""0"",""0""
""fullscreenenter"",""1"",""4128""
","""event"",""trial"",""time""
""blur"",""0"",""0""
","""event"",""trial"",""time""
""focus"",""0"",""0""
","""event"",""trial"",""time""
""fullscreenenter"",""1"",""4128""
","
","","844.8999996185303","","","","practice","2021-06-23 18:09:13.269","img/practice_cards/backs/brown.gif","2","-100","0","",""
"casino-fixation","43","305892","0.0-17.0-0.4","570","true","img/card_backs/set1/red.gif","img/card_backs/set1/yellow.gif","img/card_backs/set1/purple.gif","img/card_backs/set1/green.gif","img/card_backs/set2/pink.gif","img/card_backs/set2/orange.gif","img/card_backs/set2/gray.gif","img/card_backs/set2/blue.gif","""event"",""trial"",""time""
""blur"",""0"",""0""
""focus"",""0"",""0""
""fullscreenenter"",""1"",""4128""
","""event"",""trial"",""time""
""blur"",""0"",""0""
","""event"",""trial"",""time""
""focus"",""0"",""0""
","""event"",""trial"",""time""
""fullscreenenter"",""1"",""4128""
","
","","null","","null","","fixation","2021-06-23 18:09:13.776","","","","","",""
"card-selection-trial","44","308631","0.0-17.0-1.4","570","true","img/card_backs/set1/red.gif","img/card_backs/set1/yellow.gif","img/card_backs/set1/purple.gif","img/card_backs/set1/green.gif","img/card_backs/set2/pink.gif","img/card_backs/set2/orange.gif","img/card_backs/set2/gray.gif","img/card_backs/set2/blue.gif","""event"",""trial"",""time""
""blur"",""0"",""0""
""focus"",""0"",""0""
""fullscreenenter"",""1"",""4128""
","""event"",""trial"",""time""
""blur"",""0"",""0""
","""event"",""trial"",""time""
""focus"",""0"",""0""
","""event"",""trial"",""time""
""fullscreenenter"",""1"",""4128""
","
","","727.8000001907349","","","","practice","2021-06-23 18:09:16.514","img/practice_cards/backs/dark_green.gif","3","-200","0","",""
"casino-fixation","45","309139","0.0-17.0-0.5","570","true","img/card_backs/set1/red.gif","img/card_backs/set1/yellow.gif","img/card_backs/set1/purple.gif","img/card_backs/set1/green.gif","img/card_backs/set2/pink.gif","img/card_backs/set2/orange.gif","img/card_backs/set2/gray.gif","img/card_backs/set2/blue.gif","""event"",""trial"",""time""
""blur"",""0"",""0""
""focus"",""0"",""0""
""fullscreenenter"",""1"",""4128""
","""event"",""trial"",""time""
""blur"",""0"",""0""
","""event"",""trial"",""time""
""focus"",""0"",""0""
","""event"",""trial"",""time""
""fullscreenenter"",""1"",""4128""
","
","","null","","null","","fixation","2021-06-23 18:09:17.022","","","","","",""
"card-selection-trial","46","311374","0.0-17.0-1.5","570","true","img/card_backs/set1/red.gif","img/card_backs/set1/yellow.gif","img/card_backs/set1/purple.gif","img/card_backs/set1/green.gif","img/card_backs/set2/pink.gif","img/card_backs/set2/orange.gif","img/card_backs/set2/gray.gif","img/card_backs/set2/blue.gif","""event"",""trial"",""time""
""blur"",""0"",""0""
""focus"",""0"",""0""
""fullscreenenter"",""1"",""4128""
","""event"",""trial"",""time""
""blur"",""0"",""0""
","""event"",""trial"",""time""
""focus"",""0"",""0""
","""event"",""trial"",""time""
""fullscreenenter"",""1"",""4128""
","
","","222.19999980926514","","","","practice","2021-06-23 18:09:19.257","img/practice_cards/backs/brown.gif","0","100","0","",""
"casino-fixation","47","311877","0.0-17.0-0.6","570","true","img/card_backs/set1/red.gif","img/card_backs/set1/yellow.gif","img/card_backs/set1/purple.gif","img/card_backs/set1/green.gif","img/card_backs/set2/pink.gif","img/card_backs/set2/orange.gif","img/card_backs/set2/gray.gif","img/card_backs/set2/blue.gif","""event"",""trial"",""time""
""blur"",""0"",""0""
""focus"",""0"",""0""
""fullscreenenter"",""1"",""4128""
","""event"",""trial"",""time""
""blur"",""0"",""0""
","""event"",""trial"",""time""
""focus"",""0"",""0""
","""event"",""trial"",""time""
""fullscreenenter"",""1"",""4128""
","
","","null","","null","","fixation","2021-06-23 18:09:19.761","","","","","",""
"card-selection-trial","48","314656","0.0-17.0-1.6","570","true","img/card_backs/set1/red.gif","img/card_backs/set1/yellow.gif","img/card_backs/set1/purple.gif","img/card_backs/set1/green.gif","img/card_backs/set2/pink.gif","img/card_backs/set2/orange.gif","img/card_backs/set2/gray.gif","img/card_backs/set2/blue.gif","""event"",""trial"",""time""
""blur"",""0"",""0""
""focus"",""0"",""0""
""fullscreenenter"",""1"",""4128""
","""event"",""trial"",""time""
""blur"",""0"",""0""
","""event"",""trial"",""time""
""focus"",""0"",""0""
","""event"",""trial"",""time""
""fullscreenenter"",""1"",""4128""
","
","","772.0999999046326","","","","practice","2021-06-23 18:09:22.539","img/practice_cards/backs/black.gif","2","100","0","",""
"casino-fixation","49","315163","0.0-17.0-0.7","570","true","img/card_backs/set1/red.gif","img/card_backs/set1/yellow.gif","img/card_backs/set1/purple.gif","img/card_backs/set1/green.gif","img/card_backs/set2/pink.gif","img/card_backs/set2/orange.gif","img/card_backs/set2/gray.gif","img/card_backs/set2/blue.gif","""event"",""trial"",""time""
""blur"",""0"",""0""
""focus"",""0"",""0""
""fullscreenenter"",""1"",""4128""
","""event"",""trial"",""time""
""blur"",""0"",""0""
","""event"",""trial"",""time""
""focus"",""0"",""0""
","""event"",""trial"",""time""
""fullscreenenter"",""1"",""4128""
","
","","null","","null","","fixation","2021-06-23 18:09:23.046","","","","","",""
"card-selection-trial","50","317606","0.0-17.0-1.7","570","true","img/card_backs/set1/red.gif","img/card_backs/set1/yellow.gif","img/card_backs/set1/purple.gif","img/card_backs/set1/green.gif","img/card_backs/set2/pink.gif","img/card_backs/set2/orange.gif","img/card_backs/set2/gray.gif","img/card_backs/set2/blue.gif","""event"",""trial"",""time""
""blur"",""0"",""0""
""focus"",""0"",""0""
""fullscreenenter"",""1"",""4128""
","""event"",""trial"",""time""
""blur"",""0"",""0""
","""event"",""trial"",""time""
""focus"",""0"",""0""
","""event"",""trial"",""time""
""fullscreenenter"",""1"",""4128""
","
","","426.7999997138977","","","","practice","2021-06-23 18:09:25.489","img/practice_cards/backs/black.gif","1","100","0","",""
"casino-fixation","51","318123","0.0-17.0-0.8","570","true","img/card_backs/set1/red.gif","img/card_backs/set1/yellow.gif","img/card_backs/set1/purple.gif","img/card_backs/set1/green.gif","img/card_backs/set2/pink.gif","img/card_backs/set2/orange.gif","img/card_backs/set2/gray.gif","img/card_backs/set2/blue.gif","""event"",""trial"",""time""
""blur"",""0"",""0""
""focus"",""0"",""0""
""fullscreenenter"",""1"",""4128""
","""event"",""trial"",""time""
""blur"",""0"",""0""
","""event"",""trial"",""time""
""focus"",""0"",""0""
","""event"",""trial"",""time""
""fullscreenenter"",""1"",""4128""
","
","","null","","null","","fixation","2021-06-23 18:09:26.006","","","","","",""
"card-selection-trial","52","320462","0.0-17.0-1.8","570","true","img/card_backs/set1/red.gif","img/card_backs/set1/yellow.gif","img/card_backs/set1/purple.gif","img/card_backs/set1/green.gif","img/card_backs/set2/pink.gif","img/card_backs/set2/orange.gif","img/card_backs/set2/gray.gif","img/card_backs/set2/blue.gif","""event"",""trial"",""time""
""blur"",""0"",""0""
""focus"",""0"",""0""
""fullscreenenter"",""1"",""4128""
","""event"",""trial"",""time""
""blur"",""0"",""0""
","""event"",""trial"",""time""
""focus"",""0"",""0""
","""event"",""trial"",""time""
""fullscreenenter"",""1"",""4128""
","
","","328.30000019073486","","","","practice","2021-06-23 18:09:28.345","img/practice_cards/backs/dark_blue.gif","2","200","0","",""
"casino-fixation","53","320971","0.0-17.0-0.9","570","true","img/card_backs/set1/red.gif","img/card_backs/set1/yellow.gif","img/card_backs/set1/purple.gif","img/card_backs/set1/green.gif","img/card_backs/set2/pink.gif","img/card_backs/set2/orange.gif","img/card_backs/set2/gray.gif","img/card_backs/set2/blue.gif","""event"",""trial"",""time""
""blur"",""0"",""0""
""focus"",""0"",""0""
""fullscreenenter"",""1"",""4128""
","""event"",""trial"",""time""
""blur"",""0"",""0""
","""event"",""trial"",""time""
""focus"",""0"",""0""
","""event"",""trial"",""time""
""fullscreenenter"",""1"",""4128""
","
","","null","","null","","fixation","2021-06-23 18:09:28.855","","","","","",""
"card-selection-trial","54","323916","0.0-17.0-1.9","570","true","img/card_backs/set1/red.gif","img/card_backs/set1/yellow.gif","img/card_backs/set1/purple.gif","img/card_backs/set1/green.gif","img/card_backs/set2/pink.gif","img/card_backs/set2/orange.gif","img/card_backs/set2/gray.gif","img/card_backs/set2/blue.gif","""event"",""trial"",""time""
""blur"",""0"",""0""
""focus"",""0"",""0""
""fullscreenenter"",""1"",""4128""
","""event"",""trial"",""time""
""blur"",""0"",""0""
","""event"",""trial"",""time""
""focus"",""0"",""0""
","""event"",""trial"",""time""
""fullscreenenter"",""1"",""4128""
","
","","932.2000002861023","","","","practice","2021-06-23 18:09:31.799","img/practice_cards/backs/black.gif","0","100","0","",""
"casino-keyboard-response","55","328682","0.0-18.0","570","true","img/card_backs/set1/red.gif","img/card_backs/set1/yellow.gif","img/card_backs/set1/purple.gif","img/card_backs/set1/green.gif","img/card_backs/set2/pink.gif","img/card_backs/set2/orange.gif","img/card_backs/set2/gray.gif","img/card_backs/set2/blue.gif","""event"",""trial"",""time""
""blur"",""0"",""0""
""focus"",""0"",""0""
""fullscreenenter"",""1"",""4128""
","""event"",""trial"",""time""
""blur"",""0"",""0""
","""event"",""trial"",""time""
""focus"",""0"",""0""
","""event"",""trial"",""time""
""fullscreenenter"",""1"",""4128""
","
","","4764","You earned 200 tokens during the practice round!","82","","","2021-06-23 18:09:36.565","","","","","",""
"casino-keyboard-response","56","333275","0.0-19.0-0.0","570","true","img/card_backs/set1/red.gif","img/card_backs/set1/yellow.gif","img/card_backs/set1/purple.gif","img/card_backs/set1/green.gif","img/card_backs/set2/pink.gif","img/card_backs/set2/orange.gif","img/card_backs/set2/gray.gif","img/card_backs/set2/blue.gif","""event"",""trial"",""time""
""blur"",""0"",""0""
""focus"",""0"",""0""
""fullscreenenter"",""1"",""4128""
","""event"",""trial"",""time""
""blur"",""0"",""0""
","""event"",""trial"",""time""
""focus"",""0"",""0""
","""event"",""trial"",""time""
""fullscreenenter"",""1"",""4128""
","
","","4589.5","Nice job! You are almost ready to play the real game.","86","","instructions","2021-06-23 18:09:41.158","","","","","",""
"casino-keyboard-response","57","340655","0.0-19.0-0.1","570","true","img/card_backs/set1/red.gif","img/card_backs/set1/yellow.gif","img/card_backs/set1/purple.gif","img/card_backs/set1/green.gif","img/card_backs/set2/pink.gif","img/card_backs/set2/orange.gif","img/card_backs/set2/gray.gif","img/card_backs/set2/blue.gif","""event"",""trial"",""time""
""blur"",""0"",""0""
""focus"",""0"",""0""
""fullscreenenter"",""1"",""4128""
","""event"",""trial"",""time""
""blur"",""0"",""0""
","""event"",""trial"",""time""
""focus"",""0"",""0""
","""event"",""trial"",""time""
""fullscreenenter"",""1"",""4128""
","
","","7377.900000095367","You will play two rounds of the real game. In each round, you will pick 100 cards in total.","73","","instructions","2021-06-23 18:09:48.538","","","","","",""
"casino-keyboard-response","58","346542","0.0-19.0-0.2","570","true","img/card_backs/set1/red.gif","img/card_backs/set1/yellow.gif","img/card_backs/set1/purple.gif","img/card_backs/set1/green.gif","img/card_backs/set2/pink.gif","img/card_backs/set2/orange.gif","img/card_backs/set2/gray.gif","img/card_backs/set2/blue.gif","""event"",""trial"",""time""
""blur"",""0"",""0""
""focus"",""0"",""0""
""fullscreenenter"",""1"",""4128""
","""event"",""trial"",""time""
""blur"",""0"",""0""
","""event"",""trial"",""time""
""focus"",""0"",""0""
","""event"",""trial"",""time""
""fullscreenenter"",""1"",""4128""
","
","","5884.099999904633","We are now going to ask you some questions about how the game works.","66","","instructions","2021-06-23 18:09:54.425","","","","","",""
"casino-keyboard-response","59","353194","0.0-19.0-0.3","570","true","img/card_backs/set1/red.gif","img/card_backs/set1/yellow.gif","img/card_backs/set1/purple.gif","img/card_backs/set1/green.gif","img/card_backs/set2/pink.gif","img/card_backs/set2/orange.gif","img/card_backs/set2/gray.gif","img/card_backs/set2/blue.gif","""event"",""trial"",""time""
""blur"",""0"",""0""
""focus"",""0"",""0""
""fullscreenenter"",""1"",""4128""
","""event"",""trial"",""time""
""blur"",""0"",""0""
","""event"",""trial"",""time""
""focus"",""0"",""0""
","""event"",""trial"",""time""
""fullscreenenter"",""1"",""4128""
","
","","6650.300000190735","Answer carefully. You will not be able to begin the game until you answer them correctly.","67","","instructions","2021-06-23 18:10:01.077","","","","","",""
"casino-comp_q","60","362368","0.0-20.0-0.0","570","true","img/card_backs/set1/red.gif","img/card_backs/set1/yellow.gif","img/card_backs/set1/purple.gif","img/card_backs/set1/green.gif","img/card_backs/set2/pink.gif","img/card_backs/set2/orange.gif","img/card_backs/set2/gray.gif","img/card_backs/set2/blue.gif","""event"",""trial"",""time""
""blur"",""0"",""0""
""focus"",""0"",""0""
""fullscreenenter"",""1"",""4128""
","""event"",""trial"",""time""
""blur"",""0"",""0""
","""event"",""trial"",""time""
""focus"",""0"",""0""
","""event"",""trial"",""time""
""fullscreenenter"",""1"",""4128""
","
","","9171.700000286102","True or False: All the decks have some cards that cause you to win tokens and some cards that cause you to lose tokens.","84","","","2021-06-23 18:10:10.252","","","","","",""
"casino-keyboard-response","61","368922","0.0-20.0-1.0","570","true","img/card_backs/set1/red.gif","img/card_backs/set1/yellow.gif","img/card_backs/set1/purple.gif","img/card_backs/set1/green.gif","img/card_backs/set2/pink.gif","img/card_backs/set2/orange.gif","img/card_backs/set2/gray.gif","img/card_backs/set2/blue.gif","""event"",""trial"",""time""
""blur"",""0"",""0""
""focus"",""0"",""0""
""fullscreenenter"",""1"",""4128""
","""event"",""trial"",""time""
""blur"",""0"",""0""
","""event"",""trial"",""time""
""focus"",""0"",""0""
","""event"",""trial"",""time""
""fullscreenenter"",""1"",""4128""
","
","","6551.599999904633","True is correct! All the decks have a mix of winning and losing cards.","77","","","2021-06-23 18:10:16.805","","","","","true",""
"casino-comp_q","62","374812","0.0-21.0-0.0","570","true","img/card_backs/set1/red.gif","img/card_backs/set1/yellow.gif","img/card_backs/set1/purple.gif","img/card_backs/set1/green.gif","img/card_backs/set2/pink.gif","img/card_backs/set2/orange.gif","img/card_backs/set2/gray.gif","img/card_backs/set2/blue.gif","""event"",""trial"",""time""
""blur"",""0"",""0""
""focus"",""0"",""0""
""fullscreenenter"",""1"",""4128""
","""event"",""trial"",""time""
""blur"",""0"",""0""
","""event"",""trial"",""time""
""focus"",""0"",""0""
","""event"",""trial"",""time""
""fullscreenenter"",""1"",""4128""
","
","","5887.5","True or False: You will have as much time as you want to make your response.","70","","","2021-06-23 18:10:22.696","","","","","",""
"casino-keyboard-response","63","378588","0.0-21.0-1.0","570","true","img/card_backs/set1/red.gif","img/card_backs/set1/yellow.gif","img/card_backs/set1/purple.gif","img/card_backs/set1/green.gif","img/card_backs/set2/pink.gif","img/card_backs/set2/orange.gif","img/card_backs/set2/gray.gif","img/card_backs/set2/blue.gif","""event"",""trial"",""time""
""blur"",""0"",""0""
""focus"",""0"",""0""
""fullscreenenter"",""1"",""4128""
","""event"",""trial"",""time""
""blur"",""0"",""0""
","""event"",""trial"",""time""
""focus"",""0"",""0""
","""event"",""trial"",""time""
""fullscreenenter"",""1"",""4128""
","
","","3773","False is correct! You will only have 10 seconds to make each choice.","75","","","2021-06-23 18:10:26.471","","","","","true",""
"casino-comp_q","64","384543","0.0-22.0-0.0","570","true","img/card_backs/set1/red.gif","img/card_backs/set1/yellow.gif","img/card_backs/set1/purple.gif","img/card_backs/set1/green.gif","img/card_backs/set2/pink.gif","img/card_backs/set2/orange.gif","img/card_backs/set2/gray.gif","img/card_backs/set2/blue.gif","""event"",""trial"",""time""
""blur"",""0"",""0""
""focus"",""0"",""0""
""fullscreenenter"",""1"",""4128""
","""event"",""trial"",""time""
""blur"",""0"",""0""
","""event"",""trial"",""time""
""focus"",""0"",""0""
","""event"",""trial"",""time""
""fullscreenenter"",""1"",""4128""
","
","","5953.299999713898","True or False: The location of the deck determines how lucky it is.","70","","","2021-06-23 18:10:32.426","","","","","",""
"casino-keyboard-response","65","389465","0.0-22.0-1.0","570","true","img/card_backs/set1/red.gif","img/card_backs/set1/yellow.gif","img/card_backs/set1/purple.gif","img/card_backs/set1/green.gif","img/card_backs/set2/pink.gif","img/card_backs/set2/orange.gif","img/card_backs/set2/gray.gif","img/card_backs/set2/blue.gif","""event"",""trial"",""time""
""blur"",""0"",""0""
""focus"",""0"",""0""
""fullscreenenter"",""1"",""4128""
","""event"",""trial"",""time""
""blur"",""0"",""0""
","""event"",""trial"",""time""
""focus"",""0"",""0""
","""event"",""trial"",""time""
""fullscreenenter"",""1"",""4128""
","
","","4919.700000286102","False is correct! The <i>color</i>  of the deck determines how lucky or unlucky it is.","68","","","2021-06-23 18:10:37.348","","","","","true",""
"casino-keyboard-response","66","394352","0.0-23.0-0.0","570","true","img/card_backs/set1/red.gif","img/card_backs/set1/yellow.gif","img/card_backs/set1/purple.gif","img/card_backs/set1/green.gif","img/card_backs/set2/pink.gif","img/card_backs/set2/orange.gif","img/card_backs/set2/gray.gif","img/card_backs/set2/blue.gif","""event"",""trial"",""time""
""blur"",""0"",""0""
""focus"",""0"",""0""
""fullscreenenter"",""1"",""4128""
","""event"",""trial"",""time""
""blur"",""0"",""0""
","""event"",""trial"",""time""
""focus"",""0"",""0""
","""event"",""trial"",""time""
""fullscreenenter"",""1"",""4128""
","
","","4884.299999713898","Great job! Now it's time to start the real game.","82","","instructions","2021-06-23 18:10:42.235","","","","","",""
"casino-keyboard-response","67","399782","0.0-23.0-0.1","570","true","img/card_backs/set1/red.gif","img/card_backs/set1/yellow.gif","img/card_backs/set1/purple.gif","img/card_backs/set1/green.gif","img/card_backs/set2/pink.gif","img/card_backs/set2/orange.gif","img/card_backs/set2/gray.gif","img/card_backs/set2/blue.gif","""event"",""trial"",""time""
""blur"",""0"",""0""
""focus"",""0"",""0""
""fullscreenenter"",""1"",""4128""
","""event"",""trial"",""time""
""blur"",""0"",""0""
","""event"",""trial"",""time""
""focus"",""0"",""0""
","""event"",""trial"",""time""
""fullscreenenter"",""1"",""4128""
","
","","5428","Before we start, we're going to head into a new room of the casino.","86","","instructions","2021-06-23 18:10:47.665","","","","","",""
"casino-keyboard-response","68","406479","0.0-24.0-0.0","570","true","img/card_backs/set1/red.gif","img/card_backs/set1/yellow.gif","img/card_backs/set1/purple.gif","img/card_backs/set1/green.gif","img/card_backs/set2/pink.gif","img/card_backs/set2/orange.gif","img/card_backs/set2/gray.gif","img/card_backs/set2/blue.gif","""event"",""trial"",""time""
""blur"",""0"",""0""
""focus"",""0"",""0""
""fullscreenenter"",""1"",""4128""
","""event"",""trial"",""time""
""blur"",""0"",""0""
","""event"",""trial"",""time""
""focus"",""0"",""0""
","""event"",""trial"",""time""
""fullscreenenter"",""1"",""4128""
","
","","6694.799999713898","Here we are! The real game will use different cards, but the rules will be the same.","71","","instructions","2021-06-23 18:10:54.362","","","","","",""
"casino-keyboard-response","69","415793","0.0-24.0-0.1","570","true","img/card_backs/set1/red.gif","img/card_backs/set1/yellow.gif","img/card_backs/set1/purple.gif","img/card_backs/set1/green.gif","img/card_backs/set2/pink.gif","img/card_backs/set2/orange.gif","img/card_backs/set2/gray.gif","img/card_backs/set2/blue.gif","""event"",""trial"",""time""
""blur"",""0"",""0""
""focus"",""0"",""0""
""fullscreenenter"",""1"",""4128""
","""event"",""trial"",""time""
""blur"",""0"",""0""
","""event"",""trial"",""time""
""focus"",""0"",""0""
","""event"",""trial"",""time""
""fullscreenenter"",""1"",""4128""
","
","","9313.300000190735","Ready? Put your fingers over the '2', '4', 6', and '8' keys so you are ready to play the game. </br> Then press 2 to start.","50","","instructions","2021-06-23 18:11:03.676","","","","","",""
"casino-fixation","70","416302","0.0-25.0-0.0","570","true","img/card_backs/set1/red.gif","img/card_backs/set1/yellow.gif","img/card_backs/set1/purple.gif","img/card_backs/set1/green.gif","img/card_backs/set2/pink.gif","img/card_backs/set2/orange.gif","img/card_backs/set2/gray.gif","img/card_backs/set2/blue.gif","""event"",""trial"",""time""
""blur"",""0"",""0""
""focus"",""0"",""0""
""fullscreenenter"",""1"",""4128""
","""event"",""trial"",""time""
""blur"",""0"",""0""
","""event"",""trial"",""time""
""focus"",""0"",""0""
","""event"",""trial"",""time""
""fullscreenenter"",""1"",""4128""
","
","","null","","null","","fixation","2021-06-23 18:11:04.185","","","","","",""
"card-selection-trial","71","419187","0.0-25.0-1.0","570","true","img/card_backs/set1/red.gif","img/card_backs/set1/yellow.gif","img/card_backs/set1/purple.gif","img/card_backs/set1/green.gif","img/card_backs/set2/pink.gif","img/card_backs/set2/orange.gif","img/card_backs/set2/gray.gif","img/card_backs/set2/blue.gif","""event"",""trial"",""time""
""blur"",""0"",""0""
""focus"",""0"",""0""
""fullscreenenter"",""1"",""4128""
","""event"",""trial"",""time""
""blur"",""0"",""0""
","""event"",""trial"",""time""
""focus"",""0"",""0""
","""event"",""trial"",""time""
""fullscreenenter"",""1"",""4128""
","
","","873.5999999046326","","","","real_trial","2021-06-23 18:11:07.070","img/card_backs/set1/yellow.gif","1","250","1","",""
"casino-fixation","72","419697","0.0-25.0-0.1","570","true","img/card_backs/set1/red.gif","img/card_backs/set1/yellow.gif","img/card_backs/set1/purple.gif","img/card_backs/set1/green.gif","img/card_backs/set2/pink.gif","img/card_backs/set2/orange.gif","img/card_backs/set2/gray.gif","img/card_backs/set2/blue.gif","""event"",""trial"",""time""
""blur"",""0"",""0""
""focus"",""0"",""0""
""fullscreenenter"",""1"",""4128""
","""event"",""trial"",""time""
""blur"",""0"",""0""
","""event"",""trial"",""time""
""focus"",""0"",""0""
","""event"",""trial"",""time""
""fullscreenenter"",""1"",""4128""
","
","","null","","null","","fixation","2021-06-23 18:11:07.580","","","","","",""
"card-selection-trial","73","422127","0.0-25.0-1.1","570","true","img/card_backs/set1/red.gif","img/card_backs/set1/yellow.gif","img/card_backs/set1/purple.gif","img/card_backs/set1/green.gif","img/card_backs/set2/pink.gif","img/card_backs/set2/orange.gif","img/card_backs/set2/gray.gif","img/card_backs/set2/blue.gif","""event"",""trial"",""time""
""blur"",""0"",""0""
""focus"",""0"",""0""
""fullscreenenter"",""1"",""4128""
","""event"",""trial"",""time""
""blur"",""0"",""0""
","""event"",""trial"",""time""
""focus"",""0"",""0""
","""event"",""trial"",""time""
""fullscreenenter"",""1"",""4128""
","
","","411.5","","","","real_trial","2021-06-23 18:11:10.010","img/card_backs/set1/green.gif","0","-100","1","",""
"casino-fixation","74","422630","0.0-25.0-0.2","570","true","img/card_backs/set1/red.gif","img/card_backs/set1/yellow.gif","img/card_backs/set1/purple.gif","img/card_backs/set1/green.gif","img/card_backs/set2/pink.gif","img/card_backs/set2/orange.gif","img/card_backs/set2/gray.gif","img/card_backs/set2/blue.gif","""event"",""trial"",""time""
""blur"",""0"",""0""
""focus"",""0"",""0""
""fullscreenenter"",""1"",""4128""
","""event"",""trial"",""time""
""blur"",""0"",""0""
","""event"",""trial"",""time""
""focus"",""0"",""0""
","""event"",""trial"",""time""
""fullscreenenter"",""1"",""4128""
","
","","null","","null","","fixation","2021-06-23 18:11:10.513","","","","","",""
"card-selection-trial","75","425027","0.0-25.0-1.2","570","true","img/card_backs/set1/red.gif","img/card_backs/set1/yellow.gif","img/card_backs/set1/purple.gif","img/card_backs/set1/green.gif","img/card_backs/set2/pink.gif","img/card_backs/set2/orange.gif","img/card_backs/set2/gray.gif","img/card_backs/set2/blue.gif","""event"",""trial"",""time""
""blur"",""0"",""0""
""focus"",""0"",""0""
""fullscreenenter"",""1"",""4128""
","""event"",""trial"",""time""
""blur"",""0"",""0""
","""event"",""trial"",""time""
""focus"",""0"",""0""
","""event"",""trial"",""time""
""fullscreenenter"",""1"",""4128""
","
","","378.6000003814697","","","","real_trial","2021-06-23 18:11:12.910","img/card_backs/set1/purple.gif","2","-110","1","",""
"casino-fixation","76","425530","0.0-25.0-0.3","570","true","img/card_backs/set1/red.gif","img/card_backs/set1/yellow.gif","img/card_backs/set1/purple.gif","img/card_backs/set1/green.gif","img/card_backs/set2/pink.gif","img/card_backs/set2/orange.gif","img/card_backs/set2/gray.gif","img/card_backs/set2/blue.gif","""event"",""trial"",""time""
""blur"",""0"",""0""
""focus"",""0"",""0""
""fullscreenenter"",""1"",""4128""
","""event"",""trial"",""time""
""blur"",""0"",""0""
","""event"",""trial"",""time""
""focus"",""0"",""0""
","""event"",""trial"",""time""
""fullscreenenter"",""1"",""4128""
","
","","null","","null","","fixation","2021-06-23 18:11:13.413","","","","","",""
"card-selection-trial","77","428068","0.0-25.0-1.3","570","true","img/card_backs/set1/red.gif","img/card_backs/set1/yellow.gif","img/card_backs/set1/purple.gif","img/card_backs/set1/green.gif","img/card_backs/set2/pink.gif","img/card_backs/set2/orange.gif","img/card_backs/set2/gray.gif","img/card_backs/set2/blue.gif","""event"",""trial"",""time""
""blur"",""0"",""0""
""focus"",""0"",""0""
""fullscreenenter"",""1"",""4128""
","""event"",""trial"",""time""
""blur"",""0"",""0""
","""event"",""trial"",""time""
""focus"",""0"",""0""
","""event"",""trial"",""time""
""fullscreenenter"",""1"",""4128""
","
","","524.8000001907349","","","","real_trial","2021-06-23 18:11:15.951","img/card_backs/set1/green.gif","1","-100","1","",""
"casino-fixation","78","428573","0.0-25.0-0.4","570","true","img/card_backs/set1/red.gif","img/card_backs/set1/yellow.gif","img/card_backs/set1/purple.gif","img/card_backs/set1/green.gif","img/card_backs/set2/pink.gif","img/card_backs/set2/orange.gif","img/card_backs/set2/gray.gif","img/card_backs/set2/blue.gif","""event"",""trial"",""time""
""blur"",""0"",""0""
""focus"",""0"",""0""
""fullscreenenter"",""1"",""4128""
","""event"",""trial"",""time""
""blur"",""0"",""0""
","""event"",""trial"",""time""
""focus"",""0"",""0""
","""event"",""trial"",""time""
""fullscreenenter"",""1"",""4128""
","
","","null","","null","","fixation","2021-06-23 18:11:16.456","","","","","",""
"card-selection-trial","79","430851","0.0-25.0-1.4","570","true","img/card_backs/set1/red.gif","img/card_backs/set1/yellow.gif","img/card_backs/set1/purple.gif","img/card_backs/set1/green.gif","img/card_backs/set2/pink.gif","img/card_backs/set2/orange.gif","img/card_backs/set2/gray.gif","img/card_backs/set2/blue.gif","""event"",""trial"",""time""
""blur"",""0"",""0""
""focus"",""0"",""0""
""fullscreenenter"",""1"",""4128""
","""event"",""trial"",""time""
""blur"",""0"",""0""
","""event"",""trial"",""time""
""focus"",""0"",""0""
","""event"",""trial"",""time""
""fullscreenenter"",""1"",""4128""
","
","","265.5","","","","real_trial","2021-06-23 18:11:18.734","img/card_backs/set1/red.gif","1","-210","1","",""
"casino-fixation","80","431354","0.0-25.0-0.5","570","true","img/card_backs/set1/red.gif","img/card_backs/set1/yellow.gif","img/card_backs/set1/purple.gif","img/card_backs/set1/green.gif","img/card_backs/set2/pink.gif","img/card_backs/set2/orange.gif","img/card_backs/set2/gray.gif","img/card_backs/set2/blue.gif","""event"",""trial"",""time""
""blur"",""0"",""0""
""focus"",""0"",""0""
""fullscreenenter"",""1"",""4128""
","""event"",""trial"",""time""
""blur"",""0"",""0""
","""event"",""trial"",""time""
""focus"",""0"",""0""
","""event"",""trial"",""time""
""fullscreenenter"",""1"",""4128""
","
","","null","","null","","fixation","2021-06-23 18:11:19.237","","","","","",""
"card-selection-trial","81","434192","0.0-25.0-1.5","570","true","img/card_backs/set1/red.gif","img/card_backs/set1/yellow.gif","img/card_backs/set1/purple.gif","img/card_backs/set1/green.gif","img/card_backs/set2/pink.gif","img/card_backs/set2/orange.gif","img/card_backs/set2/gray.gif","img/card_backs/set2/blue.gif","""event"",""trial"",""time""
""blur"",""0"",""0""
""focus"",""0"",""0""
""fullscreenenter"",""1"",""4128""
","""event"",""trial"",""time""
""blur"",""0"",""0""
","""event"",""trial"",""time""
""focus"",""0"",""0""
","""event"",""trial"",""time""
""fullscreenenter"",""1"",""4128""
","
","","821.7000002861023","","","","real_trial","2021-06-23 18:11:22.075","img/card_backs/set1/green.gif","3","-90","1","",""
"casino-fixation","82","434697","0.0-25.0-0.6","570","true","img/card_backs/set1/red.gif","img/card_backs/set1/yellow.gif","img/card_backs/set1/purple.gif","img/card_backs/set1/green.gif","img/card_backs/set2/pink.gif","img/card_backs/set2/orange.gif","img/card_backs/set2/gray.gif","img/card_backs/set2/blue.gif","""event"",""trial"",""time""
""blur"",""0"",""0""
""focus"",""0"",""0""
""fullscreenenter"",""1"",""4128""
","""event"",""trial"",""time""
""blur"",""0"",""0""
","""event"",""trial"",""time""
""focus"",""0"",""0""
","""event"",""trial"",""time""
""fullscreenenter"",""1"",""4128""
","
","","null","","null","","fixation","2021-06-23 18:11:22.580","","","","","",""
"card-selection-trial","83","437334","0.0-25.0-1.6","570","true","img/card_backs/set1/red.gif","img/card_backs/set1/yellow.gif","img/card_backs/set1/purple.gif","img/card_backs/set1/green.gif","img/card_backs/set2/pink.gif","img/card_backs/set2/orange.gif","img/card_backs/set2/gray.gif","img/card_backs/set2/blue.gif","""event"",""trial"",""time""
""blur"",""0"",""0""
""focus"",""0"",""0""
""fullscreenenter"",""1"",""4128""
","""event"",""trial"",""time""
""blur"",""0"",""0""
","""event"",""trial"",""time""
""focus"",""0"",""0""
","""event"",""trial"",""time""
""fullscreenenter"",""1"",""4128""
","
","","628.6999998092651","","","","real_trial","2021-06-23 18:11:25.217","img/card_backs/set1/yellow.gif","0","240","1","",""
"casino-fixation","84","437838","0.0-25.0-0.7","570","true","img/card_backs/set1/red.gif","img/card_backs/set1/yellow.gif","img/card_backs/set1/purple.gif","img/card_backs/set1/green.gif","img/card_backs/set2/pink.gif","img/card_backs/set2/orange.gif","img/card_backs/set2/gray.gif","img/card_backs/set2/blue.gif","""event"",""trial"",""time""
""blur"",""0"",""0""
""focus"",""0"",""0""
""fullscreenenter"",""1"",""4128""
","""event"",""trial"",""time""
""blur"",""0"",""0""
","""event"",""trial"",""time""
""focus"",""0"",""0""
","""event"",""trial"",""time""
""fullscreenenter"",""1"",""4128""
","
","","null","","null","","fixation","2021-06-23 18:11:25.722","","","","","",""
"card-selection-trial","85","440777","0.0-25.0-1.7","570","true","img/card_backs/set1/red.gif","img/card_backs/set1/yellow.gif","img/card_backs/set1/purple.gif","img/card_backs/set1/green.gif","img/card_backs/set2/pink.gif","img/card_backs/set2/orange.gif","img/card_backs/set2/gray.gif","img/card_backs/set2/blue.gif","""event"",""trial"",""time""
""blur"",""0"",""0""
""focus"",""0"",""0""
""fullscreenenter"",""1"",""4128""
","""event"",""trial"",""time""
""blur"",""0"",""0""
","""event"",""trial"",""time""
""focus"",""0"",""0""
","""event"",""trial"",""time""
""fullscreenenter"",""1"",""4128""
","
","","922","","","","real_trial","2021-06-23 18:11:28.660","img/card_backs/set1/yellow.gif","3","-190","1","",""
"casino-fixation","86","441280","0.0-25.0-0.8","570","true","img/card_backs/set1/red.gif","img/card_backs/set1/yellow.gif","img/card_backs/set1/purple.gif","img/card_backs/set1/green.gif","img/card_backs/set2/pink.gif","img/card_backs/set2/orange.gif","img/card_backs/set2/gray.gif","img/card_backs/set2/blue.gif","""event"",""trial"",""time""
""blur"",""0"",""0""
""focus"",""0"",""0""
""fullscreenenter"",""1"",""4128""
","""event"",""trial"",""time""
""blur"",""0"",""0""
","""event"",""trial"",""time""
""focus"",""0"",""0""
","""event"",""trial"",""time""
""fullscreenenter"",""1"",""4128""
","
","","null","","null","","fixation","2021-06-23 18:11:29.163","","","","","",""
"card-selection-trial","87","443744","0.0-25.0-1.8","570","true","img/card_backs/set1/red.gif","img/card_backs/set1/yellow.gif","img/card_backs/set1/purple.gif","img/card_backs/set1/green.gif","img/card_backs/set2/pink.gif","img/card_backs/set2/orange.gif","img/card_backs/set2/gray.gif","img/card_backs/set2/blue.gif","""event"",""trial"",""time""
""blur"",""0"",""0""
""focus"",""0"",""0""
""fullscreenenter"",""1"",""4128""
","""event"",""trial"",""time""
""blur"",""0"",""0""
","""event"",""trial"",""time""
""focus"",""0"",""0""
","""event"",""trial"",""time""
""fullscreenenter"",""1"",""4128""
","
","","455.19999980926514","","","","real_trial","2021-06-23 18:11:31.627","img/card_backs/set1/green.gif","1","40","1","",""
"casino-fixation","88","444256","0.0-25.0-0.9","570","true","img/card_backs/set1/red.gif","img/card_backs/set1/yellow.gif","img/card_backs/set1/purple.gif","img/card_backs/set1/green.gif","img/card_backs/set2/pink.gif","img/card_backs/set2/orange.gif","img/card_backs/set2/gray.gif","img/card_backs/set2/blue.gif","""event"",""trial"",""time""
""blur"",""0"",""0""
""focus"",""0"",""0""
""fullscreenenter"",""1"",""4128""
","""event"",""trial"",""time""
""blur"",""0"",""0""
","""event"",""trial"",""time""
""focus"",""0"",""0""
","""event"",""trial"",""time""
""fullscreenenter"",""1"",""4128""
","
","","null","","null","","fixation","2021-06-23 18:11:32.139","","","","","",""
"card-selection-trial","89","447032","0.0-25.0-1.9","570","true","img/card_backs/set1/red.gif","img/card_backs/set1/yellow.gif","img/card_backs/set1/purple.gif","img/card_backs/set1/green.gif","img/card_backs/set2/pink.gif","img/card_backs/set2/orange.gif","img/card_backs/set2/gray.gif","img/card_backs/set2/blue.gif","""event"",""trial"",""time""
""blur"",""0"",""0""
""focus"",""0"",""0""
""fullscreenenter"",""1"",""4128""
","""event"",""trial"",""time""
""blur"",""0"",""0""
","""event"",""trial"",""time""
""focus"",""0"",""0""
","""event"",""trial"",""time""
""fullscreenenter"",""1"",""4128""
","
","","768.8000001907349","","","","real_trial","2021-06-23 18:11:34.915","img/card_backs/set1/green.gif","1","50","1","",""
"casino-fixation","90","447537","0.0-25.0-0.10","570","true","img/card_backs/set1/red.gif","img/card_backs/set1/yellow.gif","img/card_backs/set1/purple.gif","img/card_backs/set1/green.gif","img/card_backs/set2/pink.gif","img/card_backs/set2/orange.gif","img/card_backs/set2/gray.gif","img/card_backs/set2/blue.gif","""event"",""trial"",""time""
""blur"",""0"",""0""
""focus"",""0"",""0""
""fullscreenenter"",""1"",""4128""
","""event"",""trial"",""time""
""blur"",""0"",""0""
","""event"",""trial"",""time""
""focus"",""0"",""0""
","""event"",""trial"",""time""
""fullscreenenter"",""1"",""4128""
","
","","null","","null","","fixation","2021-06-23 18:11:35.420","","","","","",""
"card-selection-trial","91","449825","0.0-25.0-1.10","570","true","img/card_backs/set1/red.gif","img/card_backs/set1/yellow.gif","img/card_backs/set1/purple.gif","img/card_backs/set1/green.gif","img/card_backs/set2/pink.gif","img/card_backs/set2/orange.gif","img/card_backs/set2/gray.gif","img/card_backs/set2/blue.gif","""event"",""trial"",""time""
""blur"",""0"",""0""
""focus"",""0"",""0""
""fullscreenenter"",""1"",""4128""
","""event"",""trial"",""time""
""blur"",""0"",""0""
","""event"",""trial"",""time""
""focus"",""0"",""0""
","""event"",""trial"",""time""
""fullscreenenter"",""1"",""4128""
","
","","281.2000002861023","","","","real_trial","2021-06-23 18:11:37.708","img/card_backs/set1/green.gif","0","60","1","",""
"casino-fixation","92","450329","0.0-25.0-0.11","570","true","img/card_backs/set1/red.gif","img/card_backs/set1/yellow.gif","img/card_backs/set1/purple.gif","img/card_backs/set1/green.gif","img/card_backs/set2/pink.gif","img/card_backs/set2/orange.gif","img/card_backs/set2/gray.gif","img/card_backs/set2/blue.gif","""event"",""trial"",""time""
""blur"",""0"",""0""
""focus"",""0"",""0""
""fullscreenenter"",""1"",""4128""
","""event"",""trial"",""time""
""blur"",""0"",""0""
","""event"",""trial"",""time""
""focus"",""0"",""0""
","""event"",""trial"",""time""
""fullscreenenter"",""1"",""4128""
","
","","null","","null","","fixation","2021-06-23 18:11:38.212","","","","","",""
"card-selection-trial","93","452662","0.0-25.0-1.11","570","true","img/card_backs/set1/red.gif","img/card_backs/set1/yellow.gif","img/card_backs/set1/purple.gif","img/card_backs/set1/green.gif","img/card_backs/set2/pink.gif","img/card_backs/set2/orange.gif","img/card_backs/set2/gray.gif","img/card_backs/set2/blue.gif","""event"",""trial"",""time""
""blur"",""0"",""0""
""focus"",""0"",""0""
""fullscreenenter"",""1"",""4128""
","""event"",""trial"",""time""
""blur"",""0"",""0""
","""event"",""trial"",""time""
""focus"",""0"",""0""
","""event"",""trial"",""time""
""fullscreenenter"",""1"",""4128""
","
","","327.7999997138977","","","","real_trial","2021-06-23 18:11:40.546","img/card_backs/set1/red.gif","3","-200","1","",""
"casino-fixation","94","453166","0.0-25.0-0.12","570","true","img/card_backs/set1/red.gif","img/card_backs/set1/yellow.gif","img/card_backs/set1/purple.gif","img/card_backs/set1/green.gif","img/card_backs/set2/pink.gif","img/card_backs/set2/orange.gif","img/card_backs/set2/gray.gif","img/card_backs/set2/blue.gif","""event"",""trial"",""time""
""blur"",""0"",""0""
""focus"",""0"",""0""
""fullscreenenter"",""1"",""4128""
","""event"",""trial"",""time""
""blur"",""0"",""0""
","""event"",""trial"",""time""
""focus"",""0"",""0""
","""event"",""trial"",""time""
""fullscreenenter"",""1"",""4128""
","
","","null","","null","","fixation","2021-06-23 18:11:41.049","","","","","",""
"card-selection-trial","95","455226","0.0-25.0-1.12","570","true","img/card_backs/set1/red.gif","img/card_backs/set1/yellow.gif","img/card_backs/set1/purple.gif","img/card_backs/set1/green.gif","img/card_backs/set2/pink.gif","img/card_backs/set2/orange.gif","img/card_backs/set2/gray.gif","img/card_backs/set2/blue.gif","""event"",""trial"",""time""
""blur"",""0"",""0""
""focus"",""0"",""0""
""fullscreenenter"",""1"",""4128""
","""event"",""trial"",""time""
""blur"",""0"",""0""
","""event"",""trial"",""time""
""focus"",""0"",""0""
","""event"",""trial"",""time""
""fullscreenenter"",""1"",""4128""
","
","","54.5","","","","real_trial","2021-06-23 18:11:43.109","img/card_backs/set1/yellow.gif","2","260","1","",""
"casino-fixation","96","455729","0.0-25.0-0.13","570","true","img/card_backs/set1/red.gif","img/card_backs/set1/yellow.gif","img/card_backs/set1/purple.gif","img/card_backs/set1/green.gif","img/card_backs/set2/pink.gif","img/card_backs/set2/orange.gif","img/card_backs/set2/gray.gif","img/card_backs/set2/blue.gif","""event"",""trial"",""time""
""blur"",""0"",""0""
""focus"",""0"",""0""
""fullscreenenter"",""1"",""4128""
","""event"",""trial"",""time""
""blur"",""0"",""0""
","""event"",""trial"",""time""
""focus"",""0"",""0""
","""event"",""trial"",""time""
""fullscreenenter"",""1"",""4128""
","
","","null","","null","","fixation","2021-06-23 18:11:43.612","","","","","",""
"card-selection-trial","97","458033","0.0-25.0-1.13","570","true","img/card_backs/set1/red.gif","img/card_backs/set1/yellow.gif","img/card_backs/set1/purple.gif","img/card_backs/set1/green.gif","img/card_backs/set2/pink.gif","img/card_backs/set2/orange.gif","img/card_backs/set2/gray.gif","img/card_backs/set2/blue.gif","""event"",""trial"",""time""
""blur"",""0"",""0""
""focus"",""0"",""0""
""fullscreenenter"",""1"",""4128""
","""event"",""trial"",""time""
""blur"",""0"",""0""
","""event"",""trial"",""time""
""focus"",""0"",""0""
","""event"",""trial"",""time""
""fullscreenenter"",""1"",""4128""
","
","","288.30000019073486","","","","real_trial","2021-06-23 18:11:45.916","img/card_backs/set1/red.gif","2","250","1","",""
"casino-fixation","98","458536","0.0-25.0-0.14","570","true","img/card_backs/set1/red.gif","img/card_backs/set1/yellow.gif","img/card_backs/set1/purple.gif","img/card_backs/set1/green.gif","img/card_backs/set2/pink.gif","img/card_backs/set2/orange.gif","img/card_backs/set2/gray.gif","img/card_backs/set2/blue.gif","""event"",""trial"",""time""
""blur"",""0"",""0""
""focus"",""0"",""0""
""fullscreenenter"",""1"",""4128""
","""event"",""trial"",""time""
""blur"",""0"",""0""
","""event"",""trial"",""time""
""focus"",""0"",""0""
","""event"",""trial"",""time""
""fullscreenenter"",""1"",""4128""
","
","","null","","null","","fixation","2021-06-23 18:11:46.419","","","","","",""
"card-selection-trial","99","461036","0.0-25.0-1.14","570","true","img/card_backs/set1/red.gif","img/card_backs/set1/yellow.gif","img/card_backs/set1/purple.gif","img/card_backs/set1/green.gif","img/card_backs/set2/pink.gif","img/card_backs/set2/orange.gif","img/card_backs/set2/gray.gif","img/card_backs/set2/blue.gif","""event"",""trial"",""time""
""blur"",""0"",""0""
""focus"",""0"",""0""
""fullscreenenter"",""1"",""4128""
","""event"",""trial"",""time""
""blur"",""0"",""0""
","""event"",""trial"",""time""
""focus"",""0"",""0""
","""event"",""trial"",""time""
""fullscreenenter"",""1"",""4128""
","
","","494.5","","","","real_trial","2021-06-23 18:11:48.919","img/card_backs/set1/yellow.gif","0","-200","1","",""
"casino-fixation","100","461539","0.0-25.0-0.15","570","true","img/card_backs/set1/red.gif","img/card_backs/set1/yellow.gif","img/card_backs/set1/purple.gif","img/card_backs/set1/green.gif","img/card_backs/set2/pink.gif","img/card_backs/set2/orange.gif","img/card_backs/set2/gray.gif","img/card_backs/set2/blue.gif","""event"",""trial"",""time""
""blur"",""0"",""0""
""focus"",""0"",""0""
""fullscreenenter"",""1"",""4128""
","""event"",""trial"",""time""
""blur"",""0"",""0""
","""event"",""trial"",""time""
""focus"",""0"",""0""
","""event"",""trial"",""time""
""fullscreenenter"",""1"",""4128""
","
","","null","","null","","fixation","2021-06-23 18:11:49.422","","","","","",""
"card-selection-trial","101","463841","0.0-25.0-1.15","570","true","img/card_backs/set1/red.gif","img/card_backs/set1/yellow.gif","img/card_backs/set1/purple.gif","img/card_backs/set1/green.gif","img/card_backs/set2/pink.gif","img/card_backs/set2/orange.gif","img/card_backs/set2/gray.gif","img/card_backs/set2/blue.gif","""event"",""trial"",""time""
""blur"",""0"",""0""
""focus"",""0"",""0""
""fullscreenenter"",""1"",""4128""
","""event"",""trial"",""time""
""blur"",""0"",""0""
","""event"",""trial"",""time""
""focus"",""0"",""0""
","""event"",""trial"",""time""
""fullscreenenter"",""1"",""4128""
","
","","295.90000009536743","","","","real_trial","2021-06-23 18:11:51.724","img/card_backs/set1/green.gif","1","50","1","",""
"casino-fixation","102","464345","0.0-25.0-0.16","570","true","img/card_backs/set1/red.gif","img/card_backs/set1/yellow.gif","img/card_backs/set1/purple.gif","img/card_backs/set1/green.gif","img/card_backs/set2/pink.gif","img/card_backs/set2/orange.gif","img/card_backs/set2/gray.gif","img/card_backs/set2/blue.gif","""event"",""trial"",""time""
""blur"",""0"",""0""
""focus"",""0"",""0""
""fullscreenenter"",""1"",""4128""
","""event"",""trial"",""time""
""blur"",""0"",""0""
","""event"",""trial"",""time""
""focus"",""0"",""0""
","""event"",""trial"",""time""
""fullscreenenter"",""1"",""4128""
","
","","null","","null","","fixation","2021-06-23 18:11:52.228","","","","","",""
"card-selection-trial","103","466740","0.0-25.0-1.16","570","true","img/card_backs/set1/red.gif","img/card_backs/set1/yellow.gif","img/card_backs/set1/purple.gif","img/card_backs/set1/green.gif","img/card_backs/set2/pink.gif","img/card_backs/set2/orange.gif","img/card_backs/set2/gray.gif","img/card_backs/set2/blue.gif","""event"",""trial"",""time""
""blur"",""0"",""0""
""focus"",""0"",""0""
""fullscreenenter"",""1"",""4128""
","""event"",""trial"",""time""
""blur"",""0"",""0""
","""event"",""trial"",""time""
""focus"",""0"",""0""
","""event"",""trial"",""time""
""fullscreenenter"",""1"",""4128""
","
","","389.40000009536743","","","","real_trial","2021-06-23 18:11:54.623","img/card_backs/set1/red.gif","2","260","1","",""
"casino-fixation","104","467243","0.0-25.0-0.17","570","true","img/card_backs/set1/red.gif","img/card_backs/set1/yellow.gif","img/card_backs/set1/purple.gif","img/card_backs/set1/green.gif","img/card_backs/set2/pink.gif","img/card_backs/set2/orange.gif","img/card_backs/set2/gray.gif","img/card_backs/set2/blue.gif","""event"",""trial"",""time""
""blur"",""0"",""0""
""focus"",""0"",""0""
""fullscreenenter"",""1"",""4128""
","""event"",""trial"",""time""
""blur"",""0"",""0""
","""event"",""trial"",""time""
""focus"",""0"",""0""
","""event"",""trial"",""time""
""fullscreenenter"",""1"",""4128""
","
","","null","","null","","fixation","2021-06-23 18:11:55.126","","","","","",""
"card-selection-trial","105","469582","0.0-25.0-1.17","570","true","img/card_backs/set1/red.gif","img/card_backs/set1/yellow.gif","img/card_backs/set1/purple.gif","img/card_backs/set1/green.gif","img/card_backs/set2/pink.gif","img/card_backs/set2/orange.gif","img/card_backs/set2/gray.gif","img/card_backs/set2/blue.gif","""event"",""trial"",""time""
""blur"",""0"",""0""
""focus"",""0"",""0""
""fullscreenenter"",""1"",""4128""
","""event"",""trial"",""time""
""blur"",""0"",""0""
","""event"",""trial"",""time""
""focus"",""0"",""0""
","""event"",""trial"",""time""
""fullscreenenter"",""1"",""4128""
","
","","327.30000019073486","","","","real_trial","2021-06-23 18:11:57.465","img/card_backs/set1/green.gif","3","50","1","",""
"casino-fixation","106","470091","0.0-25.0-0.18","570","true","img/card_backs/set1/red.gif","img/card_backs/set1/yellow.gif","img/card_backs/set1/purple.gif","img/card_backs/set1/green.gif","img/card_backs/set2/pink.gif","img/card_backs/set2/orange.gif","img/card_backs/set2/gray.gif","img/card_backs/set2/blue.gif","""event"",""trial"",""time""
""blur"",""0"",""0""
""focus"",""0"",""0""
""fullscreenenter"",""1"",""4128""
","""event"",""trial"",""time""
""blur"",""0"",""0""
","""event"",""trial"",""time""
""focus"",""0"",""0""
","""event"",""trial"",""time""
""fullscreenenter"",""1"",""4128""
","
","","null","","null","","fixation","2021-06-23 18:11:57.974","","","","","",""
"card-selection-trial","107","472457","0.0-25.0-1.18","570","true","img/card_backs/set1/red.gif","img/card_backs/set1/yellow.gif","img/card_backs/set1/purple.gif","img/card_backs/set1/green.gif","img/card_backs/set2/pink.gif","img/card_backs/set2/orange.gif","img/card_backs/set2/gray.gif","img/card_backs/set2/blue.gif","""event"",""trial"",""time""
""blur"",""0"",""0""
""focus"",""0"",""0""
""fullscreenenter"",""1"",""4128""
","""event"",""trial"",""time""
""blur"",""0"",""0""
","""event"",""trial"",""time""
""focus"",""0"",""0""
","""event"",""trial"",""time""
""fullscreenenter"",""1"",""4128""
","
","","348.30000019073486","","","","real_trial","2021-06-23 18:12:00.340","img/card_backs/set1/green.gif","1","50","1","",""
"casino-fixation","108","472961","0.0-25.0-0.19","570","true","img/card_backs/set1/red.gif","img/card_backs/set1/yellow.gif","img/card_backs/set1/purple.gif","img/card_backs/set1/green.gif","img/card_backs/set2/pink.gif","img/card_backs/set2/orange.gif","img/card_backs/set2/gray.gif","img/card_backs/set2/blue.gif","""event"",""trial"",""time""
""blur"",""0"",""0""
""focus"",""0"",""0""
""fullscreenenter"",""1"",""4128""
","""event"",""trial"",""time""
""blur"",""0"",""0""
","""event"",""trial"",""time""
""focus"",""0"",""0""
","""event"",""trial"",""time""
""fullscreenenter"",""1"",""4128""
","
","","null","","null","","fixation","2021-06-23 18:12:00.844","","","","","",""
"card-selection-trial","109","475363","0.0-25.0-1.19","570","true","img/card_backs/set1/red.gif","img/card_backs/set1/yellow.gif","img/card_backs/set1/purple.gif","img/card_backs/set1/green.gif","img/card_backs/set2/pink.gif","img/card_backs/set2/orange.gif","img/card_backs/set2/gray.gif","img/card_backs/set2/blue.gif","""event"",""trial"",""time""
""blur"",""0"",""0""
""focus"",""0"",""0""
""fullscreenenter"",""1"",""4128""
","""event"",""trial"",""time""
""blur"",""0"",""0""
","""event"",""trial"",""time""
""focus"",""0"",""0""
","""event"",""trial"",""time""
""fullscreenenter"",""1"",""4128""
","
","","396.69999980926514","","","","real_trial","2021-06-23 18:12:03.247","img/card_backs/set1/red.gif","2","-210","1","",""
"casino-fixation","110","475870","0.0-25.0-0.20","570","true","img/card_backs/set1/red.gif","img/card_backs/set1/yellow.gif","img/card_backs/set1/purple.gif","img/card_backs/set1/green.gif","img/card_backs/set2/pink.gif","img/card_backs/set2/orange.gif","img/card_backs/set2/gray.gif","img/card_backs/set2/blue.gif","""event"",""trial"",""time""
""blur"",""0"",""0""
""focus"",""0"",""0""
""fullscreenenter"",""1"",""4128""
","""event"",""trial"",""time""
""blur"",""0"",""0""
","""event"",""trial"",""time""
""focus"",""0"",""0""
","""event"",""trial"",""time""
""fullscreenenter"",""1"",""4128""
","
","","null","","null","","fixation","2021-06-23 18:12:03.753","","","","","",""
"card-selection-trial","111","477902","0.0-25.0-1.20","570","true","img/card_backs/set1/red.gif","img/card_backs/set1/yellow.gif","img/card_backs/set1/purple.gif","img/card_backs/set1/green.gif","img/card_backs/set2/pink.gif","img/card_backs/set2/orange.gif","img/card_backs/set2/gray.gif","img/card_backs/set2/blue.gif","""event"",""trial"",""time""
""blur"",""0"",""0""
""focus"",""0"",""0""
""fullscreenenter"",""1"",""4128""
","""event"",""trial"",""time""
""blur"",""0"",""0""
","""event"",""trial"",""time""
""focus"",""0"",""0""
","""event"",""trial"",""time""
""fullscreenenter"",""1"",""4128""
","
","","23.699999809265137","","","","real_trial","2021-06-23 18:12:05.785","img/card_backs/set1/green.gif","0","-100","1","",""
"casino-fixation","112","478407","0.0-25.0-0.21","570","true","img/card_backs/set1/red.gif","img/card_backs/set1/yellow.gif","img/card_backs/set1/purple.gif","img/card_backs/set1/green.gif","img/card_backs/set2/pink.gif","img/card_backs/set2/orange.gif","img/card_backs/set2/gray.gif","img/card_backs/set2/blue.gif","""event"",""trial"",""time""
""blur"",""0"",""0""
""focus"",""0"",""0""
""fullscreenenter"",""1"",""4128""
","""event"",""trial"",""time""
""blur"",""0"",""0""
","""event"",""trial"",""time""
""focus"",""0"",""0""
","""event"",""trial"",""time""
""fullscreenenter"",""1"",""4128""
","
","","null","","null","","fixation","2021-06-23 18:12:06.290","","","","","",""
"card-selection-trial","113","480686","0.0-25.0-1.21","570","true","img/card_backs/set1/red.gif","img/card_backs/set1/yellow.gif","img/card_backs/set1/purple.gif","img/card_backs/set1/green.gif","img/card_backs/set2/pink.gif","img/card_backs/set2/orange.gif","img/card_backs/set2/gray.gif","img/card_backs/set2/blue.gif","""event"",""trial"",""time""
""blur"",""0"",""0""
""focus"",""0"",""0""
""fullscreenenter"",""1"",""4128""
","""event"",""trial"",""time""
""blur"",""0"",""0""
","""event"",""trial"",""time""
""focus"",""0"",""0""
","""event"",""trial"",""time""
""fullscreenenter"",""1"",""4128""
","
","","271.90000009536743","","","","real_trial","2021-06-23 18:12:08.569","img/card_backs/set1/green.gif","0","-100","1","",""
"casino-fixation","114","481194","0.0-25.0-0.22","570","true","img/card_backs/set1/red.gif","img/card_backs/set1/yellow.gif","img/card_backs/set1/purple.gif","img/card_backs/set1/green.gif","img/card_backs/set2/pink.gif","img/card_backs/set2/orange.gif","img/card_backs/set2/gray.gif","img/card_backs/set2/blue.gif","""event"",""trial"",""time""
""blur"",""0"",""0""
""focus"",""0"",""0""
""fullscreenenter"",""1"",""4128""
","""event"",""trial"",""time""
""blur"",""0"",""0""
","""event"",""trial"",""time""
""focus"",""0"",""0""
","""event"",""trial"",""time""
""fullscreenenter"",""1"",""4128""
","
","","null","","null","","fixation","2021-06-23 18:12:09.077","","","","","",""
"card-selection-trial","115","483306","0.0-25.0-1.22","570","true","img/card_backs/set1/red.gif","img/card_backs/set1/yellow.gif","img/card_backs/set1/purple.gif","img/card_backs/set1/green.gif","img/card_backs/set2/pink.gif","img/card_backs/set2/orange.gif","img/card_backs/set2/gray.gif","img/card_backs/set2/blue.gif","""event"",""trial"",""time""
""blur"",""0"",""0""
""focus"",""0"",""0""
""fullscreenenter"",""1"",""4128""
","""event"",""trial"",""time""
""blur"",""0"",""0""
","""event"",""trial"",""time""
""focus"",""0"",""0""
","""event"",""trial"",""time""
""fullscreenenter"",""1"",""4128""
","
","","107.5","","","","real_trial","2021-06-23 18:12:11.190","img/card_backs/set1/yellow.gif","1","-200","1","",""
"casino-fixation","116","483811","0.0-25.0-0.23","570","true","img/card_backs/set1/red.gif","img/card_backs/set1/yellow.gif","img/card_backs/set1/purple.gif","img/card_backs/set1/green.gif","img/card_backs/set2/pink.gif","img/card_backs/set2/orange.gif","img/card_backs/set2/gray.gif","img/card_backs/set2/blue.gif","""event"",""trial"",""time""
""blur"",""0"",""0""
""focus"",""0"",""0""
""fullscreenenter"",""1"",""4128""
","""event"",""trial"",""time""
""blur"",""0"",""0""
","""event"",""trial"",""time""
""focus"",""0"",""0""
","""event"",""trial"",""time""
""fullscreenenter"",""1"",""4128""
","
","","null","","null","","fixation","2021-06-23 18:12:11.694","","","","","",""
"card-selection-trial","117","485963","0.0-25.0-1.23","570","true","img/card_backs/set1/red.gif","img/card_backs/set1/yellow.gif","img/card_backs/set1/purple.gif","img/card_backs/set1/green.gif","img/card_backs/set2/pink.gif","img/card_backs/set2/orange.gif","img/card_backs/set2/gray.gif","img/card_backs/set2/blue.gif","""event"",""trial"",""time""
""blur"",""0"",""0""
""focus"",""0"",""0""
""fullscreenenter"",""1"",""4128""
","""event"",""trial"",""time""
""blur"",""0"",""0""
","""event"",""trial"",""time""
""focus"",""0"",""0""
","""event"",""trial"",""time""
""fullscreenenter"",""1"",""4128""
","
","","137","","","","real_trial","2021-06-23 18:12:13.847","img/card_backs/set1/red.gif","2","260","1","",""
"casino-fixation","118","486466","0.0-25.0-0.24","570","true","img/card_backs/set1/red.gif","img/card_backs/set1/yellow.gif","img/card_backs/set1/purple.gif","img/card_backs/set1/green.gif","img/card_backs/set2/pink.gif","img/card_backs/set2/orange.gif","img/card_backs/set2/gray.gif","img/card_backs/set2/blue.gif","""event"",""trial"",""time""
""blur"",""0"",""0""
""focus"",""0"",""0""
""fullscreenenter"",""1"",""4128""
","""event"",""trial"",""time""
""blur"",""0"",""0""
","""event"",""trial"",""time""
""focus"",""0"",""0""
","""event"",""trial"",""time""
""fullscreenenter"",""1"",""4128""
","
","","null","","null","","fixation","2021-06-23 18:12:14.349","","","","","",""
"card-selection-trial","119","488765","0.0-25.0-1.24","570","true","img/card_backs/set1/red.gif","img/card_backs/set1/yellow.gif","img/card_backs/set1/purple.gif","img/card_backs/set1/green.gif","img/card_backs/set2/pink.gif","img/card_backs/set2/orange.gif","img/card_backs/set2/gray.gif","img/card_backs/set2/blue.gif","""event"",""trial"",""time""
""blur"",""0"",""0""
""focus"",""0"",""0""
""fullscreenenter"",""1"",""4128""
","""event"",""trial"",""time""
""blur"",""0"",""0""
","""event"",""trial"",""time""
""focus"",""0"",""0""
","""event"",""trial"",""time""
""fullscreenenter"",""1"",""4128""
","
","","291.59999990463257","","","","real_trial","2021-06-23 18:12:16.648","img/card_backs/set1/red.gif","1","-190","1","",""
"casino-fixation","120","489267","0.0-25.0-0.25","570","true","img/card_backs/set1/red.gif","img/card_backs/set1/yellow.gif","img/card_backs/set1/purple.gif","img/card_backs/set1/green.gif","img/card_backs/set2/pink.gif","img/card_backs/set2/orange.gif","img/card_backs/set2/gray.gif","img/card_backs/set2/blue.gif","""event"",""trial"",""time""
""blur"",""0"",""0""
""focus"",""0"",""0""
""fullscreenenter"",""1"",""4128""
","""event"",""trial"",""time""
""blur"",""0"",""0""
","""event"",""trial"",""time""
""focus"",""0"",""0""
","""event"",""trial"",""time""
""fullscreenenter"",""1"",""4128""
","
","","null","","null","","fixation","2021-06-23 18:12:17.150","","","","","",""
"card-selection-trial","121","491576","0.0-25.0-1.25","570","true","img/card_backs/set1/red.gif","img/card_backs/set1/yellow.gif","img/card_backs/set1/purple.gif","img/card_backs/set1/green.gif","img/card_backs/set2/pink.gif","img/card_backs/set2/orange.gif","img/card_backs/set2/gray.gif","img/card_backs/set2/blue.gif","""event"",""trial"",""time""
""blur"",""0"",""0""
""focus"",""0"",""0""
""fullscreenenter"",""1"",""4128""
","""event"",""trial"",""time""
""blur"",""0"",""0""
","""event"",""trial"",""time""
""focus"",""0"",""0""
","""event"",""trial"",""time""
""fullscreenenter"",""1"",""4128""
","
","","303.2000002861023","","","","real_trial","2021-06-23 18:12:19.459","img/card_backs/set1/yellow.gif","3","-190","1","",""
"casino-fixation","122","492078","0.0-25.0-0.26","570","true","img/card_backs/set1/red.gif","img/card_backs/set1/yellow.gif","img/card_backs/set1/purple.gif","img/card_backs/set1/green.gif","img/card_backs/set2/pink.gif","img/card_backs/set2/orange.gif","img/card_backs/set2/gray.gif","img/card_backs/set2/blue.gif","""event"",""trial"",""time""
""blur"",""0"",""0""
""focus"",""0"",""0""
""fullscreenenter"",""1"",""4128""
","""event"",""trial"",""time""
""blur"",""0"",""0""
","""event"",""trial"",""time""
""focus"",""0"",""0""
","""event"",""trial"",""time""
""fullscreenenter"",""1"",""4128""
","
","","null","","null","","fixation","2021-06-23 18:12:19.961","","","","","",""
"card-selection-trial","123","494320","0.0-25.0-1.26","570","true","img/card_backs/set1/red.gif","img/card_backs/set1/yellow.gif","img/card_backs/set1/purple.gif","img/card_backs/set1/green.gif","img/card_backs/set2/pink.gif","img/card_backs/set2/orange.gif","img/card_backs/set2/gray.gif","img/card_backs/set2/blue.gif","""event"",""trial"",""time""
""blur"",""0"",""0""
""focus"",""0"",""0""
""fullscreenenter"",""1"",""4128""
","""event"",""trial"",""time""
""blur"",""0"",""0""
","""event"",""trial"",""time""
""focus"",""0"",""0""
","""event"",""trial"",""time""
""fullscreenenter"",""1"",""4128""
","
","","236.19999980926514","","","","real_trial","2021-06-23 18:12:22.203","img/card_backs/set1/yellow.gif","0","-210","1","",""
"casino-fixation","124","494825","0.0-25.0-0.27","570","true","img/card_backs/set1/red.gif","img/card_backs/set1/yellow.gif","img/card_backs/set1/purple.gif","img/card_backs/set1/green.gif","img/card_backs/set2/pink.gif","img/card_backs/set2/orange.gif","img/card_backs/set2/gray.gif","img/card_backs/set2/blue.gif","""event"",""trial"",""time""
""blur"",""0"",""0""
""focus"",""0"",""0""
""fullscreenenter"",""1"",""4128""
","""event"",""trial"",""time""
""blur"",""0"",""0""
","""event"",""trial"",""time""
""focus"",""0"",""0""
","""event"",""trial"",""time""
""fullscreenenter"",""1"",""4128""
","
","","null","","null","","fixation","2021-06-23 18:12:22.708","","","","","",""
"card-selection-trial","125","497096","0.0-25.0-1.27","570","true","img/card_backs/set1/red.gif","img/card_backs/set1/yellow.gif","img/card_backs/set1/purple.gif","img/card_backs/set1/green.gif","img/card_backs/set2/pink.gif","img/card_backs/set2/orange.gif","img/card_backs/set2/gray.gif","img/card_backs/set2/blue.gif","""event"",""trial"",""time""
""blur"",""0"",""0""
""focus"",""0"",""0""
""fullscreenenter"",""1"",""4128""
","""event"",""trial"",""time""
""blur"",""0"",""0""
","""event"",""trial"",""time""
""focus"",""0"",""0""
","""event"",""trial"",""time""
""fullscreenenter"",""1"",""4128""
","
","","262.8999996185303","","","","real_trial","2021-06-23 18:12:24.979","img/card_backs/set1/red.gif","2","-190","1","",""
"casino-fixation","126","497599","0.0-25.0-0.28","570","true","img/card_backs/set1/red.gif","img/card_backs/set1/yellow.gif","img/card_backs/set1/purple.gif","img/card_backs/set1/green.gif","img/card_backs/set2/pink.gif","img/card_backs/set2/orange.gif","img/card_backs/set2/gray.gif","img/card_backs/set2/blue.gif","""event"",""trial"",""time""
""blur"",""0"",""0""
""focus"",""0"",""0""
""fullscreenenter"",""1"",""4128""
","""event"",""trial"",""time""
""blur"",""0"",""0""
","""event"",""trial"",""time""
""focus"",""0"",""0""
","""event"",""trial"",""time""
""fullscreenenter"",""1"",""4128""
","
","","null","","null","","fixation","2021-06-23 18:12:25.482","","","","","",""
"card-selection-trial","127","500096","0.0-25.0-1.28","570","true","img/card_backs/set1/red.gif","img/card_backs/set1/yellow.gif","img/card_backs/set1/purple.gif","img/card_backs/set1/green.gif","img/card_backs/set2/pink.gif","img/card_backs/set2/orange.gif","img/card_backs/set2/gray.gif","img/card_backs/set2/blue.gif","""event"",""trial"",""time""
""blur"",""0"",""0""
""focus"",""0"",""0""
""fullscreenenter"",""1"",""4128""
","""event"",""trial"",""time""
""blur"",""0"",""0""
","""event"",""trial"",""time""
""focus"",""0"",""0""
","""event"",""trial"",""time""
""fullscreenenter"",""1"",""4128""
","
","","490","","","","real_trial","2021-06-23 18:12:27.979","img/card_backs/set1/red.gif","1","250","1","",""
"casino-fixation","128","500600","0.0-25.0-0.29","570","true","img/card_backs/set1/red.gif","img/card_backs/set1/yellow.gif","img/card_backs/set1/purple.gif","img/card_backs/set1/green.gif","img/card_backs/set2/pink.gif","img/card_backs/set2/orange.gif","img/card_backs/set2/gray.gif","img/card_backs/set2/blue.gif","""event"",""trial"",""time""
""blur"",""0"",""0""
""focus"",""0"",""0""
""fullscreenenter"",""1"",""4128""
","""event"",""trial"",""time""
""blur"",""0"",""0""
","""event"",""trial"",""time""
""focus"",""0"",""0""
","""event"",""trial"",""time""
""fullscreenenter"",""1"",""4128""
","
","","null","","null","","fixation","2021-06-23 18:12:28.483","","","","","",""
"card-selection-trial","129","503625","0.0-25.0-1.29","570","true","img/card_backs/set1/red.gif","img/card_backs/set1/yellow.gif","img/card_backs/set1/purple.gif","img/card_backs/set1/green.gif","img/card_backs/set2/pink.gif","img/card_backs/set2/orange.gif","img/card_backs/set2/gray.gif","img/card_backs/set2/blue.gif","""event"",""trial"",""time""
""blur"",""0"",""0""
""focus"",""0"",""0""
""fullscreenenter"",""1"",""4128""
","""event"",""trial"",""time""
""blur"",""0"",""0""
","""event"",""trial"",""time""
""focus"",""0"",""0""
","""event"",""trial"",""time""
""fullscreenenter"",""1"",""4128""
","
","","1015.5999999046326","","","","real_trial","2021-06-23 18:12:31.508","img/card_backs/set1/purple.gif","3","-100","1","",""
"casino-fixation","130","504130","0.0-25.0-0.30","570","true","img/card_backs/set1/red.gif","img/card_backs/set1/yellow.gif","img/card_backs/set1/purple.gif","img/card_backs/set1/green.gif","img/card_backs/set2/pink.gif","img/card_backs/set2/orange.gif","img/card_backs/set2/gray.gif","img/card_backs/set2/blue.gif","""event"",""trial"",""time""
""blur"",""0"",""0""
""focus"",""0"",""0""
""fullscreenenter"",""1"",""4128""
","""event"",""trial"",""time""
""blur"",""0"",""0""
","""event"",""trial"",""time""
""focus"",""0"",""0""
","""event"",""trial"",""time""
""fullscreenenter"",""1"",""4128""
","
","","null","","null","","fixation","2021-06-23 18:12:32.013","","","","","",""
"card-selection-trial","131","506544","0.0-25.0-1.30","570","true","img/card_backs/set1/red.gif","img/card_backs/set1/yellow.gif","img/card_backs/set1/purple.gif","img/card_backs/set1/green.gif","img/card_backs/set2/pink.gif","img/card_backs/set2/orange.gif","img/card_backs/set2/gray.gif","img/card_backs/set2/blue.gif","""event"",""trial"",""time""
""blur"",""0"",""0""
""focus"",""0"",""0""
""fullscreenenter"",""1"",""4128""
","""event"",""trial"",""time""
""blur"",""0"",""0""
","""event"",""trial"",""time""
""focus"",""0"",""0""
","""event"",""trial"",""time""
""fullscreenenter"",""1"",""4128""
","
","","406.09999990463257","","","","real_trial","2021-06-23 18:12:34.427","img/card_backs/set1/purple.gif","0","-100","1","",""
"casino-fixation","132","507049","0.0-25.0-0.31","570","true","img/card_backs/set1/red.gif","img/card_backs/set1/yellow.gif","img/card_backs/set1/purple.gif","img/card_backs/set1/green.gif","img/card_backs/set2/pink.gif","img/card_backs/set2/orange.gif","img/card_backs/set2/gray.gif","img/card_backs/set2/blue.gif","""event"",""trial"",""time""
""blur"",""0"",""0""
""focus"",""0"",""0""
""fullscreenenter"",""1"",""4128""
","""event"",""trial"",""time""
""blur"",""0"",""0""
","""event"",""trial"",""time""
""focus"",""0"",""0""
","""event"",""trial"",""time""
""fullscreenenter"",""1"",""4128""
","
","","null","","null","","fixation","2021-06-23 18:12:34.932","","","","","",""
"card-selection-trial","133","511889","0.0-25.0-1.31","570","true","img/card_backs/set1/red.gif","img/card_backs/set1/yellow.gif","img/card_backs/set1/purple.gif","img/card_backs/set1/green.gif","img/card_backs/set2/pink.gif","img/card_backs/set2/orange.gif","img/card_backs/set2/gray.gif","img/card_backs/set2/blue.gif","""event"",""trial"",""time""
""blur"",""0"",""0""
""focus"",""0"",""0""
""fullscreenenter"",""1"",""4128""
","""event"",""trial"",""time""
""blur"",""0"",""0""
","""event"",""trial"",""time""
""focus"",""0"",""0""
","""event"",""trial"",""time""
""fullscreenenter"",""1"",""4128""
","
","","2835.0999999046326","","","","real_trial","2021-06-23 18:12:39.772","img/card_backs/set1/purple.gif","3","-100","1","",""
