"trial_type","trial_index","time_elapsed","internal_node_id","sub_id","risk_good_first","block1_A","block1_B","block1_C","block1_D","block2_A","block2_B","block2_C","block2_D","interactions","blur_events","focus_events","fullscreenenter_events","fullscreenexit_events","success","rt","stimulus","key_press","button_pressed","task_part","timestamp","card_choice","choice_position","points_earned","block","correct","response"
"pavlovia","0","4","0.0-0.0","947","false","img/card_backs/set1/red.gif","img/card_backs/set1/purple.gif","img/card_backs/set1/yellow.gif","img/card_backs/set1/green.gif","img/card_backs/set2/gray.gif","img/card_backs/set2/blue.gif","img/card_backs/set2/orange.gif","img/card_backs/set2/pink.gif","""event"",""trial"",""time""
""fullscreenenter"",""1"",""4209""
","
","
","""event"",""trial"",""time""
""fullscreenenter"",""1"",""4209""
","
","","","","","","","","","","","","",""
"fullscreen","1","5134","0.0-1.0","947","false","img/card_backs/set1/red.gif","img/card_backs/set1/purple.gif","img/card_backs/set1/yellow.gif","img/card_backs/set1/green.gif","img/card_backs/set2/gray.gif","img/card_backs/set2/blue.gif","img/card_backs/set2/orange.gif","img/card_backs/set2/pink.gif","""event"",""trial"",""time""
""fullscreenenter"",""1"",""4209""
","
","
","""event"",""trial"",""time""
""fullscreenenter"",""1"",""4209""
","
","true","","","","","","","","","","","",""
"audio-keyboard-response","2","14168","0.0-2.0","947","false","img/card_backs/set1/red.gif","img/card_backs/set1/purple.gif","img/card_backs/set1/yellow.gif","img/card_backs/set1/green.gif","img/card_backs/set2/gray.gif","img/card_backs/set2/blue.gif","img/card_backs/set2/orange.gif","img/card_backs/set2/pink.gif","""event"",""trial"",""time""
""fullscreenenter"",""1"",""4209""
","
","
","""event"",""trial"",""time""
""fullscreenenter"",""1"",""4209""
","
","","8916","audio/beep_loop.wav","32","","","","","","","","",""
"audio-button-response","3","17875","0.0-3.0","947","false","img/card_backs/set1/red.gif","img/card_backs/set1/purple.gif","img/card_backs/set1/yellow.gif","img/card_backs/set1/green.gif","img/card_backs/set2/gray.gif","img/card_backs/set2/blue.gif","img/card_backs/set2/orange.gif","img/card_backs/set2/pink.gif","""event"",""trial"",""time""
""fullscreenenter"",""1"",""4209""
","
","
","""event"",""trial"",""time""
""fullscreenenter"",""1"",""4209""
","
","","NaN","audio/turtle.mp3","","3","","","","","","","",""
"audio-button-response","4","20020","0.0-4.0","947","false","img/card_backs/set1/red.gif","img/card_backs/set1/purple.gif","img/card_backs/set1/yellow.gif","img/card_backs/set1/green.gif","img/card_backs/set2/gray.gif","img/card_backs/set2/blue.gif","img/card_backs/set2/orange.gif","img/card_backs/set2/pink.gif","""event"",""trial"",""time""
""fullscreenenter"",""1"",""4209""
","
","
","""event"",""trial"",""time""
""fullscreenenter"",""1"",""4209""
","
","","NaN","audio/shark.mp3","","2","","","","","","","",""
"fullscreen","5","23450","0.0-5.0","947","false","img/card_backs/set1/red.gif","img/card_backs/set1/purple.gif","img/card_backs/set1/yellow.gif","img/card_backs/set1/green.gif","img/card_backs/set2/gray.gif","img/card_backs/set2/blue.gif","img/card_backs/set2/orange.gif","img/card_backs/set2/pink.gif","""event"",""trial"",""time""
""fullscreenenter"",""1"",""4209""
","
","
","""event"",""trial"",""time""
""fullscreenenter"",""1"",""4209""
","
","true","","","","","","","","","","","",""
"casino-keyboard-response","6","27159","0.0-6.0-0.0","947","false","img/card_backs/set1/red.gif","img/card_backs/set1/purple.gif","img/card_backs/set1/yellow.gif","img/card_backs/set1/green.gif","img/card_backs/set2/gray.gif","img/card_backs/set2/blue.gif","img/card_backs/set2/orange.gif","img/card_backs/set2/pink.gif","""event"",""trial"",""time""
""fullscreenenter"",""1"",""4209""
","
","
","""event"",""trial"",""time""
""fullscreenenter"",""1"",""4209""
","
","","3702.6599999517202","Welcome to the casino!","71","","instructions","2021-06-25 11:25:14.863","","","","","",""
"casino-keyboard-response","7","37366","0.0-6.0-0.1","947","false","img/card_backs/set1/red.gif","img/card_backs/set1/purple.gif","img/card_backs/set1/yellow.gif","img/card_backs/set1/green.gif","img/card_backs/set2/gray.gif","img/card_backs/set2/blue.gif","img/card_backs/set2/orange.gif","img/card_backs/set2/pink.gif","""event"",""trial"",""time""
""fullscreenenter"",""1"",""4209""
","
","
","""event"",""trial"",""time""
""fullscreenenter"",""1"",""4209""
","
","","10204.535000026226","Today you will be playing a game to earn tokens. </br> At the end of the experiment, you will be paid a bonus based on how many tokens you win. ","69","","instructions","2021-06-25 11:25:25.070","","","","","",""
"casino-keyboard-response","8","45673","0.0-6.0-0.2","947","false","img/card_backs/set1/red.gif","img/card_backs/set1/purple.gif","img/card_backs/set1/yellow.gif","img/card_backs/set1/green.gif","img/card_backs/set2/gray.gif","img/card_backs/set2/blue.gif","img/card_backs/set2/orange.gif","img/card_backs/set2/pink.gif","""event"",""trial"",""time""
""fullscreenenter"",""1"",""4209""
","
","
","""event"",""trial"",""time""
""fullscreenenter"",""1"",""4209""
","
","","8304.185000015423","On every turn, you will be shown four different decks of cards. </br> You need to select a card from one of the four decks.  ","75","","instructions","2021-06-25 11:25:33.377","","","","","",""
"casino-keyboard-response","9","50645","0.0-6.0-0.3","947","false","img/card_backs/set1/red.gif","img/card_backs/set1/purple.gif","img/card_backs/set1/yellow.gif","img/card_backs/set1/green.gif","img/card_backs/set2/gray.gif","img/card_backs/set2/blue.gif","img/card_backs/set2/orange.gif","img/card_backs/set2/pink.gif","""event"",""trial"",""time""
""fullscreenenter"",""1"",""4209""
","
","
","""event"",""trial"",""time""
""fullscreenenter"",""1"",""4209""
","
","","4968.144999991637","On the next screen, you will see what the decks will look like. ","66","","instructions","2021-06-25 11:25:38.349","","","","","",""
"card-selection-trial","10","54654","0.0-7.0-0.0","947","false","img/card_backs/set1/red.gif","img/card_backs/set1/purple.gif","img/card_backs/set1/yellow.gif","img/card_backs/set1/green.gif","img/card_backs/set2/gray.gif","img/card_backs/set2/blue.gif","img/card_backs/set2/orange.gif","img/card_backs/set2/pink.gif","""event"",""trial"",""time""
""fullscreenenter"",""1"",""4209""
","
","
","""event"",""trial"",""time""
""fullscreenenter"",""1"",""4209""
","
","","null","","","","practice","2021-06-25 11:25:42.358","null","null","null","0","",""
"casino-keyboard-response","11","62304","0.0-8.0-0.0","947","false","img/card_backs/set1/red.gif","img/card_backs/set1/purple.gif","img/card_backs/set1/yellow.gif","img/card_backs/set1/green.gif","img/card_backs/set2/gray.gif","img/card_backs/set2/blue.gif","img/card_backs/set2/orange.gif","img/card_backs/set2/pink.gif","""event"",""trial"",""time""
""fullscreenenter"",""1"",""4209""
","
","
","""event"",""trial"",""time""
""fullscreenenter"",""1"",""4209""
","
","","7647.985000046901","You should pick a card from a deck using the '2', '4', '6', and '8' keys at the top of the keyboard.","85","","instructions","2021-06-25 11:25:50.008","","","","","",""
"casino-keyboard-response","12","68266","0.0-8.0-0.1","947","false","img/card_backs/set1/red.gif","img/card_backs/set1/purple.gif","img/card_backs/set1/yellow.gif","img/card_backs/set1/green.gif","img/card_backs/set2/gray.gif","img/card_backs/set2/blue.gif","img/card_backs/set2/orange.gif","img/card_backs/set2/pink.gif","""event"",""trial"",""time""
""fullscreenenter"",""1"",""4209""
","
","
","""event"",""trial"",""time""
""fullscreenenter"",""1"",""4209""
","
","","5959.579999966081","Once you select a card, it will turn over and you will see how many tokens you earned.","83","","instructions","2021-06-25 11:25:55.970","","","","","",""
"casino-keyboard-response","13","83273","0.0-8.0-0.2","947","false","img/card_backs/set1/red.gif","img/card_backs/set1/purple.gif","img/card_backs/set1/yellow.gif","img/card_backs/set1/green.gif","img/card_backs/set2/gray.gif","img/card_backs/set2/blue.gif","img/card_backs/set2/orange.gif","img/card_backs/set2/pink.gif","""event"",""trial"",""time""
""fullscreenenter"",""1"",""4209""
","
","
","""event"",""trial"",""time""
""fullscreenenter"",""1"",""4209""
","
","","15004.000000015367","Let's try practicing that! </br> First, try to put your fingers over the '2', '4', '6', and '8' keys. </br>  You can use whatever fingers are most comfortable for you. Try to find a comfortable position now. ","50","","instructions","2021-06-25 11:26:10.977","","","","","",""
"casino-keyboard-response","14","89231","0.0-8.0-0.3","947","false","img/card_backs/set1/red.gif","img/card_backs/set1/purple.gif","img/card_backs/set1/yellow.gif","img/card_backs/set1/green.gif","img/card_backs/set2/gray.gif","img/card_backs/set2/blue.gif","img/card_backs/set2/orange.gif","img/card_backs/set2/pink.gif","""event"",""trial"",""time""
""fullscreenenter"",""1"",""4209""
","
","
","""event"",""trial"",""time""
""fullscreenenter"",""1"",""4209""
","
","","5953.990000009071","Okay ready? </br> On the next screen, press '2' to select the left deck. ","50","","instructions","2021-06-25 11:26:16.935","","","","","",""
"card-selection-trial","15","93566","0.0-9.0-0.0","947","false","img/card_backs/set1/red.gif","img/card_backs/set1/purple.gif","img/card_backs/set1/yellow.gif","img/card_backs/set1/green.gif","img/card_backs/set2/gray.gif","img/card_backs/set2/blue.gif","img/card_backs/set2/orange.gif","img/card_backs/set2/pink.gif","""event"",""trial"",""time""
""fullscreenenter"",""1"",""4209""
","
","
","""event"",""trial"",""time""
""fullscreenenter"",""1"",""4209""
","
","","2312.320000026375","","","","practice_card_selection","2021-06-25 11:26:21.270","img/practice_cards/backs/black.gif","0","-100","","",""
"casino-keyboard-response","16","99319","0.0-10.0-0.0","947","false","img/card_backs/set1/red.gif","img/card_backs/set1/purple.gif","img/card_backs/set1/yellow.gif","img/card_backs/set1/green.gif","img/card_backs/set2/gray.gif","img/card_backs/set2/blue.gif","img/card_backs/set2/orange.gif","img/card_backs/set2/pink.gif","""event"",""trial"",""time""
""fullscreenenter"",""1"",""4209""
","
","
","""event"",""trial"",""time""
""fullscreenenter"",""1"",""4209""
","
","","5750.585000030696","Great! Now on the next screen, try pressing '6' to select the third deck.","54","","instructions","2021-06-25 11:26:27.023","","","","","",""
"card-selection-trial","17","102300","0.0-11.0-0.0","947","false","img/card_backs/set1/red.gif","img/card_backs/set1/purple.gif","img/card_backs/set1/yellow.gif","img/card_backs/set1/green.gif","img/card_backs/set2/gray.gif","img/card_backs/set2/blue.gif","img/card_backs/set2/orange.gif","img/card_backs/set2/pink.gif","""event"",""trial"",""time""
""fullscreenenter"",""1"",""4209""
","
","
","""event"",""trial"",""time""
""fullscreenenter"",""1"",""4209""
","
","","971.3449999690056","","","","practice_card_selection","2021-06-25 11:26:30.004","img/practice_cards/backs/dark_green.gif","2","200","","",""
"casino-keyboard-response","18","107949","0.0-12.0-0.0","947","false","img/card_backs/set1/red.gif","img/card_backs/set1/purple.gif","img/card_backs/set1/yellow.gif","img/card_backs/set1/green.gif","img/card_backs/set2/gray.gif","img/card_backs/set2/blue.gif","img/card_backs/set2/orange.gif","img/card_backs/set2/pink.gif","""event"",""trial"",""time""
""fullscreenenter"",""1"",""4209""
","
","
","""event"",""trial"",""time""
""fullscreenenter"",""1"",""4209""
","
","","5647.2000000067055","Now on the next screen, try pressing '4' to select the second deck.","52","","instructions","2021-06-25 11:26:35.653","","","","","",""
"card-selection-trial","19","113071","0.0-13.0-0.0","947","false","img/card_backs/set1/red.gif","img/card_backs/set1/purple.gif","img/card_backs/set1/yellow.gif","img/card_backs/set1/green.gif","img/card_backs/set2/gray.gif","img/card_backs/set2/blue.gif","img/card_backs/set2/orange.gif","img/card_backs/set2/pink.gif","""event"",""trial"",""time""
""fullscreenenter"",""1"",""4209""
","
","
","""event"",""trial"",""time""
""fullscreenenter"",""1"",""4209""
","
","","3104.9999999813735","","","","practice_card_selection","2021-06-25 11:26:40.775","img/practice_cards/backs/black.gif","1","-100","","",""
"casino-keyboard-response","20","118142","0.0-14.0-0.0","947","false","img/card_backs/set1/red.gif","img/card_backs/set1/purple.gif","img/card_backs/set1/yellow.gif","img/card_backs/set1/green.gif","img/card_backs/set2/gray.gif","img/card_backs/set2/blue.gif","img/card_backs/set2/orange.gif","img/card_backs/set2/pink.gif","""event"",""trial"",""time""
""fullscreenenter"",""1"",""4209""
","
","
","""event"",""trial"",""time""
""fullscreenenter"",""1"",""4209""
","
","","5068.730000057258","Finally, try pressing '8' to select the deck all the way on the right.","56","","instructions","2021-06-25 11:26:45.846","","","","","",""
"card-selection-trial","21","120815","0.0-15.0-0.0","947","false","img/card_backs/set1/red.gif","img/card_backs/set1/purple.gif","img/card_backs/set1/yellow.gif","img/card_backs/set1/green.gif","img/card_backs/set2/gray.gif","img/card_backs/set2/blue.gif","img/card_backs/set2/orange.gif","img/card_backs/set2/pink.gif","""event"",""trial"",""time""
""fullscreenenter"",""1"",""4209""
","
","
","""event"",""trial"",""time""
""fullscreenenter"",""1"",""4209""
","
","","657.3249999783002","","","","practice_card_selection","2021-06-25 11:26:48.519","img/practice_cards/backs/dark_blue.gif","3","-200","","",""
"casino-keyboard-response","22","124485","0.0-16.0-0.0","947","false","img/card_backs/set1/red.gif","img/card_backs/set1/purple.gif","img/card_backs/set1/yellow.gif","img/card_backs/set1/green.gif","img/card_backs/set2/gray.gif","img/card_backs/set2/blue.gif","img/card_backs/set2/orange.gif","img/card_backs/set2/pink.gif","""event"",""trial"",""time""
""fullscreenenter"",""1"",""4209""
","
","
","""event"",""trial"",""time""
""fullscreenenter"",""1"",""4209""
","
","","3668.98499999661","Great! It seems like you are getting the hang of this.","80","","instructions","2021-06-25 11:26:52.189","","","","","",""
"casino-keyboard-response","23","133591","0.0-16.0-0.1","947","false","img/card_backs/set1/red.gif","img/card_backs/set1/purple.gif","img/card_backs/set1/yellow.gif","img/card_backs/set1/green.gif","img/card_backs/set2/gray.gif","img/card_backs/set2/blue.gif","img/card_backs/set2/orange.gif","img/card_backs/set2/pink.gif","""event"",""trial"",""time""
""fullscreenenter"",""1"",""4209""
","
","
","""event"",""trial"",""time""
""fullscreenenter"",""1"",""4209""
","
","","9103.464999992866","You may have noticed that some cards will cause you to <b> win </b> tokens while other cards will cause you to <b> lose </b>  tokens.","70","","instructions","2021-06-25 11:27:01.295","","","","","",""
"casino-keyboard-response","24","142699","0.0-16.0-0.2","947","false","img/card_backs/set1/red.gif","img/card_backs/set1/purple.gif","img/card_backs/set1/yellow.gif","img/card_backs/set1/green.gif","img/card_backs/set2/gray.gif","img/card_backs/set2/blue.gif","img/card_backs/set2/orange.gif","img/card_backs/set2/pink.gif","""event"",""trial"",""time""
""fullscreenenter"",""1"",""4209""
","
","
","""event"",""trial"",""time""
""fullscreenenter"",""1"",""4209""
","
","","9105.49499996705","Each deck has a mix of cards that will cause you to win and lose tokens. </br> However, the cards in each colored deck are different.","73","","instructions","2021-06-25 11:27:10.403","","","","","",""
"casino-keyboard-response","25","151661","0.0-16.0-0.3","947","false","img/card_backs/set1/red.gif","img/card_backs/set1/purple.gif","img/card_backs/set1/yellow.gif","img/card_backs/set1/green.gif","img/card_backs/set2/gray.gif","img/card_backs/set2/blue.gif","img/card_backs/set2/orange.gif","img/card_backs/set2/pink.gif","""event"",""trial"",""time""
""fullscreenenter"",""1"",""4209""
","
","
","""event"",""trial"",""time""
""fullscreenenter"",""1"",""4209""
","
","","8958.689999999478","Some colored decks are luckier than others. </br> If you choose the lucky decks, you will earn more tokens than if you choose the unlucky decks.","69","","instructions","2021-06-25 11:27:19.365","","","","","",""
"casino-keyboard-response","26","159737","0.0-16.0-0.4","947","false","img/card_backs/set1/red.gif","img/card_backs/set1/purple.gif","img/card_backs/set1/yellow.gif","img/card_backs/set1/green.gif","img/card_backs/set2/gray.gif","img/card_backs/set2/blue.gif","img/card_backs/set2/orange.gif","img/card_backs/set2/pink.gif","""event"",""trial"",""time""
""fullscreenenter"",""1"",""4209""
","
","
","""event"",""trial"",""time""
""fullscreenenter"",""1"",""4209""
","
","","8073.6650000326335","You should try to figure out which decks are lucky. </br> Then, try to choose the lucky decks so you can win the most tokens.","87","","instructions","2021-06-25 11:27:27.441","","","","","",""
"casino-keyboard-response","27","172505","0.0-16.0-0.5","947","false","img/card_backs/set1/red.gif","img/card_backs/set1/purple.gif","img/card_backs/set1/yellow.gif","img/card_backs/set1/green.gif","img/card_backs/set2/gray.gif","img/card_backs/set2/blue.gif","img/card_backs/set2/orange.gif","img/card_backs/set2/pink.gif","""event"",""trial"",""time""
""fullscreenenter"",""1"",""4209""
","
","
","""event"",""trial"",""time""
""fullscreenenter"",""1"",""4209""
","
","","12764.664999966044","To make it trickier, the casino dealer will switch the locations of the decks on every turn. </br> The color of the deck determines how lucky it is. The location does not matter.","88","","instructions","2021-06-25 11:27:40.209","","","","","",""
"casino-keyboard-response","28","182973","0.0-16.0-0.6","947","false","img/card_backs/set1/red.gif","img/card_backs/set1/purple.gif","img/card_backs/set1/yellow.gif","img/card_backs/set1/green.gif","img/card_backs/set2/gray.gif","img/card_backs/set2/blue.gif","img/card_backs/set2/orange.gif","img/card_backs/set2/pink.gif","""event"",""trial"",""time""
""fullscreenenter"",""1"",""4209""
","
","
","""event"",""trial"",""time""
""fullscreenenter"",""1"",""4209""
","
","","10466.264999995474","The mix of cards in each colored deck will stay the same throughout the game. </br> That means that a deck that is lucky early on will stay lucky.","79","","instructions","2021-06-25 11:27:50.677","","","","","",""
"casino-keyboard-response","29","192146","0.0-16.0-0.7","947","false","img/card_backs/set1/red.gif","img/card_backs/set1/purple.gif","img/card_backs/set1/yellow.gif","img/card_backs/set1/green.gif","img/card_backs/set2/gray.gif","img/card_backs/set2/blue.gif","img/card_backs/set2/orange.gif","img/card_backs/set2/pink.gif","""event"",""trial"",""time""
""fullscreenenter"",""1"",""4209""
","
","
","""event"",""trial"",""time""
""fullscreenenter"",""1"",""4209""
","
","","9167.584999988321","Remember though, all the decks have a <b> mix </b> of both <b> good </b> and <b> bad </b> cards so it may take a couple of turns to figure out if a deck is lucky.","69","","instructions","2021-06-25 11:27:59.850","","","","","",""
"casino-keyboard-response","30","200605","0.0-16.0-0.8","947","false","img/card_backs/set1/red.gif","img/card_backs/set1/purple.gif","img/card_backs/set1/yellow.gif","img/card_backs/set1/green.gif","img/card_backs/set2/gray.gif","img/card_backs/set2/blue.gif","img/card_backs/set2/orange.gif","img/card_backs/set2/pink.gif","""event"",""trial"",""time""
""fullscreenenter"",""1"",""4209""
","
","
","""event"",""trial"",""time""
""fullscreenenter"",""1"",""4209""
","
","","8456.239999970421","At the end of the game, you will be paid bonus money based on how many tokens you win. </br> If you win more tokens, you will earn more money!","72","","instructions","2021-06-25 11:28:08.309","","","","","",""
"casino-keyboard-response","31","211248","0.0-16.0-0.9","947","false","img/card_backs/set1/red.gif","img/card_backs/set1/purple.gif","img/card_backs/set1/yellow.gif","img/card_backs/set1/green.gif","img/card_backs/set2/gray.gif","img/card_backs/set2/blue.gif","img/card_backs/set2/orange.gif","img/card_backs/set2/pink.gif","""event"",""trial"",""time""
""fullscreenenter"",""1"",""4209""
","
","
","""event"",""trial"",""time""
""fullscreenenter"",""1"",""4209""
","
","","10640.52499999525","You will never <b> lose </b> money. </br> If you end up with fewer than 0 tokens, you will earn $0 of bonus money, but you will still be paid for playing the game.","83","","instructions","2021-06-25 11:28:18.952","","","","","",""
"casino-keyboard-response","32","216098","0.0-16.0-0.10","947","false","img/card_backs/set1/red.gif","img/card_backs/set1/purple.gif","img/card_backs/set1/yellow.gif","img/card_backs/set1/green.gif","img/card_backs/set2/gray.gif","img/card_backs/set2/blue.gif","img/card_backs/set2/orange.gif","img/card_backs/set2/pink.gif","""event"",""trial"",""time""
""fullscreenenter"",""1"",""4209""
","
","
","""event"",""trial"",""time""
""fullscreenenter"",""1"",""4209""
","
","","4847.025000024587","You will have 10 seconds to make each choice.","82","","instructions","2021-06-25 11:28:23.802","","","","","",""
"casino-keyboard-response","33","224692","0.0-16.0-0.11","947","false","img/card_backs/set1/red.gif","img/card_backs/set1/purple.gif","img/card_backs/set1/yellow.gif","img/card_backs/set1/green.gif","img/card_backs/set2/gray.gif","img/card_backs/set2/blue.gif","img/card_backs/set2/orange.gif","img/card_backs/set2/pink.gif","""event"",""trial"",""time""
""fullscreenenter"",""1"",""4209""
","
","
","""event"",""trial"",""time""
""fullscreenenter"",""1"",""4209""
","
","","8588.870000035968","Before you play the game for real, you will play with practice decks. </br> The tokens you earn during practice won't count toward your total.","86","","instructions","2021-06-25 11:28:32.396","","","","","",""
"casino-keyboard-response","34","235770","0.0-16.0-0.12","947","false","img/card_backs/set1/red.gif","img/card_backs/set1/purple.gif","img/card_backs/set1/yellow.gif","img/card_backs/set1/green.gif","img/card_backs/set2/gray.gif","img/card_backs/set2/blue.gif","img/card_backs/set2/orange.gif","img/card_backs/set2/pink.gif","""event"",""trial"",""time""
""fullscreenenter"",""1"",""4209""
","
","
","""event"",""trial"",""time""
""fullscreenenter"",""1"",""4209""
","
","","11075.745000038296","Ready? Remember, use the '2', '4', '6', and '8' keys to select the decks. </br> Put your fingers on those keys now and then press '2' to begin.","50","","instructions","2021-06-25 11:28:43.474","","","","","",""
"casino-fixation","35","236274","0.0-17.0-0.0","947","false","img/card_backs/set1/red.gif","img/card_backs/set1/purple.gif","img/card_backs/set1/yellow.gif","img/card_backs/set1/green.gif","img/card_backs/set2/gray.gif","img/card_backs/set2/blue.gif","img/card_backs/set2/orange.gif","img/card_backs/set2/pink.gif","""event"",""trial"",""time""
""fullscreenenter"",""1"",""4209""
","
","
","""event"",""trial"",""time""
""fullscreenenter"",""1"",""4209""
","
","","null","","null","","fixation","2021-06-25 11:28:43.978","","","","","",""
"card-selection-trial","36","240111","0.0-17.0-1.0","947","false","img/card_backs/set1/red.gif","img/card_backs/set1/purple.gif","img/card_backs/set1/yellow.gif","img/card_backs/set1/green.gif","img/card_backs/set2/gray.gif","img/card_backs/set2/blue.gif","img/card_backs/set2/orange.gif","img/card_backs/set2/pink.gif","""event"",""trial"",""time""
""fullscreenenter"",""1"",""4209""
","
","
","""event"",""trial"",""time""
""fullscreenenter"",""1"",""4209""
","
","","1829.9000000115484","","","","practice","2021-06-25 11:28:47.815","img/practice_cards/backs/dark_green.gif","1","200","0","",""
"casino-fixation","37","240616","0.0-17.0-0.1","947","false","img/card_backs/set1/red.gif","img/card_backs/set1/purple.gif","img/card_backs/set1/yellow.gif","img/card_backs/set1/green.gif","img/card_backs/set2/gray.gif","img/card_backs/set2/blue.gif","img/card_backs/set2/orange.gif","img/card_backs/set2/pink.gif","""event"",""trial"",""time""
""fullscreenenter"",""1"",""4209""
","
","
","""event"",""trial"",""time""
""fullscreenenter"",""1"",""4209""
","
","","null","","null","","fixation","2021-06-25 11:28:48.320","","","","","",""
"card-selection-trial","38","245009","0.0-17.0-1.1","947","false","img/card_backs/set1/red.gif","img/card_backs/set1/purple.gif","img/card_backs/set1/yellow.gif","img/card_backs/set1/green.gif","img/card_backs/set2/gray.gif","img/card_backs/set2/blue.gif","img/card_backs/set2/orange.gif","img/card_backs/set2/pink.gif","""event"",""trial"",""time""
""fullscreenenter"",""1"",""4209""
","
","
","""event"",""trial"",""time""
""fullscreenenter"",""1"",""4209""
","
","","2384.30499995593","","","","practice","2021-06-25 11:28:52.713","img/practice_cards/backs/dark_blue.gif","3","200","0","",""
"casino-fixation","39","245514","0.0-17.0-0.2","947","false","img/card_backs/set1/red.gif","img/card_backs/set1/purple.gif","img/card_backs/set1/yellow.gif","img/card_backs/set1/green.gif","img/card_backs/set2/gray.gif","img/card_backs/set2/blue.gif","img/card_backs/set2/orange.gif","img/card_backs/set2/pink.gif","""event"",""trial"",""time""
""fullscreenenter"",""1"",""4209""
","
","
","""event"",""trial"",""time""
""fullscreenenter"",""1"",""4209""
","
","","null","","null","","fixation","2021-06-25 11:28:53.218","","","","","",""
"card-selection-trial","40","249568","0.0-17.0-1.2","947","false","img/card_backs/set1/red.gif","img/card_backs/set1/purple.gif","img/card_backs/set1/yellow.gif","img/card_backs/set1/green.gif","img/card_backs/set2/gray.gif","img/card_backs/set2/blue.gif","img/card_backs/set2/orange.gif","img/card_backs/set2/pink.gif","""event"",""trial"",""time""
""fullscreenenter"",""1"",""4209""
","
","
","""event"",""trial"",""time""
""fullscreenenter"",""1"",""4209""
","
","","2044.7150000254624","","","","practice","2021-06-25 11:28:57.272","img/practice_cards/backs/black.gif","2","100","0","",""
"casino-fixation","41","250072","0.0-17.0-0.3","947","false","img/card_backs/set1/red.gif","img/card_backs/set1/purple.gif","img/card_backs/set1/yellow.gif","img/card_backs/set1/green.gif","img/card_backs/set2/gray.gif","img/card_backs/set2/blue.gif","img/card_backs/set2/orange.gif","img/card_backs/set2/pink.gif","""event"",""trial"",""time""
""fullscreenenter"",""1"",""4209""
","
","
","""event"",""trial"",""time""
""fullscreenenter"",""1"",""4209""
","
","","null","","null","","fixation","2021-06-25 11:28:57.777","","","","","",""
"card-selection-trial","42","253401","0.0-17.0-1.3","947","false","img/card_backs/set1/red.gif","img/card_backs/set1/purple.gif","img/card_backs/set1/yellow.gif","img/card_backs/set1/green.gif","img/card_backs/set2/gray.gif","img/card_backs/set2/blue.gif","img/card_backs/set2/orange.gif","img/card_backs/set2/pink.gif","""event"",""trial"",""time""
""fullscreenenter"",""1"",""4209""
","
","
","""event"",""trial"",""time""
""fullscreenenter"",""1"",""4209""
","
","","1317.6650000386871","","","","practice","2021-06-25 11:29:01.106","img/practice_cards/backs/black.gif","0","100","0","",""
"casino-fixation","43","253907","0.0-17.0-0.4","947","false","img/card_backs/set1/red.gif","img/card_backs/set1/purple.gif","img/card_backs/set1/yellow.gif","img/card_backs/set1/green.gif","img/card_backs/set2/gray.gif","img/card_backs/set2/blue.gif","img/card_backs/set2/orange.gif","img/card_backs/set2/pink.gif","""event"",""trial"",""time""
""fullscreenenter"",""1"",""4209""
","
","
","""event"",""trial"",""time""
""fullscreenenter"",""1"",""4209""
","
","","null","","null","","fixation","2021-06-25 11:29:01.611","","","","","",""
"card-selection-trial","44","264063","0.0-17.0-1.4","947","false","img/card_backs/set1/red.gif","img/card_backs/set1/purple.gif","img/card_backs/set1/yellow.gif","img/card_backs/set1/green.gif","img/card_backs/set2/gray.gif","img/card_backs/set2/blue.gif","img/card_backs/set2/orange.gif","img/card_backs/set2/pink.gif","""event"",""trial"",""time""
""fullscreenenter"",""1"",""4209""
","
","
","""event"",""trial"",""time""
""fullscreenenter"",""1"",""4209""
","
","","8145.199999969918","","","","practice","2021-06-25 11:29:11.767","img/practice_cards/backs/dark_green.gif","0","-200","0","",""
"casino-fixation","45","264568","0.0-17.0-0.5","947","false","img/card_backs/set1/red.gif","img/card_backs/set1/purple.gif","img/card_backs/set1/yellow.gif","img/card_backs/set1/green.gif","img/card_backs/set2/gray.gif","img/card_backs/set2/blue.gif","img/card_backs/set2/orange.gif","img/card_backs/set2/pink.gif","""event"",""trial"",""time""
""fullscreenenter"",""1"",""4209""
","
","
","""event"",""trial"",""time""
""fullscreenenter"",""1"",""4209""
","
","","null","","null","","fixation","2021-06-25 11:29:12.272","","","","","",""
"card-selection-trial","46","268350","0.0-17.0-1.5","947","false","img/card_backs/set1/red.gif","img/card_backs/set1/purple.gif","img/card_backs/set1/yellow.gif","img/card_backs/set1/green.gif","img/card_backs/set2/gray.gif","img/card_backs/set2/blue.gif","img/card_backs/set2/orange.gif","img/card_backs/set2/pink.gif","""event"",""trial"",""time""
""fullscreenenter"",""1"",""4209""
","
","
","""event"",""trial"",""time""
""fullscreenenter"",""1"",""4209""
","
","","1771.4649999979883","","","","practice","2021-06-25 11:29:16.054","img/practice_cards/backs/dark_green.gif","3","200","0","",""
"casino-fixation","47","268854","0.0-17.0-0.6","947","false","img/card_backs/set1/red.gif","img/card_backs/set1/purple.gif","img/card_backs/set1/yellow.gif","img/card_backs/set1/green.gif","img/card_backs/set2/gray.gif","img/card_backs/set2/blue.gif","img/card_backs/set2/orange.gif","img/card_backs/set2/pink.gif","""event"",""trial"",""time""
""fullscreenenter"",""1"",""4209""
","
","
","""event"",""trial"",""time""
""fullscreenenter"",""1"",""4209""
","
","","null","","null","","fixation","2021-06-25 11:29:16.558","","","","","",""
"card-selection-trial","48","272169","0.0-17.0-1.6","947","false","img/card_backs/set1/red.gif","img/card_backs/set1/purple.gif","img/card_backs/set1/yellow.gif","img/card_backs/set1/green.gif","img/card_backs/set2/gray.gif","img/card_backs/set2/blue.gif","img/card_backs/set2/orange.gif","img/card_backs/set2/pink.gif","""event"",""trial"",""time""
""fullscreenenter"",""1"",""4209""
","
","
","""event"",""trial"",""time""
""fullscreenenter"",""1"",""4209""
","
","","1307.7049999847077","","","","practice","2021-06-25 11:29:19.874","img/practice_cards/backs/black.gif","1","-100","0","",""
"casino-fixation","49","272674","0.0-17.0-0.7","947","false","img/card_backs/set1/red.gif","img/card_backs/set1/purple.gif","img/card_backs/set1/yellow.gif","img/card_backs/set1/green.gif","img/card_backs/set2/gray.gif","img/card_backs/set2/blue.gif","img/card_backs/set2/orange.gif","img/card_backs/set2/pink.gif","""event"",""trial"",""time""
""fullscreenenter"",""1"",""4209""
","
","
","""event"",""trial"",""time""
""fullscreenenter"",""1"",""4209""
","
","","null","","null","","fixation","2021-06-25 11:29:20.378","","","","","",""
"card-selection-trial","50","276250","0.0-17.0-1.7","947","false","img/card_backs/set1/red.gif","img/card_backs/set1/purple.gif","img/card_backs/set1/yellow.gif","img/card_backs/set1/green.gif","img/card_backs/set2/gray.gif","img/card_backs/set2/blue.gif","img/card_backs/set2/orange.gif","img/card_backs/set2/pink.gif","""event"",""trial"",""time""
""fullscreenenter"",""1"",""4209""
","
","
","""event"",""trial"",""time""
""fullscreenenter"",""1"",""4209""
","
","","1565.5999999726191","","","","practice","2021-06-25 11:29:23.955","img/practice_cards/backs/brown.gif","2","-100","0","",""
"casino-fixation","51","276755","0.0-17.0-0.8","947","false","img/card_backs/set1/red.gif","img/card_backs/set1/purple.gif","img/card_backs/set1/yellow.gif","img/card_backs/set1/green.gif","img/card_backs/set2/gray.gif","img/card_backs/set2/blue.gif","img/card_backs/set2/orange.gif","img/card_backs/set2/pink.gif","""event"",""trial"",""time""
""fullscreenenter"",""1"",""4209""
","
","
","""event"",""trial"",""time""
""fullscreenenter"",""1"",""4209""
","
","","null","","null","","fixation","2021-06-25 11:29:24.459","","","","","",""
"card-selection-trial","52","284418","0.0-17.0-1.8","947","false","img/card_backs/set1/red.gif","img/card_backs/set1/purple.gif","img/card_backs/set1/yellow.gif","img/card_backs/set1/green.gif","img/card_backs/set2/gray.gif","img/card_backs/set2/blue.gif","img/card_backs/set2/orange.gif","img/card_backs/set2/pink.gif","""event"",""trial"",""time""
""fullscreenenter"",""1"",""4209""
","
","
","""event"",""trial"",""time""
""fullscreenenter"",""1"",""4209""
","
","","5654.284999996889","","","","practice","2021-06-25 11:29:32.122","img/practice_cards/backs/dark_blue.gif","0","-200","0","",""
"casino-fixation","53","284923","0.0-17.0-0.9","947","false","img/card_backs/set1/red.gif","img/card_backs/set1/purple.gif","img/card_backs/set1/yellow.gif","img/card_backs/set1/green.gif","img/card_backs/set2/gray.gif","img/card_backs/set2/blue.gif","img/card_backs/set2/orange.gif","img/card_backs/set2/pink.gif","""event"",""trial"",""time""
""fullscreenenter"",""1"",""4209""
","
","
","""event"",""trial"",""time""
""fullscreenenter"",""1"",""4209""
","
","","null","","null","","fixation","2021-06-25 11:29:32.627","","","","","",""
"card-selection-trial","54","288322","0.0-17.0-1.9","947","false","img/card_backs/set1/red.gif","img/card_backs/set1/purple.gif","img/card_backs/set1/yellow.gif","img/card_backs/set1/green.gif","img/card_backs/set2/gray.gif","img/card_backs/set2/blue.gif","img/card_backs/set2/orange.gif","img/card_backs/set2/pink.gif","""event"",""trial"",""time""
""fullscreenenter"",""1"",""4209""
","
","
","""event"",""trial"",""time""
""fullscreenenter"",""1"",""4209""
","
","","1387.2400000109337","","","","practice","2021-06-25 11:29:36.026","img/practice_cards/backs/brown.gif","1","-100","0","",""
"casino-keyboard-response","55","292291","0.0-18.0","947","false","img/card_backs/set1/red.gif","img/card_backs/set1/purple.gif","img/card_backs/set1/yellow.gif","img/card_backs/set1/green.gif","img/card_backs/set2/gray.gif","img/card_backs/set2/blue.gif","img/card_backs/set2/orange.gif","img/card_backs/set2/pink.gif","""event"",""trial"",""time""
""fullscreenenter"",""1"",""4209""
","
","
","""event"",""trial"",""time""
""fullscreenenter"",""1"",""4209""
","
","","3967.160000000149","You earned 100 tokens during the practice round!","82","","","2021-06-25 11:29:39.995","","","","","",""
"casino-keyboard-response","56","296650","0.0-19.0-0.0","947","false","img/card_backs/set1/red.gif","img/card_backs/set1/purple.gif","img/card_backs/set1/yellow.gif","img/card_backs/set1/green.gif","img/card_backs/set2/gray.gif","img/card_backs/set2/blue.gif","img/card_backs/set2/orange.gif","img/card_backs/set2/pink.gif","""event"",""trial"",""time""
""fullscreenenter"",""1"",""4209""
","
","
","""event"",""trial"",""time""
""fullscreenenter"",""1"",""4209""
","
","","4356.405000027735","Nice job! You are almost ready to play the real game.","86","","instructions","2021-06-25 11:29:44.355","","","","","",""
"casino-keyboard-response","57","303558","0.0-19.0-0.1","947","false","img/card_backs/set1/red.gif","img/card_backs/set1/purple.gif","img/card_backs/set1/yellow.gif","img/card_backs/set1/green.gif","img/card_backs/set2/gray.gif","img/card_backs/set2/blue.gif","img/card_backs/set2/orange.gif","img/card_backs/set2/pink.gif","""event"",""trial"",""time""
""fullscreenenter"",""1"",""4209""
","
","
","""event"",""trial"",""time""
""fullscreenenter"",""1"",""4209""
","
","","6904.78499996243","You will play two rounds of the real game. In each round, you will pick 100 cards in total.","73","","instructions","2021-06-25 11:29:51.262","","","","","",""
"casino-keyboard-response","58","308903","0.0-19.0-0.2","947","false","img/card_backs/set1/red.gif","img/card_backs/set1/purple.gif","img/card_backs/set1/yellow.gif","img/card_backs/set1/green.gif","img/card_backs/set2/gray.gif","img/card_backs/set2/blue.gif","img/card_backs/set2/orange.gif","img/card_backs/set2/pink.gif","""event"",""trial"",""time""
""fullscreenenter"",""1"",""4209""
","
","
","""event"",""trial"",""time""
""fullscreenenter"",""1"",""4209""
","
","","5342.02500001993","We are now going to ask you some questions about how the game works.","66","","instructions","2021-06-25 11:29:56.607","","","","","",""
"casino-keyboard-response","59","316440","0.0-19.0-0.3","947","false","img/card_backs/set1/red.gif","img/card_backs/set1/purple.gif","img/card_backs/set1/yellow.gif","img/card_backs/set1/green.gif","img/card_backs/set2/gray.gif","img/card_backs/set2/blue.gif","img/card_backs/set2/orange.gif","img/card_backs/set2/pink.gif","""event"",""trial"",""time""
""fullscreenenter"",""1"",""4209""
","
","
","""event"",""trial"",""time""
""fullscreenenter"",""1"",""4209""
","
","","7534.335000033025","Answer carefully. You will not be able to begin the game until you answer them correctly.","67","","instructions","2021-06-25 11:30:04.144","","","","","",""
"casino-comp_q","60","324445","0.0-20.0-0.0","947","false","img/card_backs/set1/red.gif","img/card_backs/set1/purple.gif","img/card_backs/set1/yellow.gif","img/card_backs/set1/green.gif","img/card_backs/set2/gray.gif","img/card_backs/set2/blue.gif","img/card_backs/set2/orange.gif","img/card_backs/set2/pink.gif","""event"",""trial"",""time""
""fullscreenenter"",""1"",""4209""
","
","
","""event"",""trial"",""time""
""fullscreenenter"",""1"",""4209""
","
","","8002.43000005139","True or False: All the decks have some cards that cause you to win tokens and some cards that cause you to lose tokens.","84","","","2021-06-25 11:30:12.150","","","","","",""
"casino-keyboard-response","61","327889","0.0-20.0-1.0","947","false","img/card_backs/set1/red.gif","img/card_backs/set1/purple.gif","img/card_backs/set1/yellow.gif","img/card_backs/set1/green.gif","img/card_backs/set2/gray.gif","img/card_backs/set2/blue.gif","img/card_backs/set2/orange.gif","img/card_backs/set2/pink.gif","""event"",""trial"",""time""
""fullscreenenter"",""1"",""4209""
","
","
","""event"",""trial"",""time""
""fullscreenenter"",""1"",""4209""
","
","","3440.7150000333786","True is correct! All the decks have a mix of winning and losing cards.","77","","","2021-06-25 11:30:15.594","","","","","true",""
"casino-comp_q","62","332718","0.0-21.0-0.0","947","false","img/card_backs/set1/red.gif","img/card_backs/set1/purple.gif","img/card_backs/set1/yellow.gif","img/card_backs/set1/green.gif","img/card_backs/set2/gray.gif","img/card_backs/set2/blue.gif","img/card_backs/set2/orange.gif","img/card_backs/set2/pink.gif","""event"",""trial"",""time""
""fullscreenenter"",""1"",""4209""
","
","
","""event"",""trial"",""time""
""fullscreenenter"",""1"",""4209""
","
","","4825.254999974277","True or False: You will have as much time as you want to make your response.","70","","","2021-06-25 11:30:20.422","","","","","",""
"casino-keyboard-response","63","335980","0.0-21.0-1.0","947","false","img/card_backs/set1/red.gif","img/card_backs/set1/purple.gif","img/card_backs/set1/yellow.gif","img/card_backs/set1/green.gif","img/card_backs/set2/gray.gif","img/card_backs/set2/blue.gif","img/card_backs/set2/orange.gif","img/card_backs/set2/pink.gif","""event"",""trial"",""time""
""fullscreenenter"",""1"",""4209""
","
","
","""event"",""trial"",""time""
""fullscreenenter"",""1"",""4209""
","
","","3258.2600000314415","False is correct! You will only have 10 seconds to make each choice.","75","","","2021-06-25 11:30:23.684","","","","","true",""
"casino-comp_q","64","342043","0.0-22.0-0.0","947","false","img/card_backs/set1/red.gif","img/card_backs/set1/purple.gif","img/card_backs/set1/yellow.gif","img/card_backs/set1/green.gif","img/card_backs/set2/gray.gif","img/card_backs/set2/blue.gif","img/card_backs/set2/orange.gif","img/card_backs/set2/pink.gif","""event"",""trial"",""time""
""fullscreenenter"",""1"",""4209""
","
","
","""event"",""trial"",""time""
""fullscreenenter"",""1"",""4209""
","
","","6061.240000010002","True or False: The location of the deck determines how lucky it is.","70","","","2021-06-25 11:30:29.747","","","","","",""
"casino-keyboard-response","65","346618","0.0-22.0-1.0","947","false","img/card_backs/set1/red.gif","img/card_backs/set1/purple.gif","img/card_backs/set1/yellow.gif","img/card_backs/set1/green.gif","img/card_backs/set2/gray.gif","img/card_backs/set2/blue.gif","img/card_backs/set2/orange.gif","img/card_backs/set2/pink.gif","""event"",""trial"",""time""
""fullscreenenter"",""1"",""4209""
","
","
","""event"",""trial"",""time""
""fullscreenenter"",""1"",""4209""
","
","","4571.645000018179","False is correct! The <i>color</i>  of the deck determines how lucky or unlucky it is.","68","","","2021-06-25 11:30:34.322","","","","","true",""
"casino-keyboard-response","66","351975","0.0-23.0-0.0","947","false","img/card_backs/set1/red.gif","img/card_backs/set1/purple.gif","img/card_backs/set1/yellow.gif","img/card_backs/set1/green.gif","img/card_backs/set2/gray.gif","img/card_backs/set2/blue.gif","img/card_backs/set2/orange.gif","img/card_backs/set2/pink.gif","""event"",""trial"",""time""
""fullscreenenter"",""1"",""4209""
","
","
","""event"",""trial"",""time""
""fullscreenenter"",""1"",""4209""
","
","","5354.8050000099465","Great job! Now it's time to start the real game.","82","","instructions","2021-06-25 11:30:39.679","","","","","",""
"casino-keyboard-response","67","357648","0.0-23.0-0.1","947","false","img/card_backs/set1/red.gif","img/card_backs/set1/purple.gif","img/card_backs/set1/yellow.gif","img/card_backs/set1/green.gif","img/card_backs/set2/gray.gif","img/card_backs/set2/blue.gif","img/card_backs/set2/orange.gif","img/card_backs/set2/pink.gif","""event"",""trial"",""time""
""fullscreenenter"",""1"",""4209""
","
","
","""event"",""trial"",""time""
""fullscreenenter"",""1"",""4209""
","
","","5670.745000010356","Before we start, we're going to head into a new room of the casino.","86","","instructions","2021-06-25 11:30:45.352","","","","","",""
"casino-keyboard-response","68","364614","0.0-24.0-0.0","947","false","img/card_backs/set1/red.gif","img/card_backs/set1/purple.gif","img/card_backs/set1/yellow.gif","img/card_backs/set1/green.gif","img/card_backs/set2/gray.gif","img/card_backs/set2/blue.gif","img/card_backs/set2/orange.gif","img/card_backs/set2/pink.gif","""event"",""trial"",""time""
""fullscreenenter"",""1"",""4209""
","
","
","""event"",""trial"",""time""
""fullscreenenter"",""1"",""4209""
","
","","6963.019999966491","Here we are! The real game will use different cards, but the rules will be the same.","71","","instructions","2021-06-25 11:30:52.318","","","","","",""
"casino-keyboard-response","69","372439","0.0-24.0-0.1","947","false","img/card_backs/set1/red.gif","img/card_backs/set1/purple.gif","img/card_backs/set1/yellow.gif","img/card_backs/set1/green.gif","img/card_backs/set2/gray.gif","img/card_backs/set2/blue.gif","img/card_backs/set2/orange.gif","img/card_backs/set2/pink.gif","""event"",""trial"",""time""
""fullscreenenter"",""1"",""4209""
","
","
","""event"",""trial"",""time""
""fullscreenenter"",""1"",""4209""
","
","","7822.16000003973","Ready? Put your fingers over the '2', '4', 6', and '8' keys so you are ready to play the game. </br> Then press 2 to start.","50","","instructions","2021-06-25 11:31:00.143","","","","","",""
"casino-fixation","70","372942","0.0-25.0-0.0","947","false","img/card_backs/set1/red.gif","img/card_backs/set1/purple.gif","img/card_backs/set1/yellow.gif","img/card_backs/set1/green.gif","img/card_backs/set2/gray.gif","img/card_backs/set2/blue.gif","img/card_backs/set2/orange.gif","img/card_backs/set2/pink.gif","""event"",""trial"",""time""
""fullscreenenter"",""1"",""4209""
","
","
","""event"",""trial"",""time""
""fullscreenenter"",""1"",""4209""
","
","","null","","null","","fixation","2021-06-25 11:31:00.646","","","","","",""
"card-selection-trial","71","378819","0.0-25.0-1.0","947","false","img/card_backs/set1/red.gif","img/card_backs/set1/purple.gif","img/card_backs/set1/yellow.gif","img/card_backs/set1/green.gif","img/card_backs/set2/gray.gif","img/card_backs/set2/blue.gif","img/card_backs/set2/orange.gif","img/card_backs/set2/pink.gif","""event"",""trial"",""time""
""fullscreenenter"",""1"",""4209""
","
","
","""event"",""trial"",""time""
""fullscreenenter"",""1"",""4209""
","
","","3866.939999978058","","","","real_trial","2021-06-25 11:31:06.523","img/card_backs/set1/green.gif","0","120","1","",""
"casino-fixation","72","379323","0.0-25.0-0.1","947","false","img/card_backs/set1/red.gif","img/card_backs/set1/purple.gif","img/card_backs/set1/yellow.gif","img/card_backs/set1/green.gif","img/card_backs/set2/gray.gif","img/card_backs/set2/blue.gif","img/card_backs/set2/orange.gif","img/card_backs/set2/pink.gif","""event"",""trial"",""time""
""fullscreenenter"",""1"",""4209""
","
","
","""event"",""trial"",""time""
""fullscreenenter"",""1"",""4209""
","
","","null","","null","","fixation","2021-06-25 11:31:07.028","","","","","",""
"card-selection-trial","73","383541","0.0-25.0-1.1","947","false","img/card_backs/set1/red.gif","img/card_backs/set1/purple.gif","img/card_backs/set1/yellow.gif","img/card_backs/set1/green.gif","img/card_backs/set2/gray.gif","img/card_backs/set2/blue.gif","img/card_backs/set2/orange.gif","img/card_backs/set2/pink.gif","""event"",""trial"",""time""
""fullscreenenter"",""1"",""4209""
","
","
","""event"",""trial"",""time""
""fullscreenenter"",""1"",""4209""
","
","","2206.2800000421703","","","","real_trial","2021-06-25 11:31:11.245","img/card_backs/set1/green.gif","2","-70","1","",""
"casino-fixation","74","384046","0.0-25.0-0.2","947","false","img/card_backs/set1/red.gif","img/card_backs/set1/purple.gif","img/card_backs/set1/yellow.gif","img/card_backs/set1/green.gif","img/card_backs/set2/gray.gif","img/card_backs/set2/blue.gif","img/card_backs/set2/orange.gif","img/card_backs/set2/pink.gif","""event"",""trial"",""time""
""fullscreenenter"",""1"",""4209""
","
","
","""event"",""trial"",""time""
""fullscreenenter"",""1"",""4209""
","
","","null","","null","","fixation","2021-06-25 11:31:11.750","","","","","",""
"card-selection-trial","75","389140","0.0-25.0-1.2","947","false","img/card_backs/set1/red.gif","img/card_backs/set1/purple.gif","img/card_backs/set1/yellow.gif","img/card_backs/set1/green.gif","img/card_backs/set2/gray.gif","img/card_backs/set2/blue.gif","img/card_backs/set2/orange.gif","img/card_backs/set2/pink.gif","""event"",""trial"",""time""
""fullscreenenter"",""1"",""4209""
","
","
","""event"",""trial"",""time""
""fullscreenenter"",""1"",""4209""
","
","","3084.8600000026636","","","","real_trial","2021-06-25 11:31:16.844","img/card_backs/set1/green.gif","1","110","1","",""
"casino-fixation","76","389645","0.0-25.0-0.3","947","false","img/card_backs/set1/red.gif","img/card_backs/set1/purple.gif","img/card_backs/set1/yellow.gif","img/card_backs/set1/green.gif","img/card_backs/set2/gray.gif","img/card_backs/set2/blue.gif","img/card_backs/set2/orange.gif","img/card_backs/set2/pink.gif","""event"",""trial"",""time""
""fullscreenenter"",""1"",""4209""
","
","
","""event"",""trial"",""time""
""fullscreenenter"",""1"",""4209""
","
","","null","","null","","fixation","2021-06-25 11:31:17.349","","","","","",""
"card-selection-trial","77","392995","0.0-25.0-1.3","947","false","img/card_backs/set1/red.gif","img/card_backs/set1/purple.gif","img/card_backs/set1/yellow.gif","img/card_backs/set1/green.gif","img/card_backs/set2/gray.gif","img/card_backs/set2/blue.gif","img/card_backs/set2/orange.gif","img/card_backs/set2/pink.gif","""event"",""trial"",""time""
""fullscreenenter"",""1"",""4209""
","
","
","""event"",""trial"",""time""
""fullscreenenter"",""1"",""4209""
","
","","1340.0499999988824","","","","real_trial","2021-06-25 11:31:20.699","img/card_backs/set1/red.gif","3","180","1","",""
"casino-fixation","78","393497","0.0-25.0-0.4","947","false","img/card_backs/set1/red.gif","img/card_backs/set1/purple.gif","img/card_backs/set1/yellow.gif","img/card_backs/set1/green.gif","img/card_backs/set2/gray.gif","img/card_backs/set2/blue.gif","img/card_backs/set2/orange.gif","img/card_backs/set2/pink.gif","""event"",""trial"",""time""
""fullscreenenter"",""1"",""4209""
","
","
","""event"",""trial"",""time""
""fullscreenenter"",""1"",""4209""
","
","","null","","null","","fixation","2021-06-25 11:31:21.201","","","","","",""
"card-selection-trial","79","397429","0.0-25.0-1.4","947","false","img/card_backs/set1/red.gif","img/card_backs/set1/purple.gif","img/card_backs/set1/yellow.gif","img/card_backs/set1/green.gif","img/card_backs/set2/gray.gif","img/card_backs/set2/blue.gif","img/card_backs/set2/orange.gif","img/card_backs/set2/pink.gif","""event"",""trial"",""time""
""fullscreenenter"",""1"",""4209""
","
","
","""event"",""trial"",""time""
""fullscreenenter"",""1"",""4209""
","
","","1922.339999990072","","","","real_trial","2021-06-25 11:31:25.133","img/card_backs/set1/red.gif","0","-240","1","",""
"casino-fixation","80","397935","0.0-25.0-0.5","947","false","img/card_backs/set1/red.gif","img/card_backs/set1/purple.gif","img/card_backs/set1/yellow.gif","img/card_backs/set1/green.gif","img/card_backs/set2/gray.gif","img/card_backs/set2/blue.gif","img/card_backs/set2/orange.gif","img/card_backs/set2/pink.gif","""event"",""trial"",""time""
""fullscreenenter"",""1"",""4209""
","
","
","""event"",""trial"",""time""
""fullscreenenter"",""1"",""4209""
","
","","null","","null","","fixation","2021-06-25 11:31:25.639","","","","","",""
"card-selection-trial","81","401436","0.0-25.0-1.5","947","false","img/card_backs/set1/red.gif","img/card_backs/set1/purple.gif","img/card_backs/set1/yellow.gif","img/card_backs/set1/green.gif","img/card_backs/set2/gray.gif","img/card_backs/set2/blue.gif","img/card_backs/set2/orange.gif","img/card_backs/set2/pink.gif","""event"",""trial"",""time""
""fullscreenenter"",""1"",""4209""
","
","
","""event"",""trial"",""time""
""fullscreenenter"",""1"",""4209""
","
","","1489.3750000046566","","","","real_trial","2021-06-25 11:31:29.140","img/card_backs/set1/green.gif","1","110","1","",""
"casino-fixation","82","401940","0.0-25.0-0.6","947","false","img/card_backs/set1/red.gif","img/card_backs/set1/purple.gif","img/card_backs/set1/yellow.gif","img/card_backs/set1/green.gif","img/card_backs/set2/gray.gif","img/card_backs/set2/blue.gif","img/card_backs/set2/orange.gif","img/card_backs/set2/pink.gif","""event"",""trial"",""time""
""fullscreenenter"",""1"",""4209""
","
","
","""event"",""trial"",""time""
""fullscreenenter"",""1"",""4209""
","
","","null","","null","","fixation","2021-06-25 11:31:29.644","","","","","",""
"card-selection-trial","83","406964","0.0-25.0-1.6","947","false","img/card_backs/set1/red.gif","img/card_backs/set1/purple.gif","img/card_backs/set1/yellow.gif","img/card_backs/set1/green.gif","img/card_backs/set2/gray.gif","img/card_backs/set2/blue.gif","img/card_backs/set2/orange.gif","img/card_backs/set2/pink.gif","""event"",""trial"",""time""
""fullscreenenter"",""1"",""4209""
","
","
","""event"",""trial"",""time""
""fullscreenenter"",""1"",""4209""
","
","","3011.5749999531545","","","","real_trial","2021-06-25 11:31:34.669","img/card_backs/set1/green.gif","1","-70","1","",""
"casino-fixation","84","407470","0.0-25.0-0.7","947","false","img/card_backs/set1/red.gif","img/card_backs/set1/purple.gif","img/card_backs/set1/yellow.gif","img/card_backs/set1/green.gif","img/card_backs/set2/gray.gif","img/card_backs/set2/blue.gif","img/card_backs/set2/orange.gif","img/card_backs/set2/pink.gif","""event"",""trial"",""time""
""fullscreenenter"",""1"",""4209""
","
","
","""event"",""trial"",""time""
""fullscreenenter"",""1"",""4209""
","
","","null","","null","","fixation","2021-06-25 11:31:35.174","","","","","",""
"card-selection-trial","85","411694","0.0-25.0-1.7","947","false","img/card_backs/set1/red.gif","img/card_backs/set1/purple.gif","img/card_backs/set1/yellow.gif","img/card_backs/set1/green.gif","img/card_backs/set2/gray.gif","img/card_backs/set2/blue.gif","img/card_backs/set2/orange.gif","img/card_backs/set2/pink.gif","""event"",""trial"",""time""
""fullscreenenter"",""1"",""4209""
","
","
","""event"",""trial"",""time""
""fullscreenenter"",""1"",""4209""
","
","","2211.3349999999627","","","","real_trial","2021-06-25 11:31:39.398","img/card_backs/set1/red.gif","2","200","1","",""
"casino-fixation","86","412199","0.0-25.0-0.8","947","false","img/card_backs/set1/red.gif","img/card_backs/set1/purple.gif","img/card_backs/set1/yellow.gif","img/card_backs/set1/green.gif","img/card_backs/set2/gray.gif","img/card_backs/set2/blue.gif","img/card_backs/set2/orange.gif","img/card_backs/set2/pink.gif","""event"",""trial"",""time""
""fullscreenenter"",""1"",""4209""
","
","
","""event"",""trial"",""time""
""fullscreenenter"",""1"",""4209""
","
","","null","","null","","fixation","2021-06-25 11:31:39.903","","","","","",""
"card-selection-trial","87","415707","0.0-25.0-1.8","947","false","img/card_backs/set1/red.gif","img/card_backs/set1/purple.gif","img/card_backs/set1/yellow.gif","img/card_backs/set1/green.gif","img/card_backs/set2/gray.gif","img/card_backs/set2/blue.gif","img/card_backs/set2/orange.gif","img/card_backs/set2/pink.gif","""event"",""trial"",""time""
""fullscreenenter"",""1"",""4209""
","
","
","""event"",""trial"",""time""
""fullscreenenter"",""1"",""4209""
","
","","1494.39499998698","","","","real_trial","2021-06-25 11:31:43.411","img/card_backs/set1/purple.gif","0","-250","1","",""
"casino-fixation","88","416212","0.0-25.0-0.9","947","false","img/card_backs/set1/red.gif","img/card_backs/set1/purple.gif","img/card_backs/set1/yellow.gif","img/card_backs/set1/green.gif","img/card_backs/set2/gray.gif","img/card_backs/set2/blue.gif","img/card_backs/set2/orange.gif","img/card_backs/set2/pink.gif","""event"",""trial"",""time""
""fullscreenenter"",""1"",""4209""
","
","
","""event"",""trial"",""time""
""fullscreenenter"",""1"",""4209""
","
","","null","","null","","fixation","2021-06-25 11:31:43.917","","","","","",""
"card-selection-trial","89","419633","0.0-25.0-1.9","947","false","img/card_backs/set1/red.gif","img/card_backs/set1/purple.gif","img/card_backs/set1/yellow.gif","img/card_backs/set1/green.gif","img/card_backs/set2/gray.gif","img/card_backs/set2/blue.gif","img/card_backs/set2/orange.gif","img/card_backs/set2/pink.gif","""event"",""trial"",""time""
""fullscreenenter"",""1"",""4209""
","
","
","""event"",""trial"",""time""
""fullscreenenter"",""1"",""4209""
","
","","1410.2499999571592","","","","real_trial","2021-06-25 11:31:47.337","img/card_backs/set1/red.gif","3","-230","1","",""
"casino-fixation","90","420135","0.0-25.0-0.10","947","false","img/card_backs/set1/red.gif","img/card_backs/set1/purple.gif","img/card_backs/set1/yellow.gif","img/card_backs/set1/green.gif","img/card_backs/set2/gray.gif","img/card_backs/set2/blue.gif","img/card_backs/set2/orange.gif","img/card_backs/set2/pink.gif","""event"",""trial"",""time""
""fullscreenenter"",""1"",""4209""
","
","
","""event"",""trial"",""time""
""fullscreenenter"",""1"",""4209""
","
","","null","","null","","fixation","2021-06-25 11:31:47.839","","","","","",""
"card-selection-trial","91","423832","0.0-25.0-1.10","947","false","img/card_backs/set1/red.gif","img/card_backs/set1/purple.gif","img/card_backs/set1/yellow.gif","img/card_backs/set1/green.gif","img/card_backs/set2/gray.gif","img/card_backs/set2/blue.gif","img/card_backs/set2/orange.gif","img/card_backs/set2/pink.gif","""event"",""trial"",""time""
""fullscreenenter"",""1"",""4209""
","
","
","""event"",""trial"",""time""
""fullscreenenter"",""1"",""4209""
","
","","1687.0800000033341","","","","real_trial","2021-06-25 11:31:51.536","img/card_backs/set1/green.gif","1","-60","1","",""
"casino-fixation","92","424337","0.0-25.0-0.11","947","false","img/card_backs/set1/red.gif","img/card_backs/set1/purple.gif","img/card_backs/set1/yellow.gif","img/card_backs/set1/green.gif","img/card_backs/set2/gray.gif","img/card_backs/set2/blue.gif","img/card_backs/set2/orange.gif","img/card_backs/set2/pink.gif","""event"",""trial"",""time""
""fullscreenenter"",""1"",""4209""
","
","
","""event"",""trial"",""time""
""fullscreenenter"",""1"",""4209""
","
","","null","","null","","fixation","2021-06-25 11:31:52.041","","","","","",""
"card-selection-trial","93","429778","0.0-25.0-1.11","947","false","img/card_backs/set1/red.gif","img/card_backs/set1/purple.gif","img/card_backs/set1/yellow.gif","img/card_backs/set1/green.gif","img/card_backs/set2/gray.gif","img/card_backs/set2/blue.gif","img/card_backs/set2/orange.gif","img/card_backs/set2/pink.gif","""event"",""trial"",""time""
""fullscreenenter"",""1"",""4209""
","
","
","""event"",""trial"",""time""
""fullscreenenter"",""1"",""4209""
","
","","3431.6000000108033","","","","real_trial","2021-06-25 11:31:57.482","img/card_backs/set1/green.gif","3","110","1","",""
"casino-fixation","94","430283","0.0-25.0-0.12","947","false","img/card_backs/set1/red.gif","img/card_backs/set1/purple.gif","img/card_backs/set1/yellow.gif","img/card_backs/set1/green.gif","img/card_backs/set2/gray.gif","img/card_backs/set2/blue.gif","img/card_backs/set2/orange.gif","img/card_backs/set2/pink.gif","""event"",""trial"",""time""
""fullscreenenter"",""1"",""4209""
","
","
","""event"",""trial"",""time""
""fullscreenenter"",""1"",""4209""
","
","","null","","null","","fixation","2021-06-25 11:31:57.987","","","","","",""
"card-selection-trial","95","434051","0.0-25.0-1.12","947","false","img/card_backs/set1/red.gif","img/card_backs/set1/purple.gif","img/card_backs/set1/yellow.gif","img/card_backs/set1/green.gif","img/card_backs/set2/gray.gif","img/card_backs/set2/blue.gif","img/card_backs/set2/orange.gif","img/card_backs/set2/pink.gif","""event"",""trial"",""time""
""fullscreenenter"",""1"",""4209""
","
","
","""event"",""trial"",""time""
""fullscreenenter"",""1"",""4209""
","
","","1759.424999996554","","","","real_trial","2021-06-25 11:32:01.756","img/card_backs/set1/yellow.gif","1","100","1","",""
"casino-fixation","96","434556","0.0-25.0-0.13","947","false","img/card_backs/set1/red.gif","img/card_backs/set1/purple.gif","img/card_backs/set1/yellow.gif","img/card_backs/set1/green.gif","img/card_backs/set2/gray.gif","img/card_backs/set2/blue.gif","img/card_backs/set2/orange.gif","img/card_backs/set2/pink.gif","""event"",""trial"",""time""
""fullscreenenter"",""1"",""4209""
","
","
","""event"",""trial"",""time""
""fullscreenenter"",""1"",""4209""
","
","","null","","null","","fixation","2021-06-25 11:32:02.260","","","","","",""
"card-selection-trial","97","439039","0.0-25.0-1.13","947","false","img/card_backs/set1/red.gif","img/card_backs/set1/purple.gif","img/card_backs/set1/yellow.gif","img/card_backs/set1/green.gif","img/card_backs/set2/gray.gif","img/card_backs/set2/blue.gif","img/card_backs/set2/orange.gif","img/card_backs/set2/pink.gif","""event"",""trial"",""time""
""fullscreenenter"",""1"",""4209""
","
","
","""event"",""trial"",""time""
""fullscreenenter"",""1"",""4209""
","
","","2474.900000030175","","","","real_trial","2021-06-25 11:32:06.743","img/card_backs/set1/green.gif","1","-70","1","",""
"casino-fixation","98","439544","0.0-25.0-0.14","947","false","img/card_backs/set1/red.gif","img/card_backs/set1/purple.gif","img/card_backs/set1/yellow.gif","img/card_backs/set1/green.gif","img/card_backs/set2/gray.gif","img/card_backs/set2/blue.gif","img/card_backs/set2/orange.gif","img/card_backs/set2/pink.gif","""event"",""trial"",""time""
""fullscreenenter"",""1"",""4209""
","
","
","""event"",""trial"",""time""
""fullscreenenter"",""1"",""4209""
","
","","null","","null","","fixation","2021-06-25 11:32:07.248","","","","","",""
"card-selection-trial","99","443277","0.0-25.0-1.14","947","false","img/card_backs/set1/red.gif","img/card_backs/set1/purple.gif","img/card_backs/set1/yellow.gif","img/card_backs/set1/green.gif","img/card_backs/set2/gray.gif","img/card_backs/set2/blue.gif","img/card_backs/set2/orange.gif","img/card_backs/set2/pink.gif","""event"",""trial"",""time""
""fullscreenenter"",""1"",""4209""
","
","
","""event"",""trial"",""time""
""fullscreenenter"",""1"",""4209""
","
","","1723.3450000057928","","","","real_trial","2021-06-25 11:32:10.981","img/card_backs/set1/yellow.gif","0","-60","1","",""
"casino-fixation","100","443782","0.0-25.0-0.15","947","false","img/card_backs/set1/red.gif","img/card_backs/set1/purple.gif","img/card_backs/set1/yellow.gif","img/card_backs/set1/green.gif","img/card_backs/set2/gray.gif","img/card_backs/set2/blue.gif","img/card_backs/set2/orange.gif","img/card_backs/set2/pink.gif","""event"",""trial"",""time""
""fullscreenenter"",""1"",""4209""
","
","
","""event"",""trial"",""time""
""fullscreenenter"",""1"",""4209""
","
","","null","","null","","fixation","2021-06-25 11:32:11.486","","","","","",""
"card-selection-trial","101","447271","0.0-25.0-1.15","947","false","img/card_backs/set1/red.gif","img/card_backs/set1/purple.gif","img/card_backs/set1/yellow.gif","img/card_backs/set1/green.gif","img/card_backs/set2/gray.gif","img/card_backs/set2/blue.gif","img/card_backs/set2/orange.gif","img/card_backs/set2/pink.gif","""event"",""trial"",""time""
""fullscreenenter"",""1"",""4209""
","
","
","""event"",""trial"",""time""
""fullscreenenter"",""1"",""4209""
","
","","1479.0350000257604","","","","real_trial","2021-06-25 11:32:14.975","img/card_backs/set1/green.gif","2","120","1","",""
"casino-fixation","102","447776","0.0-25.0-0.16","947","false","img/card_backs/set1/red.gif","img/card_backs/set1/purple.gif","img/card_backs/set1/yellow.gif","img/card_backs/set1/green.gif","img/card_backs/set2/gray.gif","img/card_backs/set2/blue.gif","img/card_backs/set2/orange.gif","img/card_backs/set2/pink.gif","""event"",""trial"",""time""
""fullscreenenter"",""1"",""4209""
","
","
","""event"",""trial"",""time""
""fullscreenenter"",""1"",""4209""
","
","","null","","null","","fixation","2021-06-25 11:32:15.480","","","","","",""
"card-selection-trial","103","451352","0.0-25.0-1.16","947","false","img/card_backs/set1/red.gif","img/card_backs/set1/purple.gif","img/card_backs/set1/yellow.gif","img/card_backs/set1/green.gif","img/card_backs/set2/gray.gif","img/card_backs/set2/blue.gif","img/card_backs/set2/orange.gif","img/card_backs/set2/pink.gif","""event"",""trial"",""time""
""fullscreenenter"",""1"",""4209""
","
","
","""event"",""trial"",""time""
""fullscreenenter"",""1"",""4209""
","
","","1565.569999977015","","","","real_trial","2021-06-25 11:32:19.057","img/card_backs/set1/green.gif","3","-60","1","",""
"casino-fixation","104","451857","0.0-25.0-0.17","947","false","img/card_backs/set1/red.gif","img/card_backs/set1/purple.gif","img/card_backs/set1/yellow.gif","img/card_backs/set1/green.gif","img/card_backs/set2/gray.gif","img/card_backs/set2/blue.gif","img/card_backs/set2/orange.gif","img/card_backs/set2/pink.gif","""event"",""trial"",""time""
""fullscreenenter"",""1"",""4209""
","
","
","""event"",""trial"",""time""
""fullscreenenter"",""1"",""4209""
","
","","null","","null","","fixation","2021-06-25 11:32:19.561","","","","","",""
"card-selection-trial","105","455153","0.0-25.0-1.17","947","false","img/card_backs/set1/red.gif","img/card_backs/set1/purple.gif","img/card_backs/set1/yellow.gif","img/card_backs/set1/green.gif","img/card_backs/set2/gray.gif","img/card_backs/set2/blue.gif","img/card_backs/set2/orange.gif","img/card_backs/set2/pink.gif","""event"",""trial"",""time""
""fullscreenenter"",""1"",""4209""
","
","
","""event"",""trial"",""time""
""fullscreenenter"",""1"",""4209""
","
","","1286.835000035353","","","","real_trial","2021-06-25 11:32:22.857","img/card_backs/set1/purple.gif","1","200","1","",""
"casino-fixation","106","455660","0.0-25.0-0.18","947","false","img/card_backs/set1/red.gif","img/card_backs/set1/purple.gif","img/card_backs/set1/yellow.gif","img/card_backs/set1/green.gif","img/card_backs/set2/gray.gif","img/card_backs/set2/blue.gif","img/card_backs/set2/orange.gif","img/card_backs/set2/pink.gif","""event"",""trial"",""time""
""fullscreenenter"",""1"",""4209""
","
","
","""event"",""trial"",""time""
""fullscreenenter"",""1"",""4209""
","
","","null","","null","","fixation","2021-06-25 11:32:23.364","","","","","",""
"card-selection-trial","107","459544","0.0-25.0-1.18","947","false","img/card_backs/set1/red.gif","img/card_backs/set1/purple.gif","img/card_backs/set1/yellow.gif","img/card_backs/set1/green.gif","img/card_backs/set2/gray.gif","img/card_backs/set2/blue.gif","img/card_backs/set2/orange.gif","img/card_backs/set2/pink.gif","""event"",""trial"",""time""
""fullscreenenter"",""1"",""4209""
","
","
","""event"",""trial"",""time""
""fullscreenenter"",""1"",""4209""
","
","","1872.1450000302866","","","","real_trial","2021-06-25 11:32:27.249","img/card_backs/set1/yellow.gif","0","-50","1","",""
"casino-fixation","108","460049","0.0-25.0-0.19","947","false","img/card_backs/set1/red.gif","img/card_backs/set1/purple.gif","img/card_backs/set1/yellow.gif","img/card_backs/set1/green.gif","img/card_backs/set2/gray.gif","img/card_backs/set2/blue.gif","img/card_backs/set2/orange.gif","img/card_backs/set2/pink.gif","""event"",""trial"",""time""
""fullscreenenter"",""1"",""4209""
","
","
","""event"",""trial"",""time""
""fullscreenenter"",""1"",""4209""
","
","","null","","null","","fixation","2021-06-25 11:32:27.753","","","","","",""
"card-selection-trial","109","463683","0.0-25.0-1.19","947","false","img/card_backs/set1/red.gif","img/card_backs/set1/purple.gif","img/card_backs/set1/yellow.gif","img/card_backs/set1/green.gif","img/card_backs/set2/gray.gif","img/card_backs/set2/blue.gif","img/card_backs/set2/orange.gif","img/card_backs/set2/pink.gif","""event"",""trial"",""time""
""fullscreenenter"",""1"",""4209""
","
","
","""event"",""trial"",""time""
""fullscreenenter"",""1"",""4209""
","
","","1625.945000036154","","","","real_trial","2021-06-25 11:32:31.387","img/card_backs/set1/green.gif","3","-50","1","",""
"casino-fixation","110","464188","0.0-25.0-0.20","947","false","img/card_backs/set1/red.gif","img/card_backs/set1/purple.gif","img/card_backs/set1/yellow.gif","img/card_backs/set1/green.gif","img/card_backs/set2/gray.gif","img/card_backs/set2/blue.gif","img/card_backs/set2/orange.gif","img/card_backs/set2/pink.gif","""event"",""trial"",""time""
""fullscreenenter"",""1"",""4209""
","
","
","""event"",""trial"",""time""
""fullscreenenter"",""1"",""4209""
","
","","null","","null","","fixation","2021-06-25 11:32:31.892","","","","","",""
"card-selection-trial","111","467370","0.0-25.0-1.20","947","false","img/card_backs/set1/red.gif","img/card_backs/set1/purple.gif","img/card_backs/set1/yellow.gif","img/card_backs/set1/green.gif","img/card_backs/set2/gray.gif","img/card_backs/set2/blue.gif","img/card_backs/set2/orange.gif","img/card_backs/set2/pink.gif","""event"",""trial"",""time""
""fullscreenenter"",""1"",""4209""
","
","
","""event"",""trial"",""time""
""fullscreenenter"",""1"",""4209""
","
","","1170.15999997966","","","","real_trial","2021-06-25 11:32:35.074","img/card_backs/set1/purple.gif","1","-240","1","",""
"casino-fixation","112","467875","0.0-25.0-0.21","947","false","img/card_backs/set1/red.gif","img/card_backs/set1/purple.gif","img/card_backs/set1/yellow.gif","img/card_backs/set1/green.gif","img/card_backs/set2/gray.gif","img/card_backs/set2/blue.gif","img/card_backs/set2/orange.gif","img/card_backs/set2/pink.gif","""event"",""trial"",""time""
""fullscreenenter"",""1"",""4209""
","
","
","""event"",""trial"",""time""
""fullscreenenter"",""1"",""4209""
","
","","null","","null","","fixation","2021-06-25 11:32:35.579","","","","","",""
"card-selection-trial","113","472078","0.0-25.0-1.21","947","false","img/card_backs/set1/red.gif","img/card_backs/set1/purple.gif","img/card_backs/set1/yellow.gif","img/card_backs/set1/green.gif","img/card_backs/set2/gray.gif","img/card_backs/set2/blue.gif","img/card_backs/set2/orange.gif","img/card_backs/set2/pink.gif","""event"",""trial"",""time""
""fullscreenenter"",""1"",""4209""
","
","
","""event"",""trial"",""time""
""fullscreenenter"",""1"",""4209""
","
","","2194.034999993164","","","","real_trial","2021-06-25 11:32:39.782","img/card_backs/set1/purple.gif","3","-230","1","",""
"casino-fixation","114","472582","0.0-25.0-0.22","947","false","img/card_backs/set1/red.gif","img/card_backs/set1/purple.gif","img/card_backs/set1/yellow.gif","img/card_backs/set1/green.gif","img/card_backs/set2/gray.gif","img/card_backs/set2/blue.gif","img/card_backs/set2/orange.gif","img/card_backs/set2/pink.gif","""event"",""trial"",""time""
""fullscreenenter"",""1"",""4209""
","
","
","""event"",""trial"",""time""
""fullscreenenter"",""1"",""4209""
","
","","null","","null","","fixation","2021-06-25 11:32:40.287","","","","","",""
"card-selection-trial","115","475178","0.0-25.0-1.22","947","false","img/card_backs/set1/red.gif","img/card_backs/set1/purple.gif","img/card_backs/set1/yellow.gif","img/card_backs/set1/green.gif","img/card_backs/set2/gray.gif","img/card_backs/set2/blue.gif","img/card_backs/set2/orange.gif","img/card_backs/set2/pink.gif","""event"",""trial"",""time""
""fullscreenenter"",""1"",""4209""
","
","
","""event"",""trial"",""time""
""fullscreenenter"",""1"",""4209""
","
","","582.9299999750219","","","","real_trial","2021-06-25 11:32:42.882","img/card_backs/set1/purple.gif","2","190","1","",""
"casino-fixation","116","475682","0.0-25.0-0.23","947","false","img/card_backs/set1/red.gif","img/card_backs/set1/purple.gif","img/card_backs/set1/yellow.gif","img/card_backs/set1/green.gif","img/card_backs/set2/gray.gif","img/card_backs/set2/blue.gif","img/card_backs/set2/orange.gif","img/card_backs/set2/pink.gif","""event"",""trial"",""time""
""fullscreenenter"",""1"",""4209""
","
","
","""event"",""trial"",""time""
""fullscreenenter"",""1"",""4209""
","
","","null","","null","","fixation","2021-06-25 11:32:43.386","","","","","",""
"card-selection-trial","117","479392","0.0-25.0-1.23","947","false","img/card_backs/set1/red.gif","img/card_backs/set1/purple.gif","img/card_backs/set1/yellow.gif","img/card_backs/set1/green.gif","img/card_backs/set2/gray.gif","img/card_backs/set2/blue.gif","img/card_backs/set2/orange.gif","img/card_backs/set2/pink.gif","""event"",""trial"",""time""
""fullscreenenter"",""1"",""4209""
","
","
","""event"",""trial"",""time""
""fullscreenenter"",""1"",""4209""
","
","","1699.7449999907985","","","","real_trial","2021-06-25 11:32:47.096","img/card_backs/set1/purple.gif","1","-250","1","",""
"casino-fixation","118","479897","0.0-25.0-0.24","947","false","img/card_backs/set1/red.gif","img/card_backs/set1/purple.gif","img/card_backs/set1/yellow.gif","img/card_backs/set1/green.gif","img/card_backs/set2/gray.gif","img/card_backs/set2/blue.gif","img/card_backs/set2/orange.gif","img/card_backs/set2/pink.gif","""event"",""trial"",""time""
""fullscreenenter"",""1"",""4209""
","
","
","""event"",""trial"",""time""
""fullscreenenter"",""1"",""4209""
","
","","null","","null","","fixation","2021-06-25 11:32:47.601","","","","","",""
"card-selection-trial","119","483128","0.0-25.0-1.24","947","false","img/card_backs/set1/red.gif","img/card_backs/set1/purple.gif","img/card_backs/set1/yellow.gif","img/card_backs/set1/green.gif","img/card_backs/set2/gray.gif","img/card_backs/set2/blue.gif","img/card_backs/set2/orange.gif","img/card_backs/set2/pink.gif","""event"",""trial"",""time""
""fullscreenenter"",""1"",""4209""
","
","
","""event"",""trial"",""time""
""fullscreenenter"",""1"",""4209""
","
","","1221.2600000202656","","","","real_trial","2021-06-25 11:32:50.832","img/card_backs/set1/yellow.gif","0","-70","1","",""
"casino-fixation","120","483635","0.0-25.0-0.25","947","false","img/card_backs/set1/red.gif","img/card_backs/set1/purple.gif","img/card_backs/set1/yellow.gif","img/card_backs/set1/green.gif","img/card_backs/set2/gray.gif","img/card_backs/set2/blue.gif","img/card_backs/set2/orange.gif","img/card_backs/set2/pink.gif","""event"",""trial"",""time""
""fullscreenenter"",""1"",""4209""
","
","
","""event"",""trial"",""time""
""fullscreenenter"",""1"",""4209""
","
","","null","","null","","fixation","2021-06-25 11:32:51.339","","","","","",""
"card-selection-trial","121","487171","0.0-25.0-1.25","947","false","img/card_backs/set1/red.gif","img/card_backs/set1/purple.gif","img/card_backs/set1/yellow.gif","img/card_backs/set1/green.gif","img/card_backs/set2/gray.gif","img/card_backs/set2/blue.gif","img/card_backs/set2/orange.gif","img/card_backs/set2/pink.gif","""event"",""trial"",""time""
""fullscreenenter"",""1"",""4209""
","
","
","""event"",""trial"",""time""
""fullscreenenter"",""1"",""4209""
","
","","1524.799999955576","","","","real_trial","2021-06-25 11:32:54.875","img/card_backs/set1/green.gif","2","-70","1","",""
"casino-fixation","122","487676","0.0-25.0-0.26","947","false","img/card_backs/set1/red.gif","img/card_backs/set1/purple.gif","img/card_backs/set1/yellow.gif","img/card_backs/set1/green.gif","img/card_backs/set2/gray.gif","img/card_backs/set2/blue.gif","img/card_backs/set2/orange.gif","img/card_backs/set2/pink.gif","""event"",""trial"",""time""
""fullscreenenter"",""1"",""4209""
","
","
","""event"",""trial"",""time""
""fullscreenenter"",""1"",""4209""
","
","","null","","null","","fixation","2021-06-25 11:32:55.380","","","","","",""
"card-selection-trial","123","491629","0.0-25.0-1.26","947","false","img/card_backs/set1/red.gif","img/card_backs/set1/purple.gif","img/card_backs/set1/yellow.gif","img/card_backs/set1/green.gif","img/card_backs/set2/gray.gif","img/card_backs/set2/blue.gif","img/card_backs/set2/orange.gif","img/card_backs/set2/pink.gif","""event"",""trial"",""time""
""fullscreenenter"",""1"",""4209""
","
","
","""event"",""trial"",""time""
""fullscreenenter"",""1"",""4209""
","
","","1945.7800000091083","","","","real_trial","2021-06-25 11:32:59.333","img/card_backs/set1/green.gif","3","-50","1","",""
"casino-fixation","124","492134","0.0-25.0-0.27","947","false","img/card_backs/set1/red.gif","img/card_backs/set1/purple.gif","img/card_backs/set1/yellow.gif","img/card_backs/set1/green.gif","img/card_backs/set2/gray.gif","img/card_backs/set2/blue.gif","img/card_backs/set2/orange.gif","img/card_backs/set2/pink.gif","""event"",""trial"",""time""
""fullscreenenter"",""1"",""4209""
","
","
","""event"",""trial"",""time""
""fullscreenenter"",""1"",""4209""
","
","","null","","null","","fixation","2021-06-25 11:32:59.838","","","","","",""
"card-selection-trial","125","495386","0.0-25.0-1.27","947","false","img/card_backs/set1/red.gif","img/card_backs/set1/purple.gif","img/card_backs/set1/yellow.gif","img/card_backs/set1/green.gif","img/card_backs/set2/gray.gif","img/card_backs/set2/blue.gif","img/card_backs/set2/orange.gif","img/card_backs/set2/pink.gif","""event"",""trial"",""time""
""fullscreenenter"",""1"",""4209""
","
","
","""event"",""trial"",""time""
""fullscreenenter"",""1"",""4209""
","
","","1242.5700000021607","","","","real_trial","2021-06-25 11:33:03.090","img/card_backs/set1/green.gif","1","-60","1","",""
"casino-fixation","126","495890","0.0-25.0-0.28","947","false","img/card_backs/set1/red.gif","img/card_backs/set1/purple.gif","img/card_backs/set1/yellow.gif","img/card_backs/set1/green.gif","img/card_backs/set2/gray.gif","img/card_backs/set2/blue.gif","img/card_backs/set2/orange.gif","img/card_backs/set2/pink.gif","""event"",""trial"",""time""
""fullscreenenter"",""1"",""4209""
","
","
","""event"",""trial"",""time""
""fullscreenenter"",""1"",""4209""
","
","","null","","null","","fixation","2021-06-25 11:33:03.594","","","","","",""
"card-selection-trial","127","500629","0.0-25.0-1.28","947","false","img/card_backs/set1/red.gif","img/card_backs/set1/purple.gif","img/card_backs/set1/yellow.gif","img/card_backs/set1/green.gif","img/card_backs/set2/gray.gif","img/card_backs/set2/blue.gif","img/card_backs/set2/orange.gif","img/card_backs/set2/pink.gif","""event"",""trial"",""time""
""fullscreenenter"",""1"",""4209""
","
","
","""event"",""trial"",""time""
""fullscreenenter"",""1"",""4209""
","
","","2729.5199999934994","","","","real_trial","2021-06-25 11:33:08.333","img/card_backs/set1/yellow.gif","2","-50","1","",""
"casino-fixation","128","501132","0.0-25.0-0.29","947","false","img/card_backs/set1/red.gif","img/card_backs/set1/purple.gif","img/card_backs/set1/yellow.gif","img/card_backs/set1/green.gif","img/card_backs/set2/gray.gif","img/card_backs/set2/blue.gif","img/card_backs/set2/orange.gif","img/card_backs/set2/pink.gif","""event"",""trial"",""time""
""fullscreenenter"",""1"",""4209""
","
","
","""event"",""trial"",""time""
""fullscreenenter"",""1"",""4209""
","
","","null","","null","","fixation","2021-06-25 11:33:08.836","","","","","",""
"card-selection-trial","129","504482","0.0-25.0-1.29","947","false","img/card_backs/set1/red.gif","img/card_backs/set1/purple.gif","img/card_backs/set1/yellow.gif","img/card_backs/set1/green.gif","img/card_backs/set2/gray.gif","img/card_backs/set2/blue.gif","img/card_backs/set2/orange.gif","img/card_backs/set2/pink.gif","""event"",""trial"",""time""
""fullscreenenter"",""1"",""4209""
","
","
","""event"",""trial"",""time""
""fullscreenenter"",""1"",""4209""
","
","","1337.554999976419","","","","real_trial","2021-06-25 11:33:12.186","img/card_backs/set1/purple.gif","0","180","1","",""
"casino-fixation","130","504987","0.0-25.0-0.30","947","false","img/card_backs/set1/red.gif","img/card_backs/set1/purple.gif","img/card_backs/set1/yellow.gif","img/card_backs/set1/green.gif","img/card_backs/set2/gray.gif","img/card_backs/set2/blue.gif","img/card_backs/set2/orange.gif","img/card_backs/set2/pink.gif","""event"",""trial"",""time""
""fullscreenenter"",""1"",""4209""
","
","
","""event"",""trial"",""time""
""fullscreenenter"",""1"",""4209""
","
","","null","","null","","fixation","2021-06-25 11:33:12.691","","","","","",""
"card-selection-trial","131","508395","0.0-25.0-1.30","947","false","img/card_backs/set1/red.gif","img/card_backs/set1/purple.gif","img/card_backs/set1/yellow.gif","img/card_backs/set1/green.gif","img/card_backs/set2/gray.gif","img/card_backs/set2/blue.gif","img/card_backs/set2/orange.gif","img/card_backs/set2/pink.gif","""event"",""trial"",""time""
""fullscreenenter"",""1"",""4209""
","
","
","""event"",""trial"",""time""
""fullscreenenter"",""1"",""4209""
","
","","1399.9199999962002","","","","real_trial","2021-06-25 11:33:16.099","img/card_backs/set1/yellow.gif","0","-70","1","",""
"casino-fixation","132","508899","0.0-25.0-0.31","947","false","img/card_backs/set1/red.gif","img/card_backs/set1/purple.gif","img/card_backs/set1/yellow.gif","img/card_backs/set1/green.gif","img/card_backs/set2/gray.gif","img/card_backs/set2/blue.gif","img/card_backs/set2/orange.gif","img/card_backs/set2/pink.gif","""event"",""trial"",""time""
""fullscreenenter"",""1"",""4209""
","
","
","""event"",""trial"",""time""
""fullscreenenter"",""1"",""4209""
","
","","null","","null","","fixation","2021-06-25 11:33:16.603","","","","","",""
"card-selection-trial","133","512620","0.0-25.0-1.31","947","false","img/card_backs/set1/red.gif","img/card_backs/set1/purple.gif","img/card_backs/set1/yellow.gif","img/card_backs/set1/green.gif","img/card_backs/set2/gray.gif","img/card_backs/set2/blue.gif","img/card_backs/set2/orange.gif","img/card_backs/set2/pink.gif","""event"",""trial"",""time""
""fullscreenenter"",""1"",""4209""
","
","
","""event"",""trial"",""time""
""fullscreenenter"",""1"",""4209""
","
","","1710.4899999685585","","","","real_trial","2021-06-25 11:33:20.324","img/card_backs/set1/red.gif","3","180","1","",""
"casino-fixation","134","513126","0.0-25.0-0.32","947","false","img/card_backs/set1/red.gif","img/card_backs/set1/purple.gif","img/card_backs/set1/yellow.gif","img/card_backs/set1/green.gif","img/card_backs/set2/gray.gif","img/card_backs/set2/blue.gif","img/card_backs/set2/orange.gif","img/card_backs/set2/pink.gif","""event"",""trial"",""time""
""fullscreenenter"",""1"",""4209""
","
","
","""event"",""trial"",""time""
""fullscreenenter"",""1"",""4209""
","
","","null","","null","","fixation","2021-06-25 11:33:20.830","","","","","",""
"card-selection-trial","135","517114","0.0-25.0-1.32","947","false","img/card_backs/set1/red.gif","img/card_backs/set1/purple.gif","img/card_backs/set1/yellow.gif","img/card_backs/set1/green.gif","img/card_backs/set2/gray.gif","img/card_backs/set2/blue.gif","img/card_backs/set2/orange.gif","img/card_backs/set2/pink.gif","""event"",""trial"",""time""
""fullscreenenter"",""1"",""4209""
","
","
","""event"",""trial"",""time""
""fullscreenenter"",""1"",""4209""
","
","","1979.2899999883957","","","","real_trial","2021-06-25 11:33:24.819","img/card_backs/set1/purple.gif","1","190","1","",""
"casino-fixation","136","517619","0.0-25.0-0.33","947","false","img/card_backs/set1/red.gif","img/card_backs/set1/purple.gif","img/card_backs/set1/yellow.gif","img/card_backs/set1/green.gif","img/card_backs/set2/gray.gif","img/card_backs/set2/blue.gif","img/card_backs/set2/orange.gif","img/card_backs/set2/pink.gif","""event"",""trial"",""time""
""fullscreenenter"",""1"",""4209""
","
","
","""event"",""trial"",""time""
""fullscreenenter"",""1"",""4209""
","
","","null","","null","","fixation","2021-06-25 11:33:25.323","","","","","",""
"card-selection-trial","137","522676","0.0-25.0-1.33","947","false","img/card_backs/set1/red.gif","img/card_backs/set1/purple.gif","img/card_backs/set1/yellow.gif","img/card_backs/set1/green.gif","img/card_backs/set2/gray.gif","img/card_backs/set2/blue.gif","img/card_backs/set2/orange.gif","img/card_backs/set2/pink.gif","""event"",""trial"",""time""
""fullscreenenter"",""1"",""4209""
","
","
","""event"",""trial"",""time""
""fullscreenenter"",""1"",""4209""
","
","","3045.510000025388","","","","real_trial","2021-06-25 11:33:30.380","img/card_backs/set1/purple.gif","2","200","1","",""
"casino-fixation","138","523180","0.0-25.0-0.34","947","false","img/card_backs/set1/red.gif","img/card_backs/set1/purple.gif","img/card_backs/set1/yellow.gif","img/card_backs/set1/green.gif","img/card_backs/set2/gray.gif","img/card_backs/set2/blue.gif","img/card_backs/set2/orange.gif","img/card_backs/set2/pink.gif","""event"",""trial"",""time""
""fullscreenenter"",""1"",""4209""
","
","
","""event"",""trial"",""time""
""fullscreenenter"",""1"",""4209""
","
","","null","","null","","fixation","2021-06-25 11:33:30.884","","","","","",""
"card-selection-trial","139","526664","0.0-25.0-1.34","947","false","img/card_backs/set1/red.gif","img/card_backs/set1/purple.gif","img/card_backs/set1/yellow.gif","img/card_backs/set1/green.gif","img/card_backs/set2/gray.gif","img/card_backs/set2/blue.gif","img/card_backs/set2/orange.gif","img/card_backs/set2/pink.gif","""event"",""trial"",""time""
""fullscreenenter"",""1"",""4209""
","
","
","""event"",""trial"",""time""
""fullscreenenter"",""1"",""4209""
","
","","1473.4799999860115","","","","real_trial","2021-06-25 11:33:34.368","img/card_backs/set1/red.gif","0","-230","1","",""
"casino-fixation","140","527169","0.0-25.0-0.35","947","false","img/card_backs/set1/red.gif","img/card_backs/set1/purple.gif","img/card_backs/set1/yellow.gif","img/card_backs/set1/green.gif","img/card_backs/set2/gray.gif","img/card_backs/set2/blue.gif","img/card_backs/set2/orange.gif","img/card_backs/set2/pink.gif","""event"",""trial"",""time""
""fullscreenenter"",""1"",""4209""
","
","
","""event"",""trial"",""time""
""fullscreenenter"",""1"",""4209""
","
","","null","","null","","fixation","2021-06-25 11:33:34.873","","","","","",""
"card-selection-trial","141","532093","0.0-25.0-1.35","947","false","img/card_backs/set1/red.gif","img/card_backs/set1/purple.gif","img/card_backs/set1/yellow.gif","img/card_backs/set1/green.gif","img/card_backs/set2/gray.gif","img/card_backs/set2/blue.gif","img/card_backs/set2/orange.gif","img/card_backs/set2/pink.gif","""event"",""trial"",""time""
""fullscreenenter"",""1"",""4209""
","
","
","""event"",""trial"",""time""
""fullscreenenter"",""1"",""4209""
","
","","2915.0749999680556","","","","real_trial","2021-06-25 11:33:39.798","img/card_backs/set1/red.gif","3","180","1","",""
"casino-fixation","142","532598","0.0-25.0-0.36","947","false","img/card_backs/set1/red.gif","img/card_backs/set1/purple.gif","img/card_backs/set1/yellow.gif","img/card_backs/set1/green.gif","img/card_backs/set2/gray.gif","img/card_backs/set2/blue.gif","img/card_backs/set2/orange.gif","img/card_backs/set2/pink.gif","""event"",""trial"",""time""
""fullscreenenter"",""1"",""4209""
","
","
","""event"",""trial"",""time""
""fullscreenenter"",""1"",""4209""
","
","","null","","null","","fixation","2021-06-25 11:33:40.302","","","","","",""
"card-selection-trial","143","535888","0.0-25.0-1.36","947","false","img/card_backs/set1/red.gif","img/card_backs/set1/purple.gif","img/card_backs/set1/yellow.gif","img/card_backs/set1/green.gif","img/card_backs/set2/gray.gif","img/card_backs/set2/blue.gif","img/card_backs/set2/orange.gif","img/card_backs/set2/pink.gif","""event"",""trial"",""time""
""fullscreenenter"",""1"",""4209""
","
","
","""event"",""trial"",""time""
""fullscreenenter"",""1"",""4209""
","
","","1280.2950000041164","","","","real_trial","2021-06-25 11:33:43.592","img/card_backs/set1/purple.gif","1","-240","1","",""
"casino-fixation","144","536393","0.0-25.0-0.37","947","false","img/card_backs/set1/red.gif","img/card_backs/set1/purple.gif","img/card_backs/set1/yellow.gif","img/card_backs/set1/green.gif","img/card_backs/set2/gray.gif","img/card_backs/set2/blue.gif","img/card_backs/set2/orange.gif","img/card_backs/set2/pink.gif","""event"",""trial"",""time""
""fullscreenenter"",""1"",""4209""
","
","
","""event"",""trial"",""time""
""fullscreenenter"",""1"",""4209""
","
","","null","","null","","fixation","2021-06-25 11:33:44.097","","","","","",""
"card-selection-trial","145","538919","0.0-25.0-1.37","947","false","img/card_backs/set1/red.gif","img/card_backs/set1/purple.gif","img/card_backs/set1/yellow.gif","img/card_backs/set1/green.gif","img/card_backs/set2/gray.gif","img/card_backs/set2/blue.gif","img/card_backs/set2/orange.gif","img/card_backs/set2/pink.gif","""event"",""trial"",""time""
""fullscreenenter"",""1"",""4209""
","
","
","""event"",""trial"",""time""
""fullscreenenter"",""1"",""4209""
","
","","515.625","","","","real_trial","2021-06-25 11:33:46.623","img/card_backs/set1/yellow.gif","3","-70","1","",""
"casino-fixation","146","539423","0.0-25.0-0.38","947","false","img/card_backs/set1/red.gif","img/card_backs/set1/purple.gif","img/card_backs/set1/yellow.gif","img/card_backs/set1/green.gif","img/card_backs/set2/gray.gif","img/card_backs/set2/blue.gif","img/card_backs/set2/orange.gif","img/card_backs/set2/pink.gif","""event"",""trial"",""time""
""fullscreenenter"",""1"",""4209""
","
","
","""event"",""trial"",""time""
""fullscreenenter"",""1"",""4209""
","
","","null","","null","","fixation","2021-06-25 11:33:47.127","","","","","",""
"card-selection-trial","147","542541","0.0-25.0-1.38","947","false","img/card_backs/set1/red.gif","img/card_backs/set1/purple.gif","img/card_backs/set1/yellow.gif","img/card_backs/set1/green.gif","img/card_backs/set2/gray.gif","img/card_backs/set2/blue.gif","img/card_backs/set2/orange.gif","img/card_backs/set2/pink.gif","""event"",""trial"",""time""
""fullscreenenter"",""1"",""4209""
","
","
","""event"",""trial"",""time""
""fullscreenenter"",""1"",""4209""
","
","","1106.415000045672","","","","real_trial","2021-06-25 11:33:50.245","img/card_backs/set1/red.gif","3","190","1","",""
"casino-fixation","148","543046","0.0-25.0-0.39","947","false","img/card_backs/set1/red.gif","img/card_backs/set1/purple.gif","img/card_backs/set1/yellow.gif","img/card_backs/set1/green.gif","img/card_backs/set2/gray.gif","img/card_backs/set2/blue.gif","img/card_backs/set2/orange.gif","img/card_backs/set2/pink.gif","""event"",""trial"",""time""
""fullscreenenter"",""1"",""4209""
","
","
","""event"",""trial"",""time""
""fullscreenenter"",""1"",""4209""
","
","","null","","null","","fixation","2021-06-25 11:33:50.750","","","","","",""
"card-selection-trial","149","545472","0.0-25.0-1.39","947","false","img/card_backs/set1/red.gif","img/card_backs/set1/purple.gif","img/card_backs/set1/yellow.gif","img/card_backs/set1/green.gif","img/card_backs/set2/gray.gif","img/card_backs/set2/blue.gif","img/card_backs/set2/orange.gif","img/card_backs/set2/pink.gif","""event"",""trial"",""time""
""fullscreenenter"",""1"",""4209""
","
","
","""event"",""trial"",""time""
""fullscreenenter"",""1"",""4209""
","
","","414.6399999735877","","","","real_trial","2021-06-25 11:33:53.176","img/card_backs/set1/green.gif","0","100","1","",""
"casino-fixation","150","545977","0.0-25.0-0.40","947","false","img/card_backs/set1/red.gif","img/card_backs/set1/purple.gif","img/card_backs/set1/yellow.gif","img/card_backs/set1/green.gif","img/card_backs/set2/gray.gif","img/card_backs/set2/blue.gif","img/card_backs/set2/orange.gif","img/card_backs/set2/pink.gif","""event"",""trial"",""time""
""fullscreenenter"",""1"",""4209""
","
","
","""event"",""trial"",""time""
""fullscreenenter"",""1"",""4209""
","
","","null","","null","","fixation","2021-06-25 11:33:53.681","","","","","",""
"card-selection-trial","151","549252","0.0-25.0-1.40","947","false","img/card_backs/set1/red.gif","img/card_backs/set1/purple.gif","img/card_backs/set1/yellow.gif","img/card_backs/set1/green.gif","img/card_backs/set2/gray.gif","img/card_backs/set2/blue.gif","img/card_backs/set2/orange.gif","img/card_backs/set2/pink.gif","""event"",""trial"",""time""
""fullscreenenter"",""1"",""4209""
","
","
","""event"",""trial"",""time""
""fullscreenenter"",""1"",""4209""
","
","","1265.7449999824166","","","","real_trial","2021-06-25 11:33:56.956","img/card_backs/set1/green.gif","1","110","1","",""
"casino-fixation","152","549756","0.0-25.0-0.41","947","false","img/card_backs/set1/red.gif","img/card_backs/set1/purple.gif","img/card_backs/set1/yellow.gif","img/card_backs/set1/green.gif","img/card_backs/set2/gray.gif","img/card_backs/set2/blue.gif","img/card_backs/set2/orange.gif","img/card_backs/set2/pink.gif","""event"",""trial"",""time""
""fullscreenenter"",""1"",""4209""
","
","
","""event"",""trial"",""time""
""fullscreenenter"",""1"",""4209""
","
","","null","","null","","fixation","2021-06-25 11:33:57.460","","","","","",""
"card-selection-trial","153","552190","0.0-25.0-1.41","947","false","img/card_backs/set1/red.gif","img/card_backs/set1/purple.gif","img/card_backs/set1/yellow.gif","img/card_backs/set1/green.gif","img/card_backs/set2/gray.gif","img/card_backs/set2/blue.gif","img/card_backs/set2/orange.gif","img/card_backs/set2/pink.gif","""event"",""trial"",""time""
""fullscreenenter"",""1"",""4209""
","
","
","""event"",""trial"",""time""
""fullscreenenter"",""1"",""4209""
","
","","423.3050000038929","","","","real_trial","2021-06-25 11:33:59.894","img/card_backs/set1/green.gif","3","-50","1","",""
"casino-fixation","154","552694","0.0-25.0-0.42","947","false","img/card_backs/set1/red.gif","img/card_backs/set1/purple.gif","img/card_backs/set1/yellow.gif","img/card_backs/set1/green.gif","img/card_backs/set2/gray.gif","img/card_backs/set2/blue.gif","img/card_backs/set2/orange.gif","img/card_backs/set2/pink.gif","""event"",""trial"",""time""
""fullscreenenter"",""1"",""4209""
","
","
","""event"",""trial"",""time""
""fullscreenenter"",""1"",""4209""
","
","","null","","null","","fixation","2021-06-25 11:34:00.398","","","","","",""
"card-selection-trial","155","556700","0.0-25.0-1.42","947","false","img/card_backs/set1/red.gif","img/card_backs/set1/purple.gif","img/card_backs/set1/yellow.gif","img/card_backs/set1/green.gif","img/card_backs/set2/gray.gif","img/card_backs/set2/blue.gif","img/card_backs/set2/orange.gif","img/card_backs/set2/pink.gif","""event"",""trial"",""time""
""fullscreenenter"",""1"",""4209""
","
","
","""event"",""trial"",""time""
""fullscreenenter"",""1"",""4209""
","
","","1996.9700000365265","","","","real_trial","2021-06-25 11:34:04.404","img/card_backs/set1/purple.gif","1","190","1","",""
"casino-fixation","156","557204","0.0-25.0-0.43","947","false","img/card_backs/set1/red.gif","img/card_backs/set1/purple.gif","img/card_backs/set1/yellow.gif","img/card_backs/set1/green.gif","img/card_backs/set2/gray.gif","img/card_backs/set2/blue.gif","img/card_backs/set2/orange.gif","img/card_backs/set2/pink.gif","""event"",""trial"",""time""
""fullscreenenter"",""1"",""4209""
","
","
","""event"",""trial"",""time""
""fullscreenenter"",""1"",""4209""
","
","","null","","null","","fixation","2021-06-25 11:34:04.909","","","","","",""
"card-selection-trial","157","560932","0.0-25.0-1.43","947","false","img/card_backs/set1/red.gif","img/card_backs/set1/purple.gif","img/card_backs/set1/yellow.gif","img/card_backs/set1/green.gif","img/card_backs/set2/gray.gif","img/card_backs/set2/blue.gif","img/card_backs/set2/orange.gif","img/card_backs/set2/pink.gif","""event"",""trial"",""time""
""fullscreenenter"",""1"",""4209""
","
","
","""event"",""trial"",""time""
""fullscreenenter"",""1"",""4209""
","
","","1715.2699999860488","","","","real_trial","2021-06-25 11:34:08.636","img/card_backs/set1/green.gif","3","100","1","",""
"casino-fixation","158","561436","0.0-25.0-0.44","947","false","img/card_backs/set1/red.gif","img/card_backs/set1/purple.gif","img/card_backs/set1/yellow.gif","img/card_backs/set1/green.gif","img/card_backs/set2/gray.gif","img/card_backs/set2/blue.gif","img/card_backs/set2/orange.gif","img/card_backs/set2/pink.gif","""event"",""trial"",""time""
""fullscreenenter"",""1"",""4209""
","
","
","""event"",""trial"",""time""
""fullscreenenter"",""1"",""4209""
","
","","null","","null","","fixation","2021-06-25 11:34:09.141","","","","","",""
"card-selection-trial","159","564867","0.0-25.0-1.44","947","false","img/card_backs/set1/red.gif","img/card_backs/set1/purple.gif","img/card_backs/set1/yellow.gif","img/card_backs/set1/green.gif","img/card_backs/set2/gray.gif","img/card_backs/set2/blue.gif","img/card_backs/set2/orange.gif","img/card_backs/set2/pink.gif","""event"",""trial"",""time""
""fullscreenenter"",""1"",""4209""
","
","
","""event"",""trial"",""time""
""fullscreenenter"",""1"",""4209""
","
","","1419.8050000122748","","","","real_trial","2021-06-25 11:34:12.572","img/card_backs/set1/purple.gif","2","190","1","",""
"casino-fixation","160","565372","0.0-25.0-0.45","947","false","img/card_backs/set1/red.gif","img/card_backs/set1/purple.gif","img/card_backs/set1/yellow.gif","img/card_backs/set1/green.gif","img/card_backs/set2/gray.gif","img/card_backs/set2/blue.gif","img/card_backs/set2/orange.gif","img/card_backs/set2/pink.gif","""event"",""trial"",""time""
""fullscreenenter"",""1"",""4209""
","
","
","""event"",""trial"",""time""
""fullscreenenter"",""1"",""4209""
","
","","null","","null","","fixation","2021-06-25 11:34:13.076","","","","","",""
"card-selection-trial","161","569035","0.0-25.0-1.45","947","false","img/card_backs/set1/red.gif","img/card_backs/set1/purple.gif","img/card_backs/set1/yellow.gif","img/card_backs/set1/green.gif","img/card_backs/set2/gray.gif","img/card_backs/set2/blue.gif","img/card_backs/set2/orange.gif","img/card_backs/set2/pink.gif","""event"",""trial"",""time""
""fullscreenenter"",""1"",""4209""
","
","
","""event"",""trial"",""time""
""fullscreenenter"",""1"",""4209""
","
","","1652.2150000091642","","","","real_trial","2021-06-25 11:34:16.739","img/card_backs/set1/green.gif","1","120","1","",""
"casino-fixation","162","569540","0.0-25.0-0.46","947","false","img/card_backs/set1/red.gif","img/card_backs/set1/purple.gif","img/card_backs/set1/yellow.gif","img/card_backs/set1/green.gif","img/card_backs/set2/gray.gif","img/card_backs/set2/blue.gif","img/card_backs/set2/orange.gif","img/card_backs/set2/pink.gif","""event"",""trial"",""time""
""fullscreenenter"",""1"",""4209""
","
","
","""event"",""trial"",""time""
""fullscreenenter"",""1"",""4209""
","
","","null","","null","","fixation","2021-06-25 11:34:17.245","","","","","",""
"card-selection-trial","163","573070","0.0-25.0-1.46","947","false","img/card_backs/set1/red.gif","img/card_backs/set1/purple.gif","img/card_backs/set1/yellow.gif","img/card_backs/set1/green.gif","img/card_backs/set2/gray.gif","img/card_backs/set2/blue.gif","img/card_backs/set2/orange.gif","img/card_backs/set2/pink.gif","""event"",""trial"",""time""
""fullscreenenter"",""1"",""4209""
","
","
","""event"",""trial"",""time""
""fullscreenenter"",""1"",""4209""
","
","","1518.744999950286","","","","real_trial","2021-06-25 11:34:20.774","img/card_backs/set1/purple.gif","2","180","1","",""
"casino-fixation","164","573575","0.0-25.0-0.47","947","false","img/card_backs/set1/red.gif","img/card_backs/set1/purple.gif","img/card_backs/set1/yellow.gif","img/card_backs/set1/green.gif","img/card_backs/set2/gray.gif","img/card_backs/set2/blue.gif","img/card_backs/set2/orange.gif","img/card_backs/set2/pink.gif","""event"",""trial"",""time""
""fullscreenenter"",""1"",""4209""
","
","
","""event"",""trial"",""time""
""fullscreenenter"",""1"",""4209""
","
","","null","","null","","fixation","2021-06-25 11:34:21.279","","","","","",""
"card-selection-trial","165","580321","0.0-25.0-1.47","947","false","img/card_backs/set1/red.gif","img/card_backs/set1/purple.gif","img/card_backs/set1/yellow.gif","img/card_backs/set1/green.gif","img/card_backs/set2/gray.gif","img/card_backs/set2/blue.gif","img/card_backs/set2/orange.gif","img/card_backs/set2/pink.gif","""event"",""trial"",""time""
""fullscreenenter"",""1"",""4209""
","
","
","""event"",""trial"",""time""
""fullscreenenter"",""1"",""4209""
","
","","4735.99000001559","","","","real_trial","2021-06-25 11:34:28.025","img/card_backs/set1/green.gif","2","-50","1","",""
"casino-fixation","166","580826","0.0-25.0-0.48","947","false","img/card_backs/set1/red.gif","img/card_backs/set1/purple.gif","img/card_backs/set1/yellow.gif","img/card_backs/set1/green.gif","img/card_backs/set2/gray.gif","img/card_backs/set2/blue.gif","img/card_backs/set2/orange.gif","img/card_backs/set2/pink.gif","""event"",""trial"",""time""
""fullscreenenter"",""1"",""4209""
","
","
","""event"",""trial"",""time""
""fullscreenenter"",""1"",""4209""
","
","","null","","null","","fixation","2021-06-25 11:34:28.530","","","","","",""
