"trial_type","trial_index","time_elapsed","internal_node_id","sub_id","risk_good_first","block1_A","block1_B","block1_C","block1_D","block2_A","block2_B","block2_C","block2_D","interactions","blur_events","focus_events","fullscreenenter_events","fullscreenexit_events","success","rt","stimulus","key_press","button_pressed","task_part","timestamp","card_choice","choice_position","points_earned","block","correct","response"
"pavlovia","0","11","0.0-0.0","A1176","false","img/card_backs/set1/red.gif","img/card_backs/set1/purple.gif","img/card_backs/set1/green.gif","img/card_backs/set1/yellow.gif","img/card_backs/set2/blue.gif","img/card_backs/set2/gray.gif","img/card_backs/set2/orange.gif","img/card_backs/set2/pink.gif","""event"",""trial"",""time""
""fullscreenenter"",""1"",""3085""
","
","
","""event"",""trial"",""time""
""fullscreenenter"",""1"",""3085""
","
","","","","","","","","","","","","",""
"fullscreen","1","3998","0.0-1.0","A1176","false","img/card_backs/set1/red.gif","img/card_backs/set1/purple.gif","img/card_backs/set1/green.gif","img/card_backs/set1/yellow.gif","img/card_backs/set2/blue.gif","img/card_backs/set2/gray.gif","img/card_backs/set2/orange.gif","img/card_backs/set2/pink.gif","""event"",""trial"",""time""
""fullscreenenter"",""1"",""3085""
","
","
","""event"",""trial"",""time""
""fullscreenenter"",""1"",""3085""
","
","true","","","","","","","","","","","",""
"audio-keyboard-response","2","7989","0.0-2.0","A1176","false","img/card_backs/set1/red.gif","img/card_backs/set1/purple.gif","img/card_backs/set1/green.gif","img/card_backs/set1/yellow.gif","img/card_backs/set2/blue.gif","img/card_backs/set2/gray.gif","img/card_backs/set2/orange.gif","img/card_backs/set2/pink.gif","""event"",""trial"",""time""
""fullscreenenter"",""1"",""3085""
","
","
","""event"",""trial"",""time""
""fullscreenenter"",""1"",""3085""
","
","","3200","audio/beep_loop.wav","32","","","","","","","","",""
"audio-button-response","3","10423","0.0-3.0","A1176","false","img/card_backs/set1/red.gif","img/card_backs/set1/purple.gif","img/card_backs/set1/green.gif","img/card_backs/set1/yellow.gif","img/card_backs/set2/blue.gif","img/card_backs/set2/gray.gif","img/card_backs/set2/orange.gif","img/card_backs/set2/pink.gif","""event"",""trial"",""time""
""fullscreenenter"",""1"",""3085""
","
","
","""event"",""trial"",""time""
""fullscreenenter"",""1"",""3085""
","
","","NaN","audio/turtle.mp3","","3","","","","","","","",""
"audio-button-response","4","12549","0.0-4.0","A1176","false","img/card_backs/set1/red.gif","img/card_backs/set1/purple.gif","img/card_backs/set1/green.gif","img/card_backs/set1/yellow.gif","img/card_backs/set2/blue.gif","img/card_backs/set2/gray.gif","img/card_backs/set2/orange.gif","img/card_backs/set2/pink.gif","""event"",""trial"",""time""
""fullscreenenter"",""1"",""3085""
","
","
","""event"",""trial"",""time""
""fullscreenenter"",""1"",""3085""
","
","","NaN","audio/shark.mp3","","2","","","","","","","",""
"fullscreen","5","16810","0.0-5.0","A1176","false","img/card_backs/set1/red.gif","img/card_backs/set1/purple.gif","img/card_backs/set1/green.gif","img/card_backs/set1/yellow.gif","img/card_backs/set2/blue.gif","img/card_backs/set2/gray.gif","img/card_backs/set2/orange.gif","img/card_backs/set2/pink.gif","""event"",""trial"",""time""
""fullscreenenter"",""1"",""3085""
","
","
","""event"",""trial"",""time""
""fullscreenenter"",""1"",""3085""
","
","true","","","","","","","","","","","",""
"casino-keyboard-response","6","20134","0.0-6.0-0.0","A1176","false","img/card_backs/set1/red.gif","img/card_backs/set1/purple.gif","img/card_backs/set1/green.gif","img/card_backs/set1/yellow.gif","img/card_backs/set2/blue.gif","img/card_backs/set2/gray.gif","img/card_backs/set2/orange.gif","img/card_backs/set2/pink.gif","""event"",""trial"",""time""
""fullscreenenter"",""1"",""3085""
","
","
","""event"",""trial"",""time""
""fullscreenenter"",""1"",""3085""
","
","","3314.5699999295175","Welcome to the casino!","71","","instructions","2021-06-29 00:20:16.277","","","","","",""
"casino-keyboard-response","7","30006","0.0-6.0-0.1","A1176","false","img/card_backs/set1/red.gif","img/card_backs/set1/purple.gif","img/card_backs/set1/green.gif","img/card_backs/set1/yellow.gif","img/card_backs/set2/blue.gif","img/card_backs/set2/gray.gif","img/card_backs/set2/orange.gif","img/card_backs/set2/pink.gif","""event"",""trial"",""time""
""fullscreenenter"",""1"",""3085""
","
","
","""event"",""trial"",""time""
""fullscreenenter"",""1"",""3085""
","
","","9868.6450002715","Today you will be playing a game to earn tokens. </br> At the end of the experiment, you will be paid a bonus based on how many tokens you win. ","69","","instructions","2021-06-29 00:20:26.149","","","","","",""
"casino-keyboard-response","8","37394","0.0-6.0-0.2","A1176","false","img/card_backs/set1/red.gif","img/card_backs/set1/purple.gif","img/card_backs/set1/green.gif","img/card_backs/set1/yellow.gif","img/card_backs/set2/blue.gif","img/card_backs/set2/gray.gif","img/card_backs/set2/orange.gif","img/card_backs/set2/pink.gif","""event"",""trial"",""time""
""fullscreenenter"",""1"",""3085""
","
","
","""event"",""trial"",""time""
""fullscreenenter"",""1"",""3085""
","
","","7382.49500002712","On every turn, you will be shown four different decks of cards. </br> You need to select a card from one of the four decks.  ","75","","instructions","2021-06-29 00:20:33.537","","","","","",""
"casino-keyboard-response","9","42231","0.0-6.0-0.3","A1176","false","img/card_backs/set1/red.gif","img/card_backs/set1/purple.gif","img/card_backs/set1/green.gif","img/card_backs/set1/yellow.gif","img/card_backs/set2/blue.gif","img/card_backs/set2/gray.gif","img/card_backs/set2/orange.gif","img/card_backs/set2/pink.gif","""event"",""trial"",""time""
""fullscreenenter"",""1"",""3085""
","
","
","""event"",""trial"",""time""
""fullscreenenter"",""1"",""3085""
","
","","4833.604999817908","On the next screen, you will see what the decks will look like. ","66","","instructions","2021-06-29 00:20:38.374","","","","","",""
"card-selection-trial","10","46246","0.0-7.0-0.0","A1176","false","img/card_backs/set1/red.gif","img/card_backs/set1/purple.gif","img/card_backs/set1/green.gif","img/card_backs/set1/yellow.gif","img/card_backs/set2/blue.gif","img/card_backs/set2/gray.gif","img/card_backs/set2/orange.gif","img/card_backs/set2/pink.gif","""event"",""trial"",""time""
""fullscreenenter"",""1"",""3085""
","
","
","""event"",""trial"",""time""
""fullscreenenter"",""1"",""3085""
","
","","null","","","","practice","2021-06-29 00:20:42.390","null","null","null","0","",""
"casino-keyboard-response","11","53819","0.0-8.0-0.0","A1176","false","img/card_backs/set1/red.gif","img/card_backs/set1/purple.gif","img/card_backs/set1/green.gif","img/card_backs/set1/yellow.gif","img/card_backs/set2/blue.gif","img/card_backs/set2/gray.gif","img/card_backs/set2/orange.gif","img/card_backs/set2/pink.gif","""event"",""trial"",""time""
""fullscreenenter"",""1"",""3085""
","
","
","""event"",""trial"",""time""
""fullscreenenter"",""1"",""3085""
","
","","7568.884999956936","You should pick a card from a deck using the '2', '4', '6', and '8' keys at the top of the keyboard.","85","","instructions","2021-06-29 00:20:49.963","","","","","",""
"casino-keyboard-response","12","59344","0.0-8.0-0.1","A1176","false","img/card_backs/set1/red.gif","img/card_backs/set1/purple.gif","img/card_backs/set1/green.gif","img/card_backs/set1/yellow.gif","img/card_backs/set2/blue.gif","img/card_backs/set2/gray.gif","img/card_backs/set2/orange.gif","img/card_backs/set2/pink.gif","""event"",""trial"",""time""
""fullscreenenter"",""1"",""3085""
","
","
","""event"",""trial"",""time""
""fullscreenenter"",""1"",""3085""
","
","","5520.614999812096","Once you select a card, it will turn over and you will see how many tokens you earned.","83","","instructions","2021-06-29 00:20:55.487","","","","","",""
"casino-keyboard-response","13","73331","0.0-8.0-0.2","A1176","false","img/card_backs/set1/red.gif","img/card_backs/set1/purple.gif","img/card_backs/set1/green.gif","img/card_backs/set1/yellow.gif","img/card_backs/set2/blue.gif","img/card_backs/set2/gray.gif","img/card_backs/set2/orange.gif","img/card_backs/set2/pink.gif","""event"",""trial"",""time""
""fullscreenenter"",""1"",""3085""
","
","
","""event"",""trial"",""time""
""fullscreenenter"",""1"",""3085""
","
","","13983.680000063032","Let's try practicing that! </br> First, try to put your fingers over the '2', '4', '6', and '8' keys. </br>  You can use whatever fingers are most comfortable for you. Try to find a comfortable position now. ","50","","instructions","2021-06-29 00:21:09.474","","","","","",""
"casino-keyboard-response","14","79096","0.0-8.0-0.3","A1176","false","img/card_backs/set1/red.gif","img/card_backs/set1/purple.gif","img/card_backs/set1/green.gif","img/card_backs/set1/yellow.gif","img/card_backs/set2/blue.gif","img/card_backs/set2/gray.gif","img/card_backs/set2/orange.gif","img/card_backs/set2/pink.gif","""event"",""trial"",""time""
""fullscreenenter"",""1"",""3085""
","
","
","""event"",""trial"",""time""
""fullscreenenter"",""1"",""3085""
","
","","5761.26499986276","Okay ready? </br> On the next screen, press '2' to select the left deck. ","50","","instructions","2021-06-29 00:21:15.239","","","","","",""
"card-selection-trial","15","82442","0.0-9.0-0.0","A1176","false","img/card_backs/set1/red.gif","img/card_backs/set1/purple.gif","img/card_backs/set1/green.gif","img/card_backs/set1/yellow.gif","img/card_backs/set2/blue.gif","img/card_backs/set2/gray.gif","img/card_backs/set2/orange.gif","img/card_backs/set2/pink.gif","""event"",""trial"",""time""
""fullscreenenter"",""1"",""3085""
","
","
","""event"",""trial"",""time""
""fullscreenenter"",""1"",""3085""
","
","","1290.5649999156594","","","","practice_card_selection","2021-06-29 00:21:18.586","img/practice_cards/backs/dark_blue.gif","0","-200","","",""
"casino-keyboard-response","16","88094","0.0-10.0-0.0","A1176","false","img/card_backs/set1/red.gif","img/card_backs/set1/purple.gif","img/card_backs/set1/green.gif","img/card_backs/set1/yellow.gif","img/card_backs/set2/blue.gif","img/card_backs/set2/gray.gif","img/card_backs/set2/orange.gif","img/card_backs/set2/pink.gif","""event"",""trial"",""time""
""fullscreenenter"",""1"",""3085""
","
","
","""event"",""trial"",""time""
""fullscreenenter"",""1"",""3085""
","
","","5647.809999994934","Great! Now on the next screen, try pressing '6' to select the third deck.","54","","instructions","2021-06-29 00:21:24.237","","","","","",""
"card-selection-trial","17","90950","0.0-11.0-0.0","A1176","false","img/card_backs/set1/red.gif","img/card_backs/set1/purple.gif","img/card_backs/set1/green.gif","img/card_backs/set1/yellow.gif","img/card_backs/set2/blue.gif","img/card_backs/set2/gray.gif","img/card_backs/set2/orange.gif","img/card_backs/set2/pink.gif","""event"",""trial"",""time""
""fullscreenenter"",""1"",""3085""
","
","
","""event"",""trial"",""time""
""fullscreenenter"",""1"",""3085""
","
","","835.5250000022352","","","","practice_card_selection","2021-06-29 00:21:27.093","img/practice_cards/backs/dark_green.gif","2","200","","",""
"casino-keyboard-response","18","95741","0.0-12.0-0.0","A1176","false","img/card_backs/set1/red.gif","img/card_backs/set1/purple.gif","img/card_backs/set1/green.gif","img/card_backs/set1/yellow.gif","img/card_backs/set2/blue.gif","img/card_backs/set2/gray.gif","img/card_backs/set2/orange.gif","img/card_backs/set2/pink.gif","""event"",""trial"",""time""
""fullscreenenter"",""1"",""3085""
","
","
","""event"",""trial"",""time""
""fullscreenenter"",""1"",""3085""
","
","","4788.0899999290705","Now on the next screen, try pressing '4' to select the second deck.","52","","instructions","2021-06-29 00:21:31.884","","","","","",""
"card-selection-trial","19","98690","0.0-13.0-0.0","A1176","false","img/card_backs/set1/red.gif","img/card_backs/set1/purple.gif","img/card_backs/set1/green.gif","img/card_backs/set1/yellow.gif","img/card_backs/set2/blue.gif","img/card_backs/set2/gray.gif","img/card_backs/set2/orange.gif","img/card_backs/set2/pink.gif","""event"",""trial"",""time""
""fullscreenenter"",""1"",""3085""
","
","
","""event"",""trial"",""time""
""fullscreenenter"",""1"",""3085""
","
","","934.2200001701713","","","","practice_card_selection","2021-06-29 00:21:34.833","img/practice_cards/backs/dark_green.gif","1","200","","",""
"casino-keyboard-response","20","103347","0.0-14.0-0.0","A1176","false","img/card_backs/set1/red.gif","img/card_backs/set1/purple.gif","img/card_backs/set1/green.gif","img/card_backs/set1/yellow.gif","img/card_backs/set2/blue.gif","img/card_backs/set2/gray.gif","img/card_backs/set2/orange.gif","img/card_backs/set2/pink.gif","""event"",""trial"",""time""
""fullscreenenter"",""1"",""3085""
","
","
","""event"",""trial"",""time""
""fullscreenenter"",""1"",""3085""
","
","","4654.020000249147","Finally, try pressing '8' to select the deck all the way on the right.","56","","instructions","2021-06-29 00:21:39.490","","","","","",""
"card-selection-trial","21","105992","0.0-15.0-0.0","A1176","false","img/card_backs/set1/red.gif","img/card_backs/set1/purple.gif","img/card_backs/set1/green.gif","img/card_backs/set1/yellow.gif","img/card_backs/set2/blue.gif","img/card_backs/set2/gray.gif","img/card_backs/set2/orange.gif","img/card_backs/set2/pink.gif","""event"",""trial"",""time""
""fullscreenenter"",""1"",""3085""
","
","
","""event"",""trial"",""time""
""fullscreenenter"",""1"",""3085""
","
","","629.3750000186265","","","","practice_card_selection","2021-06-29 00:21:42.135","img/practice_cards/backs/black.gif","3","100","","",""
"casino-keyboard-response","22","110485","0.0-16.0-0.0","A1176","false","img/card_backs/set1/red.gif","img/card_backs/set1/purple.gif","img/card_backs/set1/green.gif","img/card_backs/set1/yellow.gif","img/card_backs/set2/blue.gif","img/card_backs/set2/gray.gif","img/card_backs/set2/orange.gif","img/card_backs/set2/pink.gif","""event"",""trial"",""time""
""fullscreenenter"",""1"",""3085""
","
","
","""event"",""trial"",""time""
""fullscreenenter"",""1"",""3085""
","
","","4488.810000009835","Great! It seems like you are getting the hang of this.","80","","instructions","2021-06-29 00:21:46.629","","","","","",""
"casino-keyboard-response","23","119050","0.0-16.0-0.1","A1176","false","img/card_backs/set1/red.gif","img/card_backs/set1/purple.gif","img/card_backs/set1/green.gif","img/card_backs/set1/yellow.gif","img/card_backs/set2/blue.gif","img/card_backs/set2/gray.gif","img/card_backs/set2/orange.gif","img/card_backs/set2/pink.gif","""event"",""trial"",""time""
""fullscreenenter"",""1"",""3085""
","
","
","""event"",""trial"",""time""
""fullscreenenter"",""1"",""3085""
","
","","8560.645000077784","You may have noticed that some cards will cause you to <b> win </b> tokens while other cards will cause you to <b> lose </b>  tokens.","70","","instructions","2021-06-29 00:21:55.193","","","","","",""
"casino-keyboard-response","24","128067","0.0-16.0-0.2","A1176","false","img/card_backs/set1/red.gif","img/card_backs/set1/purple.gif","img/card_backs/set1/green.gif","img/card_backs/set1/yellow.gif","img/card_backs/set2/blue.gif","img/card_backs/set2/gray.gif","img/card_backs/set2/orange.gif","img/card_backs/set2/pink.gif","""event"",""trial"",""time""
""fullscreenenter"",""1"",""3085""
","
","
","""event"",""trial"",""time""
""fullscreenenter"",""1"",""3085""
","
","","9012.845000252128","Each deck has a mix of cards that will cause you to win and lose tokens. </br> However, the cards in each colored deck are different.","73","","instructions","2021-06-29 00:22:04.210","","","","","",""
"casino-keyboard-response","25","136450","0.0-16.0-0.3","A1176","false","img/card_backs/set1/red.gif","img/card_backs/set1/purple.gif","img/card_backs/set1/green.gif","img/card_backs/set1/yellow.gif","img/card_backs/set2/blue.gif","img/card_backs/set2/gray.gif","img/card_backs/set2/orange.gif","img/card_backs/set2/pink.gif","""event"",""trial"",""time""
""fullscreenenter"",""1"",""3085""
","
","
","""event"",""trial"",""time""
""fullscreenenter"",""1"",""3085""
","
","","8378.264999948442","Some colored decks are luckier than others. </br> If you choose the lucky decks, you will earn more tokens than if you choose the unlucky decks.","69","","instructions","2021-06-29 00:22:12.593","","","","","",""
"casino-keyboard-response","26","144155","0.0-16.0-0.4","A1176","false","img/card_backs/set1/red.gif","img/card_backs/set1/purple.gif","img/card_backs/set1/green.gif","img/card_backs/set1/yellow.gif","img/card_backs/set2/blue.gif","img/card_backs/set2/gray.gif","img/card_backs/set2/orange.gif","img/card_backs/set2/pink.gif","""event"",""trial"",""time""
""fullscreenenter"",""1"",""3085""
","
","
","""event"",""trial"",""time""
""fullscreenenter"",""1"",""3085""
","
","","7700.999999884516","You should try to figure out which decks are lucky. </br> Then, try to choose the lucky decks so you can win the most tokens.","87","","instructions","2021-06-29 00:22:20.298","","","","","",""
"casino-keyboard-response","27","155664","0.0-16.0-0.5","A1176","false","img/card_backs/set1/red.gif","img/card_backs/set1/purple.gif","img/card_backs/set1/green.gif","img/card_backs/set1/yellow.gif","img/card_backs/set2/blue.gif","img/card_backs/set2/gray.gif","img/card_backs/set2/orange.gif","img/card_backs/set2/pink.gif","""event"",""trial"",""time""
""fullscreenenter"",""1"",""3085""
","
","
","""event"",""trial"",""time""
""fullscreenenter"",""1"",""3085""
","
","","11504.17000008747","To make it trickier, the casino dealer will switch the locations of the decks on every turn. </br> The color of the deck determines how lucky it is. The location does not matter.","88","","instructions","2021-06-29 00:22:31.807","","","","","",""
"casino-keyboard-response","28","165093","0.0-16.0-0.6","A1176","false","img/card_backs/set1/red.gif","img/card_backs/set1/purple.gif","img/card_backs/set1/green.gif","img/card_backs/set1/yellow.gif","img/card_backs/set2/blue.gif","img/card_backs/set2/gray.gif","img/card_backs/set2/orange.gif","img/card_backs/set2/pink.gif","""event"",""trial"",""time""
""fullscreenenter"",""1"",""3085""
","
","
","""event"",""trial"",""time""
""fullscreenenter"",""1"",""3085""
","
","","9423.345000017434","The mix of cards in each colored deck will stay the same throughout the game. </br> That means that a deck that is lucky early on will stay lucky.","79","","instructions","2021-06-29 00:22:41.236","","","","","",""
"casino-keyboard-response","29","173363","0.0-16.0-0.7","A1176","false","img/card_backs/set1/red.gif","img/card_backs/set1/purple.gif","img/card_backs/set1/green.gif","img/card_backs/set1/yellow.gif","img/card_backs/set2/blue.gif","img/card_backs/set2/gray.gif","img/card_backs/set2/orange.gif","img/card_backs/set2/pink.gif","""event"",""trial"",""time""
""fullscreenenter"",""1"",""3085""
","
","
","""event"",""trial"",""time""
""fullscreenenter"",""1"",""3085""
","
","","8266.084999777377","Remember though, all the decks have a <b> mix </b> of both <b> good </b> and <b> bad </b> cards so it may take a couple of turns to figure out if a deck is lucky.","69","","instructions","2021-06-29 00:22:49.506","","","","","",""
"casino-keyboard-response","30","181585","0.0-16.0-0.8","A1176","false","img/card_backs/set1/red.gif","img/card_backs/set1/purple.gif","img/card_backs/set1/green.gif","img/card_backs/set1/yellow.gif","img/card_backs/set2/blue.gif","img/card_backs/set2/gray.gif","img/card_backs/set2/orange.gif","img/card_backs/set2/pink.gif","""event"",""trial"",""time""
""fullscreenenter"",""1"",""3085""
","
","
","""event"",""trial"",""time""
""fullscreenenter"",""1"",""3085""
","
","","8216.305000241846","At the end of the game, you will be paid bonus money based on how many tokens you win. </br> If you win more tokens, you will earn more money!","72","","instructions","2021-06-29 00:22:57.728","","","","","",""
"casino-keyboard-response","31","192320","0.0-16.0-0.9","A1176","false","img/card_backs/set1/red.gif","img/card_backs/set1/purple.gif","img/card_backs/set1/green.gif","img/card_backs/set1/yellow.gif","img/card_backs/set2/blue.gif","img/card_backs/set2/gray.gif","img/card_backs/set2/orange.gif","img/card_backs/set2/pink.gif","""event"",""trial"",""time""
""fullscreenenter"",""1"",""3085""
","
","
","""event"",""trial"",""time""
""fullscreenenter"",""1"",""3085""
","
","","10732.190000358969","You will never <b> lose </b> money. </br> If you end up with fewer than 0 tokens, you will earn $0 of bonus money, but you will still be paid for playing the game.","83","","instructions","2021-06-29 00:23:08.463","","","","","",""
"casino-keyboard-response","32","197003","0.0-16.0-0.10","A1176","false","img/card_backs/set1/red.gif","img/card_backs/set1/purple.gif","img/card_backs/set1/green.gif","img/card_backs/set1/yellow.gif","img/card_backs/set2/blue.gif","img/card_backs/set2/gray.gif","img/card_backs/set2/orange.gif","img/card_backs/set2/pink.gif","""event"",""trial"",""time""
""fullscreenenter"",""1"",""3085""
","
","
","""event"",""trial"",""time""
""fullscreenenter"",""1"",""3085""
","
","","4679.07499987632","You will have 10 seconds to make each choice.","82","","instructions","2021-06-29 00:23:13.146","","","","","",""
"casino-keyboard-response","33","205266","0.0-16.0-0.11","A1176","false","img/card_backs/set1/red.gif","img/card_backs/set1/purple.gif","img/card_backs/set1/green.gif","img/card_backs/set1/yellow.gif","img/card_backs/set2/blue.gif","img/card_backs/set2/gray.gif","img/card_backs/set2/orange.gif","img/card_backs/set2/pink.gif","""event"",""trial"",""time""
""fullscreenenter"",""1"",""3085""
","
","
","""event"",""trial"",""time""
""fullscreenenter"",""1"",""3085""
","
","","8258.570000063628","Before you play the game for real, you will play with practice decks. </br> The tokens you earn during practice won't count toward your total.","86","","instructions","2021-06-29 00:23:21.409","","","","","",""
"casino-keyboard-response","34","216773","0.0-16.0-0.12","A1176","false","img/card_backs/set1/red.gif","img/card_backs/set1/purple.gif","img/card_backs/set1/green.gif","img/card_backs/set1/yellow.gif","img/card_backs/set2/blue.gif","img/card_backs/set2/gray.gif","img/card_backs/set2/orange.gif","img/card_backs/set2/pink.gif","""event"",""trial"",""time""
""fullscreenenter"",""1"",""3085""
","
","
","""event"",""trial"",""time""
""fullscreenenter"",""1"",""3085""
","
","","11504.114999901503","Ready? Remember, use the '2', '4', '6', and '8' keys to select the decks. </br> Put your fingers on those keys now and then press '2' to begin.","50","","instructions","2021-06-29 00:23:32.917","","","","","",""
"casino-fixation","35","217300","0.0-17.0-0.0","A1176","false","img/card_backs/set1/red.gif","img/card_backs/set1/purple.gif","img/card_backs/set1/green.gif","img/card_backs/set1/yellow.gif","img/card_backs/set2/blue.gif","img/card_backs/set2/gray.gif","img/card_backs/set2/orange.gif","img/card_backs/set2/pink.gif","""event"",""trial"",""time""
""fullscreenenter"",""1"",""3085""
","
","
","""event"",""trial"",""time""
""fullscreenenter"",""1"",""3085""
","
","","null","","null","","fixation","2021-06-29 00:23:33.444","","","","","",""
"card-selection-trial","36","222562","0.0-17.0-1.0","A1176","false","img/card_backs/set1/red.gif","img/card_backs/set1/purple.gif","img/card_backs/set1/green.gif","img/card_backs/set1/yellow.gif","img/card_backs/set2/blue.gif","img/card_backs/set2/gray.gif","img/card_backs/set2/orange.gif","img/card_backs/set2/pink.gif","""event"",""trial"",""time""
""fullscreenenter"",""1"",""3085""
","
","
","""event"",""trial"",""time""
""fullscreenenter"",""1"",""3085""
","
","","3244.010000023991","","","","practice","2021-06-29 00:23:38.705","img/practice_cards/backs/black.gif","0","-100","0","",""
"casino-fixation","37","223072","0.0-17.0-0.1","A1176","false","img/card_backs/set1/red.gif","img/card_backs/set1/purple.gif","img/card_backs/set1/green.gif","img/card_backs/set1/yellow.gif","img/card_backs/set2/blue.gif","img/card_backs/set2/gray.gif","img/card_backs/set2/orange.gif","img/card_backs/set2/pink.gif","""event"",""trial"",""time""
""fullscreenenter"",""1"",""3085""
","
","
","""event"",""trial"",""time""
""fullscreenenter"",""1"",""3085""
","
","","null","","null","","fixation","2021-06-29 00:23:39.215","","","","","",""
"card-selection-trial","38","227141","0.0-17.0-1.1","A1176","false","img/card_backs/set1/red.gif","img/card_backs/set1/purple.gif","img/card_backs/set1/green.gif","img/card_backs/set1/yellow.gif","img/card_backs/set2/blue.gif","img/card_backs/set2/gray.gif","img/card_backs/set2/orange.gif","img/card_backs/set2/pink.gif","""event"",""trial"",""time""
""fullscreenenter"",""1"",""3085""
","
","
","""event"",""trial"",""time""
""fullscreenenter"",""1"",""3085""
","
","","2056.2700000591576","","","","practice","2021-06-29 00:23:43.285","img/practice_cards/backs/dark_blue.gif","0","-200","0","",""
"casino-fixation","39","227652","0.0-17.0-0.2","A1176","false","img/card_backs/set1/red.gif","img/card_backs/set1/purple.gif","img/card_backs/set1/green.gif","img/card_backs/set1/yellow.gif","img/card_backs/set2/blue.gif","img/card_backs/set2/gray.gif","img/card_backs/set2/orange.gif","img/card_backs/set2/pink.gif","""event"",""trial"",""time""
""fullscreenenter"",""1"",""3085""
","
","
","""event"",""trial"",""time""
""fullscreenenter"",""1"",""3085""
","
","","null","","null","","fixation","2021-06-29 00:23:43.795","","","","","",""
"card-selection-trial","40","231521","0.0-17.0-1.2","A1176","false","img/card_backs/set1/red.gif","img/card_backs/set1/purple.gif","img/card_backs/set1/green.gif","img/card_backs/set1/yellow.gif","img/card_backs/set2/blue.gif","img/card_backs/set2/gray.gif","img/card_backs/set2/orange.gif","img/card_backs/set2/pink.gif","""event"",""trial"",""time""
""fullscreenenter"",""1"",""3085""
","
","
","""event"",""trial"",""time""
""fullscreenenter"",""1"",""3085""
","
","","1856.120000127703","","","","practice","2021-06-29 00:23:47.664","img/practice_cards/backs/brown.gif","1","100","0","",""
"casino-fixation","41","232042","0.0-17.0-0.3","A1176","false","img/card_backs/set1/red.gif","img/card_backs/set1/purple.gif","img/card_backs/set1/green.gif","img/card_backs/set1/yellow.gif","img/card_backs/set2/blue.gif","img/card_backs/set2/gray.gif","img/card_backs/set2/orange.gif","img/card_backs/set2/pink.gif","""event"",""trial"",""time""
""fullscreenenter"",""1"",""3085""
","
","
","""event"",""trial"",""time""
""fullscreenenter"",""1"",""3085""
","
","","null","","null","","fixation","2021-06-29 00:23:48.185","","","","","",""
"card-selection-trial","42","235331","0.0-17.0-1.3","A1176","false","img/card_backs/set1/red.gif","img/card_backs/set1/purple.gif","img/card_backs/set1/green.gif","img/card_backs/set1/yellow.gif","img/card_backs/set2/blue.gif","img/card_backs/set2/gray.gif","img/card_backs/set2/orange.gif","img/card_backs/set2/pink.gif","""event"",""trial"",""time""
""fullscreenenter"",""1"",""3085""
","
","
","""event"",""trial"",""time""
""fullscreenenter"",""1"",""3085""
","
","","1266.525000333786","","","","practice","2021-06-29 00:23:51.475","img/practice_cards/backs/dark_green.gif","1","200","0","",""
"casino-fixation","43","235839","0.0-17.0-0.4","A1176","false","img/card_backs/set1/red.gif","img/card_backs/set1/purple.gif","img/card_backs/set1/green.gif","img/card_backs/set1/yellow.gif","img/card_backs/set2/blue.gif","img/card_backs/set2/gray.gif","img/card_backs/set2/orange.gif","img/card_backs/set2/pink.gif","""event"",""trial"",""time""
""fullscreenenter"",""1"",""3085""
","
","
","""event"",""trial"",""time""
""fullscreenenter"",""1"",""3085""
","
","","null","","null","","fixation","2021-06-29 00:23:51.982","","","","","",""
"card-selection-trial","44","238761","0.0-17.0-1.4","A1176","false","img/card_backs/set1/red.gif","img/card_backs/set1/purple.gif","img/card_backs/set1/green.gif","img/card_backs/set1/yellow.gif","img/card_backs/set2/blue.gif","img/card_backs/set2/gray.gif","img/card_backs/set2/orange.gif","img/card_backs/set2/pink.gif","""event"",""trial"",""time""
""fullscreenenter"",""1"",""3085""
","
","
","""event"",""trial"",""time""
""fullscreenenter"",""1"",""3085""
","
","","905.449999962002","","","","practice","2021-06-29 00:23:54.904","img/practice_cards/backs/brown.gif","1","100","0","",""
"casino-fixation","45","239271","0.0-17.0-0.5","A1176","false","img/card_backs/set1/red.gif","img/card_backs/set1/purple.gif","img/card_backs/set1/green.gif","img/card_backs/set1/yellow.gif","img/card_backs/set2/blue.gif","img/card_backs/set2/gray.gif","img/card_backs/set2/orange.gif","img/card_backs/set2/pink.gif","""event"",""trial"",""time""
""fullscreenenter"",""1"",""3085""
","
","
","""event"",""trial"",""time""
""fullscreenenter"",""1"",""3085""
","
","","null","","null","","fixation","2021-06-29 00:23:55.414","","","","","",""
"card-selection-trial","46","242042","0.0-17.0-1.5","A1176","false","img/card_backs/set1/red.gif","img/card_backs/set1/purple.gif","img/card_backs/set1/green.gif","img/card_backs/set1/yellow.gif","img/card_backs/set2/blue.gif","img/card_backs/set2/gray.gif","img/card_backs/set2/orange.gif","img/card_backs/set2/pink.gif","""event"",""trial"",""time""
""fullscreenenter"",""1"",""3085""
","
","
","""event"",""trial"",""time""
""fullscreenenter"",""1"",""3085""
","
","","757.054999936372","","","","practice","2021-06-29 00:23:58.185","img/practice_cards/backs/dark_green.gif","1","-200","0","",""
"casino-fixation","47","242551","0.0-17.0-0.6","A1176","false","img/card_backs/set1/red.gif","img/card_backs/set1/purple.gif","img/card_backs/set1/green.gif","img/card_backs/set1/yellow.gif","img/card_backs/set2/blue.gif","img/card_backs/set2/gray.gif","img/card_backs/set2/orange.gif","img/card_backs/set2/pink.gif","""event"",""trial"",""time""
""fullscreenenter"",""1"",""3085""
","
","
","""event"",""trial"",""time""
""fullscreenenter"",""1"",""3085""
","
","","null","","null","","fixation","2021-06-29 00:23:58.695","","","","","",""
"card-selection-trial","48","245671","0.0-17.0-1.6","A1176","false","img/card_backs/set1/red.gif","img/card_backs/set1/purple.gif","img/card_backs/set1/green.gif","img/card_backs/set1/yellow.gif","img/card_backs/set2/blue.gif","img/card_backs/set2/gray.gif","img/card_backs/set2/orange.gif","img/card_backs/set2/pink.gif","""event"",""trial"",""time""
""fullscreenenter"",""1"",""3085""
","
","
","""event"",""trial"",""time""
""fullscreenenter"",""1"",""3085""
","
","","1104.8500002361834","","","","practice","2021-06-29 00:24:01.814","img/practice_cards/backs/brown.gif","2","100","0","",""
"casino-fixation","49","246187","0.0-17.0-0.7","A1176","false","img/card_backs/set1/red.gif","img/card_backs/set1/purple.gif","img/card_backs/set1/green.gif","img/card_backs/set1/yellow.gif","img/card_backs/set2/blue.gif","img/card_backs/set2/gray.gif","img/card_backs/set2/orange.gif","img/card_backs/set2/pink.gif","""event"",""trial"",""time""
""fullscreenenter"",""1"",""3085""
","
","
","""event"",""trial"",""time""
""fullscreenenter"",""1"",""3085""
","
","","null","","null","","fixation","2021-06-29 00:24:02.331","","","","","",""
"card-selection-trial","50","248931","0.0-17.0-1.7","A1176","false","img/card_backs/set1/red.gif","img/card_backs/set1/purple.gif","img/card_backs/set1/green.gif","img/card_backs/set1/yellow.gif","img/card_backs/set2/blue.gif","img/card_backs/set2/gray.gif","img/card_backs/set2/orange.gif","img/card_backs/set2/pink.gif","""event"",""trial"",""time""
""fullscreenenter"",""1"",""3085""
","
","
","""event"",""trial"",""time""
""fullscreenenter"",""1"",""3085""
","
","","721.7000001110137","","","","practice","2021-06-29 00:24:05.074","img/practice_cards/backs/brown.gif","0","-100","0","",""
"casino-fixation","51","249439","0.0-17.0-0.8","A1176","false","img/card_backs/set1/red.gif","img/card_backs/set1/purple.gif","img/card_backs/set1/green.gif","img/card_backs/set1/yellow.gif","img/card_backs/set2/blue.gif","img/card_backs/set2/gray.gif","img/card_backs/set2/orange.gif","img/card_backs/set2/pink.gif","""event"",""trial"",""time""
""fullscreenenter"",""1"",""3085""
","
","
","""event"",""trial"",""time""
""fullscreenenter"",""1"",""3085""
","
","","null","","null","","fixation","2021-06-29 00:24:05.582","","","","","",""
"card-selection-trial","52","252751","0.0-17.0-1.8","A1176","false","img/card_backs/set1/red.gif","img/card_backs/set1/purple.gif","img/card_backs/set1/green.gif","img/card_backs/set1/yellow.gif","img/card_backs/set2/blue.gif","img/card_backs/set2/gray.gif","img/card_backs/set2/orange.gif","img/card_backs/set2/pink.gif","""event"",""trial"",""time""
""fullscreenenter"",""1"",""3085""
","
","
","""event"",""trial"",""time""
""fullscreenenter"",""1"",""3085""
","
","","1299.4900001212955","","","","practice","2021-06-29 00:24:08.894","img/practice_cards/backs/black.gif","2","100","0","",""
"casino-fixation","53","253259","0.0-17.0-0.9","A1176","false","img/card_backs/set1/red.gif","img/card_backs/set1/purple.gif","img/card_backs/set1/green.gif","img/card_backs/set1/yellow.gif","img/card_backs/set2/blue.gif","img/card_backs/set2/gray.gif","img/card_backs/set2/orange.gif","img/card_backs/set2/pink.gif","""event"",""trial"",""time""
""fullscreenenter"",""1"",""3085""
","
","
","""event"",""trial"",""time""
""fullscreenenter"",""1"",""3085""
","
","","null","","null","","fixation","2021-06-29 00:24:09.403","","","","","",""
"card-selection-trial","54","256103","0.0-17.0-1.9","A1176","false","img/card_backs/set1/red.gif","img/card_backs/set1/purple.gif","img/card_backs/set1/green.gif","img/card_backs/set1/yellow.gif","img/card_backs/set2/blue.gif","img/card_backs/set2/gray.gif","img/card_backs/set2/orange.gif","img/card_backs/set2/pink.gif","""event"",""trial"",""time""
""fullscreenenter"",""1"",""3085""
","
","
","""event"",""trial"",""time""
""fullscreenenter"",""1"",""3085""
","
","","828.7000004202127","","","","practice","2021-06-29 00:24:12.247","img/practice_cards/backs/dark_blue.gif","2","200","0","",""
"casino-keyboard-response","55","259154","0.0-18.0","A1176","false","img/card_backs/set1/red.gif","img/card_backs/set1/purple.gif","img/card_backs/set1/green.gif","img/card_backs/set1/yellow.gif","img/card_backs/set2/blue.gif","img/card_backs/set2/gray.gif","img/card_backs/set2/orange.gif","img/card_backs/set2/pink.gif","""event"",""trial"",""time""
""fullscreenenter"",""1"",""3085""
","
","
","""event"",""trial"",""time""
""fullscreenenter"",""1"",""3085""
","
","","3047.495000064373","You earned 200 tokens during the practice round!","82","","","2021-06-29 00:24:15.298","","","","","",""
"casino-keyboard-response","56","263595","0.0-19.0-0.0","A1176","false","img/card_backs/set1/red.gif","img/card_backs/set1/purple.gif","img/card_backs/set1/green.gif","img/card_backs/set1/yellow.gif","img/card_backs/set2/blue.gif","img/card_backs/set2/gray.gif","img/card_backs/set2/orange.gif","img/card_backs/set2/pink.gif","""event"",""trial"",""time""
""fullscreenenter"",""1"",""3085""
","
","
","""event"",""trial"",""time""
""fullscreenenter"",""1"",""3085""
","
","","4435.289999935776","Nice job! You are almost ready to play the real game.","86","","instructions","2021-06-29 00:24:19.738","","","","","",""
"casino-keyboard-response","57","270398","0.0-19.0-0.1","A1176","false","img/card_backs/set1/red.gif","img/card_backs/set1/purple.gif","img/card_backs/set1/green.gif","img/card_backs/set1/yellow.gif","img/card_backs/set2/blue.gif","img/card_backs/set2/gray.gif","img/card_backs/set2/orange.gif","img/card_backs/set2/pink.gif","""event"",""trial"",""time""
""fullscreenenter"",""1"",""3085""
","
","
","""event"",""trial"",""time""
""fullscreenenter"",""1"",""3085""
","
","","6799.939999822527","You will play two rounds of the real game. In each round, you will pick 100 cards in total.","73","","instructions","2021-06-29 00:24:26.541","","","","","",""
"casino-keyboard-response","58","274586","0.0-19.0-0.2","A1176","false","img/card_backs/set1/red.gif","img/card_backs/set1/purple.gif","img/card_backs/set1/green.gif","img/card_backs/set1/yellow.gif","img/card_backs/set2/blue.gif","img/card_backs/set2/gray.gif","img/card_backs/set2/orange.gif","img/card_backs/set2/pink.gif","""event"",""trial"",""time""
""fullscreenenter"",""1"",""3085""
","
","
","""event"",""trial"",""time""
""fullscreenenter"",""1"",""3085""
","
","","4183.765000198036","We are now going to ask you some questions about how the game works.","66","","instructions","2021-06-29 00:24:30.729","","","","","",""
"casino-keyboard-response","59","280898","0.0-19.0-0.3","A1176","false","img/card_backs/set1/red.gif","img/card_backs/set1/purple.gif","img/card_backs/set1/green.gif","img/card_backs/set1/yellow.gif","img/card_backs/set2/blue.gif","img/card_backs/set2/gray.gif","img/card_backs/set2/orange.gif","img/card_backs/set2/pink.gif","""event"",""trial"",""time""
""fullscreenenter"",""1"",""3085""
","
","
","""event"",""trial"",""time""
""fullscreenenter"",""1"",""3085""
","
","","6307.96999996528","Answer carefully. You will not be able to begin the game until you answer them correctly.","67","","instructions","2021-06-29 00:24:37.041","","","","","",""
"casino-comp_q","60","286985","0.0-20.0-0.0","A1176","false","img/card_backs/set1/red.gif","img/card_backs/set1/purple.gif","img/card_backs/set1/green.gif","img/card_backs/set1/yellow.gif","img/card_backs/set2/blue.gif","img/card_backs/set2/gray.gif","img/card_backs/set2/orange.gif","img/card_backs/set2/pink.gif","""event"",""trial"",""time""
""fullscreenenter"",""1"",""3085""
","
","
","""event"",""trial"",""time""
""fullscreenenter"",""1"",""3085""
","
","","6083.250000141561","True or False: All the decks have some cards that cause you to win tokens and some cards that cause you to lose tokens.","84","","","2021-06-29 00:24:43.129","","","","","",""
"casino-keyboard-response","61","290119","0.0-20.0-1.0","A1176","false","img/card_backs/set1/red.gif","img/card_backs/set1/purple.gif","img/card_backs/set1/green.gif","img/card_backs/set1/yellow.gif","img/card_backs/set2/blue.gif","img/card_backs/set2/gray.gif","img/card_backs/set2/orange.gif","img/card_backs/set2/pink.gif","""event"",""trial"",""time""
""fullscreenenter"",""1"",""3085""
","
","
","""event"",""trial"",""time""
""fullscreenenter"",""1"",""3085""
","
","","3130.4350001737475","True is correct! All the decks have a mix of winning and losing cards.","77","","","2021-06-29 00:24:46.262","","","","","true",""
"casino-comp_q","62","293026","0.0-21.0-0.0","A1176","false","img/card_backs/set1/red.gif","img/card_backs/set1/purple.gif","img/card_backs/set1/green.gif","img/card_backs/set1/yellow.gif","img/card_backs/set2/blue.gif","img/card_backs/set2/gray.gif","img/card_backs/set2/orange.gif","img/card_backs/set2/pink.gif","""event"",""trial"",""time""
""fullscreenenter"",""1"",""3085""
","
","
","""event"",""trial"",""time""
""fullscreenenter"",""1"",""3085""
","
","","2902.9350001364946","True or False: You will have as much time as you want to make your response.","70","","","2021-06-29 00:24:49.169","","","","","",""
"casino-keyboard-response","63","296158","0.0-21.0-1.0","A1176","false","img/card_backs/set1/red.gif","img/card_backs/set1/purple.gif","img/card_backs/set1/green.gif","img/card_backs/set1/yellow.gif","img/card_backs/set2/blue.gif","img/card_backs/set2/gray.gif","img/card_backs/set2/orange.gif","img/card_backs/set2/pink.gif","""event"",""trial"",""time""
""fullscreenenter"",""1"",""3085""
","
","
","""event"",""trial"",""time""
""fullscreenenter"",""1"",""3085""
","
","","3124.9600001610816","False is correct! You will only have 10 seconds to make each choice.","75","","","2021-06-29 00:24:52.301","","","","","true",""
"casino-comp_q","64","299701","0.0-22.0-0.0","A1176","false","img/card_backs/set1/red.gif","img/card_backs/set1/purple.gif","img/card_backs/set1/green.gif","img/card_backs/set1/yellow.gif","img/card_backs/set2/blue.gif","img/card_backs/set2/gray.gif","img/card_backs/set2/orange.gif","img/card_backs/set2/pink.gif","""event"",""trial"",""time""
""fullscreenenter"",""1"",""3085""
","
","
","""event"",""trial"",""time""
""fullscreenenter"",""1"",""3085""
","
","","3538.909999653697","True or False: The location of the deck determines how lucky it is.","70","","","2021-06-29 00:24:55.845","","","","","",""
"casino-keyboard-response","65","302741","0.0-22.0-1.0","A1176","false","img/card_backs/set1/red.gif","img/card_backs/set1/purple.gif","img/card_backs/set1/green.gif","img/card_backs/set1/yellow.gif","img/card_backs/set2/blue.gif","img/card_backs/set2/gray.gif","img/card_backs/set2/orange.gif","img/card_backs/set2/pink.gif","""event"",""trial"",""time""
""fullscreenenter"",""1"",""3085""
","
","
","""event"",""trial"",""time""
""fullscreenenter"",""1"",""3085""
","
","","3036.545000039041","False is correct! The <i>color</i>  of the deck determines how lucky or unlucky it is.","68","","","2021-06-29 00:24:58.884","","","","","true",""
"casino-keyboard-response","66","307047","0.0-23.0-0.0","A1176","false","img/card_backs/set1/red.gif","img/card_backs/set1/purple.gif","img/card_backs/set1/green.gif","img/card_backs/set1/yellow.gif","img/card_backs/set2/blue.gif","img/card_backs/set2/gray.gif","img/card_backs/set2/orange.gif","img/card_backs/set2/pink.gif","""event"",""trial"",""time""
""fullscreenenter"",""1"",""3085""
","
","
","""event"",""trial"",""time""
""fullscreenenter"",""1"",""3085""
","
","","4303.030000068247","Great job! Now it's time to start the real game.","82","","instructions","2021-06-29 00:25:03.190","","","","","",""
"casino-keyboard-response","67","312132","0.0-23.0-0.1","A1176","false","img/card_backs/set1/red.gif","img/card_backs/set1/purple.gif","img/card_backs/set1/green.gif","img/card_backs/set1/yellow.gif","img/card_backs/set2/blue.gif","img/card_backs/set2/gray.gif","img/card_backs/set2/orange.gif","img/card_backs/set2/pink.gif","""event"",""trial"",""time""
""fullscreenenter"",""1"",""3085""
","
","
","""event"",""trial"",""time""
""fullscreenenter"",""1"",""3085""
","
","","5081.920000258833","Before we start, we're going to head into a new room of the casino.","86","","instructions","2021-06-29 00:25:08.275","","","","","",""
"casino-keyboard-response","68","318840","0.0-24.0-0.0","A1176","false","img/card_backs/set1/red.gif","img/card_backs/set1/purple.gif","img/card_backs/set1/green.gif","img/card_backs/set1/yellow.gif","img/card_backs/set2/blue.gif","img/card_backs/set2/gray.gif","img/card_backs/set2/orange.gif","img/card_backs/set2/pink.gif","""event"",""trial"",""time""
""fullscreenenter"",""1"",""3085""
","
","
","""event"",""trial"",""time""
""fullscreenenter"",""1"",""3085""
","
","","6702.714999672025","Here we are! The real game will use different cards, but the rules will be the same.","71","","instructions","2021-06-29 00:25:14.983","","","","","",""
"casino-keyboard-response","69","323460","0.0-24.0-0.1","A1176","false","img/card_backs/set1/red.gif","img/card_backs/set1/purple.gif","img/card_backs/set1/green.gif","img/card_backs/set1/yellow.gif","img/card_backs/set2/blue.gif","img/card_backs/set2/gray.gif","img/card_backs/set2/orange.gif","img/card_backs/set2/pink.gif","""event"",""trial"",""time""
""fullscreenenter"",""1"",""3085""
","
","
","""event"",""trial"",""time""
""fullscreenenter"",""1"",""3085""
","
","","4616.630000062287","Ready? Put your fingers over the '2', '4', 6', and '8' keys so you are ready to play the game. </br> Then press 2 to start.","50","","instructions","2021-06-29 00:25:19.603","","","","","",""
"casino-fixation","70","323964","0.0-25.0-0.0","A1176","false","img/card_backs/set1/red.gif","img/card_backs/set1/purple.gif","img/card_backs/set1/green.gif","img/card_backs/set1/yellow.gif","img/card_backs/set2/blue.gif","img/card_backs/set2/gray.gif","img/card_backs/set2/orange.gif","img/card_backs/set2/pink.gif","""event"",""trial"",""time""
""fullscreenenter"",""1"",""3085""
","
","
","""event"",""trial"",""time""
""fullscreenenter"",""1"",""3085""
","
","","null","","null","","fixation","2021-06-29 00:25:20.107","","","","","",""
"card-selection-trial","71","327965","0.0-25.0-1.0","A1176","false","img/card_backs/set1/red.gif","img/card_backs/set1/purple.gif","img/card_backs/set1/green.gif","img/card_backs/set1/yellow.gif","img/card_backs/set2/blue.gif","img/card_backs/set2/gray.gif","img/card_backs/set2/orange.gif","img/card_backs/set2/pink.gif","""event"",""trial"",""time""
""fullscreenenter"",""1"",""3085""
","
","
","""event"",""trial"",""time""
""fullscreenenter"",""1"",""3085""
","
","","1986.5649999119341","","","","real_trial","2021-06-29 00:25:24.108","img/card_backs/set1/purple.gif","0","-250","1","",""
"casino-fixation","72","328484","0.0-25.0-0.1","A1176","false","img/card_backs/set1/red.gif","img/card_backs/set1/purple.gif","img/card_backs/set1/green.gif","img/card_backs/set1/yellow.gif","img/card_backs/set2/blue.gif","img/card_backs/set2/gray.gif","img/card_backs/set2/orange.gif","img/card_backs/set2/pink.gif","""event"",""trial"",""time""
""fullscreenenter"",""1"",""3085""
","
","
","""event"",""trial"",""time""
""fullscreenenter"",""1"",""3085""
","
","","null","","null","","fixation","2021-06-29 00:25:24.628","","","","","",""
"card-selection-trial","73","332275","0.0-25.0-1.1","A1176","false","img/card_backs/set1/red.gif","img/card_backs/set1/purple.gif","img/card_backs/set1/green.gif","img/card_backs/set1/yellow.gif","img/card_backs/set2/blue.gif","img/card_backs/set2/gray.gif","img/card_backs/set2/orange.gif","img/card_backs/set2/pink.gif","""event"",""trial"",""time""
""fullscreenenter"",""1"",""3085""
","
","
","""event"",""trial"",""time""
""fullscreenenter"",""1"",""3085""
","
","","1769.7600000537932","","","","real_trial","2021-06-29 00:25:28.418","img/card_backs/set1/green.gif","0","100","1","",""
"casino-fixation","74","332783","0.0-25.0-0.2","A1176","false","img/card_backs/set1/red.gif","img/card_backs/set1/purple.gif","img/card_backs/set1/green.gif","img/card_backs/set1/yellow.gif","img/card_backs/set2/blue.gif","img/card_backs/set2/gray.gif","img/card_backs/set2/orange.gif","img/card_backs/set2/pink.gif","""event"",""trial"",""time""
""fullscreenenter"",""1"",""3085""
","
","
","""event"",""trial"",""time""
""fullscreenenter"",""1"",""3085""
","
","","null","","null","","fixation","2021-06-29 00:25:28.927","","","","","",""
"card-selection-trial","75","336155","0.0-25.0-1.2","A1176","false","img/card_backs/set1/red.gif","img/card_backs/set1/purple.gif","img/card_backs/set1/green.gif","img/card_backs/set1/yellow.gif","img/card_backs/set2/blue.gif","img/card_backs/set2/gray.gif","img/card_backs/set2/orange.gif","img/card_backs/set2/pink.gif","""event"",""trial"",""time""
""fullscreenenter"",""1"",""3085""
","
","
","""event"",""trial"",""time""
""fullscreenenter"",""1"",""3085""
","
","","1351.954999845475","","","","real_trial","2021-06-29 00:25:32.298","img/card_backs/set1/yellow.gif","1","-50","1","",""
"casino-fixation","76","336665","0.0-25.0-0.3","A1176","false","img/card_backs/set1/red.gif","img/card_backs/set1/purple.gif","img/card_backs/set1/green.gif","img/card_backs/set1/yellow.gif","img/card_backs/set2/blue.gif","img/card_backs/set2/gray.gif","img/card_backs/set2/orange.gif","img/card_backs/set2/pink.gif","""event"",""trial"",""time""
""fullscreenenter"",""1"",""3085""
","
","
","""event"",""trial"",""time""
""fullscreenenter"",""1"",""3085""
","
","","null","","null","","fixation","2021-06-29 00:25:32.809","","","","","",""
"card-selection-trial","77","339835","0.0-25.0-1.3","A1176","false","img/card_backs/set1/red.gif","img/card_backs/set1/purple.gif","img/card_backs/set1/green.gif","img/card_backs/set1/yellow.gif","img/card_backs/set2/blue.gif","img/card_backs/set2/gray.gif","img/card_backs/set2/orange.gif","img/card_backs/set2/pink.gif","""event"",""trial"",""time""
""fullscreenenter"",""1"",""3085""
","
","
","""event"",""trial"",""time""
""fullscreenenter"",""1"",""3085""
","
","","1156.2749999575317","","","","real_trial","2021-06-29 00:25:35.978","img/card_backs/set1/red.gif","1","180","1","",""
"casino-fixation","78","340345","0.0-25.0-0.4","A1176","false","img/card_backs/set1/red.gif","img/card_backs/set1/purple.gif","img/card_backs/set1/green.gif","img/card_backs/set1/yellow.gif","img/card_backs/set2/blue.gif","img/card_backs/set2/gray.gif","img/card_backs/set2/orange.gif","img/card_backs/set2/pink.gif","""event"",""trial"",""time""
""fullscreenenter"",""1"",""3085""
","
","
","""event"",""trial"",""time""
""fullscreenenter"",""1"",""3085""
","
","","null","","null","","fixation","2021-06-29 00:25:36.488","","","","","",""
"card-selection-trial","79","342965","0.0-25.0-1.4","A1176","false","img/card_backs/set1/red.gif","img/card_backs/set1/purple.gif","img/card_backs/set1/green.gif","img/card_backs/set1/yellow.gif","img/card_backs/set2/blue.gif","img/card_backs/set2/gray.gif","img/card_backs/set2/orange.gif","img/card_backs/set2/pink.gif","""event"",""trial"",""time""
""fullscreenenter"",""1"",""3085""
","
","
","""event"",""trial"",""time""
""fullscreenenter"",""1"",""3085""
","
","","599.9849997460842","","","","real_trial","2021-06-29 00:25:39.108","img/card_backs/set1/green.gif","0","110","1","",""
"casino-fixation","80","343474","0.0-25.0-0.5","A1176","false","img/card_backs/set1/red.gif","img/card_backs/set1/purple.gif","img/card_backs/set1/green.gif","img/card_backs/set1/yellow.gif","img/card_backs/set2/blue.gif","img/card_backs/set2/gray.gif","img/card_backs/set2/orange.gif","img/card_backs/set2/pink.gif","""event"",""trial"",""time""
""fullscreenenter"",""1"",""3085""
","
","
","""event"",""trial"",""time""
""fullscreenenter"",""1"",""3085""
","
","","null","","null","","fixation","2021-06-29 00:25:39.617","","","","","",""
"card-selection-trial","81","346094","0.0-25.0-1.5","A1176","false","img/card_backs/set1/red.gif","img/card_backs/set1/purple.gif","img/card_backs/set1/green.gif","img/card_backs/set1/yellow.gif","img/card_backs/set2/blue.gif","img/card_backs/set2/gray.gif","img/card_backs/set2/orange.gif","img/card_backs/set2/pink.gif","""event"",""trial"",""time""
""fullscreenenter"",""1"",""3085""
","
","
","""event"",""trial"",""time""
""fullscreenenter"",""1"",""3085""
","
","","604.164999909699","","","","real_trial","2021-06-29 00:25:42.237","img/card_backs/set1/red.gif","0","180","1","",""
"casino-fixation","82","346604","0.0-25.0-0.6","A1176","false","img/card_backs/set1/red.gif","img/card_backs/set1/purple.gif","img/card_backs/set1/green.gif","img/card_backs/set1/yellow.gif","img/card_backs/set2/blue.gif","img/card_backs/set2/gray.gif","img/card_backs/set2/orange.gif","img/card_backs/set2/pink.gif","""event"",""trial"",""time""
""fullscreenenter"",""1"",""3085""
","
","
","""event"",""trial"",""time""
""fullscreenenter"",""1"",""3085""
","
","","null","","null","","fixation","2021-06-29 00:25:42.747","","","","","",""
"card-selection-trial","83","349215","0.0-25.0-1.6","A1176","false","img/card_backs/set1/red.gif","img/card_backs/set1/purple.gif","img/card_backs/set1/green.gif","img/card_backs/set1/yellow.gif","img/card_backs/set2/blue.gif","img/card_backs/set2/gray.gif","img/card_backs/set2/orange.gif","img/card_backs/set2/pink.gif","""event"",""trial"",""time""
""fullscreenenter"",""1"",""3085""
","
","
","""event"",""trial"",""time""
""fullscreenenter"",""1"",""3085""
","
","","596.845000050962","","","","real_trial","2021-06-29 00:25:45.358","img/card_backs/set1/green.gif","0","-60","1","",""
"casino-fixation","84","349725","0.0-25.0-0.7","A1176","false","img/card_backs/set1/red.gif","img/card_backs/set1/purple.gif","img/card_backs/set1/green.gif","img/card_backs/set1/yellow.gif","img/card_backs/set2/blue.gif","img/card_backs/set2/gray.gif","img/card_backs/set2/orange.gif","img/card_backs/set2/pink.gif","""event"",""trial"",""time""
""fullscreenenter"",""1"",""3085""
","
","
","""event"",""trial"",""time""
""fullscreenenter"",""1"",""3085""
","
","","null","","null","","fixation","2021-06-29 00:25:45.868","","","","","",""
"card-selection-trial","85","352466","0.0-25.0-1.7","A1176","false","img/card_backs/set1/red.gif","img/card_backs/set1/purple.gif","img/card_backs/set1/green.gif","img/card_backs/set1/yellow.gif","img/card_backs/set2/blue.gif","img/card_backs/set2/gray.gif","img/card_backs/set2/orange.gif","img/card_backs/set2/pink.gif","""event"",""trial"",""time""
""fullscreenenter"",""1"",""3085""
","
","
","""event"",""trial"",""time""
""fullscreenenter"",""1"",""3085""
","
","","728.6499999463558","","","","real_trial","2021-06-29 00:25:48.610","img/card_backs/set1/red.gif","0","180","1","",""
"casino-fixation","86","352974","0.0-25.0-0.8","A1176","false","img/card_backs/set1/red.gif","img/card_backs/set1/purple.gif","img/card_backs/set1/green.gif","img/card_backs/set1/yellow.gif","img/card_backs/set2/blue.gif","img/card_backs/set2/gray.gif","img/card_backs/set2/orange.gif","img/card_backs/set2/pink.gif","""event"",""trial"",""time""
""fullscreenenter"",""1"",""3085""
","
","
","""event"",""trial"",""time""
""fullscreenenter"",""1"",""3085""
","
","","null","","null","","fixation","2021-06-29 00:25:49.117","","","","","",""
"card-selection-trial","87","355892","0.0-25.0-1.8","A1176","false","img/card_backs/set1/red.gif","img/card_backs/set1/purple.gif","img/card_backs/set1/green.gif","img/card_backs/set1/yellow.gif","img/card_backs/set2/blue.gif","img/card_backs/set2/gray.gif","img/card_backs/set2/orange.gif","img/card_backs/set2/pink.gif","""event"",""trial"",""time""
""fullscreenenter"",""1"",""3085""
","
","
","""event"",""trial"",""time""
""fullscreenenter"",""1"",""3085""
","
","","906.9449999369681","","","","real_trial","2021-06-29 00:25:52.035","img/card_backs/set1/red.gif","1","-250","1","",""
"casino-fixation","88","356399","0.0-25.0-0.9","A1176","false","img/card_backs/set1/red.gif","img/card_backs/set1/purple.gif","img/card_backs/set1/green.gif","img/card_backs/set1/yellow.gif","img/card_backs/set2/blue.gif","img/card_backs/set2/gray.gif","img/card_backs/set2/orange.gif","img/card_backs/set2/pink.gif","""event"",""trial"",""time""
""fullscreenenter"",""1"",""3085""
","
","
","""event"",""trial"",""time""
""fullscreenenter"",""1"",""3085""
","
","","null","","null","","fixation","2021-06-29 00:25:52.542","","","","","",""
"card-selection-trial","89","358909","0.0-25.0-1.9","A1176","false","img/card_backs/set1/red.gif","img/card_backs/set1/purple.gif","img/card_backs/set1/green.gif","img/card_backs/set1/yellow.gif","img/card_backs/set2/blue.gif","img/card_backs/set2/gray.gif","img/card_backs/set2/orange.gif","img/card_backs/set2/pink.gif","""event"",""trial"",""time""
""fullscreenenter"",""1"",""3085""
","
","
","""event"",""trial"",""time""
""fullscreenenter"",""1"",""3085""
","
","","485.8550000935793","","","","real_trial","2021-06-29 00:25:55.053","img/card_backs/set1/red.gif","1","200","1","",""
"casino-fixation","90","359419","0.0-25.0-0.10","A1176","false","img/card_backs/set1/red.gif","img/card_backs/set1/purple.gif","img/card_backs/set1/green.gif","img/card_backs/set1/yellow.gif","img/card_backs/set2/blue.gif","img/card_backs/set2/gray.gif","img/card_backs/set2/orange.gif","img/card_backs/set2/pink.gif","""event"",""trial"",""time""
""fullscreenenter"",""1"",""3085""
","
","
","""event"",""trial"",""time""
""fullscreenenter"",""1"",""3085""
","
","","null","","null","","fixation","2021-06-29 00:25:55.562","","","","","",""
"card-selection-trial","91","361939","0.0-25.0-1.10","A1176","false","img/card_backs/set1/red.gif","img/card_backs/set1/purple.gif","img/card_backs/set1/green.gif","img/card_backs/set1/yellow.gif","img/card_backs/set2/blue.gif","img/card_backs/set2/gray.gif","img/card_backs/set2/orange.gif","img/card_backs/set2/pink.gif","""event"",""trial"",""time""
""fullscreenenter"",""1"",""3085""
","
","
","""event"",""trial"",""time""
""fullscreenenter"",""1"",""3085""
","
","","510.0350002758205","","","","real_trial","2021-06-29 00:25:58.082","img/card_backs/set1/red.gif","0","180","1","",""
"casino-fixation","92","362445","0.0-25.0-0.11","A1176","false","img/card_backs/set1/red.gif","img/card_backs/set1/purple.gif","img/card_backs/set1/green.gif","img/card_backs/set1/yellow.gif","img/card_backs/set2/blue.gif","img/card_backs/set2/gray.gif","img/card_backs/set2/orange.gif","img/card_backs/set2/pink.gif","""event"",""trial"",""time""
""fullscreenenter"",""1"",""3085""
","
","
","""event"",""trial"",""time""
""fullscreenenter"",""1"",""3085""
","
","","null","","null","","fixation","2021-06-29 00:25:58.589","","","","","",""
"card-selection-trial","93","365245","0.0-25.0-1.11","A1176","false","img/card_backs/set1/red.gif","img/card_backs/set1/purple.gif","img/card_backs/set1/green.gif","img/card_backs/set1/yellow.gif","img/card_backs/set2/blue.gif","img/card_backs/set2/gray.gif","img/card_backs/set2/orange.gif","img/card_backs/set2/pink.gif","""event"",""trial"",""time""
""fullscreenenter"",""1"",""3085""
","
","
","""event"",""trial"",""time""
""fullscreenenter"",""1"",""3085""
","
","","784.5000000670552","","","","real_trial","2021-06-29 00:26:01.389","img/card_backs/set1/red.gif","1","190","1","",""
"casino-fixation","94","365756","0.0-25.0-0.12","A1176","false","img/card_backs/set1/red.gif","img/card_backs/set1/purple.gif","img/card_backs/set1/green.gif","img/card_backs/set1/yellow.gif","img/card_backs/set2/blue.gif","img/card_backs/set2/gray.gif","img/card_backs/set2/orange.gif","img/card_backs/set2/pink.gif","""event"",""trial"",""time""
""fullscreenenter"",""1"",""3085""
","
","
","""event"",""trial"",""time""
""fullscreenenter"",""1"",""3085""
","
","","null","","null","","fixation","2021-06-29 00:26:01.900","","","","","",""
"card-selection-trial","95","368653","0.0-25.0-1.12","A1176","false","img/card_backs/set1/red.gif","img/card_backs/set1/purple.gif","img/card_backs/set1/green.gif","img/card_backs/set1/yellow.gif","img/card_backs/set2/blue.gif","img/card_backs/set2/gray.gif","img/card_backs/set2/orange.gif","img/card_backs/set2/pink.gif","""event"",""trial"",""time""
""fullscreenenter"",""1"",""3085""
","
","
","""event"",""trial"",""time""
""fullscreenenter"",""1"",""3085""
","
","","883.0999997444451","","","","real_trial","2021-06-29 00:26:04.797","img/card_backs/set1/green.gif","3","110","1","",""
"casino-fixation","96","369157","0.0-25.0-0.13","A1176","false","img/card_backs/set1/red.gif","img/card_backs/set1/purple.gif","img/card_backs/set1/green.gif","img/card_backs/set1/yellow.gif","img/card_backs/set2/blue.gif","img/card_backs/set2/gray.gif","img/card_backs/set2/orange.gif","img/card_backs/set2/pink.gif","""event"",""trial"",""time""
""fullscreenenter"",""1"",""3085""
","
","
","""event"",""trial"",""time""
""fullscreenenter"",""1"",""3085""
","
","","null","","null","","fixation","2021-06-29 00:26:05.300","","","","","",""
"card-selection-trial","97","371907","0.0-25.0-1.13","A1176","false","img/card_backs/set1/red.gif","img/card_backs/set1/purple.gif","img/card_backs/set1/green.gif","img/card_backs/set1/yellow.gif","img/card_backs/set2/blue.gif","img/card_backs/set2/gray.gif","img/card_backs/set2/orange.gif","img/card_backs/set2/pink.gif","""event"",""trial"",""time""
""fullscreenenter"",""1"",""3085""
","
","
","""event"",""trial"",""time""
""fullscreenenter"",""1"",""3085""
","
","","732.3900000192225","","","","real_trial","2021-06-29 00:26:08.050","img/card_backs/set1/yellow.gif","2","-60","1","",""
"casino-fixation","98","372412","0.0-25.0-0.14","A1176","false","img/card_backs/set1/red.gif","img/card_backs/set1/purple.gif","img/card_backs/set1/green.gif","img/card_backs/set1/yellow.gif","img/card_backs/set2/blue.gif","img/card_backs/set2/gray.gif","img/card_backs/set2/orange.gif","img/card_backs/set2/pink.gif","""event"",""trial"",""time""
""fullscreenenter"",""1"",""3085""
","
","
","""event"",""trial"",""time""
""fullscreenenter"",""1"",""3085""
","
","","null","","null","","fixation","2021-06-29 00:26:08.556","","","","","",""
"card-selection-trial","99","375089","0.0-25.0-1.14","A1176","false","img/card_backs/set1/red.gif","img/card_backs/set1/purple.gif","img/card_backs/set1/green.gif","img/card_backs/set1/yellow.gif","img/card_backs/set2/blue.gif","img/card_backs/set2/gray.gif","img/card_backs/set2/orange.gif","img/card_backs/set2/pink.gif","""event"",""trial"",""time""
""fullscreenenter"",""1"",""3085""
","
","
","""event"",""trial"",""time""
""fullscreenenter"",""1"",""3085""
","
","","659.4400000758469","","","","real_trial","2021-06-29 00:26:11.232","img/card_backs/set1/yellow.gif","1","120","1","",""
"casino-fixation","100","375599","0.0-25.0-0.15","A1176","false","img/card_backs/set1/red.gif","img/card_backs/set1/purple.gif","img/card_backs/set1/green.gif","img/card_backs/set1/yellow.gif","img/card_backs/set2/blue.gif","img/card_backs/set2/gray.gif","img/card_backs/set2/orange.gif","img/card_backs/set2/pink.gif","""event"",""trial"",""time""
""fullscreenenter"",""1"",""3085""
","
","
","""event"",""trial"",""time""
""fullscreenenter"",""1"",""3085""
","
","","null","","null","","fixation","2021-06-29 00:26:11.742","","","","","",""
"card-selection-trial","101","378267","0.0-25.0-1.15","A1176","false","img/card_backs/set1/red.gif","img/card_backs/set1/purple.gif","img/card_backs/set1/green.gif","img/card_backs/set1/yellow.gif","img/card_backs/set2/blue.gif","img/card_backs/set2/gray.gif","img/card_backs/set2/orange.gif","img/card_backs/set2/pink.gif","""event"",""trial"",""time""
""fullscreenenter"",""1"",""3085""
","
","
","""event"",""trial"",""time""
""fullscreenenter"",""1"",""3085""
","
","","651.5249996446073","","","","real_trial","2021-06-29 00:26:14.410","img/card_backs/set1/yellow.gif","3","110","1","",""
"casino-fixation","102","378773","0.0-25.0-0.16","A1176","false","img/card_backs/set1/red.gif","img/card_backs/set1/purple.gif","img/card_backs/set1/green.gif","img/card_backs/set1/yellow.gif","img/card_backs/set2/blue.gif","img/card_backs/set2/gray.gif","img/card_backs/set2/orange.gif","img/card_backs/set2/pink.gif","""event"",""trial"",""time""
""fullscreenenter"",""1"",""3085""
","
","
","""event"",""trial"",""time""
""fullscreenenter"",""1"",""3085""
","
","","null","","null","","fixation","2021-06-29 00:26:14.916","","","","","",""
"card-selection-trial","103","381358","0.0-25.0-1.16","A1176","false","img/card_backs/set1/red.gif","img/card_backs/set1/purple.gif","img/card_backs/set1/green.gif","img/card_backs/set1/yellow.gif","img/card_backs/set2/blue.gif","img/card_backs/set2/gray.gif","img/card_backs/set2/orange.gif","img/card_backs/set2/pink.gif","""event"",""trial"",""time""
""fullscreenenter"",""1"",""3085""
","
","
","""event"",""trial"",""time""
""fullscreenenter"",""1"",""3085""
","
","","565.8999998122454","","","","real_trial","2021-06-29 00:26:17.502","img/card_backs/set1/yellow.gif","1","100","1","",""
"casino-fixation","104","381861","0.0-25.0-0.17","A1176","false","img/card_backs/set1/red.gif","img/card_backs/set1/purple.gif","img/card_backs/set1/green.gif","img/card_backs/set1/yellow.gif","img/card_backs/set2/blue.gif","img/card_backs/set2/gray.gif","img/card_backs/set2/orange.gif","img/card_backs/set2/pink.gif","""event"",""trial"",""time""
""fullscreenenter"",""1"",""3085""
","
","
","""event"",""trial"",""time""
""fullscreenenter"",""1"",""3085""
","
","","null","","null","","fixation","2021-06-29 00:26:18.004","","","","","",""
"card-selection-trial","105","384553","0.0-25.0-1.17","A1176","false","img/card_backs/set1/red.gif","img/card_backs/set1/purple.gif","img/card_backs/set1/green.gif","img/card_backs/set1/yellow.gif","img/card_backs/set2/blue.gif","img/card_backs/set2/gray.gif","img/card_backs/set2/orange.gif","img/card_backs/set2/pink.gif","""event"",""trial"",""time""
""fullscreenenter"",""1"",""3085""
","
","
","""event"",""trial"",""time""
""fullscreenenter"",""1"",""3085""
","
","","672.7849999442697","","","","real_trial","2021-06-29 00:26:20.696","img/card_backs/set1/purple.gif","1","190","1","",""
"casino-fixation","106","385060","0.0-25.0-0.18","A1176","false","img/card_backs/set1/red.gif","img/card_backs/set1/purple.gif","img/card_backs/set1/green.gif","img/card_backs/set1/yellow.gif","img/card_backs/set2/blue.gif","img/card_backs/set2/gray.gif","img/card_backs/set2/orange.gif","img/card_backs/set2/pink.gif","""event"",""trial"",""time""
""fullscreenenter"",""1"",""3085""
","
","
","""event"",""trial"",""time""
""fullscreenenter"",""1"",""3085""
","
","","null","","null","","fixation","2021-06-29 00:26:21.203","","","","","",""
"card-selection-trial","107","387658","0.0-25.0-1.18","A1176","false","img/card_backs/set1/red.gif","img/card_backs/set1/purple.gif","img/card_backs/set1/green.gif","img/card_backs/set1/yellow.gif","img/card_backs/set2/blue.gif","img/card_backs/set2/gray.gif","img/card_backs/set2/orange.gif","img/card_backs/set2/pink.gif","""event"",""trial"",""time""
""fullscreenenter"",""1"",""3085""
","
","
","""event"",""trial"",""time""
""fullscreenenter"",""1"",""3085""
","
","","580.2449998445809","","","","real_trial","2021-06-29 00:26:23.801","img/card_backs/set1/purple.gif","0","-240","1","",""
"casino-fixation","108","388166","0.0-25.0-0.19","A1176","false","img/card_backs/set1/red.gif","img/card_backs/set1/purple.gif","img/card_backs/set1/green.gif","img/card_backs/set1/yellow.gif","img/card_backs/set2/blue.gif","img/card_backs/set2/gray.gif","img/card_backs/set2/orange.gif","img/card_backs/set2/pink.gif","""event"",""trial"",""time""
""fullscreenenter"",""1"",""3085""
","
","
","""event"",""trial"",""time""
""fullscreenenter"",""1"",""3085""
","
","","null","","null","","fixation","2021-06-29 00:26:24.310","","","","","",""
"card-selection-trial","109","390970","0.0-25.0-1.19","A1176","false","img/card_backs/set1/red.gif","img/card_backs/set1/purple.gif","img/card_backs/set1/green.gif","img/card_backs/set1/yellow.gif","img/card_backs/set2/blue.gif","img/card_backs/set2/gray.gif","img/card_backs/set2/orange.gif","img/card_backs/set2/pink.gif","""event"",""trial"",""time""
""fullscreenenter"",""1"",""3085""
","
","
","""event"",""trial"",""time""
""fullscreenenter"",""1"",""3085""
","
","","791.8549999594688","","","","real_trial","2021-06-29 00:26:27.114","img/card_backs/set1/purple.gif","2","190","1","",""
"casino-fixation","110","391473","0.0-25.0-0.20","A1176","false","img/card_backs/set1/red.gif","img/card_backs/set1/purple.gif","img/card_backs/set1/green.gif","img/card_backs/set1/yellow.gif","img/card_backs/set2/blue.gif","img/card_backs/set2/gray.gif","img/card_backs/set2/orange.gif","img/card_backs/set2/pink.gif","""event"",""trial"",""time""
""fullscreenenter"",""1"",""3085""
","
","
","""event"",""trial"",""time""
""fullscreenenter"",""1"",""3085""
","
","","null","","null","","fixation","2021-06-29 00:26:27.616","","","","","",""
"card-selection-trial","111","394105","0.0-25.0-1.20","A1176","false","img/card_backs/set1/red.gif","img/card_backs/set1/purple.gif","img/card_backs/set1/green.gif","img/card_backs/set1/yellow.gif","img/card_backs/set2/blue.gif","img/card_backs/set2/gray.gif","img/card_backs/set2/orange.gif","img/card_backs/set2/pink.gif","""event"",""trial"",""time""
""fullscreenenter"",""1"",""3085""
","
","
","""event"",""trial"",""time""
""fullscreenenter"",""1"",""3085""
","
","","616.2649998441339","","","","real_trial","2021-06-29 00:26:30.249","img/card_backs/set1/green.gif","3","-50","1","",""
"casino-fixation","112","394610","0.0-25.0-0.21","A1176","false","img/card_backs/set1/red.gif","img/card_backs/set1/purple.gif","img/card_backs/set1/green.gif","img/card_backs/set1/yellow.gif","img/card_backs/set2/blue.gif","img/card_backs/set2/gray.gif","img/card_backs/set2/orange.gif","img/card_backs/set2/pink.gif","""event"",""trial"",""time""
""fullscreenenter"",""1"",""3085""
","
","
","""event"",""trial"",""time""
""fullscreenenter"",""1"",""3085""
","
","","null","","null","","fixation","2021-06-29 00:26:30.753","","","","","",""
"card-selection-trial","113","397125","0.0-25.0-1.21","A1176","false","img/card_backs/set1/red.gif","img/card_backs/set1/purple.gif","img/card_backs/set1/green.gif","img/card_backs/set1/yellow.gif","img/card_backs/set2/blue.gif","img/card_backs/set2/gray.gif","img/card_backs/set2/orange.gif","img/card_backs/set2/pink.gif","""event"",""trial"",""time""
""fullscreenenter"",""1"",""3085""
","
","
","""event"",""trial"",""time""
""fullscreenenter"",""1"",""3085""
","
","","501.44000025466084","","","","real_trial","2021-06-29 00:26:33.268","img/card_backs/set1/green.gif","3","120","1","",""
"casino-fixation","114","397636","0.0-25.0-0.22","A1176","false","img/card_backs/set1/red.gif","img/card_backs/set1/purple.gif","img/card_backs/set1/green.gif","img/card_backs/set1/yellow.gif","img/card_backs/set2/blue.gif","img/card_backs/set2/gray.gif","img/card_backs/set2/orange.gif","img/card_backs/set2/pink.gif","""event"",""trial"",""time""
""fullscreenenter"",""1"",""3085""
","
","
","""event"",""trial"",""time""
""fullscreenenter"",""1"",""3085""
","
","","null","","null","","fixation","2021-06-29 00:26:33.779","","","","","",""
"card-selection-trial","115","400208","0.0-25.0-1.22","A1176","false","img/card_backs/set1/red.gif","img/card_backs/set1/purple.gif","img/card_backs/set1/green.gif","img/card_backs/set1/yellow.gif","img/card_backs/set2/blue.gif","img/card_backs/set2/gray.gif","img/card_backs/set2/orange.gif","img/card_backs/set2/pink.gif","""event"",""trial"",""time""
""fullscreenenter"",""1"",""3085""
","
","
","""event"",""trial"",""time""
""fullscreenenter"",""1"",""3085""
","
","","554.2199998162687","","","","real_trial","2021-06-29 00:26:36.352","img/card_backs/set1/red.gif","0","-240","1","",""
"casino-fixation","116","400712","0.0-25.0-0.23","A1176","false","img/card_backs/set1/red.gif","img/card_backs/set1/purple.gif","img/card_backs/set1/green.gif","img/card_backs/set1/yellow.gif","img/card_backs/set2/blue.gif","img/card_backs/set2/gray.gif","img/card_backs/set2/orange.gif","img/card_backs/set2/pink.gif","""event"",""trial"",""time""
""fullscreenenter"",""1"",""3085""
","
","
","""event"",""trial"",""time""
""fullscreenenter"",""1"",""3085""
","
","","null","","null","","fixation","2021-06-29 00:26:36.855","","","","","",""
"card-selection-trial","117","403476","0.0-25.0-1.23","A1176","false","img/card_backs/set1/red.gif","img/card_backs/set1/purple.gif","img/card_backs/set1/green.gif","img/card_backs/set1/yellow.gif","img/card_backs/set2/blue.gif","img/card_backs/set2/gray.gif","img/card_backs/set2/orange.gif","img/card_backs/set2/pink.gif","""event"",""trial"",""time""
""fullscreenenter"",""1"",""3085""
","
","
","""event"",""trial"",""time""
""fullscreenenter"",""1"",""3085""
","
","","745.7600003108382","","","","real_trial","2021-06-29 00:26:39.620","img/card_backs/set1/red.gif","2","-240","1","",""
"casino-fixation","118","403982","0.0-25.0-0.24","A1176","false","img/card_backs/set1/red.gif","img/card_backs/set1/purple.gif","img/card_backs/set1/green.gif","img/card_backs/set1/yellow.gif","img/card_backs/set2/blue.gif","img/card_backs/set2/gray.gif","img/card_backs/set2/orange.gif","img/card_backs/set2/pink.gif","""event"",""trial"",""time""
""fullscreenenter"",""1"",""3085""
","
","
","""event"",""trial"",""time""
""fullscreenenter"",""1"",""3085""
","
","","null","","null","","fixation","2021-06-29 00:26:40.125","","","","","",""
"card-selection-trial","119","406658","0.0-25.0-1.24","A1176","false","img/card_backs/set1/red.gif","img/card_backs/set1/purple.gif","img/card_backs/set1/green.gif","img/card_backs/set1/yellow.gif","img/card_backs/set2/blue.gif","img/card_backs/set2/gray.gif","img/card_backs/set2/orange.gif","img/card_backs/set2/pink.gif","""event"",""trial"",""time""
""fullscreenenter"",""1"",""3085""
","
","
","""event"",""trial"",""time""
""fullscreenenter"",""1"",""3085""
","
","","659.5449997112155","","","","real_trial","2021-06-29 00:26:42.802","img/card_backs/set1/red.gif","1","-230","1","",""
"casino-fixation","120","407166","0.0-25.0-0.25","A1176","false","img/card_backs/set1/red.gif","img/card_backs/set1/purple.gif","img/card_backs/set1/green.gif","img/card_backs/set1/yellow.gif","img/card_backs/set2/blue.gif","img/card_backs/set2/gray.gif","img/card_backs/set2/orange.gif","img/card_backs/set2/pink.gif","""event"",""trial"",""time""
""fullscreenenter"",""1"",""3085""
","
","
","""event"",""trial"",""time""
""fullscreenenter"",""1"",""3085""
","
","","null","","null","","fixation","2021-06-29 00:26:43.309","","","","","",""
"card-selection-trial","121","409743","0.0-25.0-1.25","A1176","false","img/card_backs/set1/red.gif","img/card_backs/set1/purple.gif","img/card_backs/set1/green.gif","img/card_backs/set1/yellow.gif","img/card_backs/set2/blue.gif","img/card_backs/set2/gray.gif","img/card_backs/set2/orange.gif","img/card_backs/set2/pink.gif","""event"",""trial"",""time""
""fullscreenenter"",""1"",""3085""
","
","
","""event"",""trial"",""time""
""fullscreenenter"",""1"",""3085""
","
","","557.2500000707805","","","","real_trial","2021-06-29 00:26:45.886","img/card_backs/set1/red.gif","2","190","1","",""
"casino-fixation","122","410252","0.0-25.0-0.26","A1176","false","img/card_backs/set1/red.gif","img/card_backs/set1/purple.gif","img/card_backs/set1/green.gif","img/card_backs/set1/yellow.gif","img/card_backs/set2/blue.gif","img/card_backs/set2/gray.gif","img/card_backs/set2/orange.gif","img/card_backs/set2/pink.gif","""event"",""trial"",""time""
""fullscreenenter"",""1"",""3085""
","
","
","""event"",""trial"",""time""
""fullscreenenter"",""1"",""3085""
","
","","null","","null","","fixation","2021-06-29 00:26:46.396","","","","","",""
"card-selection-trial","123","412990","0.0-25.0-1.26","A1176","false","img/card_backs/set1/red.gif","img/card_backs/set1/purple.gif","img/card_backs/set1/green.gif","img/card_backs/set1/yellow.gif","img/card_backs/set2/blue.gif","img/card_backs/set2/gray.gif","img/card_backs/set2/orange.gif","img/card_backs/set2/pink.gif","""event"",""trial"",""time""
""fullscreenenter"",""1"",""3085""
","
","
","""event"",""trial"",""time""
""fullscreenenter"",""1"",""3085""
","
","","719.3550001829863","","","","real_trial","2021-06-29 00:26:49.133","img/card_backs/set1/green.gif","2","100","1","",""
"casino-fixation","124","413497","0.0-25.0-0.27","A1176","false","img/card_backs/set1/red.gif","img/card_backs/set1/purple.gif","img/card_backs/set1/green.gif","img/card_backs/set1/yellow.gif","img/card_backs/set2/blue.gif","img/card_backs/set2/gray.gif","img/card_backs/set2/orange.gif","img/card_backs/set2/pink.gif","""event"",""trial"",""time""
""fullscreenenter"",""1"",""3085""
","
","
","""event"",""trial"",""time""
""fullscreenenter"",""1"",""3085""
","
","","null","","null","","fixation","2021-06-29 00:26:49.640","","","","","",""
"card-selection-trial","125","416133","0.0-25.0-1.27","A1176","false","img/card_backs/set1/red.gif","img/card_backs/set1/purple.gif","img/card_backs/set1/green.gif","img/card_backs/set1/yellow.gif","img/card_backs/set2/blue.gif","img/card_backs/set2/gray.gif","img/card_backs/set2/orange.gif","img/card_backs/set2/pink.gif","""event"",""trial"",""time""
""fullscreenenter"",""1"",""3085""
","
","
","""event"",""trial"",""time""
""fullscreenenter"",""1"",""3085""
","
","","625.9900000877678","","","","real_trial","2021-06-29 00:26:52.276","img/card_backs/set1/green.gif","2","-70","1","",""
"casino-fixation","126","416645","0.0-25.0-0.28","A1176","false","img/card_backs/set1/red.gif","img/card_backs/set1/purple.gif","img/card_backs/set1/green.gif","img/card_backs/set1/yellow.gif","img/card_backs/set2/blue.gif","img/card_backs/set2/gray.gif","img/card_backs/set2/orange.gif","img/card_backs/set2/pink.gif","""event"",""trial"",""time""
""fullscreenenter"",""1"",""3085""
","
","
","""event"",""trial"",""time""
""fullscreenenter"",""1"",""3085""
","
","","null","","null","","fixation","2021-06-29 00:26:52.789","","","","","",""
"card-selection-trial","127","419393","0.0-25.0-1.28","A1176","false","img/card_backs/set1/red.gif","img/card_backs/set1/purple.gif","img/card_backs/set1/green.gif","img/card_backs/set1/yellow.gif","img/card_backs/set2/blue.gif","img/card_backs/set2/gray.gif","img/card_backs/set2/orange.gif","img/card_backs/set2/pink.gif","""event"",""trial"",""time""
""fullscreenenter"",""1"",""3085""
","
","
","""event"",""trial"",""time""
""fullscreenenter"",""1"",""3085""
","
","","735.9400000423193","","","","real_trial","2021-06-29 00:26:55.537","img/card_backs/set1/green.gif","0","100","1","",""
"casino-fixation","128","419904","0.0-25.0-0.29","A1176","false","img/card_backs/set1/red.gif","img/card_backs/set1/purple.gif","img/card_backs/set1/green.gif","img/card_backs/set1/yellow.gif","img/card_backs/set2/blue.gif","img/card_backs/set2/gray.gif","img/card_backs/set2/orange.gif","img/card_backs/set2/pink.gif","""event"",""trial"",""time""
""fullscreenenter"",""1"",""3085""
","
","
","""event"",""trial"",""time""
""fullscreenenter"",""1"",""3085""
","
","","null","","null","","fixation","2021-06-29 00:26:56.047","","","","","",""
"card-selection-trial","129","422583","0.0-25.0-1.29","A1176","false","img/card_backs/set1/red.gif","img/card_backs/set1/purple.gif","img/card_backs/set1/green.gif","img/card_backs/set1/yellow.gif","img/card_backs/set2/blue.gif","img/card_backs/set2/gray.gif","img/card_backs/set2/orange.gif","img/card_backs/set2/pink.gif","""event"",""trial"",""time""
""fullscreenenter"",""1"",""3085""
","
","
","""event"",""trial"",""time""
""fullscreenenter"",""1"",""3085""
","
","","666.2099999375641","","","","real_trial","2021-06-29 00:26:58.727","img/card_backs/set1/green.gif","2","110","1","",""
"casino-fixation","130","423096","0.0-25.0-0.30","A1176","false","img/card_backs/set1/red.gif","img/card_backs/set1/purple.gif","img/card_backs/set1/green.gif","img/card_backs/set1/yellow.gif","img/card_backs/set2/blue.gif","img/card_backs/set2/gray.gif","img/card_backs/set2/orange.gif","img/card_backs/set2/pink.gif","""event"",""trial"",""time""
""fullscreenenter"",""1"",""3085""
","
","
","""event"",""trial"",""time""
""fullscreenenter"",""1"",""3085""
","
","","null","","null","","fixation","2021-06-29 00:26:59.239","","","","","",""
"card-selection-trial","131","425736","0.0-25.0-1.30","A1176","false","img/card_backs/set1/red.gif","img/card_backs/set1/purple.gif","img/card_backs/set1/green.gif","img/card_backs/set1/yellow.gif","img/card_backs/set2/blue.gif","img/card_backs/set2/gray.gif","img/card_backs/set2/orange.gif","img/card_backs/set2/pink.gif","""event"",""trial"",""time""
""fullscreenenter"",""1"",""3085""
","
","
","""event"",""trial"",""time""
""fullscreenenter"",""1"",""3085""
","
","","620.9700000472367","","","","real_trial","2021-06-29 00:27:01.879","img/card_backs/set1/green.gif","1","110","1","",""
"casino-fixation","132","426244","0.0-25.0-0.31","A1176","false","img/card_backs/set1/red.gif","img/card_backs/set1/purple.gif","img/card_backs/set1/green.gif","img/card_backs/set1/yellow.gif","img/card_backs/set2/blue.gif","img/card_backs/set2/gray.gif","img/card_backs/set2/orange.gif","img/card_backs/set2/pink.gif","""event"",""trial"",""time""
""fullscreenenter"",""1"",""3085""
","
","
","""event"",""trial"",""time""
""fullscreenenter"",""1"",""3085""
","
","","null","","null","","fixation","2021-06-29 00:27:02.388","","","","","",""
"card-selection-trial","133","428779","0.0-25.0-1.31","A1176","false","img/card_backs/set1/red.gif","img/card_backs/set1/purple.gif","img/card_backs/set1/green.gif","img/card_backs/set1/yellow.gif","img/card_backs/set2/blue.gif","img/card_backs/set2/gray.gif","img/card_backs/set2/orange.gif","img/card_backs/set2/pink.gif","""event"",""trial"",""time""
""fullscreenenter"",""1"",""3085""
","
","
","""event"",""trial"",""time""
""fullscreenenter"",""1"",""3085""
","
","","510.01999992877245","","","","real_trial","2021-06-29 00:27:04.922","img/card_backs/set1/green.gif","0","-70","1","",""
"casino-fixation","134","429293","0.0-25.0-0.32","A1176","false","img/card_backs/set1/red.gif","img/card_backs/set1/purple.gif","img/card_backs/set1/green.gif","img/card_backs/set1/yellow.gif","img/card_backs/set2/blue.gif","img/card_backs/set2/gray.gif","img/card_backs/set2/orange.gif","img/card_backs/set2/pink.gif","""event"",""trial"",""time""
""fullscreenenter"",""1"",""3085""
","
","
","""event"",""trial"",""time""
""fullscreenenter"",""1"",""3085""
","
","","null","","null","","fixation","2021-06-29 00:27:05.436","","","","","",""
"card-selection-trial","135","431893","0.0-25.0-1.32","A1176","false","img/card_backs/set1/red.gif","img/card_backs/set1/purple.gif","img/card_backs/set1/green.gif","img/card_backs/set1/yellow.gif","img/card_backs/set2/blue.gif","img/card_backs/set2/gray.gif","img/card_backs/set2/orange.gif","img/card_backs/set2/pink.gif","""event"",""trial"",""time""
""fullscreenenter"",""1"",""3085""
","
","
","""event"",""trial"",""time""
""fullscreenenter"",""1"",""3085""
","
","","584.3600002117455","","","","real_trial","2021-06-29 00:27:08.036","img/card_backs/set1/yellow.gif","3","-50","1","",""
"casino-fixation","136","432398","0.0-25.0-0.33","A1176","false","img/card_backs/set1/red.gif","img/card_backs/set1/purple.gif","img/card_backs/set1/green.gif","img/card_backs/set1/yellow.gif","img/card_backs/set2/blue.gif","img/card_backs/set2/gray.gif","img/card_backs/set2/orange.gif","img/card_backs/set2/pink.gif","""event"",""trial"",""time""
""fullscreenenter"",""1"",""3085""
","
","
","""event"",""trial"",""time""
""fullscreenenter"",""1"",""3085""
","
","","null","","null","","fixation","2021-06-29 00:27:08.542","","","","","",""
"card-selection-trial","137","435025","0.0-25.0-1.33","A1176","false","img/card_backs/set1/red.gif","img/card_backs/set1/purple.gif","img/card_backs/set1/green.gif","img/card_backs/set1/yellow.gif","img/card_backs/set2/blue.gif","img/card_backs/set2/gray.gif","img/card_backs/set2/orange.gif","img/card_backs/set2/pink.gif","""event"",""trial"",""time""
""fullscreenenter"",""1"",""3085""
","
","
","""event"",""trial"",""time""
""fullscreenenter"",""1"",""3085""
","
","","611.474999692291","","","","real_trial","2021-06-29 00:27:11.169","img/card_backs/set1/yellow.gif","1","100","1","",""
"casino-fixation","138","435536","0.0-25.0-0.34","A1176","false","img/card_backs/set1/red.gif","img/card_backs/set1/purple.gif","img/card_backs/set1/green.gif","img/card_backs/set1/yellow.gif","img/card_backs/set2/blue.gif","img/card_backs/set2/gray.gif","img/card_backs/set2/orange.gif","img/card_backs/set2/pink.gif","""event"",""trial"",""time""
""fullscreenenter"",""1"",""3085""
","
","
","""event"",""trial"",""time""
""fullscreenenter"",""1"",""3085""
","
","","null","","null","","fixation","2021-06-29 00:27:11.679","","","","","",""
"card-selection-trial","139","438213","0.0-25.0-1.34","A1176","false","img/card_backs/set1/red.gif","img/card_backs/set1/purple.gif","img/card_backs/set1/green.gif","img/card_backs/set1/yellow.gif","img/card_backs/set2/blue.gif","img/card_backs/set2/gray.gif","img/card_backs/set2/orange.gif","img/card_backs/set2/pink.gif","""event"",""trial"",""time""
""fullscreenenter"",""1"",""3085""
","
","
","""event"",""trial"",""time""
""fullscreenenter"",""1"",""3085""
","
","","651.2649999931455","","","","real_trial","2021-06-29 00:27:14.357","img/card_backs/set1/yellow.gif","2","100","1","",""
"casino-fixation","140","438719","0.0-25.0-0.35","A1176","false","img/card_backs/set1/red.gif","img/card_backs/set1/purple.gif","img/card_backs/set1/green.gif","img/card_backs/set1/yellow.gif","img/card_backs/set2/blue.gif","img/card_backs/set2/gray.gif","img/card_backs/set2/orange.gif","img/card_backs/set2/pink.gif","""event"",""trial"",""time""
""fullscreenenter"",""1"",""3085""
","
","
","""event"",""trial"",""time""
""fullscreenenter"",""1"",""3085""
","
","","null","","null","","fixation","2021-06-29 00:27:14.863","","","","","",""
"card-selection-trial","141","441251","0.0-25.0-1.35","A1176","false","img/card_backs/set1/red.gif","img/card_backs/set1/purple.gif","img/card_backs/set1/green.gif","img/card_backs/set1/yellow.gif","img/card_backs/set2/blue.gif","img/card_backs/set2/gray.gif","img/card_backs/set2/orange.gif","img/card_backs/set2/pink.gif","""event"",""trial"",""time""
""fullscreenenter"",""1"",""3085""
","
","
","""event"",""trial"",""time""
""fullscreenenter"",""1"",""3085""
","
","","519.7350000962615","","","","real_trial","2021-06-29 00:27:17.394","img/card_backs/set1/yellow.gif","1","120","1","",""
"casino-fixation","142","441755","0.0-25.0-0.36","A1176","false","img/card_backs/set1/red.gif","img/card_backs/set1/purple.gif","img/card_backs/set1/green.gif","img/card_backs/set1/yellow.gif","img/card_backs/set2/blue.gif","img/card_backs/set2/gray.gif","img/card_backs/set2/orange.gif","img/card_backs/set2/pink.gif","""event"",""trial"",""time""
""fullscreenenter"",""1"",""3085""
","
","
","""event"",""trial"",""time""
""fullscreenenter"",""1"",""3085""
","
","","null","","null","","fixation","2021-06-29 00:27:17.898","","","","","",""
"card-selection-trial","143","444316","0.0-25.0-1.36","A1176","false","img/card_backs/set1/red.gif","img/card_backs/set1/purple.gif","img/card_backs/set1/green.gif","img/card_backs/set1/yellow.gif","img/card_backs/set2/blue.gif","img/card_backs/set2/gray.gif","img/card_backs/set2/orange.gif","img/card_backs/set2/pink.gif","""event"",""trial"",""time""
""fullscreenenter"",""1"",""3085""
","
","
","""event"",""trial"",""time""
""fullscreenenter"",""1"",""3085""
","
","","550.8349998854101","","","","real_trial","2021-06-29 00:27:20.459","img/card_backs/set1/yellow.gif","3","-60","1","",""
"casino-fixation","144","444819","0.0-25.0-0.37","A1176","false","img/card_backs/set1/red.gif","img/card_backs/set1/purple.gif","img/card_backs/set1/green.gif","img/card_backs/set1/yellow.gif","img/card_backs/set2/blue.gif","img/card_backs/set2/gray.gif","img/card_backs/set2/orange.gif","img/card_backs/set2/pink.gif","""event"",""trial"",""time""
""fullscreenenter"",""1"",""3085""
","
","
","""event"",""trial"",""time""
""fullscreenenter"",""1"",""3085""
","
","","null","","null","","fixation","2021-06-29 00:27:20.962","","","","","",""
"card-selection-trial","145","447294","0.0-25.0-1.37","A1176","false","img/card_backs/set1/red.gif","img/card_backs/set1/purple.gif","img/card_backs/set1/green.gif","img/card_backs/set1/yellow.gif","img/card_backs/set2/blue.gif","img/card_backs/set2/gray.gif","img/card_backs/set2/orange.gif","img/card_backs/set2/pink.gif","""event"",""trial"",""time""
""fullscreenenter"",""1"",""3085""
","
","
","""event"",""trial"",""time""
""fullscreenenter"",""1"",""3085""
","
","","463.03500002250075","","","","real_trial","2021-06-29 00:27:23.437","img/card_backs/set1/yellow.gif","3","100","1","",""
"casino-fixation","146","447797","0.0-25.0-0.38","A1176","false","img/card_backs/set1/red.gif","img/card_backs/set1/purple.gif","img/card_backs/set1/green.gif","img/card_backs/set1/yellow.gif","img/card_backs/set2/blue.gif","img/card_backs/set2/gray.gif","img/card_backs/set2/orange.gif","img/card_backs/set2/pink.gif","""event"",""trial"",""time""
""fullscreenenter"",""1"",""3085""
","
","
","""event"",""trial"",""time""
""fullscreenenter"",""1"",""3085""
","
","","null","","null","","fixation","2021-06-29 00:27:23.941","","","","","",""
"card-selection-trial","147","450384","0.0-25.0-1.38","A1176","false","img/card_backs/set1/red.gif","img/card_backs/set1/purple.gif","img/card_backs/set1/green.gif","img/card_backs/set1/yellow.gif","img/card_backs/set2/blue.gif","img/card_backs/set2/gray.gif","img/card_backs/set2/orange.gif","img/card_backs/set2/pink.gif","""event"",""trial"",""time""
""fullscreenenter"",""1"",""3085""
","
","
","""event"",""trial"",""time""
""fullscreenenter"",""1"",""3085""
","
","","569.4249998778105","","","","real_trial","2021-06-29 00:27:26.528","img/card_backs/set1/yellow.gif","0","120","1","",""
"casino-fixation","148","450890","0.0-25.0-0.39","A1176","false","img/card_backs/set1/red.gif","img/card_backs/set1/purple.gif","img/card_backs/set1/green.gif","img/card_backs/set1/yellow.gif","img/card_backs/set2/blue.gif","img/card_backs/set2/gray.gif","img/card_backs/set2/orange.gif","img/card_backs/set2/pink.gif","""event"",""trial"",""time""
""fullscreenenter"",""1"",""3085""
","
","
","""event"",""trial"",""time""
""fullscreenenter"",""1"",""3085""
","
","","null","","null","","fixation","2021-06-29 00:27:27.034","","","","","",""
"card-selection-trial","149","453390","0.0-25.0-1.39","A1176","false","img/card_backs/set1/red.gif","img/card_backs/set1/purple.gif","img/card_backs/set1/green.gif","img/card_backs/set1/yellow.gif","img/card_backs/set2/blue.gif","img/card_backs/set2/gray.gif","img/card_backs/set2/orange.gif","img/card_backs/set2/pink.gif","""event"",""trial"",""time""
""fullscreenenter"",""1"",""3085""
","
","
","""event"",""trial"",""time""
""fullscreenenter"",""1"",""3085""
","
","","485.11500004678965","","","","real_trial","2021-06-29 00:27:29.533","img/card_backs/set1/purple.gif","0","-230","1","",""
"casino-fixation","150","453900","0.0-25.0-0.40","A1176","false","img/card_backs/set1/red.gif","img/card_backs/set1/purple.gif","img/card_backs/set1/green.gif","img/card_backs/set1/yellow.gif","img/card_backs/set2/blue.gif","img/card_backs/set2/gray.gif","img/card_backs/set2/orange.gif","img/card_backs/set2/pink.gif","""event"",""trial"",""time""
""fullscreenenter"",""1"",""3085""
","
","
","""event"",""trial"",""time""
""fullscreenenter"",""1"",""3085""
","
","","null","","null","","fixation","2021-06-29 00:27:30.043","","","","","",""
"card-selection-trial","151","456645","0.0-25.0-1.40","A1176","false","img/card_backs/set1/red.gif","img/card_backs/set1/purple.gif","img/card_backs/set1/green.gif","img/card_backs/set1/yellow.gif","img/card_backs/set2/blue.gif","img/card_backs/set2/gray.gif","img/card_backs/set2/orange.gif","img/card_backs/set2/pink.gif","""event"",""trial"",""time""
""fullscreenenter"",""1"",""3085""
","
","
","""event"",""trial"",""time""
""fullscreenenter"",""1"",""3085""
","
","","729.6750000678003","","","","real_trial","2021-06-29 00:27:32.788","img/card_backs/set1/red.gif","2","200","1","",""
"casino-fixation","152","457155","0.0-25.0-0.41","A1176","false","img/card_backs/set1/red.gif","img/card_backs/set1/purple.gif","img/card_backs/set1/green.gif","img/card_backs/set1/yellow.gif","img/card_backs/set2/blue.gif","img/card_backs/set2/gray.gif","img/card_backs/set2/orange.gif","img/card_backs/set2/pink.gif","""event"",""trial"",""time""
""fullscreenenter"",""1"",""3085""
","
","
","""event"",""trial"",""time""
""fullscreenenter"",""1"",""3085""
","
","","null","","null","","fixation","2021-06-29 00:27:33.298","","","","","",""
"card-selection-trial","153","459706","0.0-25.0-1.41","A1176","false","img/card_backs/set1/red.gif","img/card_backs/set1/purple.gif","img/card_backs/set1/green.gif","img/card_backs/set1/yellow.gif","img/card_backs/set2/blue.gif","img/card_backs/set2/gray.gif","img/card_backs/set2/orange.gif","img/card_backs/set2/pink.gif","""event"",""trial"",""time""
""fullscreenenter"",""1"",""3085""
","
","
","""event"",""trial"",""time""
""fullscreenenter"",""1"",""3085""
","
","","535.7699999585748","","","","real_trial","2021-06-29 00:27:35.849","img/card_backs/set1/purple.gif","0","200","1","",""
"casino-fixation","154","460211","0.0-25.0-0.42","A1176","false","img/card_backs/set1/red.gif","img/card_backs/set1/purple.gif","img/card_backs/set1/green.gif","img/card_backs/set1/yellow.gif","img/card_backs/set2/blue.gif","img/card_backs/set2/gray.gif","img/card_backs/set2/orange.gif","img/card_backs/set2/pink.gif","""event"",""trial"",""time""
""fullscreenenter"",""1"",""3085""
","
","
","""event"",""trial"",""time""
""fullscreenenter"",""1"",""3085""
","
","","null","","null","","fixation","2021-06-29 00:27:36.354","","","","","",""
"card-selection-trial","155","462855","0.0-25.0-1.42","A1176","false","img/card_backs/set1/red.gif","img/card_backs/set1/purple.gif","img/card_backs/set1/green.gif","img/card_backs/set1/yellow.gif","img/card_backs/set2/blue.gif","img/card_backs/set2/gray.gif","img/card_backs/set2/orange.gif","img/card_backs/set2/pink.gif","""event"",""trial"",""time""
""fullscreenenter"",""1"",""3085""
","
","
","""event"",""trial"",""time""
""fullscreenenter"",""1"",""3085""
","
","","624.7649998404086","","","","real_trial","2021-06-29 00:27:38.999","img/card_backs/set1/purple.gif","2","-250","1","",""
"casino-fixation","156","463362","0.0-25.0-0.43","A1176","false","img/card_backs/set1/red.gif","img/card_backs/set1/purple.gif","img/card_backs/set1/green.gif","img/card_backs/set1/yellow.gif","img/card_backs/set2/blue.gif","img/card_backs/set2/gray.gif","img/card_backs/set2/orange.gif","img/card_backs/set2/pink.gif","""event"",""trial"",""time""
""fullscreenenter"",""1"",""3085""
","
","
","""event"",""trial"",""time""
""fullscreenenter"",""1"",""3085""
","
","","null","","null","","fixation","2021-06-29 00:27:39.506","","","","","",""
"card-selection-trial","157","466064","0.0-25.0-1.43","A1176","false","img/card_backs/set1/red.gif","img/card_backs/set1/purple.gif","img/card_backs/set1/green.gif","img/card_backs/set1/yellow.gif","img/card_backs/set2/blue.gif","img/card_backs/set2/gray.gif","img/card_backs/set2/orange.gif","img/card_backs/set2/pink.gif","""event"",""trial"",""time""
""fullscreenenter"",""1"",""3085""
","
","
","""event"",""trial"",""time""
""fullscreenenter"",""1"",""3085""
","
","","686.3400000147521","","","","real_trial","2021-06-29 00:27:42.207","img/card_backs/set1/red.gif","1","-230","1","",""
"casino-fixation","158","466573","0.0-25.0-0.44","A1176","false","img/card_backs/set1/red.gif","img/card_backs/set1/purple.gif","img/card_backs/set1/green.gif","img/card_backs/set1/yellow.gif","img/card_backs/set2/blue.gif","img/card_backs/set2/gray.gif","img/card_backs/set2/orange.gif","img/card_backs/set2/pink.gif","""event"",""trial"",""time""
""fullscreenenter"",""1"",""3085""
","
","
","""event"",""trial"",""time""
""fullscreenenter"",""1"",""3085""
","
","","null","","null","","fixation","2021-06-29 00:27:42.717","","","","","",""
"card-selection-trial","159","469065","0.0-25.0-1.44","A1176","false","img/card_backs/set1/red.gif","img/card_backs/set1/purple.gif","img/card_backs/set1/green.gif","img/card_backs/set1/yellow.gif","img/card_backs/set2/blue.gif","img/card_backs/set2/gray.gif","img/card_backs/set2/orange.gif","img/card_backs/set2/pink.gif","""event"",""trial"",""time""
""fullscreenenter"",""1"",""3085""
","
","
","""event"",""trial"",""time""
""fullscreenenter"",""1"",""3085""
","
","","473.0899999849498","","","","real_trial","2021-06-29 00:27:45.210","img/card_backs/set1/purple.gif","2","-240","1","",""
"casino-fixation","160","469575","0.0-25.0-0.45","A1176","false","img/card_backs/set1/red.gif","img/card_backs/set1/purple.gif","img/card_backs/set1/green.gif","img/card_backs/set1/yellow.gif","img/card_backs/set2/blue.gif","img/card_backs/set2/gray.gif","img/card_backs/set2/orange.gif","img/card_backs/set2/pink.gif","""event"",""trial"",""time""
""fullscreenenter"",""1"",""3085""
","
","
","""event"",""trial"",""time""
""fullscreenenter"",""1"",""3085""
","
","","null","","null","","fixation","2021-06-29 00:27:45.719","","","","","",""
"card-selection-trial","161","472178","0.0-25.0-1.45","A1176","false","img/card_backs/set1/red.gif","img/card_backs/set1/purple.gif","img/card_backs/set1/green.gif","img/card_backs/set1/yellow.gif","img/card_backs/set2/blue.gif","img/card_backs/set2/gray.gif","img/card_backs/set2/orange.gif","img/card_backs/set2/pink.gif","""event"",""trial"",""time""
""fullscreenenter"",""1"",""3085""
","
","
","""event"",""trial"",""time""
""fullscreenenter"",""1"",""3085""
","
","","580.2450003102422","","","","real_trial","2021-06-29 00:27:48.322","img/card_backs/set1/yellow.gif","3","-70","1","",""
"casino-fixation","162","472683","0.0-25.0-0.46","A1176","false","img/card_backs/set1/red.gif","img/card_backs/set1/purple.gif","img/card_backs/set1/green.gif","img/card_backs/set1/yellow.gif","img/card_backs/set2/blue.gif","img/card_backs/set2/gray.gif","img/card_backs/set2/orange.gif","img/card_backs/set2/pink.gif","""event"",""trial"",""time""
""fullscreenenter"",""1"",""3085""
","
","
","""event"",""trial"",""time""
""fullscreenenter"",""1"",""3085""
","
","","null","","null","","fixation","2021-06-29 00:27:48.826","","","","","",""
"card-selection-trial","163","475289","0.0-25.0-1.46","A1176","false","img/card_backs/set1/red.gif","img/card_backs/set1/purple.gif","img/card_backs/set1/green.gif","img/card_backs/set1/yellow.gif","img/card_backs/set2/blue.gif","img/card_backs/set2/gray.gif","img/card_backs/set2/orange.gif","img/card_backs/set2/pink.gif","""event"",""trial"",""time""
""fullscreenenter"",""1"",""3085""
","
","
","""event"",""trial"",""time""
""fullscreenenter"",""1"",""3085""
","
","","579.8700000159442","","","","real_trial","2021-06-29 00:27:51.432","img/card_backs/set1/yellow.gif","1","100","1","",""
"casino-fixation","164","475796","0.0-25.0-0.47","A1176","false","img/card_backs/set1/red.gif","img/card_backs/set1/purple.gif","img/card_backs/set1/green.gif","img/card_backs/set1/yellow.gif","img/card_backs/set2/blue.gif","img/card_backs/set2/gray.gif","img/card_backs/set2/orange.gif","img/card_backs/set2/pink.gif","""event"",""trial"",""time""
""fullscreenenter"",""1"",""3085""
","
","
","""event"",""trial"",""time""
""fullscreenenter"",""1"",""3085""
","
","","null","","null","","fixation","2021-06-29 00:27:51.940","","","","","",""
"card-selection-trial","165","478364","0.0-25.0-1.47","A1176","false","img/card_backs/set1/red.gif","img/card_backs/set1/purple.gif","img/card_backs/set1/green.gif","img/card_backs/set1/yellow.gif","img/card_backs/set2/blue.gif","img/card_backs/set2/gray.gif","img/card_backs/set2/orange.gif","img/card_backs/set2/pink.gif","""event"",""trial"",""time""
""fullscreenenter"",""1"",""3085""
","
","
","""event"",""trial"",""time""
""fullscreenenter"",""1"",""3085""
","
","","557.6100000180304","","","","real_trial","2021-06-29 00:27:54.507","img/card_backs/set1/yellow.gif","2","110","1","",""
"casino-fixation","166","478869","0.0-25.0-0.48","A1176","false","img/card_backs/set1/red.gif","img/card_backs/set1/purple.gif","img/card_backs/set1/green.gif","img/card_backs/set1/yellow.gif","img/card_backs/set2/blue.gif","img/card_backs/set2/gray.gif","img/card_backs/set2/orange.gif","img/card_backs/set2/pink.gif","""event"",""trial"",""time""
""fullscreenenter"",""1"",""3085""
","
","
","""event"",""trial"",""time""
""fullscreenenter"",""1"",""3085""
","
