"trial_type","trial_index","time_elapsed","internal_node_id","sub_id","risk_good_first","block1_A","block1_B","block1_C","block1_D","block2_A","block2_B","block2_C","block2_D","interactions","blur_events","focus_events","fullscreenenter_events","fullscreenexit_events","success","rt","stimulus","key_press","button_pressed","task_part","timestamp","card_choice","choice_position","points_earned","block","correct","response"
"pavlovia","0","5","0.0-0.0","180","true","img/card_backs/set1/red.gif","img/card_backs/set1/green.gif","img/card_backs/set1/purple.gif","img/card_backs/set1/yellow.gif","img/card_backs/set2/pink.gif","img/card_backs/set2/gray.gif","img/card_backs/set2/orange.gif","img/card_backs/set2/blue.gif","""event"",""trial"",""time""
""fullscreenenter"",""1"",""4656""
","
","
","""event"",""trial"",""time""
""fullscreenenter"",""1"",""4656""
","
","","","","","","","","","","","","",""
"fullscreen","1","5640","0.0-1.0","180","true","img/card_backs/set1/red.gif","img/card_backs/set1/green.gif","img/card_backs/set1/purple.gif","img/card_backs/set1/yellow.gif","img/card_backs/set2/pink.gif","img/card_backs/set2/gray.gif","img/card_backs/set2/orange.gif","img/card_backs/set2/blue.gif","""event"",""trial"",""time""
""fullscreenenter"",""1"",""4656""
","
","
","""event"",""trial"",""time""
""fullscreenenter"",""1"",""4656""
","
","true","","","","","","","","","","","",""
"audio-keyboard-response","2","9349","0.0-2.0","180","true","img/card_backs/set1/red.gif","img/card_backs/set1/green.gif","img/card_backs/set1/purple.gif","img/card_backs/set1/yellow.gif","img/card_backs/set2/pink.gif","img/card_backs/set2/gray.gif","img/card_backs/set2/orange.gif","img/card_backs/set2/blue.gif","""event"",""trial"",""time""
""fullscreenenter"",""1"",""4656""
","
","
","""event"",""trial"",""time""
""fullscreenenter"",""1"",""4656""
","
","","3686","audio/beep_loop.wav","32","","","","","","","","",""
"audio-button-response","3","12940","0.0-3.0","180","true","img/card_backs/set1/red.gif","img/card_backs/set1/green.gif","img/card_backs/set1/purple.gif","img/card_backs/set1/yellow.gif","img/card_backs/set2/pink.gif","img/card_backs/set2/gray.gif","img/card_backs/set2/orange.gif","img/card_backs/set2/blue.gif","""event"",""trial"",""time""
""fullscreenenter"",""1"",""4656""
","
","
","""event"",""trial"",""time""
""fullscreenenter"",""1"",""4656""
","
","","NaN","audio/turtle.mp3","","3","","","","","","","",""
"audio-button-response","4","15292","0.0-4.0","180","true","img/card_backs/set1/red.gif","img/card_backs/set1/green.gif","img/card_backs/set1/purple.gif","img/card_backs/set1/yellow.gif","img/card_backs/set2/pink.gif","img/card_backs/set2/gray.gif","img/card_backs/set2/orange.gif","img/card_backs/set2/blue.gif","""event"",""trial"",""time""
""fullscreenenter"",""1"",""4656""
","
","
","""event"",""trial"",""time""
""fullscreenenter"",""1"",""4656""
","
","","NaN","audio/shark.mp3","","2","","","","","","","",""
"fullscreen","5","19303","0.0-5.0","180","true","img/card_backs/set1/red.gif","img/card_backs/set1/green.gif","img/card_backs/set1/purple.gif","img/card_backs/set1/yellow.gif","img/card_backs/set2/pink.gif","img/card_backs/set2/gray.gif","img/card_backs/set2/orange.gif","img/card_backs/set2/blue.gif","""event"",""trial"",""time""
""fullscreenenter"",""1"",""4656""
","
","
","""event"",""trial"",""time""
""fullscreenenter"",""1"",""4656""
","
","true","","","","","","","","","","","",""
"casino-keyboard-response","6","22604","0.0-6.0-0.0","180","true","img/card_backs/set1/red.gif","img/card_backs/set1/green.gif","img/card_backs/set1/purple.gif","img/card_backs/set1/yellow.gif","img/card_backs/set2/pink.gif","img/card_backs/set2/gray.gif","img/card_backs/set2/orange.gif","img/card_backs/set2/blue.gif","""event"",""trial"",""time""
""fullscreenenter"",""1"",""4656""
","
","
","""event"",""trial"",""time""
""fullscreenenter"",""1"",""4656""
","
","","3296.6450000003533","Welcome to the casino!","71","","instructions","2021-03-30 01:54:42.905","","","","","",""
"casino-keyboard-response","7","32152","0.0-6.0-0.1","180","true","img/card_backs/set1/red.gif","img/card_backs/set1/green.gif","img/card_backs/set1/purple.gif","img/card_backs/set1/yellow.gif","img/card_backs/set2/pink.gif","img/card_backs/set2/gray.gif","img/card_backs/set2/orange.gif","img/card_backs/set2/blue.gif","""event"",""trial"",""time""
""fullscreenenter"",""1"",""4656""
","
","
","""event"",""trial"",""time""
""fullscreenenter"",""1"",""4656""
","
","","9544.270000000324","Today you will be playing a game to earn tokens. </br> At the end of the experiment, you will be paid a bonus based on how many tokens you win. ","69","","instructions","2021-03-30 01:54:52.453","","","","","",""
"casino-keyboard-response","8","39802","0.0-6.0-0.2","180","true","img/card_backs/set1/red.gif","img/card_backs/set1/green.gif","img/card_backs/set1/purple.gif","img/card_backs/set1/yellow.gif","img/card_backs/set2/pink.gif","img/card_backs/set2/gray.gif","img/card_backs/set2/orange.gif","img/card_backs/set2/blue.gif","""event"",""trial"",""time""
""fullscreenenter"",""1"",""4656""
","
","
","""event"",""trial"",""time""
""fullscreenenter"",""1"",""4656""
","
","","7648.105000000214","On every turn, you will be shown four different decks of cards. </br> You need to select a card from one of the four decks.  ","75","","instructions","2021-03-30 01:55:00.103","","","","","",""
"casino-keyboard-response","9","44464","0.0-6.0-0.3","180","true","img/card_backs/set1/red.gif","img/card_backs/set1/green.gif","img/card_backs/set1/purple.gif","img/card_backs/set1/yellow.gif","img/card_backs/set2/pink.gif","img/card_backs/set2/gray.gif","img/card_backs/set2/orange.gif","img/card_backs/set2/blue.gif","""event"",""trial"",""time""
""fullscreenenter"",""1"",""4656""
","
","
","""event"",""trial"",""time""
""fullscreenenter"",""1"",""4656""
","
","","4658.9399999993475","On the next screen, you will see what the decks will look like. ","66","","instructions","2021-03-30 01:55:04.765","","","","","",""
"card-selection-trial","10","48471","0.0-7.0-0.0","180","true","img/card_backs/set1/red.gif","img/card_backs/set1/green.gif","img/card_backs/set1/purple.gif","img/card_backs/set1/yellow.gif","img/card_backs/set2/pink.gif","img/card_backs/set2/gray.gif","img/card_backs/set2/orange.gif","img/card_backs/set2/blue.gif","""event"",""trial"",""time""
""fullscreenenter"",""1"",""4656""
","
","
","""event"",""trial"",""time""
""fullscreenenter"",""1"",""4656""
","
","","null","","","","practice","2021-03-30 01:55:08.772","null","null","null","0","",""
"casino-keyboard-response","11","56412","0.0-8.0-0.0","180","true","img/card_backs/set1/red.gif","img/card_backs/set1/green.gif","img/card_backs/set1/purple.gif","img/card_backs/set1/yellow.gif","img/card_backs/set2/pink.gif","img/card_backs/set2/gray.gif","img/card_backs/set2/orange.gif","img/card_backs/set2/blue.gif","""event"",""trial"",""time""
""fullscreenenter"",""1"",""4656""
","
","
","""event"",""trial"",""time""
""fullscreenenter"",""1"",""4656""
","
","","7938.2299999997485","You should pick a card from a deck using the '2', '4', '6', and '8' keys at the top of the keyboard.","85","","instructions","2021-03-30 01:55:16.713","","","","","",""
"casino-keyboard-response","12","61819","0.0-8.0-0.1","180","true","img/card_backs/set1/red.gif","img/card_backs/set1/green.gif","img/card_backs/set1/purple.gif","img/card_backs/set1/yellow.gif","img/card_backs/set2/pink.gif","img/card_backs/set2/gray.gif","img/card_backs/set2/orange.gif","img/card_backs/set2/blue.gif","""event"",""trial"",""time""
""fullscreenenter"",""1"",""4656""
","
","
","""event"",""trial"",""time""
""fullscreenenter"",""1"",""4656""
","
","","5404.940000000352","Once you select a card, it will turn over and you will see how many tokens you earned.","83","","instructions","2021-03-30 01:55:22.120","","","","","",""
"casino-keyboard-response","13","76724","0.0-8.0-0.2","180","true","img/card_backs/set1/red.gif","img/card_backs/set1/green.gif","img/card_backs/set1/purple.gif","img/card_backs/set1/yellow.gif","img/card_backs/set2/pink.gif","img/card_backs/set2/gray.gif","img/card_backs/set2/orange.gif","img/card_backs/set2/blue.gif","""event"",""trial"",""time""
""fullscreenenter"",""1"",""4656""
","
","
","""event"",""trial"",""time""
""fullscreenenter"",""1"",""4656""
","
","","14901.835000000574","Let's try practicing that! </br> First, try to put your fingers over the '2', '4', '6', and '8' keys. </br>  You can use whatever fingers are most comfortable for you. Try to find a comfortable position now. ","50","","instructions","2021-03-30 01:55:37.025","","","","","",""
"casino-keyboard-response","14","82284","0.0-8.0-0.3","180","true","img/card_backs/set1/red.gif","img/card_backs/set1/green.gif","img/card_backs/set1/purple.gif","img/card_backs/set1/yellow.gif","img/card_backs/set2/pink.gif","img/card_backs/set2/gray.gif","img/card_backs/set2/orange.gif","img/card_backs/set2/blue.gif","""event"",""trial"",""time""
""fullscreenenter"",""1"",""4656""
","
","
","""event"",""trial"",""time""
""fullscreenenter"",""1"",""4656""
","
","","5557.564999999158","Okay ready? </br> On the next screen, press '2' to select the left deck. ","50","","instructions","2021-03-30 01:55:42.585","","","","","",""
"card-selection-trial","15","85757","0.0-9.0-0.0","180","true","img/card_backs/set1/red.gif","img/card_backs/set1/green.gif","img/card_backs/set1/purple.gif","img/card_backs/set1/yellow.gif","img/card_backs/set2/pink.gif","img/card_backs/set2/gray.gif","img/card_backs/set2/orange.gif","img/card_backs/set2/blue.gif","""event"",""trial"",""time""
""fullscreenenter"",""1"",""4656""
","
","
","""event"",""trial"",""time""
""fullscreenenter"",""1"",""4656""
","
","","1463.724999999613","","","","practice_card_selection","2021-03-30 01:55:46.059","img/practice_cards/backs/dark_green.gif","0","-200","","",""
"casino-keyboard-response","16","91885","0.0-10.0-0.0","180","true","img/card_backs/set1/red.gif","img/card_backs/set1/green.gif","img/card_backs/set1/purple.gif","img/card_backs/set1/yellow.gif","img/card_backs/set2/pink.gif","img/card_backs/set2/gray.gif","img/card_backs/set2/orange.gif","img/card_backs/set2/blue.gif","""event"",""trial"",""time""
""fullscreenenter"",""1"",""4656""
","
","
","""event"",""trial"",""time""
""fullscreenenter"",""1"",""4656""
","
","","6124.604999999065","Great! Now on the next screen, try pressing '6' to select the third deck.","54","","instructions","2021-03-30 01:55:52.186","","","","","",""
"card-selection-trial","17","96631","0.0-11.0-0.0","180","true","img/card_backs/set1/red.gif","img/card_backs/set1/green.gif","img/card_backs/set1/purple.gif","img/card_backs/set1/yellow.gif","img/card_backs/set2/pink.gif","img/card_backs/set2/gray.gif","img/card_backs/set2/orange.gif","img/card_backs/set2/blue.gif","""event"",""trial"",""time""
""fullscreenenter"",""1"",""4656""
","
","
","""event"",""trial"",""time""
""fullscreenenter"",""1"",""4656""
","
","","2737.794999999096","","","","practice_card_selection","2021-03-30 01:55:56.932","img/practice_cards/backs/brown.gif","2","-100","","",""
"casino-keyboard-response","18","98451","0.0-12.0-0.0","180","true","img/card_backs/set1/red.gif","img/card_backs/set1/green.gif","img/card_backs/set1/purple.gif","img/card_backs/set1/yellow.gif","img/card_backs/set2/pink.gif","img/card_backs/set2/gray.gif","img/card_backs/set2/orange.gif","img/card_backs/set2/blue.gif","""event"",""trial"",""time""
""fullscreenenter"",""1"",""4656""
","
","
","""event"",""trial"",""time""
""fullscreenenter"",""1"",""4656""
","
","","1817.7749999995285","Now on the next screen, try pressing '4' to select the second deck.","52","","instructions","2021-03-30 01:55:58.752","","","","","",""
"card-selection-trial","19","100683","0.0-13.0-0.0","180","true","img/card_backs/set1/red.gif","img/card_backs/set1/green.gif","img/card_backs/set1/purple.gif","img/card_backs/set1/yellow.gif","img/card_backs/set2/pink.gif","img/card_backs/set2/gray.gif","img/card_backs/set2/orange.gif","img/card_backs/set2/blue.gif","""event"",""trial"",""time""
""fullscreenenter"",""1"",""4656""
","
","
","""event"",""trial"",""time""
""fullscreenenter"",""1"",""4656""
","
","","223.17000000111875","","","","practice_card_selection","2021-03-30 01:56:00.984","img/practice_cards/backs/dark_green.gif","1","200","","",""
"casino-keyboard-response","20","102392","0.0-14.0-0.0","180","true","img/card_backs/set1/red.gif","img/card_backs/set1/green.gif","img/card_backs/set1/purple.gif","img/card_backs/set1/yellow.gif","img/card_backs/set2/pink.gif","img/card_backs/set2/gray.gif","img/card_backs/set2/orange.gif","img/card_backs/set2/blue.gif","""event"",""trial"",""time""
""fullscreenenter"",""1"",""4656""
","
","
","""event"",""trial"",""time""
""fullscreenenter"",""1"",""4656""
","
","","1707.0850000000064","Finally, try pressing '8' to select the deck all the way on the right.","56","","instructions","2021-03-30 01:56:02.693","","","","","",""
"card-selection-trial","21","105050","0.0-15.0-0.0","180","true","img/card_backs/set1/red.gif","img/card_backs/set1/green.gif","img/card_backs/set1/purple.gif","img/card_backs/set1/yellow.gif","img/card_backs/set2/pink.gif","img/card_backs/set2/gray.gif","img/card_backs/set2/orange.gif","img/card_backs/set2/blue.gif","""event"",""trial"",""time""
""fullscreenenter"",""1"",""4656""
","
","
","""event"",""trial"",""time""
""fullscreenenter"",""1"",""4656""
","
","","649.3199999986246","","","","practice_card_selection","2021-03-30 01:56:05.351","img/practice_cards/backs/black.gif","3","100","","",""
"casino-keyboard-response","22","108408","0.0-16.0-0.0","180","true","img/card_backs/set1/red.gif","img/card_backs/set1/green.gif","img/card_backs/set1/purple.gif","img/card_backs/set1/yellow.gif","img/card_backs/set2/pink.gif","img/card_backs/set2/gray.gif","img/card_backs/set2/orange.gif","img/card_backs/set2/blue.gif","""event"",""trial"",""time""
""fullscreenenter"",""1"",""4656""
""blur"",""23"",""116144""
""focus"",""23"",""119921""
","""event"",""trial"",""time""
""blur"",""23"",""116144""
","""event"",""trial"",""time""
""focus"",""23"",""119921""
","""event"",""trial"",""time""
""fullscreenenter"",""1"",""4656""
","
","","3355.344999999943","Great! It seems like you are getting the hang of this.","80","","instructions","2021-03-30 01:56:08.709","","","","","",""
"casino-keyboard-response","23","121038","0.0-16.0-0.1","180","true","img/card_backs/set1/red.gif","img/card_backs/set1/green.gif","img/card_backs/set1/purple.gif","img/card_backs/set1/yellow.gif","img/card_backs/set2/pink.gif","img/card_backs/set2/gray.gif","img/card_backs/set2/orange.gif","img/card_backs/set2/blue.gif","""event"",""trial"",""time""
""fullscreenenter"",""1"",""4656""
""blur"",""23"",""116144""
""focus"",""23"",""119921""
","""event"",""trial"",""time""
""blur"",""23"",""116144""
","""event"",""trial"",""time""
""focus"",""23"",""119921""
","""event"",""trial"",""time""
""fullscreenenter"",""1"",""4656""
","
","","12628.425000000789","You may have noticed that some cards will cause you to <b> win </b> tokens while other cards will cause you to <b> lose </b>  tokens.","70","","instructions","2021-03-30 01:56:21.339","","","","","",""
"casino-keyboard-response","24","132891","0.0-16.0-0.2","180","true","img/card_backs/set1/red.gif","img/card_backs/set1/green.gif","img/card_backs/set1/purple.gif","img/card_backs/set1/yellow.gif","img/card_backs/set2/pink.gif","img/card_backs/set2/gray.gif","img/card_backs/set2/orange.gif","img/card_backs/set2/blue.gif","""event"",""trial"",""time""
""fullscreenenter"",""1"",""4656""
""blur"",""23"",""116144""
""focus"",""23"",""119921""
","""event"",""trial"",""time""
""blur"",""23"",""116144""
","""event"",""trial"",""time""
""focus"",""23"",""119921""
","""event"",""trial"",""time""
""fullscreenenter"",""1"",""4656""
","
","","11849.865000000136","Each deck has a mix of cards that will cause you to win and lose tokens. </br> However, the cards in each colored deck are different.","73","","instructions","2021-03-30 01:56:33.192","","","","","",""
"casino-keyboard-response","25","143599","0.0-16.0-0.3","180","true","img/card_backs/set1/red.gif","img/card_backs/set1/green.gif","img/card_backs/set1/purple.gif","img/card_backs/set1/yellow.gif","img/card_backs/set2/pink.gif","img/card_backs/set2/gray.gif","img/card_backs/set2/orange.gif","img/card_backs/set2/blue.gif","""event"",""trial"",""time""
""fullscreenenter"",""1"",""4656""
""blur"",""23"",""116144""
""focus"",""23"",""119921""
","""event"",""trial"",""time""
""blur"",""23"",""116144""
","""event"",""trial"",""time""
""focus"",""23"",""119921""
","""event"",""trial"",""time""
""fullscreenenter"",""1"",""4656""
","
","","10704.304999999295","Some colored decks are luckier than others. </br> If you choose the lucky decks, you will earn more tokens than if you choose the unlucky decks.","69","","instructions","2021-03-30 01:56:43.900","","","","","",""
"casino-keyboard-response","26","151160","0.0-16.0-0.4","180","true","img/card_backs/set1/red.gif","img/card_backs/set1/green.gif","img/card_backs/set1/purple.gif","img/card_backs/set1/yellow.gif","img/card_backs/set2/pink.gif","img/card_backs/set2/gray.gif","img/card_backs/set2/orange.gif","img/card_backs/set2/blue.gif","""event"",""trial"",""time""
""fullscreenenter"",""1"",""4656""
""blur"",""23"",""116144""
""focus"",""23"",""119921""
","""event"",""trial"",""time""
""blur"",""23"",""116144""
","""event"",""trial"",""time""
""focus"",""23"",""119921""
","""event"",""trial"",""time""
""fullscreenenter"",""1"",""4656""
","
","","7558.470000001747","You should try to figure out which decks are lucky. </br> Then, try to choose the lucky decks so you can win the most tokens.","87","","instructions","2021-03-30 01:56:51.461","","","","","",""
"casino-keyboard-response","27","162765","0.0-16.0-0.5","180","true","img/card_backs/set1/red.gif","img/card_backs/set1/green.gif","img/card_backs/set1/purple.gif","img/card_backs/set1/yellow.gif","img/card_backs/set2/pink.gif","img/card_backs/set2/gray.gif","img/card_backs/set2/orange.gif","img/card_backs/set2/blue.gif","""event"",""trial"",""time""
""fullscreenenter"",""1"",""4656""
""blur"",""23"",""116144""
""focus"",""23"",""119921""
","""event"",""trial"",""time""
""blur"",""23"",""116144""
","""event"",""trial"",""time""
""focus"",""23"",""119921""
","""event"",""trial"",""time""
""fullscreenenter"",""1"",""4656""
","
","","11602.110000001616","To make it trickier, the casino dealer will switch the locations of the decks on every turn. </br> The color of the deck determines how lucky it is. The location does not matter.","88","","instructions","2021-03-30 01:57:03.066","","","","","",""
"casino-keyboard-response","28","178741","0.0-16.0-0.6","180","true","img/card_backs/set1/red.gif","img/card_backs/set1/green.gif","img/card_backs/set1/purple.gif","img/card_backs/set1/yellow.gif","img/card_backs/set2/pink.gif","img/card_backs/set2/gray.gif","img/card_backs/set2/orange.gif","img/card_backs/set2/blue.gif","""event"",""trial"",""time""
""fullscreenenter"",""1"",""4656""
""blur"",""23"",""116144""
""focus"",""23"",""119921""
","""event"",""trial"",""time""
""blur"",""23"",""116144""
","""event"",""trial"",""time""
""focus"",""23"",""119921""
","""event"",""trial"",""time""
""fullscreenenter"",""1"",""4656""
","
","","15972.649999999674","The mix of cards in each colored deck will stay the same throughout the game. </br> That means that a deck that is lucky early on will stay lucky.","79","","instructions","2021-03-30 01:57:19.042","","","","","",""
"casino-keyboard-response","29","186825","0.0-16.0-0.7","180","true","img/card_backs/set1/red.gif","img/card_backs/set1/green.gif","img/card_backs/set1/purple.gif","img/card_backs/set1/yellow.gif","img/card_backs/set2/pink.gif","img/card_backs/set2/gray.gif","img/card_backs/set2/orange.gif","img/card_backs/set2/blue.gif","""event"",""trial"",""time""
""fullscreenenter"",""1"",""4656""
""blur"",""23"",""116144""
""focus"",""23"",""119921""
","""event"",""trial"",""time""
""blur"",""23"",""116144""
","""event"",""trial"",""time""
""focus"",""23"",""119921""
","""event"",""trial"",""time""
""fullscreenenter"",""1"",""4656""
","
","","8081.179999999207","Remember though, all the decks have a <b> mix </b> of both <b> good </b> and <b> bad </b> cards so it may take a couple of turns to figure out if a deck is lucky.","69","","instructions","2021-03-30 01:57:27.126","","","","","",""
"casino-keyboard-response","30","195354","0.0-16.0-0.8","180","true","img/card_backs/set1/red.gif","img/card_backs/set1/green.gif","img/card_backs/set1/purple.gif","img/card_backs/set1/yellow.gif","img/card_backs/set2/pink.gif","img/card_backs/set2/gray.gif","img/card_backs/set2/orange.gif","img/card_backs/set2/blue.gif","""event"",""trial"",""time""
""fullscreenenter"",""1"",""4656""
""blur"",""23"",""116144""
""focus"",""23"",""119921""
","""event"",""trial"",""time""
""blur"",""23"",""116144""
","""event"",""trial"",""time""
""focus"",""23"",""119921""
","""event"",""trial"",""time""
""fullscreenenter"",""1"",""4656""
","
","","8524.210000001418","At the end of the game, you will be paid bonus money based on how many tokens you win. </br> If you win more tokens, you will earn more money!","72","","instructions","2021-03-30 01:57:35.655","","","","","",""
"casino-keyboard-response","31","205643","0.0-16.0-0.9","180","true","img/card_backs/set1/red.gif","img/card_backs/set1/green.gif","img/card_backs/set1/purple.gif","img/card_backs/set1/yellow.gif","img/card_backs/set2/pink.gif","img/card_backs/set2/gray.gif","img/card_backs/set2/orange.gif","img/card_backs/set2/blue.gif","""event"",""trial"",""time""
""fullscreenenter"",""1"",""4656""
""blur"",""23"",""116144""
""focus"",""23"",""119921""
","""event"",""trial"",""time""
""blur"",""23"",""116144""
","""event"",""trial"",""time""
""focus"",""23"",""119921""
","""event"",""trial"",""time""
""fullscreenenter"",""1"",""4656""
","
","","10286.38500000126","You will never <b> lose </b> money. </br> If you end up with fewer than 0 tokens, you will earn $0 of bonus money, but you will still be paid for playing the game.","83","","instructions","2021-03-30 01:57:45.945","","","","","",""
"casino-keyboard-response","32","210301","0.0-16.0-0.10","180","true","img/card_backs/set1/red.gif","img/card_backs/set1/green.gif","img/card_backs/set1/purple.gif","img/card_backs/set1/yellow.gif","img/card_backs/set2/pink.gif","img/card_backs/set2/gray.gif","img/card_backs/set2/orange.gif","img/card_backs/set2/blue.gif","""event"",""trial"",""time""
""fullscreenenter"",""1"",""4656""
""blur"",""23"",""116144""
""focus"",""23"",""119921""
","""event"",""trial"",""time""
""blur"",""23"",""116144""
","""event"",""trial"",""time""
""focus"",""23"",""119921""
","""event"",""trial"",""time""
""fullscreenenter"",""1"",""4656""
","
","","4654.409999999189","You will have 10 seconds to make each choice.","82","","instructions","2021-03-30 01:57:50.602","","","","","",""
"casino-keyboard-response","33","218615","0.0-16.0-0.11","180","true","img/card_backs/set1/red.gif","img/card_backs/set1/green.gif","img/card_backs/set1/purple.gif","img/card_backs/set1/yellow.gif","img/card_backs/set2/pink.gif","img/card_backs/set2/gray.gif","img/card_backs/set2/orange.gif","img/card_backs/set2/blue.gif","""event"",""trial"",""time""
""fullscreenenter"",""1"",""4656""
""blur"",""23"",""116144""
""focus"",""23"",""119921""
""blur"",""34"",""223812""
""focus"",""34"",""227429""
","""event"",""trial"",""time""
""blur"",""23"",""116144""
""blur"",""34"",""223812""
","""event"",""trial"",""time""
""focus"",""23"",""119921""
""focus"",""34"",""227429""
","""event"",""trial"",""time""
""fullscreenenter"",""1"",""4656""
","
","","8311.3400000002","Before you play the game for real, you will play with practice decks. </br> The tokens you earn during practice won't count toward your total.","86","","instructions","2021-03-30 01:57:58.916","","","","","",""
"casino-keyboard-response","34","229283","0.0-16.0-0.12","180","true","img/card_backs/set1/red.gif","img/card_backs/set1/green.gif","img/card_backs/set1/purple.gif","img/card_backs/set1/yellow.gif","img/card_backs/set2/pink.gif","img/card_backs/set2/gray.gif","img/card_backs/set2/orange.gif","img/card_backs/set2/blue.gif","""event"",""trial"",""time""
""fullscreenenter"",""1"",""4656""
""blur"",""23"",""116144""
""focus"",""23"",""119921""
""blur"",""34"",""223812""
""focus"",""34"",""227429""
","""event"",""trial"",""time""
""blur"",""23"",""116144""
""blur"",""34"",""223812""
","""event"",""trial"",""time""
""focus"",""23"",""119921""
""focus"",""34"",""227429""
","""event"",""trial"",""time""
""fullscreenenter"",""1"",""4656""
","
","","10664.639999999054","Ready? Remember, use the '2', '4', '6', and '8' keys to select the decks. </br> Put your fingers on those keys now and then press '2' to begin.","50","","instructions","2021-03-30 01:58:09.584","","","","","",""
"casino-fixation","35","229788","0.0-17.0-0.0","180","true","img/card_backs/set1/red.gif","img/card_backs/set1/green.gif","img/card_backs/set1/purple.gif","img/card_backs/set1/yellow.gif","img/card_backs/set2/pink.gif","img/card_backs/set2/gray.gif","img/card_backs/set2/orange.gif","img/card_backs/set2/blue.gif","""event"",""trial"",""time""
""fullscreenenter"",""1"",""4656""
""blur"",""23"",""116144""
""focus"",""23"",""119921""
""blur"",""34"",""223812""
""focus"",""34"",""227429""
","""event"",""trial"",""time""
""blur"",""23"",""116144""
""blur"",""34"",""223812""
","""event"",""trial"",""time""
""focus"",""23"",""119921""
""focus"",""34"",""227429""
","""event"",""trial"",""time""
""fullscreenenter"",""1"",""4656""
","
","","null","","null","","fixation","2021-03-30 01:58:10.089","","","","","",""
"card-selection-trial","36","234392","0.0-17.0-1.0","180","true","img/card_backs/set1/red.gif","img/card_backs/set1/green.gif","img/card_backs/set1/purple.gif","img/card_backs/set1/yellow.gif","img/card_backs/set2/pink.gif","img/card_backs/set2/gray.gif","img/card_backs/set2/orange.gif","img/card_backs/set2/blue.gif","""event"",""trial"",""time""
""fullscreenenter"",""1"",""4656""
""blur"",""23"",""116144""
""focus"",""23"",""119921""
""blur"",""34"",""223812""
""focus"",""34"",""227429""
","""event"",""trial"",""time""
""blur"",""23"",""116144""
""blur"",""34"",""223812""
","""event"",""trial"",""time""
""focus"",""23"",""119921""
""focus"",""34"",""227429""
","""event"",""trial"",""time""
""fullscreenenter"",""1"",""4656""
","
","","2594.8800000005867","","","","practice","2021-03-30 01:58:14.693","img/practice_cards/backs/dark_green.gif","1","-200","0","",""
"casino-fixation","37","234897","0.0-17.0-0.1","180","true","img/card_backs/set1/red.gif","img/card_backs/set1/green.gif","img/card_backs/set1/purple.gif","img/card_backs/set1/yellow.gif","img/card_backs/set2/pink.gif","img/card_backs/set2/gray.gif","img/card_backs/set2/orange.gif","img/card_backs/set2/blue.gif","""event"",""trial"",""time""
""fullscreenenter"",""1"",""4656""
""blur"",""23"",""116144""
""focus"",""23"",""119921""
""blur"",""34"",""223812""
""focus"",""34"",""227429""
","""event"",""trial"",""time""
""blur"",""23"",""116144""
""blur"",""34"",""223812""
","""event"",""trial"",""time""
""focus"",""23"",""119921""
""focus"",""34"",""227429""
","""event"",""trial"",""time""
""fullscreenenter"",""1"",""4656""
","
","","null","","null","","fixation","2021-03-30 01:58:15.198","","","","","",""
"card-selection-trial","38","239000","0.0-17.0-1.1","180","true","img/card_backs/set1/red.gif","img/card_backs/set1/green.gif","img/card_backs/set1/purple.gif","img/card_backs/set1/yellow.gif","img/card_backs/set2/pink.gif","img/card_backs/set2/gray.gif","img/card_backs/set2/orange.gif","img/card_backs/set2/blue.gif","""event"",""trial"",""time""
""fullscreenenter"",""1"",""4656""
""blur"",""23"",""116144""
""focus"",""23"",""119921""
""blur"",""34"",""223812""
""focus"",""34"",""227429""
","""event"",""trial"",""time""
""blur"",""23"",""116144""
""blur"",""34"",""223812""
","""event"",""trial"",""time""
""focus"",""23"",""119921""
""focus"",""34"",""227429""
","""event"",""trial"",""time""
""fullscreenenter"",""1"",""4656""
","
","","2091.8550000005926","","","","practice","2021-03-30 01:58:19.302","img/practice_cards/backs/dark_blue.gif","3","200","0","",""
"casino-fixation","39","239506","0.0-17.0-0.2","180","true","img/card_backs/set1/red.gif","img/card_backs/set1/green.gif","img/card_backs/set1/purple.gif","img/card_backs/set1/yellow.gif","img/card_backs/set2/pink.gif","img/card_backs/set2/gray.gif","img/card_backs/set2/orange.gif","img/card_backs/set2/blue.gif","""event"",""trial"",""time""
""fullscreenenter"",""1"",""4656""
""blur"",""23"",""116144""
""focus"",""23"",""119921""
""blur"",""34"",""223812""
""focus"",""34"",""227429""
","""event"",""trial"",""time""
""blur"",""23"",""116144""
""blur"",""34"",""223812""
","""event"",""trial"",""time""
""focus"",""23"",""119921""
""focus"",""34"",""227429""
","""event"",""trial"",""time""
""fullscreenenter"",""1"",""4656""
","
","","null","","null","","fixation","2021-03-30 01:58:19.807","","","","","",""
"card-selection-trial","40","244145","0.0-17.0-1.2","180","true","img/card_backs/set1/red.gif","img/card_backs/set1/green.gif","img/card_backs/set1/purple.gif","img/card_backs/set1/yellow.gif","img/card_backs/set2/pink.gif","img/card_backs/set2/gray.gif","img/card_backs/set2/orange.gif","img/card_backs/set2/blue.gif","""event"",""trial"",""time""
""fullscreenenter"",""1"",""4656""
""blur"",""23"",""116144""
""focus"",""23"",""119921""
""blur"",""34"",""223812""
""focus"",""34"",""227429""
","""event"",""trial"",""time""
""blur"",""23"",""116144""
""blur"",""34"",""223812""
","""event"",""trial"",""time""
""focus"",""23"",""119921""
""focus"",""34"",""227429""
","""event"",""trial"",""time""
""fullscreenenter"",""1"",""4656""
","
","","2628.705000001006","","","","practice","2021-03-30 01:58:24.446","img/practice_cards/backs/dark_blue.gif","0","200","0","",""
"casino-fixation","41","244648","0.0-17.0-0.3","180","true","img/card_backs/set1/red.gif","img/card_backs/set1/green.gif","img/card_backs/set1/purple.gif","img/card_backs/set1/yellow.gif","img/card_backs/set2/pink.gif","img/card_backs/set2/gray.gif","img/card_backs/set2/orange.gif","img/card_backs/set2/blue.gif","""event"",""trial"",""time""
""fullscreenenter"",""1"",""4656""
""blur"",""23"",""116144""
""focus"",""23"",""119921""
""blur"",""34"",""223812""
""focus"",""34"",""227429""
","""event"",""trial"",""time""
""blur"",""23"",""116144""
""blur"",""34"",""223812""
","""event"",""trial"",""time""
""focus"",""23"",""119921""
""focus"",""34"",""227429""
","""event"",""trial"",""time""
""fullscreenenter"",""1"",""4656""
","
","","null","","null","","fixation","2021-03-30 01:58:24.949","","","","","",""
"card-selection-trial","42","248626","0.0-17.0-1.3","180","true","img/card_backs/set1/red.gif","img/card_backs/set1/green.gif","img/card_backs/set1/purple.gif","img/card_backs/set1/yellow.gif","img/card_backs/set2/pink.gif","img/card_backs/set2/gray.gif","img/card_backs/set2/orange.gif","img/card_backs/set2/blue.gif","""event"",""trial"",""time""
""fullscreenenter"",""1"",""4656""
""blur"",""23"",""116144""
""focus"",""23"",""119921""
""blur"",""34"",""223812""
""focus"",""34"",""227429""
","""event"",""trial"",""time""
""blur"",""23"",""116144""
""blur"",""34"",""223812""
","""event"",""trial"",""time""
""focus"",""23"",""119921""
""focus"",""34"",""227429""
","""event"",""trial"",""time""
""fullscreenenter"",""1"",""4656""
","
","","1969.465000000142","","","","practice","2021-03-30 01:58:28.928","img/practice_cards/backs/black.gif","1","100","0","",""
"casino-fixation","43","249131","0.0-17.0-0.4","180","true","img/card_backs/set1/red.gif","img/card_backs/set1/green.gif","img/card_backs/set1/purple.gif","img/card_backs/set1/yellow.gif","img/card_backs/set2/pink.gif","img/card_backs/set2/gray.gif","img/card_backs/set2/orange.gif","img/card_backs/set2/blue.gif","""event"",""trial"",""time""
""fullscreenenter"",""1"",""4656""
""blur"",""23"",""116144""
""focus"",""23"",""119921""
""blur"",""34"",""223812""
""focus"",""34"",""227429""
","""event"",""trial"",""time""
""blur"",""23"",""116144""
""blur"",""34"",""223812""
","""event"",""trial"",""time""
""focus"",""23"",""119921""
""focus"",""34"",""227429""
","""event"",""trial"",""time""
""fullscreenenter"",""1"",""4656""
","
","","null","","null","","fixation","2021-03-30 01:58:29.432","","","","","",""
"card-selection-trial","44","253076","0.0-17.0-1.4","180","true","img/card_backs/set1/red.gif","img/card_backs/set1/green.gif","img/card_backs/set1/purple.gif","img/card_backs/set1/yellow.gif","img/card_backs/set2/pink.gif","img/card_backs/set2/gray.gif","img/card_backs/set2/orange.gif","img/card_backs/set2/blue.gif","""event"",""trial"",""time""
""fullscreenenter"",""1"",""4656""
""blur"",""23"",""116144""
""focus"",""23"",""119921""
""blur"",""34"",""223812""
""focus"",""34"",""227429""
","""event"",""trial"",""time""
""blur"",""23"",""116144""
""blur"",""34"",""223812""
","""event"",""trial"",""time""
""focus"",""23"",""119921""
""focus"",""34"",""227429""
","""event"",""trial"",""time""
""fullscreenenter"",""1"",""4656""
","
","","1935.2500000004657","","","","practice","2021-03-30 01:58:33.377","img/practice_cards/backs/brown.gif","2","100","0","",""
"casino-fixation","45","253578","0.0-17.0-0.5","180","true","img/card_backs/set1/red.gif","img/card_backs/set1/green.gif","img/card_backs/set1/purple.gif","img/card_backs/set1/yellow.gif","img/card_backs/set2/pink.gif","img/card_backs/set2/gray.gif","img/card_backs/set2/orange.gif","img/card_backs/set2/blue.gif","""event"",""trial"",""time""
""fullscreenenter"",""1"",""4656""
""blur"",""23"",""116144""
""focus"",""23"",""119921""
""blur"",""34"",""223812""
""focus"",""34"",""227429""
","""event"",""trial"",""time""
""blur"",""23"",""116144""
""blur"",""34"",""223812""
","""event"",""trial"",""time""
""focus"",""23"",""119921""
""focus"",""34"",""227429""
","""event"",""trial"",""time""
""fullscreenenter"",""1"",""4656""
","
","","null","","null","","fixation","2021-03-30 01:58:33.879","","","","","",""
"card-selection-trial","46","256952","0.0-17.0-1.5","180","true","img/card_backs/set1/red.gif","img/card_backs/set1/green.gif","img/card_backs/set1/purple.gif","img/card_backs/set1/yellow.gif","img/card_backs/set2/pink.gif","img/card_backs/set2/gray.gif","img/card_backs/set2/orange.gif","img/card_backs/set2/blue.gif","""event"",""trial"",""time""
""fullscreenenter"",""1"",""4656""
""blur"",""23"",""116144""
""focus"",""23"",""119921""
""blur"",""34"",""223812""
""focus"",""34"",""227429""
","""event"",""trial"",""time""
""blur"",""23"",""116144""
""blur"",""34"",""223812""
","""event"",""trial"",""time""
""focus"",""23"",""119921""
""focus"",""34"",""227429""
","""event"",""trial"",""time""
""fullscreenenter"",""1"",""4656""
","
","","1365.7049999983574","","","","practice","2021-03-30 01:58:37.253","img/practice_cards/backs/black.gif","0","100","0","",""
"casino-fixation","47","257456","0.0-17.0-0.6","180","true","img/card_backs/set1/red.gif","img/card_backs/set1/green.gif","img/card_backs/set1/purple.gif","img/card_backs/set1/yellow.gif","img/card_backs/set2/pink.gif","img/card_backs/set2/gray.gif","img/card_backs/set2/orange.gif","img/card_backs/set2/blue.gif","""event"",""trial"",""time""
""fullscreenenter"",""1"",""4656""
""blur"",""23"",""116144""
""focus"",""23"",""119921""
""blur"",""34"",""223812""
""focus"",""34"",""227429""
","""event"",""trial"",""time""
""blur"",""23"",""116144""
""blur"",""34"",""223812""
","""event"",""trial"",""time""
""focus"",""23"",""119921""
""focus"",""34"",""227429""
","""event"",""trial"",""time""
""fullscreenenter"",""1"",""4656""
","
","","null","","null","","fixation","2021-03-30 01:58:37.757","","","","","",""
"card-selection-trial","48","260912","0.0-17.0-1.6","180","true","img/card_backs/set1/red.gif","img/card_backs/set1/green.gif","img/card_backs/set1/purple.gif","img/card_backs/set1/yellow.gif","img/card_backs/set2/pink.gif","img/card_backs/set2/gray.gif","img/card_backs/set2/orange.gif","img/card_backs/set2/blue.gif","""event"",""trial"",""time""
""fullscreenenter"",""1"",""4656""
""blur"",""23"",""116144""
""focus"",""23"",""119921""
""blur"",""34"",""223812""
""focus"",""34"",""227429""
","""event"",""trial"",""time""
""blur"",""23"",""116144""
""blur"",""34"",""223812""
","""event"",""trial"",""time""
""focus"",""23"",""119921""
""focus"",""34"",""227429""
","""event"",""trial"",""time""
""fullscreenenter"",""1"",""4656""
","
","","1446.2650000004796","","","","practice","2021-03-30 01:58:41.213","img/practice_cards/backs/black.gif","1","-100","0","",""
"casino-fixation","49","261417","0.0-17.0-0.7","180","true","img/card_backs/set1/red.gif","img/card_backs/set1/green.gif","img/card_backs/set1/purple.gif","img/card_backs/set1/yellow.gif","img/card_backs/set2/pink.gif","img/card_backs/set2/gray.gif","img/card_backs/set2/orange.gif","img/card_backs/set2/blue.gif","""event"",""trial"",""time""
""fullscreenenter"",""1"",""4656""
""blur"",""23"",""116144""
""focus"",""23"",""119921""
""blur"",""34"",""223812""
""focus"",""34"",""227429""
","""event"",""trial"",""time""
""blur"",""23"",""116144""
""blur"",""34"",""223812""
","""event"",""trial"",""time""
""focus"",""23"",""119921""
""focus"",""34"",""227429""
","""event"",""trial"",""time""
""fullscreenenter"",""1"",""4656""
","
","","null","","null","","fixation","2021-03-30 01:58:41.718","","","","","",""
"card-selection-trial","50","265341","0.0-17.0-1.7","180","true","img/card_backs/set1/red.gif","img/card_backs/set1/green.gif","img/card_backs/set1/purple.gif","img/card_backs/set1/yellow.gif","img/card_backs/set2/pink.gif","img/card_backs/set2/gray.gif","img/card_backs/set2/orange.gif","img/card_backs/set2/blue.gif","""event"",""trial"",""time""
""fullscreenenter"",""1"",""4656""
""blur"",""23"",""116144""
""focus"",""23"",""119921""
""blur"",""34"",""223812""
""focus"",""34"",""227429""
","""event"",""trial"",""time""
""blur"",""23"",""116144""
""blur"",""34"",""223812""
","""event"",""trial"",""time""
""focus"",""23"",""119921""
""focus"",""34"",""227429""
","""event"",""trial"",""time""
""fullscreenenter"",""1"",""4656""
","
","","1915.9099999997416","","","","practice","2021-03-30 01:58:45.642","img/practice_cards/backs/dark_green.gif","2","200","0","",""
"casino-fixation","51","265846","0.0-17.0-0.8","180","true","img/card_backs/set1/red.gif","img/card_backs/set1/green.gif","img/card_backs/set1/purple.gif","img/card_backs/set1/yellow.gif","img/card_backs/set2/pink.gif","img/card_backs/set2/gray.gif","img/card_backs/set2/orange.gif","img/card_backs/set2/blue.gif","""event"",""trial"",""time""
""fullscreenenter"",""1"",""4656""
""blur"",""23"",""116144""
""focus"",""23"",""119921""
""blur"",""34"",""223812""
""focus"",""34"",""227429""
","""event"",""trial"",""time""
""blur"",""23"",""116144""
""blur"",""34"",""223812""
","""event"",""trial"",""time""
""focus"",""23"",""119921""
""focus"",""34"",""227429""
","""event"",""trial"",""time""
""fullscreenenter"",""1"",""4656""
","
","","null","","null","","fixation","2021-03-30 01:58:46.147","","","","","",""
"card-selection-trial","52","269953","0.0-17.0-1.8","180","true","img/card_backs/set1/red.gif","img/card_backs/set1/green.gif","img/card_backs/set1/purple.gif","img/card_backs/set1/yellow.gif","img/card_backs/set2/pink.gif","img/card_backs/set2/gray.gif","img/card_backs/set2/orange.gif","img/card_backs/set2/blue.gif","""event"",""trial"",""time""
""fullscreenenter"",""1"",""4656""
""blur"",""23"",""116144""
""focus"",""23"",""119921""
""blur"",""34"",""223812""
""focus"",""34"",""227429""
","""event"",""trial"",""time""
""blur"",""23"",""116144""
""blur"",""34"",""223812""
","""event"",""trial"",""time""
""focus"",""23"",""119921""
""focus"",""34"",""227429""
","""event"",""trial"",""time""
""fullscreenenter"",""1"",""4656""
","
","","2093.904999999737","","","","practice","2021-03-30 01:58:50.254","img/practice_cards/backs/dark_green.gif","3","200","0","",""
"casino-fixation","53","270455","0.0-17.0-0.9","180","true","img/card_backs/set1/red.gif","img/card_backs/set1/green.gif","img/card_backs/set1/purple.gif","img/card_backs/set1/yellow.gif","img/card_backs/set2/pink.gif","img/card_backs/set2/gray.gif","img/card_backs/set2/orange.gif","img/card_backs/set2/blue.gif","""event"",""trial"",""time""
""fullscreenenter"",""1"",""4656""
""blur"",""23"",""116144""
""focus"",""23"",""119921""
""blur"",""34"",""223812""
""focus"",""34"",""227429""
","""event"",""trial"",""time""
""blur"",""23"",""116144""
""blur"",""34"",""223812""
","""event"",""trial"",""time""
""focus"",""23"",""119921""
""focus"",""34"",""227429""
","""event"",""trial"",""time""
""fullscreenenter"",""1"",""4656""
","
","","null","","null","","fixation","2021-03-30 01:58:50.756","","","","","",""
"card-selection-trial","54","275223","0.0-17.0-1.9","180","true","img/card_backs/set1/red.gif","img/card_backs/set1/green.gif","img/card_backs/set1/purple.gif","img/card_backs/set1/yellow.gif","img/card_backs/set2/pink.gif","img/card_backs/set2/gray.gif","img/card_backs/set2/orange.gif","img/card_backs/set2/blue.gif","""event"",""trial"",""time""
""fullscreenenter"",""1"",""4656""
""blur"",""23"",""116144""
""focus"",""23"",""119921""
""blur"",""34"",""223812""
""focus"",""34"",""227429""
","""event"",""trial"",""time""
""blur"",""23"",""116144""
""blur"",""34"",""223812""
","""event"",""trial"",""time""
""focus"",""23"",""119921""
""focus"",""34"",""227429""
","""event"",""trial"",""time""
""fullscreenenter"",""1"",""4656""
","
","","2757.274999999965","","","","practice","2021-03-30 01:58:55.524","img/practice_cards/backs/dark_green.gif","1","-200","0","",""
"casino-keyboard-response","55","278168","0.0-18.0","180","true","img/card_backs/set1/red.gif","img/card_backs/set1/green.gif","img/card_backs/set1/purple.gif","img/card_backs/set1/yellow.gif","img/card_backs/set2/pink.gif","img/card_backs/set2/gray.gif","img/card_backs/set2/orange.gif","img/card_backs/set2/blue.gif","""event"",""trial"",""time""
""fullscreenenter"",""1"",""4656""
""blur"",""23"",""116144""
""focus"",""23"",""119921""
""blur"",""34"",""223812""
""focus"",""34"",""227429""
""blur"",""56"",""281121""
""focus"",""56"",""282752""
","""event"",""trial"",""time""
""blur"",""23"",""116144""
""blur"",""34"",""223812""
""blur"",""56"",""281121""
","""event"",""trial"",""time""
""focus"",""23"",""119921""
""focus"",""34"",""227429""
""focus"",""56"",""282752""
","""event"",""trial"",""time""
""fullscreenenter"",""1"",""4656""
","
","","2938.900000001013","You earned 600 tokens during the practice round!","75","","","2021-03-30 01:58:58.469","","","","","",""
"casino-keyboard-response","56","283657","0.0-19.0-0.0","180","true","img/card_backs/set1/red.gif","img/card_backs/set1/green.gif","img/card_backs/set1/purple.gif","img/card_backs/set1/yellow.gif","img/card_backs/set2/pink.gif","img/card_backs/set2/gray.gif","img/card_backs/set2/orange.gif","img/card_backs/set2/blue.gif","""event"",""trial"",""time""
""fullscreenenter"",""1"",""4656""
""blur"",""23"",""116144""
""focus"",""23"",""119921""
""blur"",""34"",""223812""
""focus"",""34"",""227429""
""blur"",""56"",""281121""
""focus"",""56"",""282752""
","""event"",""trial"",""time""
""blur"",""23"",""116144""
""blur"",""34"",""223812""
""blur"",""56"",""281121""
","""event"",""trial"",""time""
""focus"",""23"",""119921""
""focus"",""34"",""227429""
""focus"",""56"",""282752""
","""event"",""trial"",""time""
""fullscreenenter"",""1"",""4656""
","
","","5486.805000000459","Nice job! You are almost ready to play the real game.","86","","instructions","2021-03-30 01:59:03.958","","","","","",""
"casino-keyboard-response","57","290184","0.0-19.0-0.1","180","true","img/card_backs/set1/red.gif","img/card_backs/set1/green.gif","img/card_backs/set1/purple.gif","img/card_backs/set1/yellow.gif","img/card_backs/set2/pink.gif","img/card_backs/set2/gray.gif","img/card_backs/set2/orange.gif","img/card_backs/set2/blue.gif","""event"",""trial"",""time""
""fullscreenenter"",""1"",""4656""
""blur"",""23"",""116144""
""focus"",""23"",""119921""
""blur"",""34"",""223812""
""focus"",""34"",""227429""
""blur"",""56"",""281121""
""focus"",""56"",""282752""
","""event"",""trial"",""time""
""blur"",""23"",""116144""
""blur"",""34"",""223812""
""blur"",""56"",""281121""
","""event"",""trial"",""time""
""focus"",""23"",""119921""
""focus"",""34"",""227429""
""focus"",""56"",""282752""
","""event"",""trial"",""time""
""fullscreenenter"",""1"",""4656""
","
","","6524.625","You will play two rounds of the real game. In each round, you will pick 100 cards in total.","73","","instructions","2021-03-30 01:59:10.486","","","","","",""
"casino-keyboard-response","58","294450","0.0-19.0-0.2","180","true","img/card_backs/set1/red.gif","img/card_backs/set1/green.gif","img/card_backs/set1/purple.gif","img/card_backs/set1/yellow.gif","img/card_backs/set2/pink.gif","img/card_backs/set2/gray.gif","img/card_backs/set2/orange.gif","img/card_backs/set2/blue.gif","""event"",""trial"",""time""
""fullscreenenter"",""1"",""4656""
""blur"",""23"",""116144""
""focus"",""23"",""119921""
""blur"",""34"",""223812""
""focus"",""34"",""227429""
""blur"",""56"",""281121""
""focus"",""56"",""282752""
","""event"",""trial"",""time""
""blur"",""23"",""116144""
""blur"",""34"",""223812""
""blur"",""56"",""281121""
","""event"",""trial"",""time""
""focus"",""23"",""119921""
""focus"",""34"",""227429""
""focus"",""56"",""282752""
","""event"",""trial"",""time""
""fullscreenenter"",""1"",""4656""
","
","","4263.224999998754","We are now going to ask you some questions about how the game works.","66","","instructions","2021-03-30 01:59:14.751","","","","","",""
"casino-keyboard-response","59","300570","0.0-19.0-0.3","180","true","img/card_backs/set1/red.gif","img/card_backs/set1/green.gif","img/card_backs/set1/purple.gif","img/card_backs/set1/yellow.gif","img/card_backs/set2/pink.gif","img/card_backs/set2/gray.gif","img/card_backs/set2/orange.gif","img/card_backs/set2/blue.gif","""event"",""trial"",""time""
""fullscreenenter"",""1"",""4656""
""blur"",""23"",""116144""
""focus"",""23"",""119921""
""blur"",""34"",""223812""
""focus"",""34"",""227429""
""blur"",""56"",""281121""
""focus"",""56"",""282752""
","""event"",""trial"",""time""
""blur"",""23"",""116144""
""blur"",""34"",""223812""
""blur"",""56"",""281121""
","""event"",""trial"",""time""
""focus"",""23"",""119921""
""focus"",""34"",""227429""
""focus"",""56"",""282752""
","""event"",""trial"",""time""
""fullscreenenter"",""1"",""4656""
","
","","6118.284999998694","Answer carefully. You will not be able to begin the game until you answer them correctly.","67","","instructions","2021-03-30 01:59:20.871","","","","","",""
"casino-comp_q","60","308970","0.0-20.0-0.0","180","true","img/card_backs/set1/red.gif","img/card_backs/set1/green.gif","img/card_backs/set1/purple.gif","img/card_backs/set1/yellow.gif","img/card_backs/set2/pink.gif","img/card_backs/set2/gray.gif","img/card_backs/set2/orange.gif","img/card_backs/set2/blue.gif","""event"",""trial"",""time""
""fullscreenenter"",""1"",""4656""
""blur"",""23"",""116144""
""focus"",""23"",""119921""
""blur"",""34"",""223812""
""focus"",""34"",""227429""
""blur"",""56"",""281121""
""focus"",""56"",""282752""
","""event"",""trial"",""time""
""blur"",""23"",""116144""
""blur"",""34"",""223812""
""blur"",""56"",""281121""
","""event"",""trial"",""time""
""focus"",""23"",""119921""
""focus"",""34"",""227429""
""focus"",""56"",""282752""
","""event"",""trial"",""time""
""fullscreenenter"",""1"",""4656""
","
","","8395.840000001015","True or False: All the decks have some cards that cause you to win tokens and some cards that cause you to lose tokens.","84","","","2021-03-30 01:59:29.271","","","","","",""
"casino-keyboard-response","61","313182","0.0-20.0-1.0","180","true","img/card_backs/set1/red.gif","img/card_backs/set1/green.gif","img/card_backs/set1/purple.gif","img/card_backs/set1/yellow.gif","img/card_backs/set2/pink.gif","img/card_backs/set2/gray.gif","img/card_backs/set2/orange.gif","img/card_backs/set2/blue.gif","""event"",""trial"",""time""
""fullscreenenter"",""1"",""4656""
""blur"",""23"",""116144""
""focus"",""23"",""119921""
""blur"",""34"",""223812""
""focus"",""34"",""227429""
""blur"",""56"",""281121""
""focus"",""56"",""282752""
","""event"",""trial"",""time""
""blur"",""23"",""116144""
""blur"",""34"",""223812""
""blur"",""56"",""281121""
","""event"",""trial"",""time""
""focus"",""23"",""119921""
""focus"",""34"",""227429""
""focus"",""56"",""282752""
","""event"",""trial"",""time""
""fullscreenenter"",""1"",""4656""
","
","","4208.909999999392","True is correct! All the decks have a mix of winning and losing cards.","77","","","2021-03-30 01:59:33.483","","","","","true",""
"casino-comp_q","62","318305","0.0-21.0-0.0","180","true","img/card_backs/set1/red.gif","img/card_backs/set1/green.gif","img/card_backs/set1/purple.gif","img/card_backs/set1/yellow.gif","img/card_backs/set2/pink.gif","img/card_backs/set2/gray.gif","img/card_backs/set2/orange.gif","img/card_backs/set2/blue.gif","""event"",""trial"",""time""
""fullscreenenter"",""1"",""4656""
""blur"",""23"",""116144""
""focus"",""23"",""119921""
""blur"",""34"",""223812""
""focus"",""34"",""227429""
""blur"",""56"",""281121""
""focus"",""56"",""282752""
","""event"",""trial"",""time""
""blur"",""23"",""116144""
""blur"",""34"",""223812""
""blur"",""56"",""281121""
","""event"",""trial"",""time""
""focus"",""23"",""119921""
""focus"",""34"",""227429""
""focus"",""56"",""282752""
","""event"",""trial"",""time""
""fullscreenenter"",""1"",""4656""
","
","","5120.300000000512","True or False: You will have as much time as you want to make your response.","70","","","2021-03-30 01:59:38.606","","","","","",""
"casino-keyboard-response","63","321836","0.0-21.0-1.0","180","true","img/card_backs/set1/red.gif","img/card_backs/set1/green.gif","img/card_backs/set1/purple.gif","img/card_backs/set1/yellow.gif","img/card_backs/set2/pink.gif","img/card_backs/set2/gray.gif","img/card_backs/set2/orange.gif","img/card_backs/set2/blue.gif","""event"",""trial"",""time""
""fullscreenenter"",""1"",""4656""
""blur"",""23"",""116144""
""focus"",""23"",""119921""
""blur"",""34"",""223812""
""focus"",""34"",""227429""
""blur"",""56"",""281121""
""focus"",""56"",""282752""
","""event"",""trial"",""time""
""blur"",""23"",""116144""
""blur"",""34"",""223812""
""blur"",""56"",""281121""
","""event"",""trial"",""time""
""focus"",""23"",""119921""
""focus"",""34"",""227429""
""focus"",""56"",""282752""
","""event"",""trial"",""time""
""fullscreenenter"",""1"",""4656""
","
","","3528.314999999595","False is correct! You will only have 10 seconds to make each choice.","75","","","2021-03-30 01:59:42.137","","","","","true",""
"casino-comp_q","64","326211","0.0-22.0-0.0","180","true","img/card_backs/set1/red.gif","img/card_backs/set1/green.gif","img/card_backs/set1/purple.gif","img/card_backs/set1/yellow.gif","img/card_backs/set2/pink.gif","img/card_backs/set2/gray.gif","img/card_backs/set2/orange.gif","img/card_backs/set2/blue.gif","""event"",""trial"",""time""
""fullscreenenter"",""1"",""4656""
""blur"",""23"",""116144""
""focus"",""23"",""119921""
""blur"",""34"",""223812""
""focus"",""34"",""227429""
""blur"",""56"",""281121""
""focus"",""56"",""282752""
","""event"",""trial"",""time""
""blur"",""23"",""116144""
""blur"",""34"",""223812""
""blur"",""56"",""281121""
","""event"",""trial"",""time""
""focus"",""23"",""119921""
""focus"",""34"",""227429""
""focus"",""56"",""282752""
","""event"",""trial"",""time""
""fullscreenenter"",""1"",""4656""
","
","","4372.325000000303","True or False: The location of the deck determines how lucky it is.","70","","","2021-03-30 01:59:46.512","","","","","",""
"casino-keyboard-response","65","331095","0.0-22.0-1.0","180","true","img/card_backs/set1/red.gif","img/card_backs/set1/green.gif","img/card_backs/set1/purple.gif","img/card_backs/set1/yellow.gif","img/card_backs/set2/pink.gif","img/card_backs/set2/gray.gif","img/card_backs/set2/orange.gif","img/card_backs/set2/blue.gif","""event"",""trial"",""time""
""fullscreenenter"",""1"",""4656""
""blur"",""23"",""116144""
""focus"",""23"",""119921""
""blur"",""34"",""223812""
""focus"",""34"",""227429""
""blur"",""56"",""281121""
""focus"",""56"",""282752""
","""event"",""trial"",""time""
""blur"",""23"",""116144""
""blur"",""34"",""223812""
""blur"",""56"",""281121""
","""event"",""trial"",""time""
""focus"",""23"",""119921""
""focus"",""34"",""227429""
""focus"",""56"",""282752""
","""event"",""trial"",""time""
""fullscreenenter"",""1"",""4656""
","
","","4880.575000001059","False is correct! The <i>color</i>  of the deck determines how lucky or unlucky it is.","68","","","2021-03-30 01:59:51.396","","","","","true",""
"casino-keyboard-response","66","337045","0.0-23.0-0.0","180","true","img/card_backs/set1/red.gif","img/card_backs/set1/green.gif","img/card_backs/set1/purple.gif","img/card_backs/set1/yellow.gif","img/card_backs/set2/pink.gif","img/card_backs/set2/gray.gif","img/card_backs/set2/orange.gif","img/card_backs/set2/blue.gif","""event"",""trial"",""time""
""fullscreenenter"",""1"",""4656""
""blur"",""23"",""116144""
""focus"",""23"",""119921""
""blur"",""34"",""223812""
""focus"",""34"",""227429""
""blur"",""56"",""281121""
""focus"",""56"",""282752""
","""event"",""trial"",""time""
""blur"",""23"",""116144""
""blur"",""34"",""223812""
""blur"",""56"",""281121""
","""event"",""trial"",""time""
""focus"",""23"",""119921""
""focus"",""34"",""227429""
""focus"",""56"",""282752""
","""event"",""trial"",""time""
""fullscreenenter"",""1"",""4656""
","
","","5946.939999999828","Great job! Now it's time to start the real game.","82","","instructions","2021-03-30 01:59:57.346","","","","","",""
"casino-keyboard-response","67","342176","0.0-23.0-0.1","180","true","img/card_backs/set1/red.gif","img/card_backs/set1/green.gif","img/card_backs/set1/purple.gif","img/card_backs/set1/yellow.gif","img/card_backs/set2/pink.gif","img/card_backs/set2/gray.gif","img/card_backs/set2/orange.gif","img/card_backs/set2/blue.gif","""event"",""trial"",""time""
""fullscreenenter"",""1"",""4656""
""blur"",""23"",""116144""
""focus"",""23"",""119921""
""blur"",""34"",""223812""
""focus"",""34"",""227429""
""blur"",""56"",""281121""
""focus"",""56"",""282752""
","""event"",""trial"",""time""
""blur"",""23"",""116144""
""blur"",""34"",""223812""
""blur"",""56"",""281121""
","""event"",""trial"",""time""
""focus"",""23"",""119921""
""focus"",""34"",""227429""
""focus"",""56"",""282752""
","""event"",""trial"",""time""
""fullscreenenter"",""1"",""4656""
","
","","5128.314999999944","Before we start, we're going to head into a new room of the casino.","86","","instructions","2021-03-30 02:00:02.477","","","","","",""
"casino-keyboard-response","68","348514","0.0-24.0-0.0","180","true","img/card_backs/set1/red.gif","img/card_backs/set1/green.gif","img/card_backs/set1/purple.gif","img/card_backs/set1/yellow.gif","img/card_backs/set2/pink.gif","img/card_backs/set2/gray.gif","img/card_backs/set2/orange.gif","img/card_backs/set2/blue.gif","""event"",""trial"",""time""
""fullscreenenter"",""1"",""4656""
""blur"",""23"",""116144""
""focus"",""23"",""119921""
""blur"",""34"",""223812""
""focus"",""34"",""227429""
""blur"",""56"",""281121""
""focus"",""56"",""282752""
","""event"",""trial"",""time""
""blur"",""23"",""116144""
""blur"",""34"",""223812""
""blur"",""56"",""281121""
","""event"",""trial"",""time""
""focus"",""23"",""119921""
""focus"",""34"",""227429""
""focus"",""56"",""282752""
","""event"",""trial"",""time""
""fullscreenenter"",""1"",""4656""
","
","","6335.874999998836","Here we are! The real game will use different cards, but the rules will be the same.","71","","instructions","2021-03-30 02:00:08.815","","","","","",""
"casino-keyboard-response","69","353842","0.0-24.0-0.1","180","true","img/card_backs/set1/red.gif","img/card_backs/set1/green.gif","img/card_backs/set1/purple.gif","img/card_backs/set1/yellow.gif","img/card_backs/set2/pink.gif","img/card_backs/set2/gray.gif","img/card_backs/set2/orange.gif","img/card_backs/set2/blue.gif","""event"",""trial"",""time""
""fullscreenenter"",""1"",""4656""
""blur"",""23"",""116144""
""focus"",""23"",""119921""
""blur"",""34"",""223812""
""focus"",""34"",""227429""
""blur"",""56"",""281121""
""focus"",""56"",""282752""
","""event"",""trial"",""time""
""blur"",""23"",""116144""
""blur"",""34"",""223812""
""blur"",""56"",""281121""
","""event"",""trial"",""time""
""focus"",""23"",""119921""
""focus"",""34"",""227429""
""focus"",""56"",""282752""
","""event"",""trial"",""time""
""fullscreenenter"",""1"",""4656""
","
","","5325.735000000335","Ready? Put your fingers over the '2', '4', 6', and '8' keys so you are ready to play the game. </br> Then press 2 to start.","50","","instructions","2021-03-30 02:00:14.143","","","","","",""
"casino-fixation","70","354347","0.0-25.0-0.0","180","true","img/card_backs/set1/red.gif","img/card_backs/set1/green.gif","img/card_backs/set1/purple.gif","img/card_backs/set1/yellow.gif","img/card_backs/set2/pink.gif","img/card_backs/set2/gray.gif","img/card_backs/set2/orange.gif","img/card_backs/set2/blue.gif","""event"",""trial"",""time""
""fullscreenenter"",""1"",""4656""
""blur"",""23"",""116144""
""focus"",""23"",""119921""
""blur"",""34"",""223812""
""focus"",""34"",""227429""
""blur"",""56"",""281121""
""focus"",""56"",""282752""
","""event"",""trial"",""time""
""blur"",""23"",""116144""
""blur"",""34"",""223812""
""blur"",""56"",""281121""
","""event"",""trial"",""time""
""focus"",""23"",""119921""
""focus"",""34"",""227429""
""focus"",""56"",""282752""
","""event"",""trial"",""time""
""fullscreenenter"",""1"",""4656""
","
","","null","","null","","fixation","2021-03-30 02:00:14.648","","","","","",""
"card-selection-trial","71","359283","0.0-25.0-1.0","180","true","img/card_backs/set1/red.gif","img/card_backs/set1/green.gif","img/card_backs/set1/purple.gif","img/card_backs/set1/yellow.gif","img/card_backs/set2/pink.gif","img/card_backs/set2/gray.gif","img/card_backs/set2/orange.gif","img/card_backs/set2/blue.gif","""event"",""trial"",""time""
""fullscreenenter"",""1"",""4656""
""blur"",""23"",""116144""
""focus"",""23"",""119921""
""blur"",""34"",""223812""
""focus"",""34"",""227429""
""blur"",""56"",""281121""
""focus"",""56"",""282752""
","""event"",""trial"",""time""
""blur"",""23"",""116144""
""blur"",""34"",""223812""
""blur"",""56"",""281121""
","""event"",""trial"",""time""
""focus"",""23"",""119921""
""focus"",""34"",""227429""
""focus"",""56"",""282752""
","""event"",""trial"",""time""
""fullscreenenter"",""1"",""4656""
","
","","2924.9799999997485","","","","real_trial","2021-03-30 02:00:19.584","img/card_backs/set1/red.gif","3","250","1","",""
"casino-fixation","72","359787","0.0-25.0-0.1","180","true","img/card_backs/set1/red.gif","img/card_backs/set1/green.gif","img/card_backs/set1/purple.gif","img/card_backs/set1/yellow.gif","img/card_backs/set2/pink.gif","img/card_backs/set2/gray.gif","img/card_backs/set2/orange.gif","img/card_backs/set2/blue.gif","""event"",""trial"",""time""
""fullscreenenter"",""1"",""4656""
""blur"",""23"",""116144""
""focus"",""23"",""119921""
""blur"",""34"",""223812""
""focus"",""34"",""227429""
""blur"",""56"",""281121""
""focus"",""56"",""282752""
","""event"",""trial"",""time""
""blur"",""23"",""116144""
""blur"",""34"",""223812""
""blur"",""56"",""281121""
","""event"",""trial"",""time""
""focus"",""23"",""119921""
""focus"",""34"",""227429""
""focus"",""56"",""282752""
","""event"",""trial"",""time""
""fullscreenenter"",""1"",""4656""
","
","","null","","null","","fixation","2021-03-30 02:00:20.089","","","","","",""
"card-selection-trial","73","363648","0.0-25.0-1.1","180","true","img/card_backs/set1/red.gif","img/card_backs/set1/green.gif","img/card_backs/set1/purple.gif","img/card_backs/set1/yellow.gif","img/card_backs/set2/pink.gif","img/card_backs/set2/gray.gif","img/card_backs/set2/orange.gif","img/card_backs/set2/blue.gif","""event"",""trial"",""time""
""fullscreenenter"",""1"",""4656""
""blur"",""23"",""116144""
""focus"",""23"",""119921""
""blur"",""34"",""223812""
""focus"",""34"",""227429""
""blur"",""56"",""281121""
""focus"",""56"",""282752""
","""event"",""trial"",""time""
""blur"",""23"",""116144""
""blur"",""34"",""223812""
""blur"",""56"",""281121""
","""event"",""trial"",""time""
""focus"",""23"",""119921""
""focus"",""34"",""227429""
""focus"",""56"",""282752""
","""event"",""trial"",""time""
""fullscreenenter"",""1"",""4656""
","
","","1852.1849999997648","","","","real_trial","2021-03-30 02:00:23.949","img/card_backs/set1/purple.gif","2","-110","1","",""
"casino-fixation","74","364153","0.0-25.0-0.2","180","true","img/card_backs/set1/red.gif","img/card_backs/set1/green.gif","img/card_backs/set1/purple.gif","img/card_backs/set1/yellow.gif","img/card_backs/set2/pink.gif","img/card_backs/set2/gray.gif","img/card_backs/set2/orange.gif","img/card_backs/set2/blue.gif","""event"",""trial"",""time""
""fullscreenenter"",""1"",""4656""
""blur"",""23"",""116144""
""focus"",""23"",""119921""
""blur"",""34"",""223812""
""focus"",""34"",""227429""
""blur"",""56"",""281121""
""focus"",""56"",""282752""
","""event"",""trial"",""time""
""blur"",""23"",""116144""
""blur"",""34"",""223812""
""blur"",""56"",""281121""
","""event"",""trial"",""time""
""focus"",""23"",""119921""
""focus"",""34"",""227429""
""focus"",""56"",""282752""
","""event"",""trial"",""time""
""fullscreenenter"",""1"",""4656""
","
","","null","","null","","fixation","2021-03-30 02:00:24.454","","","","","",""
"card-selection-trial","75","367724","0.0-25.0-1.2","180","true","img/card_backs/set1/red.gif","img/card_backs/set1/green.gif","img/card_backs/set1/purple.gif","img/card_backs/set1/yellow.gif","img/card_backs/set2/pink.gif","img/card_backs/set2/gray.gif","img/card_backs/set2/orange.gif","img/card_backs/set2/blue.gif","""event"",""trial"",""time""
""fullscreenenter"",""1"",""4656""
""blur"",""23"",""116144""
""focus"",""23"",""119921""
""blur"",""34"",""223812""
""focus"",""34"",""227429""
""blur"",""56"",""281121""
""focus"",""56"",""282752""
","""event"",""trial"",""time""
""blur"",""23"",""116144""
""blur"",""34"",""223812""
""blur"",""56"",""281121""
","""event"",""trial"",""time""
""focus"",""23"",""119921""
""focus"",""34"",""227429""
""focus"",""56"",""282752""
","""event"",""trial"",""time""
""fullscreenenter"",""1"",""4656""
","
","","1558.2950000007404","","","","real_trial","2021-03-30 02:00:28.025","img/card_backs/set1/red.gif","0","240","1","",""
"casino-fixation","76","368228","0.0-25.0-0.3","180","true","img/card_backs/set1/red.gif","img/card_backs/set1/green.gif","img/card_backs/set1/purple.gif","img/card_backs/set1/yellow.gif","img/card_backs/set2/pink.gif","img/card_backs/set2/gray.gif","img/card_backs/set2/orange.gif","img/card_backs/set2/blue.gif","""event"",""trial"",""time""
""fullscreenenter"",""1"",""4656""
""blur"",""23"",""116144""
""focus"",""23"",""119921""
""blur"",""34"",""223812""
""focus"",""34"",""227429""
""blur"",""56"",""281121""
""focus"",""56"",""282752""
","""event"",""trial"",""time""
""blur"",""23"",""116144""
""blur"",""34"",""223812""
""blur"",""56"",""281121""
","""event"",""trial"",""time""
""focus"",""23"",""119921""
""focus"",""34"",""227429""
""focus"",""56"",""282752""
","""event"",""trial"",""time""
""fullscreenenter"",""1"",""4656""
","
","","null","","null","","fixation","2021-03-30 02:00:28.529","","","","","",""
"card-selection-trial","77","372008","0.0-25.0-1.3","180","true","img/card_backs/set1/red.gif","img/card_backs/set1/green.gif","img/card_backs/set1/purple.gif","img/card_backs/set1/yellow.gif","img/card_backs/set2/pink.gif","img/card_backs/set2/gray.gif","img/card_backs/set2/orange.gif","img/card_backs/set2/blue.gif","""event"",""trial"",""time""
""fullscreenenter"",""1"",""4656""
""blur"",""23"",""116144""
""focus"",""23"",""119921""
""blur"",""34"",""223812""
""focus"",""34"",""227429""
""blur"",""56"",""281121""
""focus"",""56"",""282752""
","""event"",""trial"",""time""
""blur"",""23"",""116144""
""blur"",""34"",""223812""
""blur"",""56"",""281121""
","""event"",""trial"",""time""
""focus"",""23"",""119921""
""focus"",""34"",""227429""
""focus"",""56"",""282752""
","""event"",""trial"",""time""
""fullscreenenter"",""1"",""4656""
","
","","1769.495000000461","","","","real_trial","2021-03-30 02:00:32.309","img/card_backs/set1/red.gif","3","-210","1","",""
"casino-fixation","78","372513","0.0-25.0-0.4","180","true","img/card_backs/set1/red.gif","img/card_backs/set1/green.gif","img/card_backs/set1/purple.gif","img/card_backs/set1/yellow.gif","img/card_backs/set2/pink.gif","img/card_backs/set2/gray.gif","img/card_backs/set2/orange.gif","img/card_backs/set2/blue.gif","""event"",""trial"",""time""
""fullscreenenter"",""1"",""4656""
""blur"",""23"",""116144""
""focus"",""23"",""119921""
""blur"",""34"",""223812""
""focus"",""34"",""227429""
""blur"",""56"",""281121""
""focus"",""56"",""282752""
","""event"",""trial"",""time""
""blur"",""23"",""116144""
""blur"",""34"",""223812""
""blur"",""56"",""281121""
","""event"",""trial"",""time""
""focus"",""23"",""119921""
""focus"",""34"",""227429""
""focus"",""56"",""282752""
","""event"",""trial"",""time""
""fullscreenenter"",""1"",""4656""
","
","","null","","null","","fixation","2021-03-30 02:00:32.814","","","","","",""
"card-selection-trial","79","375770","0.0-25.0-1.4","180","true","img/card_backs/set1/red.gif","img/card_backs/set1/green.gif","img/card_backs/set1/purple.gif","img/card_backs/set1/yellow.gif","img/card_backs/set2/pink.gif","img/card_backs/set2/gray.gif","img/card_backs/set2/orange.gif","img/card_backs/set2/blue.gif","""event"",""trial"",""time""
""fullscreenenter"",""1"",""4656""
""blur"",""23"",""116144""
""focus"",""23"",""119921""
""blur"",""34"",""223812""
""focus"",""34"",""227429""
""blur"",""56"",""281121""
""focus"",""56"",""282752""
","""event"",""trial"",""time""
""blur"",""23"",""116144""
""blur"",""34"",""223812""
""blur"",""56"",""281121""
","""event"",""trial"",""time""
""focus"",""23"",""119921""
""focus"",""34"",""227429""
""focus"",""56"",""282752""
","""event"",""trial"",""time""
""fullscreenenter"",""1"",""4656""
","
","","1246.2949999989942","","","","real_trial","2021-03-30 02:00:36.071","img/card_backs/set1/green.gif","1","-210","1","",""
"casino-fixation","80","376274","0.0-25.0-0.5","180","true","img/card_backs/set1/red.gif","img/card_backs/set1/green.gif","img/card_backs/set1/purple.gif","img/card_backs/set1/yellow.gif","img/card_backs/set2/pink.gif","img/card_backs/set2/gray.gif","img/card_backs/set2/orange.gif","img/card_backs/set2/blue.gif","""event"",""trial"",""time""
""fullscreenenter"",""1"",""4656""
""blur"",""23"",""116144""
""focus"",""23"",""119921""
""blur"",""34"",""223812""
""focus"",""34"",""227429""
""blur"",""56"",""281121""
""focus"",""56"",""282752""
","""event"",""trial"",""time""
""blur"",""23"",""116144""
""blur"",""34"",""223812""
""blur"",""56"",""281121""
","""event"",""trial"",""time""
""focus"",""23"",""119921""
""focus"",""34"",""227429""
""focus"",""56"",""282752""
","""event"",""trial"",""time""
""fullscreenenter"",""1"",""4656""
","
","","null","","null","","fixation","2021-03-30 02:00:36.576","","","","","",""
"card-selection-trial","81","379346","0.0-25.0-1.5","180","true","img/card_backs/set1/red.gif","img/card_backs/set1/green.gif","img/card_backs/set1/purple.gif","img/card_backs/set1/yellow.gif","img/card_backs/set2/pink.gif","img/card_backs/set2/gray.gif","img/card_backs/set2/orange.gif","img/card_backs/set2/blue.gif","""event"",""trial"",""time""
""fullscreenenter"",""1"",""4656""
""blur"",""23"",""116144""
""focus"",""23"",""119921""
""blur"",""34"",""223812""
""focus"",""34"",""227429""
""blur"",""56"",""281121""
""focus"",""56"",""282752""
","""event"",""trial"",""time""
""blur"",""23"",""116144""
""blur"",""34"",""223812""
""blur"",""56"",""281121""
","""event"",""trial"",""time""
""focus"",""23"",""119921""
""focus"",""34"",""227429""
""focus"",""56"",""282752""
","""event"",""trial"",""time""
""fullscreenenter"",""1"",""4656""
","
","","1062.5449999988778","","","","real_trial","2021-03-30 02:00:39.647","img/card_backs/set1/red.gif","2","-200","1","",""
"casino-fixation","82","379851","0.0-25.0-0.6","180","true","img/card_backs/set1/red.gif","img/card_backs/set1/green.gif","img/card_backs/set1/purple.gif","img/card_backs/set1/yellow.gif","img/card_backs/set2/pink.gif","img/card_backs/set2/gray.gif","img/card_backs/set2/orange.gif","img/card_backs/set2/blue.gif","""event"",""trial"",""time""
""fullscreenenter"",""1"",""4656""
""blur"",""23"",""116144""
""focus"",""23"",""119921""
""blur"",""34"",""223812""
""focus"",""34"",""227429""
""blur"",""56"",""281121""
""focus"",""56"",""282752""
","""event"",""trial"",""time""
""blur"",""23"",""116144""
""blur"",""34"",""223812""
""blur"",""56"",""281121""
","""event"",""trial"",""time""
""focus"",""23"",""119921""
""focus"",""34"",""227429""
""focus"",""56"",""282752""
","""event"",""trial"",""time""
""fullscreenenter"",""1"",""4656""
","
","","null","","null","","fixation","2021-03-30 02:00:40.152","","","","","",""
"card-selection-trial","83","383259","0.0-25.0-1.6","180","true","img/card_backs/set1/red.gif","img/card_backs/set1/green.gif","img/card_backs/set1/purple.gif","img/card_backs/set1/yellow.gif","img/card_backs/set2/pink.gif","img/card_backs/set2/gray.gif","img/card_backs/set2/orange.gif","img/card_backs/set2/blue.gif","""event"",""trial"",""time""
""fullscreenenter"",""1"",""4656""
""blur"",""23"",""116144""
""focus"",""23"",""119921""
""blur"",""34"",""223812""
""focus"",""34"",""227429""
""blur"",""56"",""281121""
""focus"",""56"",""282752""
","""event"",""trial"",""time""
""blur"",""23"",""116144""
""blur"",""34"",""223812""
""blur"",""56"",""281121""
","""event"",""trial"",""time""
""focus"",""23"",""119921""
""focus"",""34"",""227429""
""focus"",""56"",""282752""
","""event"",""trial"",""time""
""fullscreenenter"",""1"",""4656""
","
","","1394.6599999999162","","","","real_trial","2021-03-30 02:00:43.560","img/card_backs/set1/green.gif","3","240","1","",""
"casino-fixation","84","383764","0.0-25.0-0.7","180","true","img/card_backs/set1/red.gif","img/card_backs/set1/green.gif","img/card_backs/set1/purple.gif","img/card_backs/set1/yellow.gif","img/card_backs/set2/pink.gif","img/card_backs/set2/gray.gif","img/card_backs/set2/orange.gif","img/card_backs/set2/blue.gif","""event"",""trial"",""time""
""fullscreenenter"",""1"",""4656""
""blur"",""23"",""116144""
""focus"",""23"",""119921""
""blur"",""34"",""223812""
""focus"",""34"",""227429""
""blur"",""56"",""281121""
""focus"",""56"",""282752""
","""event"",""trial"",""time""
""blur"",""23"",""116144""
""blur"",""34"",""223812""
""blur"",""56"",""281121""
","""event"",""trial"",""time""
""focus"",""23"",""119921""
""focus"",""34"",""227429""
""focus"",""56"",""282752""
","""event"",""trial"",""time""
""fullscreenenter"",""1"",""4656""
","
","","null","","null","","fixation","2021-03-30 02:00:44.065","","","","","",""
"card-selection-trial","85","386882","0.0-25.0-1.7","180","true","img/card_backs/set1/red.gif","img/card_backs/set1/green.gif","img/card_backs/set1/purple.gif","img/card_backs/set1/yellow.gif","img/card_backs/set2/pink.gif","img/card_backs/set2/gray.gif","img/card_backs/set2/orange.gif","img/card_backs/set2/blue.gif","""event"",""trial"",""time""
""fullscreenenter"",""1"",""4656""
""blur"",""23"",""116144""
""focus"",""23"",""119921""
""blur"",""34"",""223812""
""focus"",""34"",""227429""
""blur"",""56"",""281121""
""focus"",""56"",""282752""
","""event"",""trial"",""time""
""blur"",""23"",""116144""
""blur"",""34"",""223812""
""blur"",""56"",""281121""
","""event"",""trial"",""time""
""focus"",""23"",""119921""
""focus"",""34"",""227429""
""focus"",""56"",""282752""
","""event"",""trial"",""time""
""fullscreenenter"",""1"",""4656""
","
","","1110.9450000003562","","","","real_trial","2021-03-30 02:00:47.183","img/card_backs/set1/green.gif","0","260","1","",""
"casino-fixation","86","387387","0.0-25.0-0.8","180","true","img/card_backs/set1/red.gif","img/card_backs/set1/green.gif","img/card_backs/set1/purple.gif","img/card_backs/set1/yellow.gif","img/card_backs/set2/pink.gif","img/card_backs/set2/gray.gif","img/card_backs/set2/orange.gif","img/card_backs/set2/blue.gif","""event"",""trial"",""time""
""fullscreenenter"",""1"",""4656""
""blur"",""23"",""116144""
""focus"",""23"",""119921""
""blur"",""34"",""223812""
""focus"",""34"",""227429""
""blur"",""56"",""281121""
""focus"",""56"",""282752""
","""event"",""trial"",""time""
""blur"",""23"",""116144""
""blur"",""34"",""223812""
""blur"",""56"",""281121""
","""event"",""trial"",""time""
""focus"",""23"",""119921""
""focus"",""34"",""227429""
""focus"",""56"",""282752""
","""event"",""trial"",""time""
""fullscreenenter"",""1"",""4656""
","
","","null","","null","","fixation","2021-03-30 02:00:47.689","","","","","",""
"card-selection-trial","87","390383","0.0-25.0-1.8","180","true","img/card_backs/set1/red.gif","img/card_backs/set1/green.gif","img/card_backs/set1/purple.gif","img/card_backs/set1/yellow.gif","img/card_backs/set2/pink.gif","img/card_backs/set2/gray.gif","img/card_backs/set2/orange.gif","img/card_backs/set2/blue.gif","""event"",""trial"",""time""
""fullscreenenter"",""1"",""4656""
""blur"",""23"",""116144""
""focus"",""23"",""119921""
""blur"",""34"",""223812""
""focus"",""34"",""227429""
""blur"",""56"",""281121""
""focus"",""56"",""282752""
","""event"",""trial"",""time""
""blur"",""23"",""116144""
""blur"",""34"",""223812""
""blur"",""56"",""281121""
","""event"",""trial"",""time""
""focus"",""23"",""119921""
""focus"",""34"",""227429""
""focus"",""56"",""282752""
","""event"",""trial"",""time""
""fullscreenenter"",""1"",""4656""
","
","","983.2300000016694","","","","real_trial","2021-03-30 02:00:50.684","img/card_backs/set1/green.gif","2","-200","1","",""
"casino-fixation","88","390890","0.0-25.0-0.9","180","true","img/card_backs/set1/red.gif","img/card_backs/set1/green.gif","img/card_backs/set1/purple.gif","img/card_backs/set1/yellow.gif","img/card_backs/set2/pink.gif","img/card_backs/set2/gray.gif","img/card_backs/set2/orange.gif","img/card_backs/set2/blue.gif","""event"",""trial"",""time""
""fullscreenenter"",""1"",""4656""
""blur"",""23"",""116144""
""focus"",""23"",""119921""
""blur"",""34"",""223812""
""focus"",""34"",""227429""
""blur"",""56"",""281121""
""focus"",""56"",""282752""
","""event"",""trial"",""time""
""blur"",""23"",""116144""
""blur"",""34"",""223812""
""blur"",""56"",""281121""
","""event"",""trial"",""time""
""focus"",""23"",""119921""
""focus"",""34"",""227429""
""focus"",""56"",""282752""
","""event"",""trial"",""time""
""fullscreenenter"",""1"",""4656""
","
","","null","","null","","fixation","2021-03-30 02:00:51.191","","","","","",""
"card-selection-trial","89","395886","0.0-25.0-1.9","180","true","img/card_backs/set1/red.gif","img/card_backs/set1/green.gif","img/card_backs/set1/purple.gif","img/card_backs/set1/yellow.gif","img/card_backs/set2/pink.gif","img/card_backs/set2/gray.gif","img/card_backs/set2/orange.gif","img/card_backs/set2/blue.gif","""event"",""trial"",""time""
""fullscreenenter"",""1"",""4656""
""blur"",""23"",""116144""
""focus"",""23"",""119921""
""blur"",""34"",""223812""
""focus"",""34"",""227429""
""blur"",""56"",""281121""
""focus"",""56"",""282752""
","""event"",""trial"",""time""
""blur"",""23"",""116144""
""blur"",""34"",""223812""
""blur"",""56"",""281121""
","""event"",""trial"",""time""
""focus"",""23"",""119921""
""focus"",""34"",""227429""
""focus"",""56"",""282752""
","""event"",""trial"",""time""
""fullscreenenter"",""1"",""4656""
","
","","2984.0000000004075","","","","real_trial","2021-03-30 02:00:56.187","img/card_backs/set1/purple.gif","0","50","1","",""
"casino-fixation","90","396391","0.0-25.0-0.10","180","true","img/card_backs/set1/red.gif","img/card_backs/set1/green.gif","img/card_backs/set1/purple.gif","img/card_backs/set1/yellow.gif","img/card_backs/set2/pink.gif","img/card_backs/set2/gray.gif","img/card_backs/set2/orange.gif","img/card_backs/set2/blue.gif","""event"",""trial"",""time""
""fullscreenenter"",""1"",""4656""
""blur"",""23"",""116144""
""focus"",""23"",""119921""
""blur"",""34"",""223812""
""focus"",""34"",""227429""
""blur"",""56"",""281121""
""focus"",""56"",""282752""
","""event"",""trial"",""time""
""blur"",""23"",""116144""
""blur"",""34"",""223812""
""blur"",""56"",""281121""
","""event"",""trial"",""time""
""focus"",""23"",""119921""
""focus"",""34"",""227429""
""focus"",""56"",""282752""
","""event"",""trial"",""time""
""fullscreenenter"",""1"",""4656""
","
","","null","","null","","fixation","2021-03-30 02:00:56.692","","","","","",""
"card-selection-trial","91","400963","0.0-25.0-1.10","180","true","img/card_backs/set1/red.gif","img/card_backs/set1/green.gif","img/card_backs/set1/purple.gif","img/card_backs/set1/yellow.gif","img/card_backs/set2/pink.gif","img/card_backs/set2/gray.gif","img/card_backs/set2/orange.gif","img/card_backs/set2/blue.gif","""event"",""trial"",""time""
""fullscreenenter"",""1"",""4656""
""blur"",""23"",""116144""
""focus"",""23"",""119921""
""blur"",""34"",""223812""
""focus"",""34"",""227429""
""blur"",""56"",""281121""
""focus"",""56"",""282752""
","""event"",""trial"",""time""
""blur"",""23"",""116144""
""blur"",""34"",""223812""
""blur"",""56"",""281121""
","""event"",""trial"",""time""
""focus"",""23"",""119921""
""focus"",""34"",""227429""
""focus"",""56"",""282752""
","""event"",""trial"",""time""
""fullscreenenter"",""1"",""4656""
","
","","2561.6050000007963","","","","real_trial","2021-03-30 02:01:01.264","img/card_backs/set1/yellow.gif","2","40","1","",""
"casino-fixation","92","401468","0.0-25.0-0.11","180","true","img/card_backs/set1/red.gif","img/card_backs/set1/green.gif","img/card_backs/set1/purple.gif","img/card_backs/set1/yellow.gif","img/card_backs/set2/pink.gif","img/card_backs/set2/gray.gif","img/card_backs/set2/orange.gif","img/card_backs/set2/blue.gif","""event"",""trial"",""time""
""fullscreenenter"",""1"",""4656""
""blur"",""23"",""116144""
""focus"",""23"",""119921""
""blur"",""34"",""223812""
""focus"",""34"",""227429""
""blur"",""56"",""281121""
""focus"",""56"",""282752""
","""event"",""trial"",""time""
""blur"",""23"",""116144""
""blur"",""34"",""223812""
""blur"",""56"",""281121""
","""event"",""trial"",""time""
""focus"",""23"",""119921""
""focus"",""34"",""227429""
""focus"",""56"",""282752""
","""event"",""trial"",""time""
""fullscreenenter"",""1"",""4656""
","
","","null","","null","","fixation","2021-03-30 02:01:01.769","","","","","",""
"card-selection-trial","93","405564","0.0-25.0-1.11","180","true","img/card_backs/set1/red.gif","img/card_backs/set1/green.gif","img/card_backs/set1/purple.gif","img/card_backs/set1/yellow.gif","img/card_backs/set2/pink.gif","img/card_backs/set2/gray.gif","img/card_backs/set2/orange.gif","img/card_backs/set2/blue.gif","""event"",""trial"",""time""
""fullscreenenter"",""1"",""4656""
""blur"",""23"",""116144""
""focus"",""23"",""119921""
""blur"",""34"",""223812""
""focus"",""34"",""227429""
""blur"",""56"",""281121""
""focus"",""56"",""282752""
","""event"",""trial"",""time""
""blur"",""23"",""116144""
""blur"",""34"",""223812""
""blur"",""56"",""281121""
","""event"",""trial"",""time""
""focus"",""23"",""119921""
""focus"",""34"",""227429""
""focus"",""56"",""282752""
","""event"",""trial"",""time""
""fullscreenenter"",""1"",""4656""
","
","","2085.8649999991176","","","","real_trial","2021-03-30 02:01:05.865","img/card_backs/set1/purple.gif","0","60","1","",""
"casino-fixation","94","406069","0.0-25.0-0.12","180","true","img/card_backs/set1/red.gif","img/card_backs/set1/green.gif","img/card_backs/set1/purple.gif","img/card_backs/set1/yellow.gif","img/card_backs/set2/pink.gif","img/card_backs/set2/gray.gif","img/card_backs/set2/orange.gif","img/card_backs/set2/blue.gif","""event"",""trial"",""time""
""fullscreenenter"",""1"",""4656""
""blur"",""23"",""116144""
""focus"",""23"",""119921""
""blur"",""34"",""223812""
""focus"",""34"",""227429""
""blur"",""56"",""281121""
""focus"",""56"",""282752""
","""event"",""trial"",""time""
""blur"",""23"",""116144""
""blur"",""34"",""223812""
""blur"",""56"",""281121""
","""event"",""trial"",""time""
""focus"",""23"",""119921""
""focus"",""34"",""227429""
""focus"",""56"",""282752""
","""event"",""trial"",""time""
""fullscreenenter"",""1"",""4656""
","
","","null","","null","","fixation","2021-03-30 02:01:06.370","","","","","",""
"card-selection-trial","95","409715","0.0-25.0-1.12","180","true","img/card_backs/set1/red.gif","img/card_backs/set1/green.gif","img/card_backs/set1/purple.gif","img/card_backs/set1/yellow.gif","img/card_backs/set2/pink.gif","img/card_backs/set2/gray.gif","img/card_backs/set2/orange.gif","img/card_backs/set2/blue.gif","""event"",""trial"",""time""
""fullscreenenter"",""1"",""4656""
""blur"",""23"",""116144""
""focus"",""23"",""119921""
""blur"",""34"",""223812""
""focus"",""34"",""227429""
""blur"",""56"",""281121""
""focus"",""56"",""282752""
","""event"",""trial"",""time""
""blur"",""23"",""116144""
""blur"",""34"",""223812""
""blur"",""56"",""281121""
","""event"",""trial"",""time""
""focus"",""23"",""119921""
""focus"",""34"",""227429""
""focus"",""56"",""282752""
","""event"",""trial"",""time""
""fullscreenenter"",""1"",""4656""
","
","","1633.574999999837","","","","real_trial","2021-03-30 02:01:10.016","img/card_backs/set1/purple.gif","1","50","1","",""
"casino-fixation","96","410217","0.0-25.0-0.13","180","true","img/card_backs/set1/red.gif","img/card_backs/set1/green.gif","img/card_backs/set1/purple.gif","img/card_backs/set1/yellow.gif","img/card_backs/set2/pink.gif","img/card_backs/set2/gray.gif","img/card_backs/set2/orange.gif","img/card_backs/set2/blue.gif","""event"",""trial"",""time""
""fullscreenenter"",""1"",""4656""
""blur"",""23"",""116144""
""focus"",""23"",""119921""
""blur"",""34"",""223812""
""focus"",""34"",""227429""
""blur"",""56"",""281121""
""focus"",""56"",""282752""
","""event"",""trial"",""time""
""blur"",""23"",""116144""
""blur"",""34"",""223812""
""blur"",""56"",""281121""
","""event"",""trial"",""time""
""focus"",""23"",""119921""
""focus"",""34"",""227429""
""focus"",""56"",""282752""
","""event"",""trial"",""time""
""fullscreenenter"",""1"",""4656""
","
","","null","","null","","fixation","2021-03-30 02:01:10.518","","","","","",""
"card-selection-trial","97","413274","0.0-25.0-1.13","180","true","img/card_backs/set1/red.gif","img/card_backs/set1/green.gif","img/card_backs/set1/purple.gif","img/card_backs/set1/yellow.gif","img/card_backs/set2/pink.gif","img/card_backs/set2/gray.gif","img/card_backs/set2/orange.gif","img/card_backs/set2/blue.gif","""event"",""trial"",""time""
""fullscreenenter"",""1"",""4656""
""blur"",""23"",""116144""
""focus"",""23"",""119921""
""blur"",""34"",""223812""
""focus"",""34"",""227429""
""blur"",""56"",""281121""
""focus"",""56"",""282752""
","""event"",""trial"",""time""
""blur"",""23"",""116144""
""blur"",""34"",""223812""
""blur"",""56"",""281121""
","""event"",""trial"",""time""
""focus"",""23"",""119921""
""focus"",""34"",""227429""
""focus"",""56"",""282752""
","""event"",""trial"",""time""
""fullscreenenter"",""1"",""4656""
","
","","1048.9999999990687","","","","real_trial","2021-03-30 02:01:13.575","img/card_backs/set1/green.gif","2","-190","1","",""
"casino-fixation","98","413778","0.0-25.0-0.14","180","true","img/card_backs/set1/red.gif","img/card_backs/set1/green.gif","img/card_backs/set1/purple.gif","img/card_backs/set1/yellow.gif","img/card_backs/set2/pink.gif","img/card_backs/set2/gray.gif","img/card_backs/set2/orange.gif","img/card_backs/set2/blue.gif","""event"",""trial"",""time""
""fullscreenenter"",""1"",""4656""
""blur"",""23"",""116144""
""focus"",""23"",""119921""
""blur"",""34"",""223812""
""focus"",""34"",""227429""
""blur"",""56"",""281121""
""focus"",""56"",""282752""
","""event"",""trial"",""time""
""blur"",""23"",""116144""
""blur"",""34"",""223812""
""blur"",""56"",""281121""
","""event"",""trial"",""time""
""focus"",""23"",""119921""
""focus"",""34"",""227429""
""focus"",""56"",""282752""
","""event"",""trial"",""time""
""fullscreenenter"",""1"",""4656""
","
","","null","","null","","fixation","2021-03-30 02:01:14.080","","","","","",""
"card-selection-trial","99","417749","0.0-25.0-1.14","180","true","img/card_backs/set1/red.gif","img/card_backs/set1/green.gif","img/card_backs/set1/purple.gif","img/card_backs/set1/yellow.gif","img/card_backs/set2/pink.gif","img/card_backs/set2/gray.gif","img/card_backs/set2/orange.gif","img/card_backs/set2/blue.gif","""event"",""trial"",""time""
""fullscreenenter"",""1"",""4656""
""blur"",""23"",""116144""
""focus"",""23"",""119921""
""blur"",""34"",""223812""
""focus"",""34"",""227429""
""blur"",""56"",""281121""
""focus"",""56"",""282752""
","""event"",""trial"",""time""
""blur"",""23"",""116144""
""blur"",""34"",""223812""
""blur"",""56"",""281121""
","""event"",""trial"",""time""
""focus"",""23"",""119921""
""focus"",""34"",""227429""
""focus"",""56"",""282752""
","""event"",""trial"",""time""
""fullscreenenter"",""1"",""4656""
","
","","1959.8649999988847","","","","real_trial","2021-03-30 02:01:18.051","img/card_backs/set1/purple.gif","1","-90","1","",""
"casino-fixation","100","418254","0.0-25.0-0.15","180","true","img/card_backs/set1/red.gif","img/card_backs/set1/green.gif","img/card_backs/set1/purple.gif","img/card_backs/set1/yellow.gif","img/card_backs/set2/pink.gif","img/card_backs/set2/gray.gif","img/card_backs/set2/orange.gif","img/card_backs/set2/blue.gif","""event"",""trial"",""time""
""fullscreenenter"",""1"",""4656""
""blur"",""23"",""116144""
""focus"",""23"",""119921""
""blur"",""34"",""223812""
""focus"",""34"",""227429""
""blur"",""56"",""281121""
""focus"",""56"",""282752""
","""event"",""trial"",""time""
""blur"",""23"",""116144""
""blur"",""34"",""223812""
""blur"",""56"",""281121""
","""event"",""trial"",""time""
""focus"",""23"",""119921""
""focus"",""34"",""227429""
""focus"",""56"",""282752""
","""event"",""trial"",""time""
""fullscreenenter"",""1"",""4656""
","
","","null","","null","","fixation","2021-03-30 02:01:18.555","","","","","",""
"card-selection-trial","101","421430","0.0-25.0-1.15","180","true","img/card_backs/set1/red.gif","img/card_backs/set1/green.gif","img/card_backs/set1/purple.gif","img/card_backs/set1/yellow.gif","img/card_backs/set2/pink.gif","img/card_backs/set2/gray.gif","img/card_backs/set2/orange.gif","img/card_backs/set2/blue.gif","""event"",""trial"",""time""
""fullscreenenter"",""1"",""4656""
""blur"",""23"",""116144""
""focus"",""23"",""119921""
""blur"",""34"",""223812""
""focus"",""34"",""227429""
""blur"",""56"",""281121""
""focus"",""56"",""282752""
","""event"",""trial"",""time""
""blur"",""23"",""116144""
""blur"",""34"",""223812""
""blur"",""56"",""281121""
","""event"",""trial"",""time""
""focus"",""23"",""119921""
""focus"",""34"",""227429""
""focus"",""56"",""282752""
","""event"",""trial"",""time""
""fullscreenenter"",""1"",""4656""
","
","","1168.5400000005611","","","","real_trial","2021-03-30 02:01:21.731","img/card_backs/set1/red.gif","0","-200","1","",""
"casino-fixation","102","421932","0.0-25.0-0.16","180","true","img/card_backs/set1/red.gif","img/card_backs/set1/green.gif","img/card_backs/set1/purple.gif","img/card_backs/set1/yellow.gif","img/card_backs/set2/pink.gif","img/card_backs/set2/gray.gif","img/card_backs/set2/orange.gif","img/card_backs/set2/blue.gif","""event"",""trial"",""time""
""fullscreenenter"",""1"",""4656""
""blur"",""23"",""116144""
""focus"",""23"",""119921""
""blur"",""34"",""223812""
""focus"",""34"",""227429""
""blur"",""56"",""281121""
""focus"",""56"",""282752""
","""event"",""trial"",""time""
""blur"",""23"",""116144""
""blur"",""34"",""223812""
""blur"",""56"",""281121""
","""event"",""trial"",""time""
""focus"",""23"",""119921""
""focus"",""34"",""227429""
""focus"",""56"",""282752""
","""event"",""trial"",""time""
""fullscreenenter"",""1"",""4656""
","
","","null","","null","","fixation","2021-03-30 02:01:22.233","","","","","",""
"card-selection-trial","103","424304","0.0-25.0-1.16","180","true","img/card_backs/set1/red.gif","img/card_backs/set1/green.gif","img/card_backs/set1/purple.gif","img/card_backs/set1/yellow.gif","img/card_backs/set2/pink.gif","img/card_backs/set2/gray.gif","img/card_backs/set2/orange.gif","img/card_backs/set2/blue.gif","""event"",""trial"",""time""
""fullscreenenter"",""1"",""4656""
""blur"",""23"",""116144""
""focus"",""23"",""119921""
""blur"",""34"",""223812""
""focus"",""34"",""227429""
""blur"",""56"",""281121""
""focus"",""56"",""282752""
","""event"",""trial"",""time""
""blur"",""23"",""116144""
""blur"",""34"",""223812""
""blur"",""56"",""281121""
","""event"",""trial"",""time""
""focus"",""23"",""119921""
""focus"",""34"",""227429""
""focus"",""56"",""282752""
","""event"",""trial"",""time""
""fullscreenenter"",""1"",""4656""
","
","","359.424999998766","","","","real_trial","2021-03-30 02:01:24.605","img/card_backs/set1/green.gif","2","260","1","",""
"casino-fixation","104","424809","0.0-25.0-0.17","180","true","img/card_backs/set1/red.gif","img/card_backs/set1/green.gif","img/card_backs/set1/purple.gif","img/card_backs/set1/yellow.gif","img/card_backs/set2/pink.gif","img/card_backs/set2/gray.gif","img/card_backs/set2/orange.gif","img/card_backs/set2/blue.gif","""event"",""trial"",""time""
""fullscreenenter"",""1"",""4656""
""blur"",""23"",""116144""
""focus"",""23"",""119921""
""blur"",""34"",""223812""
""focus"",""34"",""227429""
""blur"",""56"",""281121""
""focus"",""56"",""282752""
","""event"",""trial"",""time""
""blur"",""23"",""116144""
""blur"",""34"",""223812""
""blur"",""56"",""281121""
","""event"",""trial"",""time""
""focus"",""23"",""119921""
""focus"",""34"",""227429""
""focus"",""56"",""282752""
","""event"",""trial"",""time""
""fullscreenenter"",""1"",""4656""
","
","","null","","null","","fixation","2021-03-30 02:01:25.110","","","","","",""
"card-selection-trial","105","428244","0.0-25.0-1.17","180","true","img/card_backs/set1/red.gif","img/card_backs/set1/green.gif","img/card_backs/set1/purple.gif","img/card_backs/set1/yellow.gif","img/card_backs/set2/pink.gif","img/card_backs/set2/gray.gif","img/card_backs/set2/orange.gif","img/card_backs/set2/blue.gif","""event"",""trial"",""time""
""fullscreenenter"",""1"",""4656""
""blur"",""23"",""116144""
""focus"",""23"",""119921""
""blur"",""34"",""223812""
""focus"",""34"",""227429""
""blur"",""56"",""281121""
""focus"",""56"",""282752""
","""event"",""trial"",""time""
""blur"",""23"",""116144""
""blur"",""34"",""223812""
""blur"",""56"",""281121""
","""event"",""trial"",""time""
""focus"",""23"",""119921""
""focus"",""34"",""227429""
""focus"",""56"",""282752""
","""event"",""trial"",""time""
""fullscreenenter"",""1"",""4656""
","
","","1427.9950000000536","","","","real_trial","2021-03-30 02:01:28.545","img/card_backs/set1/green.gif","3","260","1","",""
"casino-fixation","106","428750","0.0-25.0-0.18","180","true","img/card_backs/set1/red.gif","img/card_backs/set1/green.gif","img/card_backs/set1/purple.gif","img/card_backs/set1/yellow.gif","img/card_backs/set2/pink.gif","img/card_backs/set2/gray.gif","img/card_backs/set2/orange.gif","img/card_backs/set2/blue.gif","""event"",""trial"",""time""
""fullscreenenter"",""1"",""4656""
""blur"",""23"",""116144""
""focus"",""23"",""119921""
""blur"",""34"",""223812""
""focus"",""34"",""227429""
""blur"",""56"",""281121""
""focus"",""56"",""282752""
","""event"",""trial"",""time""
""blur"",""23"",""116144""
""blur"",""34"",""223812""
""blur"",""56"",""281121""
","""event"",""trial"",""time""
""focus"",""23"",""119921""
""focus"",""34"",""227429""
""focus"",""56"",""282752""
","""event"",""trial"",""time""
""fullscreenenter"",""1"",""4656""
","
","","null","","null","","fixation","2021-03-30 02:01:29.051","","","","","",""
"card-selection-trial","107","436228","0.0-25.0-1.18","180","true","img/card_backs/set1/red.gif","img/card_backs/set1/green.gif","img/card_backs/set1/purple.gif","img/card_backs/set1/yellow.gif","img/card_backs/set2/pink.gif","img/card_backs/set2/gray.gif","img/card_backs/set2/orange.gif","img/card_backs/set2/blue.gif","""event"",""trial"",""time""
""fullscreenenter"",""1"",""4656""
""blur"",""23"",""116144""
""focus"",""23"",""119921""
""blur"",""34"",""223812""
""focus"",""34"",""227429""
""blur"",""56"",""281121""
""focus"",""56"",""282752""
","""event"",""trial"",""time""
""blur"",""23"",""116144""
""blur"",""34"",""223812""
""blur"",""56"",""281121""
","""event"",""trial"",""time""
""focus"",""23"",""119921""
""focus"",""34"",""227429""
""focus"",""56"",""282752""
","""event"",""trial"",""time""
""fullscreenenter"",""1"",""4656""
","
","","5465.6250000006985","","","","real_trial","2021-03-30 02:01:36.529","img/card_backs/set1/green.gif","0","240","1","",""
"casino-fixation","108","436733","0.0-25.0-0.19","180","true","img/card_backs/set1/red.gif","img/card_backs/set1/green.gif","img/card_backs/set1/purple.gif","img/card_backs/set1/yellow.gif","img/card_backs/set2/pink.gif","img/card_backs/set2/gray.gif","img/card_backs/set2/orange.gif","img/card_backs/set2/blue.gif","""event"",""trial"",""time""
""fullscreenenter"",""1"",""4656""
""blur"",""23"",""116144""
""focus"",""23"",""119921""
""blur"",""34"",""223812""
""focus"",""34"",""227429""
""blur"",""56"",""281121""
""focus"",""56"",""282752""
","""event"",""trial"",""time""
""blur"",""23"",""116144""
""blur"",""34"",""223812""
""blur"",""56"",""281121""
","""event"",""trial"",""time""
""focus"",""23"",""119921""
""focus"",""34"",""227429""
""focus"",""56"",""282752""
","""event"",""trial"",""time""
""fullscreenenter"",""1"",""4656""
","
","","null","","null","","fixation","2021-03-30 02:01:37.034","","","","","",""
"card-selection-trial","109","439659","0.0-25.0-1.19","180","true","img/card_backs/set1/red.gif","img/card_backs/set1/green.gif","img/card_backs/set1/purple.gif","img/card_backs/set1/yellow.gif","img/card_backs/set2/pink.gif","img/card_backs/set2/gray.gif","img/card_backs/set2/orange.gif","img/card_backs/set2/blue.gif","""event"",""trial"",""time""
""fullscreenenter"",""1"",""4656""
""blur"",""23"",""116144""
""focus"",""23"",""119921""
""blur"",""34"",""223812""
""focus"",""34"",""227429""
""blur"",""56"",""281121""
""focus"",""56"",""282752""
","""event"",""trial"",""time""
""blur"",""23"",""116144""
""blur"",""34"",""223812""
""blur"",""56"",""281121""
","""event"",""trial"",""time""
""focus"",""23"",""119921""
""focus"",""34"",""227429""
""focus"",""56"",""282752""
","""event"",""trial"",""time""
""fullscreenenter"",""1"",""4656""
","
","","918.6800000006333","","","","real_trial","2021-03-30 02:01:39.960","img/card_backs/set1/green.gif","1","-190","1","",""
"casino-fixation","110","440164","0.0-25.0-0.20","180","true","img/card_backs/set1/red.gif","img/card_backs/set1/green.gif","img/card_backs/set1/purple.gif","img/card_backs/set1/yellow.gif","img/card_backs/set2/pink.gif","img/card_backs/set2/gray.gif","img/card_backs/set2/orange.gif","img/card_backs/set2/blue.gif","""event"",""trial"",""time""
""fullscreenenter"",""1"",""4656""
""blur"",""23"",""116144""
""focus"",""23"",""119921""
""blur"",""34"",""223812""
""focus"",""34"",""227429""
""blur"",""56"",""281121""
""focus"",""56"",""282752""
","""event"",""trial"",""time""
""blur"",""23"",""116144""
""blur"",""34"",""223812""
""blur"",""56"",""281121""
","""event"",""trial"",""time""
""focus"",""23"",""119921""
""focus"",""34"",""227429""
""focus"",""56"",""282752""
","""event"",""trial"",""time""
""fullscreenenter"",""1"",""4656""
","
","","null","","null","","fixation","2021-03-30 02:01:40.465","","","","","",""
"card-selection-trial","111","447217","0.0-25.0-1.20","180","true","img/card_backs/set1/red.gif","img/card_backs/set1/green.gif","img/card_backs/set1/purple.gif","img/card_backs/set1/yellow.gif","img/card_backs/set2/pink.gif","img/card_backs/set2/gray.gif","img/card_backs/set2/orange.gif","img/card_backs/set2/blue.gif","""event"",""trial"",""time""
""fullscreenenter"",""1"",""4656""
""blur"",""23"",""116144""
""focus"",""23"",""119921""
""blur"",""34"",""223812""
""focus"",""34"",""227429""
""blur"",""56"",""281121""
""focus"",""56"",""282752""
","""event"",""trial"",""time""
""blur"",""23"",""116144""
""blur"",""34"",""223812""
""blur"",""56"",""281121""
","""event"",""trial"",""time""
""focus"",""23"",""119921""
""focus"",""34"",""227429""
""focus"",""56"",""282752""
","""event"",""trial"",""time""
""fullscreenenter"",""1"",""4656""
","
","","5046.4150000006775","","","","real_trial","2021-03-30 02:01:47.518","img/card_backs/set1/red.gif","2","260","1","",""
"casino-fixation","112","447722","0.0-25.0-0.21","180","true","img/card_backs/set1/red.gif","img/card_backs/set1/green.gif","img/card_backs/set1/purple.gif","img/card_backs/set1/yellow.gif","img/card_backs/set2/pink.gif","img/card_backs/set2/gray.gif","img/card_backs/set2/orange.gif","img/card_backs/set2/blue.gif","""event"",""trial"",""time""
""fullscreenenter"",""1"",""4656""
""blur"",""23"",""116144""
""focus"",""23"",""119921""
""blur"",""34"",""223812""
""focus"",""34"",""227429""
""blur"",""56"",""281121""
""focus"",""56"",""282752""
","""event"",""trial"",""time""
""blur"",""23"",""116144""
""blur"",""34"",""223812""
""blur"",""56"",""281121""
","""event"",""trial"",""time""
""focus"",""23"",""119921""
""focus"",""34"",""227429""
""focus"",""56"",""282752""
","""event"",""trial"",""time""
""fullscreenenter"",""1"",""4656""
","
","","null","","null","","fixation","2021-03-30 02:01:48.023","","","","","",""
