"trial_type","trial_index","time_elapsed","internal_node_id","sub_id","risk_good_first","block1_A","block1_B","block1_C","block1_D","block2_A","block2_B","block2_C","block2_D","interactions","blur_events","focus_events","fullscreenenter_events","fullscreenexit_events","success","rt","stimulus","key_press","button_pressed","task_part","timestamp","card_choice","choice_position","points_earned","block","correct","response"
"pavlovia","0","5","0.0-0.0","A294","true","img/card_backs/set1/red.gif","img/card_backs/set1/yellow.gif","img/card_backs/set1/green.gif","img/card_backs/set1/purple.gif","img/card_backs/set2/blue.gif","img/card_backs/set2/gray.gif","img/card_backs/set2/orange.gif","img/card_backs/set2/pink.gif","""event"",""trial"",""time""
""fullscreenenter"",""1"",""2224""
","
","
","""event"",""trial"",""time""
""fullscreenenter"",""1"",""2224""
","
","","","","","","","","","","","","",""
"fullscreen","1","3205","0.0-1.0","A294","true","img/card_backs/set1/red.gif","img/card_backs/set1/yellow.gif","img/card_backs/set1/green.gif","img/card_backs/set1/purple.gif","img/card_backs/set2/blue.gif","img/card_backs/set2/gray.gif","img/card_backs/set2/orange.gif","img/card_backs/set2/pink.gif","""event"",""trial"",""time""
""fullscreenenter"",""1"",""2224""
","
","
","""event"",""trial"",""time""
""fullscreenenter"",""1"",""2224""
","
","true","","","","","","","","","","","",""
"audio-keyboard-response","2","8955","0.0-2.0","A294","true","img/card_backs/set1/red.gif","img/card_backs/set1/yellow.gif","img/card_backs/set1/green.gif","img/card_backs/set1/purple.gif","img/card_backs/set2/blue.gif","img/card_backs/set2/gray.gif","img/card_backs/set2/orange.gif","img/card_backs/set2/pink.gif","""event"",""trial"",""time""
""fullscreenenter"",""1"",""2224""
","
","
","""event"",""trial"",""time""
""fullscreenenter"",""1"",""2224""
","
","","5642","audio/beep_loop.wav","32","","","","","","","","",""
"audio-button-response","3","11668","0.0-3.0","A294","true","img/card_backs/set1/red.gif","img/card_backs/set1/yellow.gif","img/card_backs/set1/green.gif","img/card_backs/set1/purple.gif","img/card_backs/set2/blue.gif","img/card_backs/set2/gray.gif","img/card_backs/set2/orange.gif","img/card_backs/set2/pink.gif","""event"",""trial"",""time""
""fullscreenenter"",""1"",""2224""
","
","
","""event"",""trial"",""time""
""fullscreenenter"",""1"",""2224""
","
","","NaN","audio/turtle.mp3","","3","","","","","","","",""
"audio-button-response","4","14202","0.0-4.0","A294","true","img/card_backs/set1/red.gif","img/card_backs/set1/yellow.gif","img/card_backs/set1/green.gif","img/card_backs/set1/purple.gif","img/card_backs/set2/blue.gif","img/card_backs/set2/gray.gif","img/card_backs/set2/orange.gif","img/card_backs/set2/pink.gif","""event"",""trial"",""time""
""fullscreenenter"",""1"",""2224""
","
","
","""event"",""trial"",""time""
""fullscreenenter"",""1"",""2224""
","
","","NaN","audio/shark.mp3","","2","","","","","","","",""
"fullscreen","5","19231","0.0-5.0","A294","true","img/card_backs/set1/red.gif","img/card_backs/set1/yellow.gif","img/card_backs/set1/green.gif","img/card_backs/set1/purple.gif","img/card_backs/set2/blue.gif","img/card_backs/set2/gray.gif","img/card_backs/set2/orange.gif","img/card_backs/set2/pink.gif","""event"",""trial"",""time""
""fullscreenenter"",""1"",""2224""
","
","
","""event"",""trial"",""time""
""fullscreenenter"",""1"",""2224""
","
","true","","","","","","","","","","","",""
"casino-keyboard-response","6","22149","0.0-6.0-0.0","A294","true","img/card_backs/set1/red.gif","img/card_backs/set1/yellow.gif","img/card_backs/set1/green.gif","img/card_backs/set1/purple.gif","img/card_backs/set2/blue.gif","img/card_backs/set2/gray.gif","img/card_backs/set2/orange.gif","img/card_backs/set2/pink.gif","""event"",""trial"",""time""
""fullscreenenter"",""1"",""2224""
","
","
","""event"",""trial"",""time""
""fullscreenenter"",""1"",""2224""
","
","","2915.664999978617","Welcome to the casino!","71","","instructions","2021-07-21 15:51:15.993","","","","","",""
"casino-keyboard-response","7","31544","0.0-6.0-0.1","A294","true","img/card_backs/set1/red.gif","img/card_backs/set1/yellow.gif","img/card_backs/set1/green.gif","img/card_backs/set1/purple.gif","img/card_backs/set2/blue.gif","img/card_backs/set2/gray.gif","img/card_backs/set2/orange.gif","img/card_backs/set2/pink.gif","""event"",""trial"",""time""
""fullscreenenter"",""1"",""2224""
","
","
","""event"",""trial"",""time""
""fullscreenenter"",""1"",""2224""
","
","","9392.029999988154","Today you will be playing a game to earn tokens. </br> At the end of the experiment, you will be paid a bonus based on how many tokens you win. ","69","","instructions","2021-07-21 15:51:25.387","","","","","",""
"casino-keyboard-response","8","38871","0.0-6.0-0.2","A294","true","img/card_backs/set1/red.gif","img/card_backs/set1/yellow.gif","img/card_backs/set1/green.gif","img/card_backs/set1/purple.gif","img/card_backs/set2/blue.gif","img/card_backs/set2/gray.gif","img/card_backs/set2/orange.gif","img/card_backs/set2/pink.gif","""event"",""trial"",""time""
""fullscreenenter"",""1"",""2224""
","
","
","""event"",""trial"",""time""
""fullscreenenter"",""1"",""2224""
","
","","7325.1450000097975","On every turn, you will be shown four different decks of cards. </br> You need to select a card from one of the four decks.  ","75","","instructions","2021-07-21 15:51:32.714","","","","","",""
"casino-keyboard-response","9","43373","0.0-6.0-0.3","A294","true","img/card_backs/set1/red.gif","img/card_backs/set1/yellow.gif","img/card_backs/set1/green.gif","img/card_backs/set1/purple.gif","img/card_backs/set2/blue.gif","img/card_backs/set2/gray.gif","img/card_backs/set2/orange.gif","img/card_backs/set2/pink.gif","""event"",""trial"",""time""
""fullscreenenter"",""1"",""2224""
","
","
","""event"",""trial"",""time""
""fullscreenenter"",""1"",""2224""
","
","","4500.110000022687","On the next screen, you will see what the decks will look like. ","66","","instructions","2021-07-21 15:51:37.216","","","","","",""
"card-selection-trial","10","47381","0.0-7.0-0.0","A294","true","img/card_backs/set1/red.gif","img/card_backs/set1/yellow.gif","img/card_backs/set1/green.gif","img/card_backs/set1/purple.gif","img/card_backs/set2/blue.gif","img/card_backs/set2/gray.gif","img/card_backs/set2/orange.gif","img/card_backs/set2/pink.gif","""event"",""trial"",""time""
""fullscreenenter"",""1"",""2224""
","
","
","""event"",""trial"",""time""
""fullscreenenter"",""1"",""2224""
","
","","null","","","","practice","2021-07-21 15:51:41.224","null","null","null","0","",""
"casino-keyboard-response","11","54735","0.0-8.0-0.0","A294","true","img/card_backs/set1/red.gif","img/card_backs/set1/yellow.gif","img/card_backs/set1/green.gif","img/card_backs/set1/purple.gif","img/card_backs/set2/blue.gif","img/card_backs/set2/gray.gif","img/card_backs/set2/orange.gif","img/card_backs/set2/pink.gif","""event"",""trial"",""time""
""fullscreenenter"",""1"",""2224""
","
","
","""event"",""trial"",""time""
""fullscreenenter"",""1"",""2224""
","
","","7352.324999985285","You should pick a card from a deck using the '2', '4', '6', and '8' keys at the top of the keyboard.","85","","instructions","2021-07-21 15:51:48.578","","","","","",""
"casino-keyboard-response","12","60015","0.0-8.0-0.1","A294","true","img/card_backs/set1/red.gif","img/card_backs/set1/yellow.gif","img/card_backs/set1/green.gif","img/card_backs/set1/purple.gif","img/card_backs/set2/blue.gif","img/card_backs/set2/gray.gif","img/card_backs/set2/orange.gif","img/card_backs/set2/pink.gif","""event"",""trial"",""time""
""fullscreenenter"",""1"",""2224""
","
","
","""event"",""trial"",""time""
""fullscreenenter"",""1"",""2224""
","
","","5278.129999991506","Once you select a card, it will turn over and you will see how many tokens you earned.","83","","instructions","2021-07-21 15:51:53.858","","","","","",""
"casino-keyboard-response","13","74197","0.0-8.0-0.2","A294","true","img/card_backs/set1/red.gif","img/card_backs/set1/yellow.gif","img/card_backs/set1/green.gif","img/card_backs/set1/purple.gif","img/card_backs/set2/blue.gif","img/card_backs/set2/gray.gif","img/card_backs/set2/orange.gif","img/card_backs/set2/pink.gif","""event"",""trial"",""time""
""fullscreenenter"",""1"",""2224""
","
","
","""event"",""trial"",""time""
""fullscreenenter"",""1"",""2224""
","
","","14179.590000072494","Let's try practicing that! </br> First, try to put your fingers over the '2', '4', '6', and '8' keys. </br>  You can use whatever fingers are most comfortable for you. Try to find a comfortable position now. ","50","","instructions","2021-07-21 15:52:08.040","","","","","",""
"casino-keyboard-response","14","80124","0.0-8.0-0.3","A294","true","img/card_backs/set1/red.gif","img/card_backs/set1/yellow.gif","img/card_backs/set1/green.gif","img/card_backs/set1/purple.gif","img/card_backs/set2/blue.gif","img/card_backs/set2/gray.gif","img/card_backs/set2/orange.gif","img/card_backs/set2/pink.gif","""event"",""trial"",""time""
""fullscreenenter"",""1"",""2224""
","
","
","""event"",""trial"",""time""
""fullscreenenter"",""1"",""2224""
","
","","5924.735000007786","Okay ready? </br> On the next screen, press '2' to select the left deck. ","50","","instructions","2021-07-21 15:52:13.967","","","","","",""
"card-selection-trial","15","83114","0.0-9.0-0.0","A294","true","img/card_backs/set1/red.gif","img/card_backs/set1/yellow.gif","img/card_backs/set1/green.gif","img/card_backs/set1/purple.gif","img/card_backs/set2/blue.gif","img/card_backs/set2/gray.gif","img/card_backs/set2/orange.gif","img/card_backs/set2/pink.gif","""event"",""trial"",""time""
""fullscreenenter"",""1"",""2224""
","
","
","""event"",""trial"",""time""
""fullscreenenter"",""1"",""2224""
","
","","970.8200000459328","","","","practice_card_selection","2021-07-21 15:52:16.957","img/practice_cards/backs/dark_blue.gif","0","200","","",""
"casino-keyboard-response","16","88809","0.0-10.0-0.0","A294","true","img/card_backs/set1/red.gif","img/card_backs/set1/yellow.gif","img/card_backs/set1/green.gif","img/card_backs/set1/purple.gif","img/card_backs/set2/blue.gif","img/card_backs/set2/gray.gif","img/card_backs/set2/orange.gif","img/card_backs/set2/pink.gif","""event"",""trial"",""time""
""fullscreenenter"",""1"",""2224""
","
","
","""event"",""trial"",""time""
""fullscreenenter"",""1"",""2224""
","
","","5692.895000101998","Great! Now on the next screen, try pressing '6' to select the third deck.","54","","instructions","2021-07-21 15:52:22.652","","","","","",""
"card-selection-trial","17","91945","0.0-11.0-0.0","A294","true","img/card_backs/set1/red.gif","img/card_backs/set1/yellow.gif","img/card_backs/set1/green.gif","img/card_backs/set1/purple.gif","img/card_backs/set2/blue.gif","img/card_backs/set2/gray.gif","img/card_backs/set2/orange.gif","img/card_backs/set2/pink.gif","""event"",""trial"",""time""
""fullscreenenter"",""1"",""2224""
","
","
","""event"",""trial"",""time""
""fullscreenenter"",""1"",""2224""
","
","","1130.1149999490008","","","","practice_card_selection","2021-07-21 15:52:25.788","img/practice_cards/backs/black.gif","2","-100","","",""
"casino-keyboard-response","18","96809","0.0-12.0-0.0","A294","true","img/card_backs/set1/red.gif","img/card_backs/set1/yellow.gif","img/card_backs/set1/green.gif","img/card_backs/set1/purple.gif","img/card_backs/set2/blue.gif","img/card_backs/set2/gray.gif","img/card_backs/set2/orange.gif","img/card_backs/set2/pink.gif","""event"",""trial"",""time""
""fullscreenenter"",""1"",""2224""
","
","
","""event"",""trial"",""time""
""fullscreenenter"",""1"",""2224""
","
","","4863.069999963045","Now on the next screen, try pressing '4' to select the second deck.","52","","instructions","2021-07-21 15:52:30.652","","","","","",""
"card-selection-trial","19","99486","0.0-13.0-0.0","A294","true","img/card_backs/set1/red.gif","img/card_backs/set1/yellow.gif","img/card_backs/set1/green.gif","img/card_backs/set1/purple.gif","img/card_backs/set2/blue.gif","img/card_backs/set2/gray.gif","img/card_backs/set2/orange.gif","img/card_backs/set2/pink.gif","""event"",""trial"",""time""
""fullscreenenter"",""1"",""2224""
","
","
","""event"",""trial"",""time""
""fullscreenenter"",""1"",""2224""
","
","","670.3850000631064","","","","practice_card_selection","2021-07-21 15:52:33.329","img/practice_cards/backs/brown.gif","1","100","","",""
"casino-keyboard-response","20","101844","0.0-14.0-0.0","A294","true","img/card_backs/set1/red.gif","img/card_backs/set1/yellow.gif","img/card_backs/set1/green.gif","img/card_backs/set1/purple.gif","img/card_backs/set2/blue.gif","img/card_backs/set2/gray.gif","img/card_backs/set2/orange.gif","img/card_backs/set2/pink.gif","""event"",""trial"",""time""
""fullscreenenter"",""1"",""2224""
","
","
","""event"",""trial"",""time""
""fullscreenenter"",""1"",""2224""
","
","","2357.2099999291822","Finally, try pressing '8' to select the deck all the way on the right.","56","","instructions","2021-07-21 15:52:35.688","","","","","",""
"card-selection-trial","21","104589","0.0-15.0-0.0","A294","true","img/card_backs/set1/red.gif","img/card_backs/set1/yellow.gif","img/card_backs/set1/green.gif","img/card_backs/set1/purple.gif","img/card_backs/set2/blue.gif","img/card_backs/set2/gray.gif","img/card_backs/set2/orange.gif","img/card_backs/set2/pink.gif","""event"",""trial"",""time""
""fullscreenenter"",""1"",""2224""
","
","
","""event"",""trial"",""time""
""fullscreenenter"",""1"",""2224""
","
","","735.8350000577047","","","","practice_card_selection","2021-07-21 15:52:38.432","img/practice_cards/backs/dark_blue.gif","3","-200","","",""
"casino-keyboard-response","22","108648","0.0-16.0-0.0","A294","true","img/card_backs/set1/red.gif","img/card_backs/set1/yellow.gif","img/card_backs/set1/green.gif","img/card_backs/set1/purple.gif","img/card_backs/set2/blue.gif","img/card_backs/set2/gray.gif","img/card_backs/set2/orange.gif","img/card_backs/set2/pink.gif","""event"",""trial"",""time""
""fullscreenenter"",""1"",""2224""
","
","
","""event"",""trial"",""time""
""fullscreenenter"",""1"",""2224""
","
","","4056.9000000832602","Great! It seems like you are getting the hang of this.","80","","instructions","2021-07-21 15:52:42.491","","","","","",""
"casino-keyboard-response","23","115802","0.0-16.0-0.1","A294","true","img/card_backs/set1/red.gif","img/card_backs/set1/yellow.gif","img/card_backs/set1/green.gif","img/card_backs/set1/purple.gif","img/card_backs/set2/blue.gif","img/card_backs/set2/gray.gif","img/card_backs/set2/orange.gif","img/card_backs/set2/pink.gif","""event"",""trial"",""time""
""fullscreenenter"",""1"",""2224""
","
","
","""event"",""trial"",""time""
""fullscreenenter"",""1"",""2224""
","
","","7151.63500001654","You may have noticed that some cards will cause you to <b> win </b> tokens while other cards will cause you to <b> lose </b>  tokens.","70","","instructions","2021-07-21 15:52:49.645","","","","","",""
"casino-keyboard-response","24","123992","0.0-16.0-0.2","A294","true","img/card_backs/set1/red.gif","img/card_backs/set1/yellow.gif","img/card_backs/set1/green.gif","img/card_backs/set1/purple.gif","img/card_backs/set2/blue.gif","img/card_backs/set2/gray.gif","img/card_backs/set2/orange.gif","img/card_backs/set2/pink.gif","""event"",""trial"",""time""
""fullscreenenter"",""1"",""2224""
","
","
","""event"",""trial"",""time""
""fullscreenenter"",""1"",""2224""
","
","","8188.0050000036135","Each deck has a mix of cards that will cause you to win and lose tokens. </br> However, the cards in each colored deck are different.","73","","instructions","2021-07-21 15:52:57.835","","","","","",""
"casino-keyboard-response","25","132125","0.0-16.0-0.3","A294","true","img/card_backs/set1/red.gif","img/card_backs/set1/yellow.gif","img/card_backs/set1/green.gif","img/card_backs/set1/purple.gif","img/card_backs/set2/blue.gif","img/card_backs/set2/gray.gif","img/card_backs/set2/orange.gif","img/card_backs/set2/pink.gif","""event"",""trial"",""time""
""fullscreenenter"",""1"",""2224""
","
","
","""event"",""trial"",""time""
""fullscreenenter"",""1"",""2224""
","
","","8129.9700000090525","Some colored decks are luckier than others. </br> If you choose the lucky decks, you will earn more tokens than if you choose the unlucky decks.","69","","instructions","2021-07-21 15:53:05.968","","","","","",""
"casino-keyboard-response","26","139112","0.0-16.0-0.4","A294","true","img/card_backs/set1/red.gif","img/card_backs/set1/yellow.gif","img/card_backs/set1/green.gif","img/card_backs/set1/purple.gif","img/card_backs/set2/blue.gif","img/card_backs/set2/gray.gif","img/card_backs/set2/orange.gif","img/card_backs/set2/pink.gif","""event"",""trial"",""time""
""fullscreenenter"",""1"",""2224""
","
","
","""event"",""trial"",""time""
""fullscreenenter"",""1"",""2224""
","
","","6984.824999934062","You should try to figure out which decks are lucky. </br> Then, try to choose the lucky decks so you can win the most tokens.","87","","instructions","2021-07-21 15:53:12.955","","","","","",""
"casino-keyboard-response","27","150106","0.0-16.0-0.5","A294","true","img/card_backs/set1/red.gif","img/card_backs/set1/yellow.gif","img/card_backs/set1/green.gif","img/card_backs/set1/purple.gif","img/card_backs/set2/blue.gif","img/card_backs/set2/gray.gif","img/card_backs/set2/orange.gif","img/card_backs/set2/pink.gif","""event"",""trial"",""time""
""fullscreenenter"",""1"",""2224""
","
","
","""event"",""trial"",""time""
""fullscreenenter"",""1"",""2224""
","
","","10991.17000005208","To make it trickier, the casino dealer will switch the locations of the decks on every turn. </br> The color of the deck determines how lucky it is. The location does not matter.","88","","instructions","2021-07-21 15:53:23.949","","","","","",""
"casino-keyboard-response","28","159611","0.0-16.0-0.6","A294","true","img/card_backs/set1/red.gif","img/card_backs/set1/yellow.gif","img/card_backs/set1/green.gif","img/card_backs/set1/purple.gif","img/card_backs/set2/blue.gif","img/card_backs/set2/gray.gif","img/card_backs/set2/orange.gif","img/card_backs/set2/pink.gif","""event"",""trial"",""time""
""fullscreenenter"",""1"",""2224""
","
","
","""event"",""trial"",""time""
""fullscreenenter"",""1"",""2224""
","
","","9502.865000045858","The mix of cards in each colored deck will stay the same throughout the game. </br> That means that a deck that is lucky early on will stay lucky.","79","","instructions","2021-07-21 15:53:33.454","","","","","",""
"casino-keyboard-response","29","167562","0.0-16.0-0.7","A294","true","img/card_backs/set1/red.gif","img/card_backs/set1/yellow.gif","img/card_backs/set1/green.gif","img/card_backs/set1/purple.gif","img/card_backs/set2/blue.gif","img/card_backs/set2/gray.gif","img/card_backs/set2/orange.gif","img/card_backs/set2/pink.gif","""event"",""trial"",""time""
""fullscreenenter"",""1"",""2224""
","
","
","""event"",""trial"",""time""
""fullscreenenter"",""1"",""2224""
","
","","7948.940000031143","Remember though, all the decks have a <b> mix </b> of both <b> good </b> and <b> bad </b> cards so it may take a couple of turns to figure out if a deck is lucky.","69","","instructions","2021-07-21 15:53:41.405","","","","","",""
"casino-keyboard-response","30","175616","0.0-16.0-0.8","A294","true","img/card_backs/set1/red.gif","img/card_backs/set1/yellow.gif","img/card_backs/set1/green.gif","img/card_backs/set1/purple.gif","img/card_backs/set2/blue.gif","img/card_backs/set2/gray.gif","img/card_backs/set2/orange.gif","img/card_backs/set2/pink.gif","""event"",""trial"",""time""
""fullscreenenter"",""1"",""2224""
","
","
","""event"",""trial"",""time""
""fullscreenenter"",""1"",""2224""
","
","","8051.384999998845","At the end of the game, you will be paid bonus money based on how many tokens you win. </br> If you win more tokens, you will earn more money!","72","","instructions","2021-07-21 15:53:49.459","","","","","",""
"casino-keyboard-response","31","185561","0.0-16.0-0.9","A294","true","img/card_backs/set1/red.gif","img/card_backs/set1/yellow.gif","img/card_backs/set1/green.gif","img/card_backs/set1/purple.gif","img/card_backs/set2/blue.gif","img/card_backs/set2/gray.gif","img/card_backs/set2/orange.gif","img/card_backs/set2/pink.gif","""event"",""trial"",""time""
""fullscreenenter"",""1"",""2224""
","
","
","""event"",""trial"",""time""
""fullscreenenter"",""1"",""2224""
","
","","9942.325000069104","You will never <b> lose </b> money. </br> If you end up with fewer than 0 tokens, you will earn $0 of bonus money, but you will still be paid for playing the game.","83","","instructions","2021-07-21 15:53:59.404","","","","","",""
"casino-keyboard-response","32","190385","0.0-16.0-0.10","A294","true","img/card_backs/set1/red.gif","img/card_backs/set1/yellow.gif","img/card_backs/set1/green.gif","img/card_backs/set1/purple.gif","img/card_backs/set2/blue.gif","img/card_backs/set2/gray.gif","img/card_backs/set2/orange.gif","img/card_backs/set2/pink.gif","""event"",""trial"",""time""
""fullscreenenter"",""1"",""2224""
","
","
","""event"",""trial"",""time""
""fullscreenenter"",""1"",""2224""
","
","","4822.604999993928","You will have 10 seconds to make each choice.","82","","instructions","2021-07-21 15:54:04.229","","","","","",""
"casino-keyboard-response","33","198578","0.0-16.0-0.11","A294","true","img/card_backs/set1/red.gif","img/card_backs/set1/yellow.gif","img/card_backs/set1/green.gif","img/card_backs/set1/purple.gif","img/card_backs/set2/blue.gif","img/card_backs/set2/gray.gif","img/card_backs/set2/orange.gif","img/card_backs/set2/pink.gif","""event"",""trial"",""time""
""fullscreenenter"",""1"",""2224""
","
","
","""event"",""trial"",""time""
""fullscreenenter"",""1"",""2224""
","
","","8189.064999925904","Before you play the game for real, you will play with practice decks. </br> The tokens you earn during practice won't count toward your total.","86","","instructions","2021-07-21 15:54:12.421","","","","","",""
"casino-keyboard-response","34","206654","0.0-16.0-0.12","A294","true","img/card_backs/set1/red.gif","img/card_backs/set1/yellow.gif","img/card_backs/set1/green.gif","img/card_backs/set1/purple.gif","img/card_backs/set2/blue.gif","img/card_backs/set2/gray.gif","img/card_backs/set2/orange.gif","img/card_backs/set2/pink.gif","""event"",""trial"",""time""
""fullscreenenter"",""1"",""2224""
","
","
","""event"",""trial"",""time""
""fullscreenenter"",""1"",""2224""
","
","","8073.459999985062","Ready? Remember, use the '2', '4', '6', and '8' keys to select the decks. </br> Put your fingers on those keys now and then press '2' to begin.","50","","instructions","2021-07-21 15:54:20.497","","","","","",""
"casino-fixation","35","207156","0.0-17.0-0.0","A294","true","img/card_backs/set1/red.gif","img/card_backs/set1/yellow.gif","img/card_backs/set1/green.gif","img/card_backs/set1/purple.gif","img/card_backs/set2/blue.gif","img/card_backs/set2/gray.gif","img/card_backs/set2/orange.gif","img/card_backs/set2/pink.gif","""event"",""trial"",""time""
""fullscreenenter"",""1"",""2224""
","
","
","""event"",""trial"",""time""
""fullscreenenter"",""1"",""2224""
","
","","null","","null","","fixation","2021-07-21 15:54:21.000","","","","","",""
"card-selection-trial","36","212771","0.0-17.0-1.0","A294","true","img/card_backs/set1/red.gif","img/card_backs/set1/yellow.gif","img/card_backs/set1/green.gif","img/card_backs/set1/purple.gif","img/card_backs/set2/blue.gif","img/card_backs/set2/gray.gif","img/card_backs/set2/orange.gif","img/card_backs/set2/pink.gif","""event"",""trial"",""time""
""fullscreenenter"",""1"",""2224""
","
","
","""event"",""trial"",""time""
""fullscreenenter"",""1"",""2224""
","
","","3603.2650000415742","","","","practice","2021-07-21 15:54:26.614","img/practice_cards/backs/black.gif","3","100","0","",""
"casino-fixation","37","213275","0.0-17.0-0.1","A294","true","img/card_backs/set1/red.gif","img/card_backs/set1/yellow.gif","img/card_backs/set1/green.gif","img/card_backs/set1/purple.gif","img/card_backs/set2/blue.gif","img/card_backs/set2/gray.gif","img/card_backs/set2/orange.gif","img/card_backs/set2/pink.gif","""event"",""trial"",""time""
""fullscreenenter"",""1"",""2224""
","
","
","""event"",""trial"",""time""
""fullscreenenter"",""1"",""2224""
","
","","null","","null","","fixation","2021-07-21 15:54:27.118","","","","","",""
"card-selection-trial","38","216335","0.0-17.0-1.1","A294","true","img/card_backs/set1/red.gif","img/card_backs/set1/yellow.gif","img/card_backs/set1/green.gif","img/card_backs/set1/purple.gif","img/card_backs/set2/blue.gif","img/card_backs/set2/gray.gif","img/card_backs/set2/orange.gif","img/card_backs/set2/pink.gif","""event"",""trial"",""time""
""fullscreenenter"",""1"",""2224""
","
","
","""event"",""trial"",""time""
""fullscreenenter"",""1"",""2224""
","
","","1050.7350000552833","","","","practice","2021-07-21 15:54:30.178","img/practice_cards/backs/black.gif","3","100","0","",""
"casino-fixation","39","216840","0.0-17.0-0.2","A294","true","img/card_backs/set1/red.gif","img/card_backs/set1/yellow.gif","img/card_backs/set1/green.gif","img/card_backs/set1/purple.gif","img/card_backs/set2/blue.gif","img/card_backs/set2/gray.gif","img/card_backs/set2/orange.gif","img/card_backs/set2/pink.gif","""event"",""trial"",""time""
""fullscreenenter"",""1"",""2224""
","
","
","""event"",""trial"",""time""
""fullscreenenter"",""1"",""2224""
","
","","null","","null","","fixation","2021-07-21 15:54:30.683","","","","","",""
"card-selection-trial","40","219813","0.0-17.0-1.2","A294","true","img/card_backs/set1/red.gif","img/card_backs/set1/yellow.gif","img/card_backs/set1/green.gif","img/card_backs/set1/purple.gif","img/card_backs/set2/blue.gif","img/card_backs/set2/gray.gif","img/card_backs/set2/orange.gif","img/card_backs/set2/pink.gif","""event"",""trial"",""time""
""fullscreenenter"",""1"",""2224""
","
","
","""event"",""trial"",""time""
""fullscreenenter"",""1"",""2224""
","
","","965.0250000413507","","","","practice","2021-07-21 15:54:33.656","img/practice_cards/backs/black.gif","0","100","0","",""
"casino-fixation","41","220318","0.0-17.0-0.3","A294","true","img/card_backs/set1/red.gif","img/card_backs/set1/yellow.gif","img/card_backs/set1/green.gif","img/card_backs/set1/purple.gif","img/card_backs/set2/blue.gif","img/card_backs/set2/gray.gif","img/card_backs/set2/orange.gif","img/card_backs/set2/pink.gif","""event"",""trial"",""time""
""fullscreenenter"",""1"",""2224""
","
","
","""event"",""trial"",""time""
""fullscreenenter"",""1"",""2224""
","
","","null","","null","","fixation","2021-07-21 15:54:34.161","","","","","",""
"card-selection-trial","42","223451","0.0-17.0-1.3","A294","true","img/card_backs/set1/red.gif","img/card_backs/set1/yellow.gif","img/card_backs/set1/green.gif","img/card_backs/set1/purple.gif","img/card_backs/set2/blue.gif","img/card_backs/set2/gray.gif","img/card_backs/set2/orange.gif","img/card_backs/set2/pink.gif","""event"",""trial"",""time""
""fullscreenenter"",""1"",""2224""
","
","
","""event"",""trial"",""time""
""fullscreenenter"",""1"",""2224""
","
","","1124.5549999875948","","","","practice","2021-07-21 15:54:37.294","img/practice_cards/backs/black.gif","2","100","0","",""
"casino-fixation","43","223953","0.0-17.0-0.4","A294","true","img/card_backs/set1/red.gif","img/card_backs/set1/yellow.gif","img/card_backs/set1/green.gif","img/card_backs/set1/purple.gif","img/card_backs/set2/blue.gif","img/card_backs/set2/gray.gif","img/card_backs/set2/orange.gif","img/card_backs/set2/pink.gif","""event"",""trial"",""time""
""fullscreenenter"",""1"",""2224""
","
","
","""event"",""trial"",""time""
""fullscreenenter"",""1"",""2224""
","
","","null","","null","","fixation","2021-07-21 15:54:37.796","","","","","",""
"card-selection-trial","44","228196","0.0-17.0-1.4","A294","true","img/card_backs/set1/red.gif","img/card_backs/set1/yellow.gif","img/card_backs/set1/green.gif","img/card_backs/set1/purple.gif","img/card_backs/set2/blue.gif","img/card_backs/set2/gray.gif","img/card_backs/set2/orange.gif","img/card_backs/set2/pink.gif","""event"",""trial"",""time""
""fullscreenenter"",""1"",""2224""
","
","
","""event"",""trial"",""time""
""fullscreenenter"",""1"",""2224""
","
","","2231.744999997318","","","","practice","2021-07-21 15:54:42.039","img/practice_cards/backs/dark_blue.gif","1","-200","0","",""
"casino-fixation","45","228700","0.0-17.0-0.5","A294","true","img/card_backs/set1/red.gif","img/card_backs/set1/yellow.gif","img/card_backs/set1/green.gif","img/card_backs/set1/purple.gif","img/card_backs/set2/blue.gif","img/card_backs/set2/gray.gif","img/card_backs/set2/orange.gif","img/card_backs/set2/pink.gif","""event"",""trial"",""time""
""fullscreenenter"",""1"",""2224""
","
","
","""event"",""trial"",""time""
""fullscreenenter"",""1"",""2224""
","
","","null","","null","","fixation","2021-07-21 15:54:42.543","","","","","",""
"card-selection-trial","46","231743","0.0-17.0-1.5","A294","true","img/card_backs/set1/red.gif","img/card_backs/set1/yellow.gif","img/card_backs/set1/green.gif","img/card_backs/set1/purple.gif","img/card_backs/set2/blue.gif","img/card_backs/set2/gray.gif","img/card_backs/set2/orange.gif","img/card_backs/set2/pink.gif","""event"",""trial"",""time""
""fullscreenenter"",""1"",""2224""
","
","
","""event"",""trial"",""time""
""fullscreenenter"",""1"",""2224""
","
","","1032.245000009425","","","","practice","2021-07-21 15:54:45.586","img/practice_cards/backs/dark_blue.gif","2","200","0","",""
"casino-fixation","47","232248","0.0-17.0-0.6","A294","true","img/card_backs/set1/red.gif","img/card_backs/set1/yellow.gif","img/card_backs/set1/green.gif","img/card_backs/set1/purple.gif","img/card_backs/set2/blue.gif","img/card_backs/set2/gray.gif","img/card_backs/set2/orange.gif","img/card_backs/set2/pink.gif","""event"",""trial"",""time""
""fullscreenenter"",""1"",""2224""
","
","
","""event"",""trial"",""time""
""fullscreenenter"",""1"",""2224""
","
","","null","","null","","fixation","2021-07-21 15:54:46.091","","","","","",""
"card-selection-trial","48","235158","0.0-17.0-1.6","A294","true","img/card_backs/set1/red.gif","img/card_backs/set1/yellow.gif","img/card_backs/set1/green.gif","img/card_backs/set1/purple.gif","img/card_backs/set2/blue.gif","img/card_backs/set2/gray.gif","img/card_backs/set2/orange.gif","img/card_backs/set2/pink.gif","""event"",""trial"",""time""
""fullscreenenter"",""1"",""2224""
","
","
","""event"",""trial"",""time""
""fullscreenenter"",""1"",""2224""
","
","","903.4799999790266","","","","practice","2021-07-21 15:54:49.001","img/practice_cards/backs/dark_blue.gif","3","-200","0","",""
"casino-fixation","49","235662","0.0-17.0-0.7","A294","true","img/card_backs/set1/red.gif","img/card_backs/set1/yellow.gif","img/card_backs/set1/green.gif","img/card_backs/set1/purple.gif","img/card_backs/set2/blue.gif","img/card_backs/set2/gray.gif","img/card_backs/set2/orange.gif","img/card_backs/set2/pink.gif","""event"",""trial"",""time""
""fullscreenenter"",""1"",""2224""
","
","
","""event"",""trial"",""time""
""fullscreenenter"",""1"",""2224""
","
","","null","","null","","fixation","2021-07-21 15:54:49.505","","","","","",""
"card-selection-trial","50","238693","0.0-17.0-1.7","A294","true","img/card_backs/set1/red.gif","img/card_backs/set1/yellow.gif","img/card_backs/set1/green.gif","img/card_backs/set1/purple.gif","img/card_backs/set2/blue.gif","img/card_backs/set2/gray.gif","img/card_backs/set2/orange.gif","img/card_backs/set2/pink.gif","""event"",""trial"",""time""
""fullscreenenter"",""1"",""2224""
","
","
","""event"",""trial"",""time""
""fullscreenenter"",""1"",""2224""
","
","","1023.9399999845773","","","","practice","2021-07-21 15:54:52.536","img/practice_cards/backs/dark_blue.gif","1","200","0","",""
"casino-fixation","51","239198","0.0-17.0-0.8","A294","true","img/card_backs/set1/red.gif","img/card_backs/set1/yellow.gif","img/card_backs/set1/green.gif","img/card_backs/set1/purple.gif","img/card_backs/set2/blue.gif","img/card_backs/set2/gray.gif","img/card_backs/set2/orange.gif","img/card_backs/set2/pink.gif","""event"",""trial"",""time""
""fullscreenenter"",""1"",""2224""
","
","
","""event"",""trial"",""time""
""fullscreenenter"",""1"",""2224""
","
","","null","","null","","fixation","2021-07-21 15:54:53.041","","","","","",""
"card-selection-trial","52","247401","0.0-17.0-1.8","A294","true","img/card_backs/set1/red.gif","img/card_backs/set1/yellow.gif","img/card_backs/set1/green.gif","img/card_backs/set1/purple.gif","img/card_backs/set2/blue.gif","img/card_backs/set2/gray.gif","img/card_backs/set2/orange.gif","img/card_backs/set2/pink.gif","""event"",""trial"",""time""
""fullscreenenter"",""1"",""2224""
","
","
","""event"",""trial"",""time""
""fullscreenenter"",""1"",""2224""
","
","","6192.8599999519065","","","","practice","2021-07-21 15:55:01.244","img/practice_cards/backs/dark_green.gif","0","200","0","",""
"casino-fixation","53","247906","0.0-17.0-0.9","A294","true","img/card_backs/set1/red.gif","img/card_backs/set1/yellow.gif","img/card_backs/set1/green.gif","img/card_backs/set1/purple.gif","img/card_backs/set2/blue.gif","img/card_backs/set2/gray.gif","img/card_backs/set2/orange.gif","img/card_backs/set2/pink.gif","""event"",""trial"",""time""
""fullscreenenter"",""1"",""2224""
","
","
","""event"",""trial"",""time""
""fullscreenenter"",""1"",""2224""
","
","","null","","null","","fixation","2021-07-21 15:55:01.749","","","","","",""
"card-selection-trial","54","250664","0.0-17.0-1.9","A294","true","img/card_backs/set1/red.gif","img/card_backs/set1/yellow.gif","img/card_backs/set1/green.gif","img/card_backs/set1/purple.gif","img/card_backs/set2/blue.gif","img/card_backs/set2/gray.gif","img/card_backs/set2/orange.gif","img/card_backs/set2/pink.gif","""event"",""trial"",""time""
""fullscreenenter"",""1"",""2224""
","
","
","""event"",""trial"",""time""
""fullscreenenter"",""1"",""2224""
","
","","753.8649999769405","","","","practice","2021-07-21 15:55:04.508","img/practice_cards/backs/dark_green.gif","1","200","0","",""
"casino-keyboard-response","55","253768","0.0-18.0","A294","true","img/card_backs/set1/red.gif","img/card_backs/set1/yellow.gif","img/card_backs/set1/green.gif","img/card_backs/set1/purple.gif","img/card_backs/set2/blue.gif","img/card_backs/set2/gray.gif","img/card_backs/set2/orange.gif","img/card_backs/set2/pink.gif","""event"",""trial"",""time""
""fullscreenenter"",""1"",""2224""
","
","
","""event"",""trial"",""time""
""fullscreenenter"",""1"",""2224""
","
","","3101.7749999882653","You earned 800 tokens during the practice round!","82","","","2021-07-21 15:55:07.611","","","","","",""
"casino-keyboard-response","56","258700","0.0-19.0-0.0","A294","true","img/card_backs/set1/red.gif","img/card_backs/set1/yellow.gif","img/card_backs/set1/green.gif","img/card_backs/set1/purple.gif","img/card_backs/set2/blue.gif","img/card_backs/set2/gray.gif","img/card_backs/set2/orange.gif","img/card_backs/set2/pink.gif","""event"",""trial"",""time""
""fullscreenenter"",""1"",""2224""
","
","
","""event"",""trial"",""time""
""fullscreenenter"",""1"",""2224""
","
","","4929.520000005141","Nice job! You are almost ready to play the real game.","86","","instructions","2021-07-21 15:55:12.543","","","","","",""
"casino-keyboard-response","57","268482","0.0-19.0-0.1","A294","true","img/card_backs/set1/red.gif","img/card_backs/set1/yellow.gif","img/card_backs/set1/green.gif","img/card_backs/set1/purple.gif","img/card_backs/set2/blue.gif","img/card_backs/set2/gray.gif","img/card_backs/set2/orange.gif","img/card_backs/set2/pink.gif","""event"",""trial"",""time""
""fullscreenenter"",""1"",""2224""
","
","
","""event"",""trial"",""time""
""fullscreenenter"",""1"",""2224""
","
","","9779.17500003241","You will play two rounds of the real game. In each round, you will pick 100 cards in total.","73","","instructions","2021-07-21 15:55:22.325","","","","","",""
"casino-keyboard-response","58","272514","0.0-19.0-0.2","A294","true","img/card_backs/set1/red.gif","img/card_backs/set1/yellow.gif","img/card_backs/set1/green.gif","img/card_backs/set1/purple.gif","img/card_backs/set2/blue.gif","img/card_backs/set2/gray.gif","img/card_backs/set2/orange.gif","img/card_backs/set2/pink.gif","""event"",""trial"",""time""
""fullscreenenter"",""1"",""2224""
","
","
","""event"",""trial"",""time""
""fullscreenenter"",""1"",""2224""
","
","","4030.1249999320135","We are now going to ask you some questions about how the game works.","66","","instructions","2021-07-21 15:55:26.357","","","","","",""
"casino-keyboard-response","59","278961","0.0-19.0-0.3","A294","true","img/card_backs/set1/red.gif","img/card_backs/set1/yellow.gif","img/card_backs/set1/green.gif","img/card_backs/set1/purple.gif","img/card_backs/set2/blue.gif","img/card_backs/set2/gray.gif","img/card_backs/set2/orange.gif","img/card_backs/set2/pink.gif","""event"",""trial"",""time""
""fullscreenenter"",""1"",""2224""
","
","
","""event"",""trial"",""time""
""fullscreenenter"",""1"",""2224""
","
","","6445.500000030734","Answer carefully. You will not be able to begin the game until you answer them correctly.","67","","instructions","2021-07-21 15:55:32.804","","","","","",""
"casino-comp_q","60","287060","0.0-20.0-0.0","A294","true","img/card_backs/set1/red.gif","img/card_backs/set1/yellow.gif","img/card_backs/set1/green.gif","img/card_backs/set1/purple.gif","img/card_backs/set2/blue.gif","img/card_backs/set2/gray.gif","img/card_backs/set2/orange.gif","img/card_backs/set2/pink.gif","""event"",""trial"",""time""
""fullscreenenter"",""1"",""2224""
","
","
","""event"",""trial"",""time""
""fullscreenenter"",""1"",""2224""
","
","","8096.239999984391","True or False: All the decks have some cards that cause you to win tokens and some cards that cause you to lose tokens.","84","","","2021-07-21 15:55:40.904","","","","","",""
"casino-keyboard-response","61","291375","0.0-20.0-1.0","A294","true","img/card_backs/set1/red.gif","img/card_backs/set1/yellow.gif","img/card_backs/set1/green.gif","img/card_backs/set1/purple.gif","img/card_backs/set2/blue.gif","img/card_backs/set2/gray.gif","img/card_backs/set2/orange.gif","img/card_backs/set2/pink.gif","""event"",""trial"",""time""
""fullscreenenter"",""1"",""2224""
","
","
","""event"",""trial"",""time""
""fullscreenenter"",""1"",""2224""
","
","","4312.154999934137","True is correct! All the decks have a mix of winning and losing cards.","77","","","2021-07-21 15:55:45.218","","","","","true",""
"casino-comp_q","62","294604","0.0-21.0-0.0","A294","true","img/card_backs/set1/red.gif","img/card_backs/set1/yellow.gif","img/card_backs/set1/green.gif","img/card_backs/set1/purple.gif","img/card_backs/set2/blue.gif","img/card_backs/set2/gray.gif","img/card_backs/set2/orange.gif","img/card_backs/set2/pink.gif","""event"",""trial"",""time""
""fullscreenenter"",""1"",""2224""
","
","
","""event"",""trial"",""time""
""fullscreenenter"",""1"",""2224""
","
","","3226.7750001046807","True or False: You will have as much time as you want to make your response.","70","","","2021-07-21 15:55:48.448","","","","","",""
"casino-keyboard-response","63","297128","0.0-21.0-1.0","A294","true","img/card_backs/set1/red.gif","img/card_backs/set1/yellow.gif","img/card_backs/set1/green.gif","img/card_backs/set1/purple.gif","img/card_backs/set2/blue.gif","img/card_backs/set2/gray.gif","img/card_backs/set2/orange.gif","img/card_backs/set2/pink.gif","""event"",""trial"",""time""
""fullscreenenter"",""1"",""2224""
","
","
","""event"",""trial"",""time""
""fullscreenenter"",""1"",""2224""
","
","","2520.0700000859797","False is correct! You will only have 10 seconds to make each choice.","75","","","2021-07-21 15:55:50.971","","","","","true",""
"casino-comp_q","64","300394","0.0-22.0-0.0","A294","true","img/card_backs/set1/red.gif","img/card_backs/set1/yellow.gif","img/card_backs/set1/green.gif","img/card_backs/set1/purple.gif","img/card_backs/set2/blue.gif","img/card_backs/set2/gray.gif","img/card_backs/set2/orange.gif","img/card_backs/set2/pink.gif","""event"",""trial"",""time""
""fullscreenenter"",""1"",""2224""
","
","
","""event"",""trial"",""time""
""fullscreenenter"",""1"",""2224""
","
","","3263.2400000002235","True or False: The location of the deck determines how lucky it is.","70","","","2021-07-21 15:55:54.237","","","","","",""
"casino-keyboard-response","65","303073","0.0-22.0-1.0","A294","true","img/card_backs/set1/red.gif","img/card_backs/set1/yellow.gif","img/card_backs/set1/green.gif","img/card_backs/set1/purple.gif","img/card_backs/set2/blue.gif","img/card_backs/set2/gray.gif","img/card_backs/set2/orange.gif","img/card_backs/set2/pink.gif","""event"",""trial"",""time""
""fullscreenenter"",""1"",""2224""
","
","
","""event"",""trial"",""time""
""fullscreenenter"",""1"",""2224""
","
","","2677.750000031665","False is correct! The <i>color</i>  of the deck determines how lucky or unlucky it is.","68","","","2021-07-21 15:55:56.916","","","","","true",""
"casino-keyboard-response","66","340217","0.0-23.0-0.0","A294","true","img/card_backs/set1/red.gif","img/card_backs/set1/yellow.gif","img/card_backs/set1/green.gif","img/card_backs/set1/purple.gif","img/card_backs/set2/blue.gif","img/card_backs/set2/gray.gif","img/card_backs/set2/orange.gif","img/card_backs/set2/pink.gif","""event"",""trial"",""time""
""fullscreenenter"",""1"",""2224""
","
","
","""event"",""trial"",""time""
""fullscreenenter"",""1"",""2224""
","
","","37138.85999994818","Great job! Now it's time to start the real game.","82","","instructions","2021-07-21 15:56:34.060","","","","","",""
"casino-keyboard-response","67","345100","0.0-23.0-0.1","A294","true","img/card_backs/set1/red.gif","img/card_backs/set1/yellow.gif","img/card_backs/set1/green.gif","img/card_backs/set1/purple.gif","img/card_backs/set2/blue.gif","img/card_backs/set2/gray.gif","img/card_backs/set2/orange.gif","img/card_backs/set2/pink.gif","""event"",""trial"",""time""
""fullscreenenter"",""1"",""2224""
","
","
","""event"",""trial"",""time""
""fullscreenenter"",""1"",""2224""
","
","","4880.690000019968","Before we start, we're going to head into a new room of the casino.","86","","instructions","2021-07-21 15:56:38.943","","","","","",""
"casino-keyboard-response","68","351670","0.0-24.0-0.0","A294","true","img/card_backs/set1/red.gif","img/card_backs/set1/yellow.gif","img/card_backs/set1/green.gif","img/card_backs/set1/purple.gif","img/card_backs/set2/blue.gif","img/card_backs/set2/gray.gif","img/card_backs/set2/orange.gif","img/card_backs/set2/pink.gif","""event"",""trial"",""time""
""fullscreenenter"",""1"",""2224""
","
","
","""event"",""trial"",""time""
""fullscreenenter"",""1"",""2224""
","
","","6568.644999992102","Here we are! The real game will use different cards, but the rules will be the same.","71","","instructions","2021-07-21 15:56:45.513","","","","","",""
"casino-keyboard-response","69","355728","0.0-24.0-0.1","A294","true","img/card_backs/set1/red.gif","img/card_backs/set1/yellow.gif","img/card_backs/set1/green.gif","img/card_backs/set1/purple.gif","img/card_backs/set2/blue.gif","img/card_backs/set2/gray.gif","img/card_backs/set2/orange.gif","img/card_backs/set2/pink.gif","""event"",""trial"",""time""
""fullscreenenter"",""1"",""2224""
","
","
","""event"",""trial"",""time""
""fullscreenenter"",""1"",""2224""
","
","","4056.9249999243766","Ready? Put your fingers over the '2', '4', 6', and '8' keys so you are ready to play the game. </br> Then press 2 to start.","50","","instructions","2021-07-21 15:56:49.571","","","","","",""
"casino-fixation","70","356232","0.0-25.0-0.0","A294","true","img/card_backs/set1/red.gif","img/card_backs/set1/yellow.gif","img/card_backs/set1/green.gif","img/card_backs/set1/purple.gif","img/card_backs/set2/blue.gif","img/card_backs/set2/gray.gif","img/card_backs/set2/orange.gif","img/card_backs/set2/pink.gif","""event"",""trial"",""time""
""fullscreenenter"",""1"",""2224""
","
","
","""event"",""trial"",""time""
""fullscreenenter"",""1"",""2224""
","
","","null","","null","","fixation","2021-07-21 15:56:50.075","","","","","",""
"card-selection-trial","71","359971","0.0-25.0-1.0","A294","true","img/card_backs/set1/red.gif","img/card_backs/set1/yellow.gif","img/card_backs/set1/green.gif","img/card_backs/set1/purple.gif","img/card_backs/set2/blue.gif","img/card_backs/set2/gray.gif","img/card_backs/set2/orange.gif","img/card_backs/set2/pink.gif","""event"",""trial"",""time""
""fullscreenenter"",""1"",""2224""
","
","
","""event"",""trial"",""time""
""fullscreenenter"",""1"",""2224""
","
","","1732.6299999840558","","","","real_trial","2021-07-21 15:56:53.814","img/card_backs/set1/green.gif","0","60","1","",""
"casino-fixation","72","360476","0.0-25.0-0.1","A294","true","img/card_backs/set1/red.gif","img/card_backs/set1/yellow.gif","img/card_backs/set1/green.gif","img/card_backs/set1/purple.gif","img/card_backs/set2/blue.gif","img/card_backs/set2/gray.gif","img/card_backs/set2/orange.gif","img/card_backs/set2/pink.gif","""event"",""trial"",""time""
""fullscreenenter"",""1"",""2224""
","
","
","""event"",""trial"",""time""
""fullscreenenter"",""1"",""2224""
","
","","null","","null","","fixation","2021-07-21 15:56:54.319","","","","","",""
"card-selection-trial","73","363246","0.0-25.0-1.1","A294","true","img/card_backs/set1/red.gif","img/card_backs/set1/yellow.gif","img/card_backs/set1/green.gif","img/card_backs/set1/purple.gif","img/card_backs/set2/blue.gif","img/card_backs/set2/gray.gif","img/card_backs/set2/orange.gif","img/card_backs/set2/pink.gif","""event"",""trial"",""time""
""fullscreenenter"",""1"",""2224""
","
","
","""event"",""trial"",""time""
""fullscreenenter"",""1"",""2224""
","
","","759.0450000716373","","","","real_trial","2021-07-21 15:56:57.089","img/card_backs/set1/green.gif","1","-100","1","",""
"casino-fixation","74","363750","0.0-25.0-0.2","A294","true","img/card_backs/set1/red.gif","img/card_backs/set1/yellow.gif","img/card_backs/set1/green.gif","img/card_backs/set1/purple.gif","img/card_backs/set2/blue.gif","img/card_backs/set2/gray.gif","img/card_backs/set2/orange.gif","img/card_backs/set2/pink.gif","""event"",""trial"",""time""
""fullscreenenter"",""1"",""2224""
","
","
","""event"",""trial"",""time""
""fullscreenenter"",""1"",""2224""
","
","","null","","null","","fixation","2021-07-21 15:56:57.594","","","","","",""
"card-selection-trial","75","366444","0.0-25.0-1.2","A294","true","img/card_backs/set1/red.gif","img/card_backs/set1/yellow.gif","img/card_backs/set1/green.gif","img/card_backs/set1/purple.gif","img/card_backs/set2/blue.gif","img/card_backs/set2/gray.gif","img/card_backs/set2/orange.gif","img/card_backs/set2/pink.gif","""event"",""trial"",""time""
""fullscreenenter"",""1"",""2224""
","
","
","""event"",""trial"",""time""
""fullscreenenter"",""1"",""2224""
","
","","689.005000051111","","","","real_trial","2021-07-21 15:57:00.288","img/card_backs/set1/green.gif","1","-100","1","",""
"casino-fixation","76","366949","0.0-25.0-0.3","A294","true","img/card_backs/set1/red.gif","img/card_backs/set1/yellow.gif","img/card_backs/set1/green.gif","img/card_backs/set1/purple.gif","img/card_backs/set2/blue.gif","img/card_backs/set2/gray.gif","img/card_backs/set2/orange.gif","img/card_backs/set2/pink.gif","""event"",""trial"",""time""
""fullscreenenter"",""1"",""2224""
","
","
","""event"",""trial"",""time""
""fullscreenenter"",""1"",""2224""
","
","","null","","null","","fixation","2021-07-21 15:57:00.792","","","","","",""
"card-selection-trial","77","369667","0.0-25.0-1.3","A294","true","img/card_backs/set1/red.gif","img/card_backs/set1/yellow.gif","img/card_backs/set1/green.gif","img/card_backs/set1/purple.gif","img/card_backs/set2/blue.gif","img/card_backs/set2/gray.gif","img/card_backs/set2/orange.gif","img/card_backs/set2/pink.gif","""event"",""trial"",""time""
""fullscreenenter"",""1"",""2224""
","
","
","""event"",""trial"",""time""
""fullscreenenter"",""1"",""2224""
","
","","709.499999997206","","","","real_trial","2021-07-21 15:57:03.510","img/card_backs/set1/green.gif","0","40","1","",""
"casino-fixation","78","370171","0.0-25.0-0.4","A294","true","img/card_backs/set1/red.gif","img/card_backs/set1/yellow.gif","img/card_backs/set1/green.gif","img/card_backs/set1/purple.gif","img/card_backs/set2/blue.gif","img/card_backs/set2/gray.gif","img/card_backs/set2/orange.gif","img/card_backs/set2/pink.gif","""event"",""trial"",""time""
""fullscreenenter"",""1"",""2224""
","
","
","""event"",""trial"",""time""
""fullscreenenter"",""1"",""2224""
","
","","null","","null","","fixation","2021-07-21 15:57:04.015","","","","","",""
"card-selection-trial","79","375043","0.0-25.0-1.4","A294","true","img/card_backs/set1/red.gif","img/card_backs/set1/yellow.gif","img/card_backs/set1/green.gif","img/card_backs/set1/purple.gif","img/card_backs/set2/blue.gif","img/card_backs/set2/gray.gif","img/card_backs/set2/orange.gif","img/card_backs/set2/pink.gif","""event"",""trial"",""time""
""fullscreenenter"",""1"",""2224""
","
","
","""event"",""trial"",""time""
""fullscreenenter"",""1"",""2224""
","
","","2862.405000021681","","","","real_trial","2021-07-21 15:57:08.886","img/card_backs/set1/purple.gif","2","60","1","",""
"casino-fixation","80","375547","0.0-25.0-0.5","A294","true","img/card_backs/set1/red.gif","img/card_backs/set1/yellow.gif","img/card_backs/set1/green.gif","img/card_backs/set1/purple.gif","img/card_backs/set2/blue.gif","img/card_backs/set2/gray.gif","img/card_backs/set2/orange.gif","img/card_backs/set2/pink.gif","""event"",""trial"",""time""
""fullscreenenter"",""1"",""2224""
","
","
","""event"",""trial"",""time""
""fullscreenenter"",""1"",""2224""
","
","","null","","null","","fixation","2021-07-21 15:57:09.390","","","","","",""
"card-selection-trial","81","378267","0.0-25.0-1.5","A294","true","img/card_backs/set1/red.gif","img/card_backs/set1/yellow.gif","img/card_backs/set1/green.gif","img/card_backs/set1/purple.gif","img/card_backs/set2/blue.gif","img/card_backs/set2/gray.gif","img/card_backs/set2/orange.gif","img/card_backs/set2/pink.gif","""event"",""trial"",""time""
""fullscreenenter"",""1"",""2224""
","
","
","""event"",""trial"",""time""
""fullscreenenter"",""1"",""2224""
","
","","713.6800000444055","","","","real_trial","2021-07-21 15:57:12.110","img/card_backs/set1/purple.gif","0","-110","1","",""
"casino-fixation","82","378769","0.0-25.0-0.6","A294","true","img/card_backs/set1/red.gif","img/card_backs/set1/yellow.gif","img/card_backs/set1/green.gif","img/card_backs/set1/purple.gif","img/card_backs/set2/blue.gif","img/card_backs/set2/gray.gif","img/card_backs/set2/orange.gif","img/card_backs/set2/pink.gif","""event"",""trial"",""time""
""fullscreenenter"",""1"",""2224""
","
","
","""event"",""trial"",""time""
""fullscreenenter"",""1"",""2224""
","
","","null","","null","","fixation","2021-07-21 15:57:12.613","","","","","",""
"card-selection-trial","83","382056","0.0-25.0-1.6","A294","true","img/card_backs/set1/red.gif","img/card_backs/set1/yellow.gif","img/card_backs/set1/green.gif","img/card_backs/set1/purple.gif","img/card_backs/set2/blue.gif","img/card_backs/set2/gray.gif","img/card_backs/set2/orange.gif","img/card_backs/set2/pink.gif","""event"",""trial"",""time""
""fullscreenenter"",""1"",""2224""
","
","
","""event"",""trial"",""time""
""fullscreenenter"",""1"",""2224""
","
","","1277.0000000018626","","","","real_trial","2021-07-21 15:57:15.899","img/card_backs/set1/purple.gif","1","-90","1","",""
"casino-fixation","84","382561","0.0-25.0-0.7","A294","true","img/card_backs/set1/red.gif","img/card_backs/set1/yellow.gif","img/card_backs/set1/green.gif","img/card_backs/set1/purple.gif","img/card_backs/set2/blue.gif","img/card_backs/set2/gray.gif","img/card_backs/set2/orange.gif","img/card_backs/set2/pink.gif","""event"",""trial"",""time""
""fullscreenenter"",""1"",""2224""
","
","
","""event"",""trial"",""time""
""fullscreenenter"",""1"",""2224""
","
","","null","","null","","fixation","2021-07-21 15:57:16.404","","","","","",""
"card-selection-trial","85","385784","0.0-25.0-1.7","A294","true","img/card_backs/set1/red.gif","img/card_backs/set1/yellow.gif","img/card_backs/set1/green.gif","img/card_backs/set1/purple.gif","img/card_backs/set2/blue.gif","img/card_backs/set2/gray.gif","img/card_backs/set2/orange.gif","img/card_backs/set2/pink.gif","""event"",""trial"",""time""
""fullscreenenter"",""1"",""2224""
","
","
","""event"",""trial"",""time""
""fullscreenenter"",""1"",""2224""
","
","","1215.0249999249354","","","","real_trial","2021-07-21 15:57:19.627","img/card_backs/set1/purple.gif","0","40","1","",""
"casino-fixation","86","386288","0.0-25.0-0.8","A294","true","img/card_backs/set1/red.gif","img/card_backs/set1/yellow.gif","img/card_backs/set1/green.gif","img/card_backs/set1/purple.gif","img/card_backs/set2/blue.gif","img/card_backs/set2/gray.gif","img/card_backs/set2/orange.gif","img/card_backs/set2/pink.gif","""event"",""trial"",""time""
""fullscreenenter"",""1"",""2224""
","
","
","""event"",""trial"",""time""
""fullscreenenter"",""1"",""2224""
","
","","null","","null","","fixation","2021-07-21 15:57:20.131","","","","","",""
"card-selection-trial","87","390899","0.0-25.0-1.8","A294","true","img/card_backs/set1/red.gif","img/card_backs/set1/yellow.gif","img/card_backs/set1/green.gif","img/card_backs/set1/purple.gif","img/card_backs/set2/blue.gif","img/card_backs/set2/gray.gif","img/card_backs/set2/orange.gif","img/card_backs/set2/pink.gif","""event"",""trial"",""time""
""fullscreenenter"",""1"",""2224""
","
","
","""event"",""trial"",""time""
""fullscreenenter"",""1"",""2224""
","
","","2603.415000019595","","","","real_trial","2021-07-21 15:57:24.742","img/card_backs/set1/red.gif","2","250","1","",""
"casino-fixation","88","391404","0.0-25.0-0.9","A294","true","img/card_backs/set1/red.gif","img/card_backs/set1/yellow.gif","img/card_backs/set1/green.gif","img/card_backs/set1/purple.gif","img/card_backs/set2/blue.gif","img/card_backs/set2/gray.gif","img/card_backs/set2/orange.gif","img/card_backs/set2/pink.gif","""event"",""trial"",""time""
""fullscreenenter"",""1"",""2224""
","
","
","""event"",""trial"",""time""
""fullscreenenter"",""1"",""2224""
","
","","null","","null","","fixation","2021-07-21 15:57:25.247","","","","","",""
"card-selection-trial","89","394061","0.0-25.0-1.9","A294","true","img/card_backs/set1/red.gif","img/card_backs/set1/yellow.gif","img/card_backs/set1/green.gif","img/card_backs/set1/purple.gif","img/card_backs/set2/blue.gif","img/card_backs/set2/gray.gif","img/card_backs/set2/orange.gif","img/card_backs/set2/pink.gif","""event"",""trial"",""time""
""fullscreenenter"",""1"",""2224""
","
","
","""event"",""trial"",""time""
""fullscreenenter"",""1"",""2224""
","
","","646.8450000975281","","","","real_trial","2021-07-21 15:57:27.904","img/card_backs/set1/red.gif","0","250","1","",""
"casino-fixation","90","394566","0.0-25.0-0.10","A294","true","img/card_backs/set1/red.gif","img/card_backs/set1/yellow.gif","img/card_backs/set1/green.gif","img/card_backs/set1/purple.gif","img/card_backs/set2/blue.gif","img/card_backs/set2/gray.gif","img/card_backs/set2/orange.gif","img/card_backs/set2/pink.gif","""event"",""trial"",""time""
""fullscreenenter"",""1"",""2224""
","
","
","""event"",""trial"",""time""
""fullscreenenter"",""1"",""2224""
","
","","null","","null","","fixation","2021-07-21 15:57:28.410","","","","","",""
"card-selection-trial","91","397436","0.0-25.0-1.10","A294","true","img/card_backs/set1/red.gif","img/card_backs/set1/yellow.gif","img/card_backs/set1/green.gif","img/card_backs/set1/purple.gif","img/card_backs/set2/blue.gif","img/card_backs/set2/gray.gif","img/card_backs/set2/orange.gif","img/card_backs/set2/pink.gif","""event"",""trial"",""time""
""fullscreenenter"",""1"",""2224""
","
","
","""event"",""trial"",""time""
""fullscreenenter"",""1"",""2224""
","
","","859.4799999846146","","","","real_trial","2021-07-21 15:57:31.279","img/card_backs/set1/red.gif","1","260","1","",""
"casino-fixation","92","397939","0.0-25.0-0.11","A294","true","img/card_backs/set1/red.gif","img/card_backs/set1/yellow.gif","img/card_backs/set1/green.gif","img/card_backs/set1/purple.gif","img/card_backs/set2/blue.gif","img/card_backs/set2/gray.gif","img/card_backs/set2/orange.gif","img/card_backs/set2/pink.gif","""event"",""trial"",""time""
""fullscreenenter"",""1"",""2224""
","
","
","""event"",""trial"",""time""
""fullscreenenter"",""1"",""2224""
","
","","null","","null","","fixation","2021-07-21 15:57:31.783","","","","","",""
"card-selection-trial","93","400722","0.0-25.0-1.11","A294","true","img/card_backs/set1/red.gif","img/card_backs/set1/yellow.gif","img/card_backs/set1/green.gif","img/card_backs/set1/purple.gif","img/card_backs/set2/blue.gif","img/card_backs/set2/gray.gif","img/card_backs/set2/orange.gif","img/card_backs/set2/pink.gif","""event"",""trial"",""time""
""fullscreenenter"",""1"",""2224""
","
","
","""event"",""trial"",""time""
""fullscreenenter"",""1"",""2224""
","
","","773.7999999662861","","","","real_trial","2021-07-21 15:57:34.565","img/card_backs/set1/red.gif","1","-200","1","",""
"casino-fixation","94","401226","0.0-25.0-0.12","A294","true","img/card_backs/set1/red.gif","img/card_backs/set1/yellow.gif","img/card_backs/set1/green.gif","img/card_backs/set1/purple.gif","img/card_backs/set2/blue.gif","img/card_backs/set2/gray.gif","img/card_backs/set2/orange.gif","img/card_backs/set2/pink.gif","""event"",""trial"",""time""
""fullscreenenter"",""1"",""2224""
","
","
","""event"",""trial"",""time""
""fullscreenenter"",""1"",""2224""
","
","","null","","null","","fixation","2021-07-21 15:57:35.069","","","","","",""
"card-selection-trial","95","404339","0.0-25.0-1.12","A294","true","img/card_backs/set1/red.gif","img/card_backs/set1/yellow.gif","img/card_backs/set1/green.gif","img/card_backs/set1/purple.gif","img/card_backs/set2/blue.gif","img/card_backs/set2/gray.gif","img/card_backs/set2/orange.gif","img/card_backs/set2/pink.gif","""event"",""trial"",""time""
""fullscreenenter"",""1"",""2224""
","
","
","""event"",""trial"",""time""
""fullscreenenter"",""1"",""2224""
","
","","1103.125000023283","","","","real_trial","2021-07-21 15:57:38.182","img/card_backs/set1/yellow.gif","1","-210","1","",""
"casino-fixation","96","404844","0.0-25.0-0.13","A294","true","img/card_backs/set1/red.gif","img/card_backs/set1/yellow.gif","img/card_backs/set1/green.gif","img/card_backs/set1/purple.gif","img/card_backs/set2/blue.gif","img/card_backs/set2/gray.gif","img/card_backs/set2/orange.gif","img/card_backs/set2/pink.gif","""event"",""trial"",""time""
""fullscreenenter"",""1"",""2224""
","
","
","""event"",""trial"",""time""
""fullscreenenter"",""1"",""2224""
","
","","null","","null","","fixation","2021-07-21 15:57:38.687","","","","","",""
"card-selection-trial","97","407444","0.0-25.0-1.13","A294","true","img/card_backs/set1/red.gif","img/card_backs/set1/yellow.gif","img/card_backs/set1/green.gif","img/card_backs/set1/purple.gif","img/card_backs/set2/blue.gif","img/card_backs/set2/gray.gif","img/card_backs/set2/orange.gif","img/card_backs/set2/pink.gif","""event"",""trial"",""time""
""fullscreenenter"",""1"",""2224""
","
","
","""event"",""trial"",""time""
""fullscreenenter"",""1"",""2224""
","
","","589.5899999886751","","","","real_trial","2021-07-21 15:57:41.287","img/card_backs/set1/yellow.gif","0","240","1","",""
"casino-fixation","98","407948","0.0-25.0-0.14","A294","true","img/card_backs/set1/red.gif","img/card_backs/set1/yellow.gif","img/card_backs/set1/green.gif","img/card_backs/set1/purple.gif","img/card_backs/set2/blue.gif","img/card_backs/set2/gray.gif","img/card_backs/set2/orange.gif","img/card_backs/set2/pink.gif","""event"",""trial"",""time""
""fullscreenenter"",""1"",""2224""
","
","
","""event"",""trial"",""time""
""fullscreenenter"",""1"",""2224""
","
","","null","","null","","fixation","2021-07-21 15:57:41.792","","","","","",""
"card-selection-trial","99","410942","0.0-25.0-1.14","A294","true","img/card_backs/set1/red.gif","img/card_backs/set1/yellow.gif","img/card_backs/set1/green.gif","img/card_backs/set1/purple.gif","img/card_backs/set2/blue.gif","img/card_backs/set2/gray.gif","img/card_backs/set2/orange.gif","img/card_backs/set2/pink.gif","""event"",""trial"",""time""
""fullscreenenter"",""1"",""2224""
","
","
","""event"",""trial"",""time""
""fullscreenenter"",""1"",""2224""
","
","","982.9150000587106","","","","real_trial","2021-07-21 15:57:44.785","img/card_backs/set1/yellow.gif","3","240","1","",""
"casino-fixation","100","411445","0.0-25.0-0.15","A294","true","img/card_backs/set1/red.gif","img/card_backs/set1/yellow.gif","img/card_backs/set1/green.gif","img/card_backs/set1/purple.gif","img/card_backs/set2/blue.gif","img/card_backs/set2/gray.gif","img/card_backs/set2/orange.gif","img/card_backs/set2/pink.gif","""event"",""trial"",""time""
""fullscreenenter"",""1"",""2224""
","
","
","""event"",""trial"",""time""
""fullscreenenter"",""1"",""2224""
","
","","null","","null","","fixation","2021-07-21 15:57:45.288","","","","","",""
"card-selection-trial","101","414117","0.0-25.0-1.15","A294","true","img/card_backs/set1/red.gif","img/card_backs/set1/yellow.gif","img/card_backs/set1/green.gif","img/card_backs/set1/purple.gif","img/card_backs/set2/blue.gif","img/card_backs/set2/gray.gif","img/card_backs/set2/orange.gif","img/card_backs/set2/pink.gif","""event"",""trial"",""time""
""fullscreenenter"",""1"",""2224""
","
","
","""event"",""trial"",""time""
""fullscreenenter"",""1"",""2224""
","
","","662.735000019893","","","","real_trial","2021-07-21 15:57:47.960","img/card_backs/set1/yellow.gif","2","-200","1","",""
"casino-fixation","102","414620","0.0-25.0-0.16","A294","true","img/card_backs/set1/red.gif","img/card_backs/set1/yellow.gif","img/card_backs/set1/green.gif","img/card_backs/set1/purple.gif","img/card_backs/set2/blue.gif","img/card_backs/set2/gray.gif","img/card_backs/set2/orange.gif","img/card_backs/set2/pink.gif","""event"",""trial"",""time""
""fullscreenenter"",""1"",""2224""
","
","
","""event"",""trial"",""time""
""fullscreenenter"",""1"",""2224""
","
","","null","","null","","fixation","2021-07-21 15:57:48.464","","","","","",""
"card-selection-trial","103","420078","0.0-25.0-1.16","A294","true","img/card_backs/set1/red.gif","img/card_backs/set1/yellow.gif","img/card_backs/set1/green.gif","img/card_backs/set1/purple.gif","img/card_backs/set2/blue.gif","img/card_backs/set2/gray.gif","img/card_backs/set2/orange.gif","img/card_backs/set2/pink.gif","""event"",""trial"",""time""
""fullscreenenter"",""1"",""2224""
","
","
","""event"",""trial"",""time""
""fullscreenenter"",""1"",""2224""
","
","","3451.024999958463","","","","real_trial","2021-07-21 15:57:53.921","img/card_backs/set1/red.gif","1","240","1","",""
"casino-fixation","104","420583","0.0-25.0-0.17","A294","true","img/card_backs/set1/red.gif","img/card_backs/set1/yellow.gif","img/card_backs/set1/green.gif","img/card_backs/set1/purple.gif","img/card_backs/set2/blue.gif","img/card_backs/set2/gray.gif","img/card_backs/set2/orange.gif","img/card_backs/set2/pink.gif","""event"",""trial"",""time""
""fullscreenenter"",""1"",""2224""
","
","
","""event"",""trial"",""time""
""fullscreenenter"",""1"",""2224""
","
","","null","","null","","fixation","2021-07-21 15:57:54.426","","","","","",""
"card-selection-trial","105","423114","0.0-25.0-1.17","A294","true","img/card_backs/set1/red.gif","img/card_backs/set1/yellow.gif","img/card_backs/set1/green.gif","img/card_backs/set1/purple.gif","img/card_backs/set2/blue.gif","img/card_backs/set2/gray.gif","img/card_backs/set2/orange.gif","img/card_backs/set2/pink.gif","""event"",""trial"",""time""
""fullscreenenter"",""1"",""2224""
","
","
","""event"",""trial"",""time""
""fullscreenenter"",""1"",""2224""
","
","","525.2500000642613","","","","real_trial","2021-07-21 15:57:56.957","img/card_backs/set1/red.gif","0","-210","1","",""
"casino-fixation","106","423619","0.0-25.0-0.18","A294","true","img/card_backs/set1/red.gif","img/card_backs/set1/yellow.gif","img/card_backs/set1/green.gif","img/card_backs/set1/purple.gif","img/card_backs/set2/blue.gif","img/card_backs/set2/gray.gif","img/card_backs/set2/orange.gif","img/card_backs/set2/pink.gif","""event"",""trial"",""time""
""fullscreenenter"",""1"",""2224""
","
","
","""event"",""trial"",""time""
""fullscreenenter"",""1"",""2224""
","
","","null","","null","","fixation","2021-07-21 15:57:57.462","","","","","",""
"card-selection-trial","107","426056","0.0-25.0-1.18","A294","true","img/card_backs/set1/red.gif","img/card_backs/set1/yellow.gif","img/card_backs/set1/green.gif","img/card_backs/set1/purple.gif","img/card_backs/set2/blue.gif","img/card_backs/set2/gray.gif","img/card_backs/set2/orange.gif","img/card_backs/set2/pink.gif","""event"",""trial"",""time""
""fullscreenenter"",""1"",""2224""
","
","
","""event"",""trial"",""time""
""fullscreenenter"",""1"",""2224""
","
","","428.1150000169873","","","","real_trial","2021-07-21 15:57:59.899","img/card_backs/set1/red.gif","1","-210","1","",""
"casino-fixation","108","426561","0.0-25.0-0.19","A294","true","img/card_backs/set1/red.gif","img/card_backs/set1/yellow.gif","img/card_backs/set1/green.gif","img/card_backs/set1/purple.gif","img/card_backs/set2/blue.gif","img/card_backs/set2/gray.gif","img/card_backs/set2/orange.gif","img/card_backs/set2/pink.gif","""event"",""trial"",""time""
""fullscreenenter"",""1"",""2224""
","
","
","""event"",""trial"",""time""
""fullscreenenter"",""1"",""2224""
","
","","null","","null","","fixation","2021-07-21 15:58:00.404","","","","","",""
"card-selection-trial","109","429262","0.0-25.0-1.19","A294","true","img/card_backs/set1/red.gif","img/card_backs/set1/yellow.gif","img/card_backs/set1/green.gif","img/card_backs/set1/purple.gif","img/card_backs/set2/blue.gif","img/card_backs/set2/gray.gif","img/card_backs/set2/orange.gif","img/card_backs/set2/pink.gif","""event"",""trial"",""time""
""fullscreenenter"",""1"",""2224""
","
","
","""event"",""trial"",""time""
""fullscreenenter"",""1"",""2224""
","
","","689.9700000649318","","","","real_trial","2021-07-21 15:58:03.105","img/card_backs/set1/red.gif","2","260","1","",""
"casino-fixation","110","429767","0.0-25.0-0.20","A294","true","img/card_backs/set1/red.gif","img/card_backs/set1/yellow.gif","img/card_backs/set1/green.gif","img/card_backs/set1/purple.gif","img/card_backs/set2/blue.gif","img/card_backs/set2/gray.gif","img/card_backs/set2/orange.gif","img/card_backs/set2/pink.gif","""event"",""trial"",""time""
""fullscreenenter"",""1"",""2224""
","
","
","""event"",""trial"",""time""
""fullscreenenter"",""1"",""2224""
","
","","null","","null","","fixation","2021-07-21 15:58:03.610","","","","","",""
"card-selection-trial","111","432461","0.0-25.0-1.20","A294","true","img/card_backs/set1/red.gif","img/card_backs/set1/yellow.gif","img/card_backs/set1/green.gif","img/card_backs/set1/purple.gif","img/card_backs/set2/blue.gif","img/card_backs/set2/gray.gif","img/card_backs/set2/orange.gif","img/card_backs/set2/pink.gif","""event"",""trial"",""time""
""fullscreenenter"",""1"",""2224""
","
","
","""event"",""trial"",""time""
""fullscreenenter"",""1"",""2224""
","
","","684.6300000324845","","","","real_trial","2021-07-21 15:58:06.304","img/card_backs/set1/red.gif","1","-210","1","",""
"casino-fixation","112","432966","0.0-25.0-0.21","A294","true","img/card_backs/set1/red.gif","img/card_backs/set1/yellow.gif","img/card_backs/set1/green.gif","img/card_backs/set1/purple.gif","img/card_backs/set2/blue.gif","img/card_backs/set2/gray.gif","img/card_backs/set2/orange.gif","img/card_backs/set2/pink.gif","""event"",""trial"",""time""
""fullscreenenter"",""1"",""2224""
","
","
","""event"",""trial"",""time""
""fullscreenenter"",""1"",""2224""
","
","","null","","null","","fixation","2021-07-21 15:58:06.809","","","","","",""
"card-selection-trial","113","435492","0.0-25.0-1.21","A294","true","img/card_backs/set1/red.gif","img/card_backs/set1/yellow.gif","img/card_backs/set1/green.gif","img/card_backs/set1/purple.gif","img/card_backs/set2/blue.gif","img/card_backs/set2/gray.gif","img/card_backs/set2/orange.gif","img/card_backs/set2/pink.gif","""event"",""trial"",""time""
""fullscreenenter"",""1"",""2224""
","
","
","""event"",""trial"",""time""
""fullscreenenter"",""1"",""2224""
","
","","519.4499999051914","","","","real_trial","2021-07-21 15:58:09.335","img/card_backs/set1/red.gif","2","240","1","",""
"casino-fixation","114","435996","0.0-25.0-0.22","A294","true","img/card_backs/set1/red.gif","img/card_backs/set1/yellow.gif","img/card_backs/set1/green.gif","img/card_backs/set1/purple.gif","img/card_backs/set2/blue.gif","img/card_backs/set2/gray.gif","img/card_backs/set2/orange.gif","img/card_backs/set2/pink.gif","""event"",""trial"",""time""
""fullscreenenter"",""1"",""2224""
","
","
","""event"",""trial"",""time""
""fullscreenenter"",""1"",""2224""
","
","","null","","null","","fixation","2021-07-21 15:58:09.839","","","","","",""
"card-selection-trial","115","438621","0.0-25.0-1.22","A294","true","img/card_backs/set1/red.gif","img/card_backs/set1/yellow.gif","img/card_backs/set1/green.gif","img/card_backs/set1/purple.gif","img/card_backs/set2/blue.gif","img/card_backs/set2/gray.gif","img/card_backs/set2/orange.gif","img/card_backs/set2/pink.gif","""event"",""trial"",""time""
""fullscreenenter"",""1"",""2224""
","
","
","""event"",""trial"",""time""
""fullscreenenter"",""1"",""2224""
","
","","615.6600000103936","","","","real_trial","2021-07-21 15:58:12.464","img/card_backs/set1/red.gif","3","250","1","",""
"casino-fixation","116","439126","0.0-25.0-0.23","A294","true","img/card_backs/set1/red.gif","img/card_backs/set1/yellow.gif","img/card_backs/set1/green.gif","img/card_backs/set1/purple.gif","img/card_backs/set2/blue.gif","img/card_backs/set2/gray.gif","img/card_backs/set2/orange.gif","img/card_backs/set2/pink.gif","""event"",""trial"",""time""
""fullscreenenter"",""1"",""2224""
","
","
","""event"",""trial"",""time""
""fullscreenenter"",""1"",""2224""
","
","","null","","null","","fixation","2021-07-21 15:58:12.969","","","","","",""
"card-selection-trial","117","441634","0.0-25.0-1.23","A294","true","img/card_backs/set1/red.gif","img/card_backs/set1/yellow.gif","img/card_backs/set1/green.gif","img/card_backs/set1/purple.gif","img/card_backs/set2/blue.gif","img/card_backs/set2/gray.gif","img/card_backs/set2/orange.gif","img/card_backs/set2/pink.gif","""event"",""trial"",""time""
""fullscreenenter"",""1"",""2224""
","
","
","""event"",""trial"",""time""
""fullscreenenter"",""1"",""2224""
","
","","501.8350000027567","","","","real_trial","2021-07-21 15:58:15.477","img/card_backs/set1/red.gif","3","250","1","",""
"casino-fixation","118","442139","0.0-25.0-0.24","A294","true","img/card_backs/set1/red.gif","img/card_backs/set1/yellow.gif","img/card_backs/set1/green.gif","img/card_backs/set1/purple.gif","img/card_backs/set2/blue.gif","img/card_backs/set2/gray.gif","img/card_backs/set2/orange.gif","img/card_backs/set2/pink.gif","""event"",""trial"",""time""
""fullscreenenter"",""1"",""2224""
","
","
","""event"",""trial"",""time""
""fullscreenenter"",""1"",""2224""
","
","","null","","null","","fixation","2021-07-21 15:58:15.982","","","","","",""
"card-selection-trial","119","444804","0.0-25.0-1.24","A294","true","img/card_backs/set1/red.gif","img/card_backs/set1/yellow.gif","img/card_backs/set1/green.gif","img/card_backs/set1/purple.gif","img/card_backs/set2/blue.gif","img/card_backs/set2/gray.gif","img/card_backs/set2/orange.gif","img/card_backs/set2/pink.gif","""event"",""trial"",""time""
""fullscreenenter"",""1"",""2224""
","
","
","""event"",""trial"",""time""
""fullscreenenter"",""1"",""2224""
","
","","655.5599999846891","","","","real_trial","2021-07-21 15:58:18.647","img/card_backs/set1/red.gif","1","-200","1","",""
"casino-fixation","120","445309","0.0-25.0-0.25","A294","true","img/card_backs/set1/red.gif","img/card_backs/set1/yellow.gif","img/card_backs/set1/green.gif","img/card_backs/set1/purple.gif","img/card_backs/set2/blue.gif","img/card_backs/set2/gray.gif","img/card_backs/set2/orange.gif","img/card_backs/set2/pink.gif","""event"",""trial"",""time""
""fullscreenenter"",""1"",""2224""
","
","
","""event"",""trial"",""time""
""fullscreenenter"",""1"",""2224""
","
","","null","","null","","fixation","2021-07-21 15:58:19.152","","","","","",""
"card-selection-trial","121","447881","0.0-25.0-1.25","A294","true","img/card_backs/set1/red.gif","img/card_backs/set1/yellow.gif","img/card_backs/set1/green.gif","img/card_backs/set1/purple.gif","img/card_backs/set2/blue.gif","img/card_backs/set2/gray.gif","img/card_backs/set2/orange.gif","img/card_backs/set2/pink.gif","""event"",""trial"",""time""
""fullscreenenter"",""1"",""2224""
","
","
","""event"",""trial"",""time""
""fullscreenenter"",""1"",""2224""
","
","","565.169999958016","","","","real_trial","2021-07-21 15:58:21.724","img/card_backs/set1/red.gif","1","250","1","",""
"casino-fixation","122","448384","0.0-25.0-0.26","A294","true","img/card_backs/set1/red.gif","img/card_backs/set1/yellow.gif","img/card_backs/set1/green.gif","img/card_backs/set1/purple.gif","img/card_backs/set2/blue.gif","img/card_backs/set2/gray.gif","img/card_backs/set2/orange.gif","img/card_backs/set2/pink.gif","""event"",""trial"",""time""
""fullscreenenter"",""1"",""2224""
","
","
","""event"",""trial"",""time""
""fullscreenenter"",""1"",""2224""
","
","","null","","null","","fixation","2021-07-21 15:58:22.227","","","","","",""
"card-selection-trial","123","450788","0.0-25.0-1.26","A294","true","img/card_backs/set1/red.gif","img/card_backs/set1/yellow.gif","img/card_backs/set1/green.gif","img/card_backs/set1/purple.gif","img/card_backs/set2/blue.gif","img/card_backs/set2/gray.gif","img/card_backs/set2/orange.gif","img/card_backs/set2/pink.gif","""event"",""trial"",""time""
""fullscreenenter"",""1"",""2224""
","
","
","""event"",""trial"",""time""
""fullscreenenter"",""1"",""2224""
","
","","394.92499991320074","","","","real_trial","2021-07-21 15:58:24.631","img/card_backs/set1/red.gif","1","250","1","",""
"casino-fixation","124","451293","0.0-25.0-0.27","A294","true","img/card_backs/set1/red.gif","img/card_backs/set1/yellow.gif","img/card_backs/set1/green.gif","img/card_backs/set1/purple.gif","img/card_backs/set2/blue.gif","img/card_backs/set2/gray.gif","img/card_backs/set2/orange.gif","img/card_backs/set2/pink.gif","""event"",""trial"",""time""
""fullscreenenter"",""1"",""2224""
","
","
","""event"",""trial"",""time""
""fullscreenenter"",""1"",""2224""
","
","","null","","null","","fixation","2021-07-21 15:58:25.136","","","","","",""
"card-selection-trial","125","453901","0.0-25.0-1.27","A294","true","img/card_backs/set1/red.gif","img/card_backs/set1/yellow.gif","img/card_backs/set1/green.gif","img/card_backs/set1/purple.gif","img/card_backs/set2/blue.gif","img/card_backs/set2/gray.gif","img/card_backs/set2/orange.gif","img/card_backs/set2/pink.gif","""event"",""trial"",""time""
""fullscreenenter"",""1"",""2224""
","
","
","""event"",""trial"",""time""
""fullscreenenter"",""1"",""2224""
","
","","598.3550000237301","","","","real_trial","2021-07-21 15:58:27.744","img/card_backs/set1/red.gif","2","-210","1","",""
"casino-fixation","126","454406","0.0-25.0-0.28","A294","true","img/card_backs/set1/red.gif","img/card_backs/set1/yellow.gif","img/card_backs/set1/green.gif","img/card_backs/set1/purple.gif","img/card_backs/set2/blue.gif","img/card_backs/set2/gray.gif","img/card_backs/set2/orange.gif","img/card_backs/set2/pink.gif","""event"",""trial"",""time""
""fullscreenenter"",""1"",""2224""
","
","
","""event"",""trial"",""time""
""fullscreenenter"",""1"",""2224""
","
","","null","","null","","fixation","2021-07-21 15:58:28.249","","","","","",""
"card-selection-trial","127","456798","0.0-25.0-1.28","A294","true","img/card_backs/set1/red.gif","img/card_backs/set1/yellow.gif","img/card_backs/set1/green.gif","img/card_backs/set1/purple.gif","img/card_backs/set2/blue.gif","img/card_backs/set2/gray.gif","img/card_backs/set2/orange.gif","img/card_backs/set2/pink.gif","""event"",""trial"",""time""
""fullscreenenter"",""1"",""2224""
","
","
","""event"",""trial"",""time""
""fullscreenenter"",""1"",""2224""
","
","","385.1550000254065","","","","real_trial","2021-07-21 15:58:30.641","img/card_backs/set1/red.gif","1","-200","1","",""
"casino-fixation","128","457303","0.0-25.0-0.29","A294","true","img/card_backs/set1/red.gif","img/card_backs/set1/yellow.gif","img/card_backs/set1/green.gif","img/card_backs/set1/purple.gif","img/card_backs/set2/blue.gif","img/card_backs/set2/gray.gif","img/card_backs/set2/orange.gif","img/card_backs/set2/pink.gif","""event"",""trial"",""time""
""fullscreenenter"",""1"",""2224""
","
","
","""event"",""trial"",""time""
""fullscreenenter"",""1"",""2224""
","
","","null","","null","","fixation","2021-07-21 15:58:31.146","","","","","",""
"card-selection-trial","129","459742","0.0-25.0-1.29","A294","true","img/card_backs/set1/red.gif","img/card_backs/set1/yellow.gif","img/card_backs/set1/green.gif","img/card_backs/set1/purple.gif","img/card_backs/set2/blue.gif","img/card_backs/set2/gray.gif","img/card_backs/set2/orange.gif","img/card_backs/set2/pink.gif","""event"",""trial"",""time""
""fullscreenenter"",""1"",""2224""
","
","
","""event"",""trial"",""time""
""fullscreenenter"",""1"",""2224""
","
","","430.7599999010563","","","","real_trial","2021-07-21 15:58:33.585","img/card_backs/set1/red.gif","1","-200","1","",""
"casino-fixation","130","460246","0.0-25.0-0.30","A294","true","img/card_backs/set1/red.gif","img/card_backs/set1/yellow.gif","img/card_backs/set1/green.gif","img/card_backs/set1/purple.gif","img/card_backs/set2/blue.gif","img/card_backs/set2/gray.gif","img/card_backs/set2/orange.gif","img/card_backs/set2/pink.gif","""event"",""trial"",""time""
""fullscreenenter"",""1"",""2224""
","
","
","""event"",""trial"",""time""
""fullscreenenter"",""1"",""2224""
","
","","null","","null","","fixation","2021-07-21 15:58:34.090","","","","","",""
"card-selection-trial","131","462750","0.0-25.0-1.30","A294","true","img/card_backs/set1/red.gif","img/card_backs/set1/yellow.gif","img/card_backs/set1/green.gif","img/card_backs/set1/purple.gif","img/card_backs/set2/blue.gif","img/card_backs/set2/gray.gif","img/card_backs/set2/orange.gif","img/card_backs/set2/pink.gif","""event"",""trial"",""time""
""fullscreenenter"",""1"",""2224""
","
","
","""event"",""trial"",""time""
""fullscreenenter"",""1"",""2224""
","
","","495.10499997995794","","","","real_trial","2021-07-21 15:58:36.594","img/card_backs/set1/red.gif","1","260","1","",""
"casino-fixation","132","463254","0.0-25.0-0.31","A294","true","img/card_backs/set1/red.gif","img/card_backs/set1/yellow.gif","img/card_backs/set1/green.gif","img/card_backs/set1/purple.gif","img/card_backs/set2/blue.gif","img/card_backs/set2/gray.gif","img/card_backs/set2/orange.gif","img/card_backs/set2/pink.gif","""event"",""trial"",""time""
""fullscreenenter"",""1"",""2224""
","
","
","""event"",""trial"",""time""
""fullscreenenter"",""1"",""2224""
","
","","null","","null","","fixation","2021-07-21 15:58:37.097","","","","","",""
"card-selection-trial","133","465848","0.0-25.0-1.31","A294","true","img/card_backs/set1/red.gif","img/card_backs/set1/yellow.gif","img/card_backs/set1/green.gif","img/card_backs/set1/purple.gif","img/card_backs/set2/blue.gif","img/card_backs/set2/gray.gif","img/card_backs/set2/orange.gif","img/card_backs/set2/pink.gif","""event"",""trial"",""time""
""fullscreenenter"",""1"",""2224""
","
","
","""event"",""trial"",""time""
""fullscreenenter"",""1"",""2224""
","
","","583.9600000763312","","","","real_trial","2021-07-21 15:58:39.691","img/card_backs/set1/red.gif","3","250","1","",""
"casino-fixation","134","466354","0.0-25.0-0.32","A294","true","img/card_backs/set1/red.gif","img/card_backs/set1/yellow.gif","img/card_backs/set1/green.gif","img/card_backs/set1/purple.gif","img/card_backs/set2/blue.gif","img/card_backs/set2/gray.gif","img/card_backs/set2/orange.gif","img/card_backs/set2/pink.gif","""event"",""trial"",""time""
""fullscreenenter"",""1"",""2224""
","
","
","""event"",""trial"",""time""
""fullscreenenter"",""1"",""2224""
","
","","null","","null","","fixation","2021-07-21 15:58:40.197","","","","","",""
"card-selection-trial","135","468827","0.0-25.0-1.32","A294","true","img/card_backs/set1/red.gif","img/card_backs/set1/yellow.gif","img/card_backs/set1/green.gif","img/card_backs/set1/purple.gif","img/card_backs/set2/blue.gif","img/card_backs/set2/gray.gif","img/card_backs/set2/orange.gif","img/card_backs/set2/pink.gif","""event"",""trial"",""time""
""fullscreenenter"",""1"",""2224""
","
","
","""event"",""trial"",""time""
""fullscreenenter"",""1"",""2224""
","
","","463.67000008467585","","","","real_trial","2021-07-21 15:58:42.670","img/card_backs/set1/red.gif","3","-190","1","",""
"casino-fixation","136","469332","0.0-25.0-0.33","A294","true","img/card_backs/set1/red.gif","img/card_backs/set1/yellow.gif","img/card_backs/set1/green.gif","img/card_backs/set1/purple.gif","img/card_backs/set2/blue.gif","img/card_backs/set2/gray.gif","img/card_backs/set2/orange.gif","img/card_backs/set2/pink.gif","""event"",""trial"",""time""
""fullscreenenter"",""1"",""2224""
","
","
","""event"",""trial"",""time""
""fullscreenenter"",""1"",""2224""
","
","","null","","null","","fixation","2021-07-21 15:58:43.175","","","","","",""
"card-selection-trial","137","471748","0.0-25.0-1.33","A294","true","img/card_backs/set1/red.gif","img/card_backs/set1/yellow.gif","img/card_backs/set1/green.gif","img/card_backs/set1/purple.gif","img/card_backs/set2/blue.gif","img/card_backs/set2/gray.gif","img/card_backs/set2/orange.gif","img/card_backs/set2/pink.gif","""event"",""trial"",""time""
""fullscreenenter"",""1"",""2224""
","
","
","""event"",""trial"",""time""
""fullscreenenter"",""1"",""2224""
","
","","407.7250000555068","","","","real_trial","2021-07-21 15:58:45.591","img/card_backs/set1/red.gif","3","-210","1","",""
"casino-fixation","138","472252","0.0-25.0-0.34","A294","true","img/card_backs/set1/red.gif","img/card_backs/set1/yellow.gif","img/card_backs/set1/green.gif","img/card_backs/set1/purple.gif","img/card_backs/set2/blue.gif","img/card_backs/set2/gray.gif","img/card_backs/set2/orange.gif","img/card_backs/set2/pink.gif","""event"",""trial"",""time""
""fullscreenenter"",""1"",""2224""
","
","
","""event"",""trial"",""time""
""fullscreenenter"",""1"",""2224""
","
","","null","","null","","fixation","2021-07-21 15:58:46.095","","","","","",""
"card-selection-trial","139","474801","0.0-25.0-1.34","A294","true","img/card_backs/set1/red.gif","img/card_backs/set1/yellow.gif","img/card_backs/set1/green.gif","img/card_backs/set1/purple.gif","img/card_backs/set2/blue.gif","img/card_backs/set2/gray.gif","img/card_backs/set2/orange.gif","img/card_backs/set2/pink.gif","""event"",""trial"",""time""
""fullscreenenter"",""1"",""2224""
","
","
","""event"",""trial"",""time""
""fullscreenenter"",""1"",""2224""
","
","","541.510000010021","","","","real_trial","2021-07-21 15:58:48.644","img/card_backs/set1/red.gif","1","-210","1","",""
"casino-fixation","140","475306","0.0-25.0-0.35","A294","true","img/card_backs/set1/red.gif","img/card_backs/set1/yellow.gif","img/card_backs/set1/green.gif","img/card_backs/set1/purple.gif","img/card_backs/set2/blue.gif","img/card_backs/set2/gray.gif","img/card_backs/set2/orange.gif","img/card_backs/set2/pink.gif","""event"",""trial"",""time""
""fullscreenenter"",""1"",""2224""
","
","
","""event"",""trial"",""time""
""fullscreenenter"",""1"",""2224""
","
","","null","","null","","fixation","2021-07-21 15:58:49.149","","","","","",""
"card-selection-trial","141","477836","0.0-25.0-1.35","A294","true","img/card_backs/set1/red.gif","img/card_backs/set1/yellow.gif","img/card_backs/set1/green.gif","img/card_backs/set1/purple.gif","img/card_backs/set2/blue.gif","img/card_backs/set2/gray.gif","img/card_backs/set2/orange.gif","img/card_backs/set2/pink.gif","""event"",""trial"",""time""
""fullscreenenter"",""1"",""2224""
","
","
","""event"",""trial"",""time""
""fullscreenenter"",""1"",""2224""
","
","","519.5600000442937","","","","real_trial","2021-07-21 15:58:51.679","img/card_backs/set1/red.gif","2","250","1","",""
"casino-fixation","142","478341","0.0-25.0-0.36","A294","true","img/card_backs/set1/red.gif","img/card_backs/set1/yellow.gif","img/card_backs/set1/green.gif","img/card_backs/set1/purple.gif","img/card_backs/set2/blue.gif","img/card_backs/set2/gray.gif","img/card_backs/set2/orange.gif","img/card_backs/set2/pink.gif","""event"",""trial"",""time""
""fullscreenenter"",""1"",""2224""
","
","
","""event"",""trial"",""time""
""fullscreenenter"",""1"",""2224""
","
","","null","","null","","fixation","2021-07-21 15:58:52.184","","","","","",""
"card-selection-trial","143","480798","0.0-25.0-1.36","A294","true","img/card_backs/set1/red.gif","img/card_backs/set1/yellow.gif","img/card_backs/set1/green.gif","img/card_backs/set1/purple.gif","img/card_backs/set2/blue.gif","img/card_backs/set2/gray.gif","img/card_backs/set2/orange.gif","img/card_backs/set2/pink.gif","""event"",""trial"",""time""
""fullscreenenter"",""1"",""2224""
","
","
","""event"",""trial"",""time""
""fullscreenenter"",""1"",""2224""
","
","","447.8649999946356","","","","real_trial","2021-07-21 15:58:54.641","img/card_backs/set1/red.gif","1","-210","1","",""
"casino-fixation","144","481303","0.0-25.0-0.37","A294","true","img/card_backs/set1/red.gif","img/card_backs/set1/yellow.gif","img/card_backs/set1/green.gif","img/card_backs/set1/purple.gif","img/card_backs/set2/blue.gif","img/card_backs/set2/gray.gif","img/card_backs/set2/orange.gif","img/card_backs/set2/pink.gif","""event"",""trial"",""time""
""fullscreenenter"",""1"",""2224""
","
","
","""event"",""trial"",""time""
""fullscreenenter"",""1"",""2224""
","
","","null","","null","","fixation","2021-07-21 15:58:55.147","","","","","",""
"card-selection-trial","145","483742","0.0-25.0-1.37","A294","true","img/card_backs/set1/red.gif","img/card_backs/set1/yellow.gif","img/card_backs/set1/green.gif","img/card_backs/set1/purple.gif","img/card_backs/set2/blue.gif","img/card_backs/set2/gray.gif","img/card_backs/set2/orange.gif","img/card_backs/set2/pink.gif","""event"",""trial"",""time""
""fullscreenenter"",""1"",""2224""
","
","
","""event"",""trial"",""time""
""fullscreenenter"",""1"",""2224""
","
","","431.319999974221","","","","real_trial","2021-07-21 15:58:57.585","img/card_backs/set1/red.gif","1","250","1","",""
"casino-fixation","146","484246","0.0-25.0-0.38","A294","true","img/card_backs/set1/red.gif","img/card_backs/set1/yellow.gif","img/card_backs/set1/green.gif","img/card_backs/set1/purple.gif","img/card_backs/set2/blue.gif","img/card_backs/set2/gray.gif","img/card_backs/set2/orange.gif","img/card_backs/set2/pink.gif","""event"",""trial"",""time""
""fullscreenenter"",""1"",""2224""
","
","
","""event"",""trial"",""time""
""fullscreenenter"",""1"",""2224""
","
","","null","","null","","fixation","2021-07-21 15:58:58.089","","","","","",""
"card-selection-trial","147","486818","0.0-25.0-1.38","A294","true","img/card_backs/set1/red.gif","img/card_backs/set1/yellow.gif","img/card_backs/set1/green.gif","img/card_backs/set1/purple.gif","img/card_backs/set2/blue.gif","img/card_backs/set2/gray.gif","img/card_backs/set2/orange.gif","img/card_backs/set2/pink.gif","""event"",""trial"",""time""
""fullscreenenter"",""1"",""2224""
","
","
","""event"",""trial"",""time""
""fullscreenenter"",""1"",""2224""
","
","","565.7549999887124","","","","real_trial","2021-07-21 15:59:00.661","img/card_backs/set1/red.gif","3","240","1","",""
"casino-fixation","148","487324","0.0-25.0-0.39","A294","true","img/card_backs/set1/red.gif","img/card_backs/set1/yellow.gif","img/card_backs/set1/green.gif","img/card_backs/set1/purple.gif","img/card_backs/set2/blue.gif","img/card_backs/set2/gray.gif","img/card_backs/set2/orange.gif","img/card_backs/set2/pink.gif","""event"",""trial"",""time""
""fullscreenenter"",""1"",""2224""
","
","
","""event"",""trial"",""time""
""fullscreenenter"",""1"",""2224""
","
","","null","","null","","fixation","2021-07-21 15:59:01.167","","","","","",""
"card-selection-trial","149","489941","0.0-25.0-1.39","A294","true","img/card_backs/set1/red.gif","img/card_backs/set1/yellow.gif","img/card_backs/set1/green.gif","img/card_backs/set1/purple.gif","img/card_backs/set2/blue.gif","img/card_backs/set2/gray.gif","img/card_backs/set2/orange.gif","img/card_backs/set2/pink.gif","""event"",""trial"",""time""
""fullscreenenter"",""1"",""2224""
","
","
","""event"",""trial"",""time""
""fullscreenenter"",""1"",""2224""
","
","","607.810000074096","","","","real_trial","2021-07-21 15:59:03.784","img/card_backs/set1/red.gif","2","-210","1","",""
"casino-fixation","150","490444","0.0-25.0-0.40","A294","true","img/card_backs/set1/red.gif","img/card_backs/set1/yellow.gif","img/card_backs/set1/green.gif","img/card_backs/set1/purple.gif","img/card_backs/set2/blue.gif","img/card_backs/set2/gray.gif","img/card_backs/set2/orange.gif","img/card_backs/set2/pink.gif","""event"",""trial"",""time""
""fullscreenenter"",""1"",""2224""
","
","
","""event"",""trial"",""time""
""fullscreenenter"",""1"",""2224""
","
","","null","","null","","fixation","2021-07-21 15:59:04.287","","","","","",""
"card-selection-trial","151","493803","0.0-25.0-1.40","A294","true","img/card_backs/set1/red.gif","img/card_backs/set1/yellow.gif","img/card_backs/set1/green.gif","img/card_backs/set1/purple.gif","img/card_backs/set2/blue.gif","img/card_backs/set2/gray.gif","img/card_backs/set2/orange.gif","img/card_backs/set2/pink.gif","""event"",""trial"",""time""
""fullscreenenter"",""1"",""2224""
","
","
","""event"",""trial"",""time""
""fullscreenenter"",""1"",""2224""
","
","","1353.0899999896064","","","","real_trial","2021-07-21 15:59:07.646","img/card_backs/set1/red.gif","1","-210","1","",""
"casino-fixation","152","494306","0.0-25.0-0.41","A294","true","img/card_backs/set1/red.gif","img/card_backs/set1/yellow.gif","img/card_backs/set1/green.gif","img/card_backs/set1/purple.gif","img/card_backs/set2/blue.gif","img/card_backs/set2/gray.gif","img/card_backs/set2/orange.gif","img/card_backs/set2/pink.gif","""event"",""trial"",""time""
""fullscreenenter"",""1"",""2224""
","
","
","""event"",""trial"",""time""
""fullscreenenter"",""1"",""2224""
","
","","null","","null","","fixation","2021-07-21 15:59:08.149","","","","","",""
"card-selection-trial","153","499795","0.0-25.0-1.41","A294","true","img/card_backs/set1/red.gif","img/card_backs/set1/yellow.gif","img/card_backs/set1/green.gif","img/card_backs/set1/purple.gif","img/card_backs/set2/blue.gif","img/card_backs/set2/gray.gif","img/card_backs/set2/orange.gif","img/card_backs/set2/pink.gif","""event"",""trial"",""time""
""fullscreenenter"",""1"",""2224""
","
","
","""event"",""trial"",""time""
""fullscreenenter"",""1"",""2224""
","
","","3477.4100000504404","","","","real_trial","2021-07-21 15:59:13.638","img/card_backs/set1/purple.gif","3","-100","1","",""
"casino-fixation","154","500299","0.0-25.0-0.42","A294","true","img/card_backs/set1/red.gif","img/card_backs/set1/yellow.gif","img/card_backs/set1/green.gif","img/card_backs/set1/purple.gif","img/card_backs/set2/blue.gif","img/card_backs/set2/gray.gif","img/card_backs/set2/orange.gif","img/card_backs/set2/pink.gif","""event"",""trial"",""time""
""fullscreenenter"",""1"",""2224""
","
","
","""event"",""trial"",""time""
""fullscreenenter"",""1"",""2224""
","
","","null","","null","","fixation","2021-07-21 15:59:14.142","","","","","",""
"card-selection-trial","155","502842","0.0-25.0-1.42","A294","true","img/card_backs/set1/red.gif","img/card_backs/set1/yellow.gif","img/card_backs/set1/green.gif","img/card_backs/set1/purple.gif","img/card_backs/set2/blue.gif","img/card_backs/set2/gray.gif","img/card_backs/set2/orange.gif","img/card_backs/set2/pink.gif","""event"",""trial"",""time""
""fullscreenenter"",""1"",""2224""
","
","
","""event"",""trial"",""time""
""fullscreenenter"",""1"",""2224""
","
","","534.5599999418482","","","","real_trial","2021-07-21 15:59:16.685","img/card_backs/set1/purple.gif","1","-90","1","",""
"casino-fixation","156","503347","0.0-25.0-0.43","A294","true","img/card_backs/set1/red.gif","img/card_backs/set1/yellow.gif","img/card_backs/set1/green.gif","img/card_backs/set1/purple.gif","img/card_backs/set2/blue.gif","img/card_backs/set2/gray.gif","img/card_backs/set2/orange.gif","img/card_backs/set2/pink.gif","""event"",""trial"",""time""
""fullscreenenter"",""1"",""2224""
","
","
","""event"",""trial"",""time""
""fullscreenenter"",""1"",""2224""
","
","","null","","null","","fixation","2021-07-21 15:59:17.190","","","","","",""
"card-selection-trial","157","505812","0.0-25.0-1.43","A294","true","img/card_backs/set1/red.gif","img/card_backs/set1/yellow.gif","img/card_backs/set1/green.gif","img/card_backs/set1/purple.gif","img/card_backs/set2/blue.gif","img/card_backs/set2/gray.gif","img/card_backs/set2/orange.gif","img/card_backs/set2/pink.gif","""event"",""trial"",""time""
""fullscreenenter"",""1"",""2224""
","
","
","""event"",""trial"",""time""
""fullscreenenter"",""1"",""2224""
","
","","458.61500001046807","","","","real_trial","2021-07-21 15:59:19.655","img/card_backs/set1/purple.gif","0","40","1","",""
"casino-fixation","158","506314","0.0-25.0-0.44","A294","true","img/card_backs/set1/red.gif","img/card_backs/set1/yellow.gif","img/card_backs/set1/green.gif","img/card_backs/set1/purple.gif","img/card_backs/set2/blue.gif","img/card_backs/set2/gray.gif","img/card_backs/set2/orange.gif","img/card_backs/set2/pink.gif","""event"",""trial"",""time""
""fullscreenenter"",""1"",""2224""
","
","
","""event"",""trial"",""time""
""fullscreenenter"",""1"",""2224""
","
","","null","","null","","fixation","2021-07-21 15:59:20.157","","","","","",""
"card-selection-trial","159","508886","0.0-25.0-1.44","A294","true","img/card_backs/set1/red.gif","img/card_backs/set1/yellow.gif","img/card_backs/set1/green.gif","img/card_backs/set1/purple.gif","img/card_backs/set2/blue.gif","img/card_backs/set2/gray.gif","img/card_backs/set2/orange.gif","img/card_backs/set2/pink.gif","""event"",""trial"",""time""
""fullscreenenter"",""1"",""2224""
","
","
","""event"",""trial"",""time""
""fullscreenenter"",""1"",""2224""
","
","","563.4750000899658","","","","real_trial","2021-07-21 15:59:22.729","img/card_backs/set1/purple.gif","1","-100","1","",""
"casino-fixation","160","509391","0.0-25.0-0.45","A294","true","img/card_backs/set1/red.gif","img/card_backs/set1/yellow.gif","img/card_backs/set1/green.gif","img/card_backs/set1/purple.gif","img/card_backs/set2/blue.gif","img/card_backs/set2/gray.gif","img/card_backs/set2/orange.gif","img/card_backs/set2/pink.gif","""event"",""trial"",""time""
""fullscreenenter"",""1"",""2224""
","
","
","""event"",""trial"",""time""
""fullscreenenter"",""1"",""2224""
","
","","null","","null","","fixation","2021-07-21 15:59:23.234","","","","","",""
"card-selection-trial","161","511996","0.0-25.0-1.45","A294","true","img/card_backs/set1/red.gif","img/card_backs/set1/yellow.gif","img/card_backs/set1/green.gif","img/card_backs/set1/purple.gif","img/card_backs/set2/blue.gif","img/card_backs/set2/gray.gif","img/card_backs/set2/orange.gif","img/card_backs/set2/pink.gif","""event"",""trial"",""time""
""fullscreenenter"",""1"",""2224""
","
","
","""event"",""trial"",""time""
""fullscreenenter"",""1"",""2224""
","
","","596.8400000128895","","","","real_trial","2021-07-21 15:59:25.839","img/card_backs/set1/purple.gif","3","-100","1","",""
"casino-fixation","162","512501","0.0-25.0-0.46","A294","true","img/card_backs/set1/red.gif","img/card_backs/set1/yellow.gif","img/card_backs/set1/green.gif","img/card_backs/set1/purple.gif","img/card_backs/set2/blue.gif","img/card_backs/set2/gray.gif","img/card_backs/set2/orange.gif","img/card_backs/set2/pink.gif","""event"",""trial"",""time""
""fullscreenenter"",""1"",""2224""
","
","
","""event"",""trial"",""time""
""fullscreenenter"",""1"",""2224""
","
","","null","","null","","fixation","2021-07-21 15:59:26.344","","","","","",""
"card-selection-trial","163","515789","0.0-25.0-1.46","A294","true","img/card_backs/set1/red.gif","img/card_backs/set1/yellow.gif","img/card_backs/set1/green.gif","img/card_backs/set1/purple.gif","img/card_backs/set2/blue.gif","img/card_backs/set2/gray.gif","img/card_backs/set2/orange.gif","img/card_backs/set2/pink.gif","""event"",""trial"",""time""
""fullscreenenter"",""1"",""2224""
","
","
","""event"",""trial"",""time""
""fullscreenenter"",""1"",""2224""
","
","","1279.1449999203905","","","","real_trial","2021-07-21 15:59:29.632","img/card_backs/set1/yellow.gif","0","250","1","",""
"casino-fixation","164","516294","0.0-25.0-0.47","A294","true","img/card_backs/set1/red.gif","img/card_backs/set1/yellow.gif","img/card_backs/set1/green.gif","img/card_backs/set1/purple.gif","img/card_backs/set2/blue.gif","img/card_backs/set2/gray.gif","img/card_backs/set2/orange.gif","img/card_backs/set2/pink.gif","""event"",""trial"",""time""
""fullscreenenter"",""1"",""2224""
","
","
","""event"",""trial"",""time""
""fullscreenenter"",""1"",""2224""
","
","","null","","null","","fixation","2021-07-21 15:59:30.137","","","","","",""
"card-selection-trial","165","518969","0.0-25.0-1.47","A294","true","img/card_backs/set1/red.gif","img/card_backs/set1/yellow.gif","img/card_backs/set1/green.gif","img/card_backs/set1/purple.gif","img/card_backs/set2/blue.gif","img/card_backs/set2/gray.gif","img/card_backs/set2/orange.gif","img/card_backs/set2/pink.gif","""event"",""trial"",""time""
""fullscreenenter"",""1"",""2224""
","
","
","""event"",""trial"",""time""
""fullscreenenter"",""1"",""2224""
","
","","665.9699999727309","","","","real_trial","2021-07-21 15:59:32.812","img/card_backs/set1/yellow.gif","2","-200","1","",""
"casino-fixation","166","519475","0.0-25.0-0.48","A294","true","img/card_backs/set1/red.gif","img/card_backs/set1/yellow.gif","img/card_backs/set1/green.gif","img/card_backs/set1/purple.gif","img/card_backs/set2/blue.gif","img/card_backs/set2/gray.gif","img/card_backs/set2/orange.gif","img/card_backs/set2/pink.gif","""event"",""trial"",""time""
""fullscreenenter"",""1"",""2224""
","
","
","""event"",""trial"",""time""
""fullscreenenter"",""1"",""2224""
","
","","null","","null","","fixation","2021-07-21 15:59:33.318","","","","","",""
