"trial_type","trial_index","time_elapsed","internal_node_id","sub_id","risk_good_first","block1_A","block1_B","block1_C","block1_D","block2_A","block2_B","block2_C","block2_D","interactions","blur_events","focus_events","fullscreenenter_events","fullscreenexit_events","success","rt","stimulus","key_press","button_pressed","task_part","timestamp","card_choice","choice_position","points_earned","block","correct","response"
"pavlovia","0","12","0.0-0.0","208","false","img/card_backs/set1/green.gif","img/card_backs/set1/purple.gif","img/card_backs/set1/red.gif","img/card_backs/set1/yellow.gif","img/card_backs/set2/blue.gif","img/card_backs/set2/orange.gif","img/card_backs/set2/pink.gif","img/card_backs/set2/gray.gif","""event"",""trial"",""time""
""fullscreenenter"",""1"",""5161""
","
","
","""event"",""trial"",""time""
""fullscreenenter"",""1"",""5161""
","
","","","","","","","","","","","","",""
"fullscreen","1","6137","0.0-1.0","208","false","img/card_backs/set1/green.gif","img/card_backs/set1/purple.gif","img/card_backs/set1/red.gif","img/card_backs/set1/yellow.gif","img/card_backs/set2/blue.gif","img/card_backs/set2/orange.gif","img/card_backs/set2/pink.gif","img/card_backs/set2/gray.gif","""event"",""trial"",""time""
""fullscreenenter"",""1"",""5161""
","
","
","""event"",""trial"",""time""
""fullscreenenter"",""1"",""5161""
","
","true","","","","","","","","","","","",""
"audio-keyboard-response","2","10476","0.0-2.0","208","false","img/card_backs/set1/green.gif","img/card_backs/set1/purple.gif","img/card_backs/set1/red.gif","img/card_backs/set1/yellow.gif","img/card_backs/set2/blue.gif","img/card_backs/set2/orange.gif","img/card_backs/set2/pink.gif","img/card_backs/set2/gray.gif","""event"",""trial"",""time""
""fullscreenenter"",""1"",""5161""
","
","
","""event"",""trial"",""time""
""fullscreenenter"",""1"",""5161""
","
","","4287","audio/beep_loop.wav","32","","","","","","","","",""
"audio-button-response","3","13837","0.0-3.0","208","false","img/card_backs/set1/green.gif","img/card_backs/set1/purple.gif","img/card_backs/set1/red.gif","img/card_backs/set1/yellow.gif","img/card_backs/set2/blue.gif","img/card_backs/set2/orange.gif","img/card_backs/set2/pink.gif","img/card_backs/set2/gray.gif","""event"",""trial"",""time""
""fullscreenenter"",""1"",""5161""
","
","
","""event"",""trial"",""time""
""fullscreenenter"",""1"",""5161""
","
","","NaN","audio/turtle.mp3","","3","","","","","","","",""
"audio-button-response","4","16853","0.0-4.0","208","false","img/card_backs/set1/green.gif","img/card_backs/set1/purple.gif","img/card_backs/set1/red.gif","img/card_backs/set1/yellow.gif","img/card_backs/set2/blue.gif","img/card_backs/set2/orange.gif","img/card_backs/set2/pink.gif","img/card_backs/set2/gray.gif","""event"",""trial"",""time""
""fullscreenenter"",""1"",""5161""
","
","
","""event"",""trial"",""time""
""fullscreenenter"",""1"",""5161""
","
","","NaN","audio/shark.mp3","","2","","","","","","","",""
"fullscreen","5","25806","0.0-5.0","208","false","img/card_backs/set1/green.gif","img/card_backs/set1/purple.gif","img/card_backs/set1/red.gif","img/card_backs/set1/yellow.gif","img/card_backs/set2/blue.gif","img/card_backs/set2/orange.gif","img/card_backs/set2/pink.gif","img/card_backs/set2/gray.gif","""event"",""trial"",""time""
""fullscreenenter"",""1"",""5161""
","
","
","""event"",""trial"",""time""
""fullscreenenter"",""1"",""5161""
","
","true","","","","","","","","","","","",""
"casino-keyboard-response","6","32086","0.0-6.0-0.0","208","false","img/card_backs/set1/green.gif","img/card_backs/set1/purple.gif","img/card_backs/set1/red.gif","img/card_backs/set1/yellow.gif","img/card_backs/set2/blue.gif","img/card_backs/set2/orange.gif","img/card_backs/set2/pink.gif","img/card_backs/set2/gray.gif","""event"",""trial"",""time""
""fullscreenenter"",""1"",""5161""
","
","
","""event"",""trial"",""time""
""fullscreenenter"",""1"",""5161""
","
","","6273.399999991059","Welcome to the casino!","71","","instructions","2021-06-29 23:16:42.933","","","","","",""
"casino-keyboard-response","7","45423","0.0-6.0-0.1","208","false","img/card_backs/set1/green.gif","img/card_backs/set1/purple.gif","img/card_backs/set1/red.gif","img/card_backs/set1/yellow.gif","img/card_backs/set2/blue.gif","img/card_backs/set2/orange.gif","img/card_backs/set2/pink.gif","img/card_backs/set2/gray.gif","""event"",""trial"",""time""
""fullscreenenter"",""1"",""5161""
","
","
","""event"",""trial"",""time""
""fullscreenenter"",""1"",""5161""
","
","","13333","Today you will be playing a game to earn tokens. </br> At the end of the experiment, you will be paid a bonus based on how many tokens you win. ","69","","instructions","2021-06-29 23:16:56.271","","","","","",""
"casino-keyboard-response","8","53475","0.0-6.0-0.2","208","false","img/card_backs/set1/green.gif","img/card_backs/set1/purple.gif","img/card_backs/set1/red.gif","img/card_backs/set1/yellow.gif","img/card_backs/set2/blue.gif","img/card_backs/set2/orange.gif","img/card_backs/set2/pink.gif","img/card_backs/set2/gray.gif","""event"",""trial"",""time""
""fullscreenenter"",""1"",""5161""
","
","
","""event"",""trial"",""time""
""fullscreenenter"",""1"",""5161""
","
","","8049.0999999940395","On every turn, you will be shown four different decks of cards. </br> You need to select a card from one of the four decks.  ","75","","instructions","2021-06-29 23:17:04.322","","","","","",""
"casino-keyboard-response","9","58831","0.0-6.0-0.3","208","false","img/card_backs/set1/green.gif","img/card_backs/set1/purple.gif","img/card_backs/set1/red.gif","img/card_backs/set1/yellow.gif","img/card_backs/set2/blue.gif","img/card_backs/set2/orange.gif","img/card_backs/set2/pink.gif","img/card_backs/set2/gray.gif","""event"",""trial"",""time""
""fullscreenenter"",""1"",""5161""
","
","
","""event"",""trial"",""time""
""fullscreenenter"",""1"",""5161""
","
","","5352.20000000298","On the next screen, you will see what the decks will look like. ","66","","instructions","2021-06-29 23:17:09.678","","","","","",""
"card-selection-trial","10","62839","0.0-7.0-0.0","208","false","img/card_backs/set1/green.gif","img/card_backs/set1/purple.gif","img/card_backs/set1/red.gif","img/card_backs/set1/yellow.gif","img/card_backs/set2/blue.gif","img/card_backs/set2/orange.gif","img/card_backs/set2/pink.gif","img/card_backs/set2/gray.gif","""event"",""trial"",""time""
""fullscreenenter"",""1"",""5161""
""fullscreenexit"",""11"",""65773""
","
","
","""event"",""trial"",""time""
""fullscreenenter"",""1"",""5161""
","""event"",""trial"",""time""
""fullscreenexit"",""11"",""65773""
","","null","","","","practice","2021-06-29 23:17:13.687","null","null","null","0","",""
"casino-keyboard-response","11","71920","0.0-8.0-0.0","208","false","img/card_backs/set1/green.gif","img/card_backs/set1/purple.gif","img/card_backs/set1/red.gif","img/card_backs/set1/yellow.gif","img/card_backs/set2/blue.gif","img/card_backs/set2/orange.gif","img/card_backs/set2/pink.gif","img/card_backs/set2/gray.gif","""event"",""trial"",""time""
""fullscreenenter"",""1"",""5161""
""fullscreenexit"",""11"",""65773""
","
","
","""event"",""trial"",""time""
""fullscreenenter"",""1"",""5161""
","""event"",""trial"",""time""
""fullscreenexit"",""11"",""65773""
","","9077.90000000596","You should pick a card from a deck using the '2', '4', '6', and '8' keys at the top of the keyboard.","85","","instructions","2021-06-29 23:17:22.767","","","","","",""
"casino-keyboard-response","12","79573","0.0-8.0-0.1","208","false","img/card_backs/set1/green.gif","img/card_backs/set1/purple.gif","img/card_backs/set1/red.gif","img/card_backs/set1/yellow.gif","img/card_backs/set2/blue.gif","img/card_backs/set2/orange.gif","img/card_backs/set2/pink.gif","img/card_backs/set2/gray.gif","""event"",""trial"",""time""
""fullscreenenter"",""1"",""5161""
""fullscreenexit"",""11"",""65773""
","
","
","""event"",""trial"",""time""
""fullscreenenter"",""1"",""5161""
","""event"",""trial"",""time""
""fullscreenexit"",""11"",""65773""
","","7649.100000008941","Once you select a card, it will turn over and you will see how many tokens you earned.","83","","instructions","2021-06-29 23:17:30.420","","","","","",""
"casino-keyboard-response","13","94688","0.0-8.0-0.2","208","false","img/card_backs/set1/green.gif","img/card_backs/set1/purple.gif","img/card_backs/set1/red.gif","img/card_backs/set1/yellow.gif","img/card_backs/set2/blue.gif","img/card_backs/set2/orange.gif","img/card_backs/set2/pink.gif","img/card_backs/set2/gray.gif","""event"",""trial"",""time""
""fullscreenenter"",""1"",""5161""
""fullscreenexit"",""11"",""65773""
","
","
","""event"",""trial"",""time""
""fullscreenenter"",""1"",""5161""
","""event"",""trial"",""time""
""fullscreenexit"",""11"",""65773""
","","15112.59999999404","Let's try practicing that! </br> First, try to put your fingers over the '2', '4', '6', and '8' keys. </br>  You can use whatever fingers are most comfortable for you. Try to find a comfortable position now. ","50","","instructions","2021-06-29 23:17:45.535","","","","","",""
"casino-keyboard-response","14","100747","0.0-8.0-0.3","208","false","img/card_backs/set1/green.gif","img/card_backs/set1/purple.gif","img/card_backs/set1/red.gif","img/card_backs/set1/yellow.gif","img/card_backs/set2/blue.gif","img/card_backs/set2/orange.gif","img/card_backs/set2/pink.gif","img/card_backs/set2/gray.gif","""event"",""trial"",""time""
""fullscreenenter"",""1"",""5161""
""fullscreenexit"",""11"",""65773""
","
","
","""event"",""trial"",""time""
""fullscreenenter"",""1"",""5161""
","""event"",""trial"",""time""
""fullscreenexit"",""11"",""65773""
","","6054.600000008941","Okay ready? </br> On the next screen, press '2' to select the left deck. ","50","","instructions","2021-06-29 23:17:51.594","","","","","",""
"card-selection-trial","15","104281","0.0-9.0-0.0","208","false","img/card_backs/set1/green.gif","img/card_backs/set1/purple.gif","img/card_backs/set1/red.gif","img/card_backs/set1/yellow.gif","img/card_backs/set2/blue.gif","img/card_backs/set2/orange.gif","img/card_backs/set2/pink.gif","img/card_backs/set2/gray.gif","""event"",""trial"",""time""
""fullscreenenter"",""1"",""5161""
""fullscreenexit"",""11"",""65773""
","
","
","""event"",""trial"",""time""
""fullscreenenter"",""1"",""5161""
","""event"",""trial"",""time""
""fullscreenexit"",""11"",""65773""
","","1510.9000000059605","","","","practice_card_selection","2021-06-29 23:17:55.129","img/practice_cards/backs/dark_blue.gif","0","-200","","",""
"casino-keyboard-response","16","109930","0.0-10.0-0.0","208","false","img/card_backs/set1/green.gif","img/card_backs/set1/purple.gif","img/card_backs/set1/red.gif","img/card_backs/set1/yellow.gif","img/card_backs/set2/blue.gif","img/card_backs/set2/orange.gif","img/card_backs/set2/pink.gif","img/card_backs/set2/gray.gif","""event"",""trial"",""time""
""fullscreenenter"",""1"",""5161""
""fullscreenexit"",""11"",""65773""
","
","
","""event"",""trial"",""time""
""fullscreenenter"",""1"",""5161""
","""event"",""trial"",""time""
""fullscreenexit"",""11"",""65773""
","","5646.20000000298","Great! Now on the next screen, try pressing '6' to select the third deck.","54","","instructions","2021-06-29 23:18:00.777","","","","","",""
"card-selection-trial","17","114576","0.0-11.0-0.0","208","false","img/card_backs/set1/green.gif","img/card_backs/set1/purple.gif","img/card_backs/set1/red.gif","img/card_backs/set1/yellow.gif","img/card_backs/set2/blue.gif","img/card_backs/set2/orange.gif","img/card_backs/set2/pink.gif","img/card_backs/set2/gray.gif","""event"",""trial"",""time""
""fullscreenenter"",""1"",""5161""
""fullscreenexit"",""11"",""65773""
","
","
","""event"",""trial"",""time""
""fullscreenenter"",""1"",""5161""
","""event"",""trial"",""time""
""fullscreenexit"",""11"",""65773""
","","2633.800000011921","","","","practice_card_selection","2021-06-29 23:18:05.423","img/practice_cards/backs/black.gif","2","100","","",""
"casino-keyboard-response","18","120291","0.0-12.0-0.0","208","false","img/card_backs/set1/green.gif","img/card_backs/set1/purple.gif","img/card_backs/set1/red.gif","img/card_backs/set1/yellow.gif","img/card_backs/set2/blue.gif","img/card_backs/set2/orange.gif","img/card_backs/set2/pink.gif","img/card_backs/set2/gray.gif","""event"",""trial"",""time""
""fullscreenenter"",""1"",""5161""
""fullscreenexit"",""11"",""65773""
","
","
","""event"",""trial"",""time""
""fullscreenenter"",""1"",""5161""
","""event"",""trial"",""time""
""fullscreenexit"",""11"",""65773""
","","5711.4000000059605","Now on the next screen, try pressing '4' to select the second deck.","52","","instructions","2021-06-29 23:18:11.138","","","","","",""
"card-selection-trial","19","123129","0.0-13.0-0.0","208","false","img/card_backs/set1/green.gif","img/card_backs/set1/purple.gif","img/card_backs/set1/red.gif","img/card_backs/set1/yellow.gif","img/card_backs/set2/blue.gif","img/card_backs/set2/orange.gif","img/card_backs/set2/pink.gif","img/card_backs/set2/gray.gif","""event"",""trial"",""time""
""fullscreenenter"",""1"",""5161""
""fullscreenexit"",""11"",""65773""
","
","
","""event"",""trial"",""time""
""fullscreenenter"",""1"",""5161""
","""event"",""trial"",""time""
""fullscreenexit"",""11"",""65773""
","","826.2000000029802","","","","practice_card_selection","2021-06-29 23:18:13.976","img/practice_cards/backs/brown.gif","1","100","","",""
"casino-keyboard-response","20","127498","0.0-14.0-0.0","208","false","img/card_backs/set1/green.gif","img/card_backs/set1/purple.gif","img/card_backs/set1/red.gif","img/card_backs/set1/yellow.gif","img/card_backs/set2/blue.gif","img/card_backs/set2/orange.gif","img/card_backs/set2/pink.gif","img/card_backs/set2/gray.gif","""event"",""trial"",""time""
""fullscreenenter"",""1"",""5161""
""fullscreenexit"",""11"",""65773""
","
","
","""event"",""trial"",""time""
""fullscreenenter"",""1"",""5161""
","""event"",""trial"",""time""
""fullscreenexit"",""11"",""65773""
","","4365.600000008941","Finally, try pressing '8' to select the deck all the way on the right.","56","","instructions","2021-06-29 23:18:18.346","","","","","",""
"card-selection-trial","21","137531","0.0-15.0-0.0","208","false","img/card_backs/set1/green.gif","img/card_backs/set1/purple.gif","img/card_backs/set1/red.gif","img/card_backs/set1/yellow.gif","img/card_backs/set2/blue.gif","img/card_backs/set2/orange.gif","img/card_backs/set2/pink.gif","img/card_backs/set2/gray.gif","""event"",""trial"",""time""
""fullscreenenter"",""1"",""5161""
""fullscreenexit"",""11"",""65773""
","
","
","""event"",""trial"",""time""
""fullscreenenter"",""1"",""5161""
","""event"",""trial"",""time""
""fullscreenexit"",""11"",""65773""
","","8024.899999991059","","","","practice_card_selection","2021-06-29 23:18:28.378","img/practice_cards/backs/brown.gif","3","-100","","",""
"casino-keyboard-response","22","145666","0.0-16.0-0.0","208","false","img/card_backs/set1/green.gif","img/card_backs/set1/purple.gif","img/card_backs/set1/red.gif","img/card_backs/set1/yellow.gif","img/card_backs/set2/blue.gif","img/card_backs/set2/orange.gif","img/card_backs/set2/pink.gif","img/card_backs/set2/gray.gif","""event"",""trial"",""time""
""fullscreenenter"",""1"",""5161""
""fullscreenexit"",""11"",""65773""
","
","
","""event"",""trial"",""time""
""fullscreenenter"",""1"",""5161""
","""event"",""trial"",""time""
""fullscreenexit"",""11"",""65773""
","","8130.100000008941","Great! It seems like you are getting the hang of this.","80","","instructions","2021-06-29 23:18:36.513","","","","","",""
"casino-keyboard-response","23","154977","0.0-16.0-0.1","208","false","img/card_backs/set1/green.gif","img/card_backs/set1/purple.gif","img/card_backs/set1/red.gif","img/card_backs/set1/yellow.gif","img/card_backs/set2/blue.gif","img/card_backs/set2/orange.gif","img/card_backs/set2/pink.gif","img/card_backs/set2/gray.gif","""event"",""trial"",""time""
""fullscreenenter"",""1"",""5161""
""fullscreenexit"",""11"",""65773""
","
","
","""event"",""trial"",""time""
""fullscreenenter"",""1"",""5161""
","""event"",""trial"",""time""
""fullscreenexit"",""11"",""65773""
","","9305.79999999702","You may have noticed that some cards will cause you to <b> win </b> tokens while other cards will cause you to <b> lose </b>  tokens.","70","","instructions","2021-06-29 23:18:45.824","","","","","",""
"casino-keyboard-response","24","165723","0.0-16.0-0.2","208","false","img/card_backs/set1/green.gif","img/card_backs/set1/purple.gif","img/card_backs/set1/red.gif","img/card_backs/set1/yellow.gif","img/card_backs/set2/blue.gif","img/card_backs/set2/orange.gif","img/card_backs/set2/pink.gif","img/card_backs/set2/gray.gif","""event"",""trial"",""time""
""fullscreenenter"",""1"",""5161""
""fullscreenexit"",""11"",""65773""
","
","
","""event"",""trial"",""time""
""fullscreenenter"",""1"",""5161""
","""event"",""trial"",""time""
""fullscreenexit"",""11"",""65773""
","","10739.5","Each deck has a mix of cards that will cause you to win and lose tokens. </br> However, the cards in each colored deck are different.","73","","instructions","2021-06-29 23:18:56.570","","","","","",""
"casino-keyboard-response","25","174211","0.0-16.0-0.3","208","false","img/card_backs/set1/green.gif","img/card_backs/set1/purple.gif","img/card_backs/set1/red.gif","img/card_backs/set1/yellow.gif","img/card_backs/set2/blue.gif","img/card_backs/set2/orange.gif","img/card_backs/set2/pink.gif","img/card_backs/set2/gray.gif","""event"",""trial"",""time""
""fullscreenenter"",""1"",""5161""
""fullscreenexit"",""11"",""65773""
","
","
","""event"",""trial"",""time""
""fullscreenenter"",""1"",""5161""
","""event"",""trial"",""time""
""fullscreenexit"",""11"",""65773""
","","8483.39999999106","Some colored decks are luckier than others. </br> If you choose the lucky decks, you will earn more tokens than if you choose the unlucky decks.","69","","instructions","2021-06-29 23:19:05.058","","","","","",""
"casino-keyboard-response","26","181549","0.0-16.0-0.4","208","false","img/card_backs/set1/green.gif","img/card_backs/set1/purple.gif","img/card_backs/set1/red.gif","img/card_backs/set1/yellow.gif","img/card_backs/set2/blue.gif","img/card_backs/set2/orange.gif","img/card_backs/set2/pink.gif","img/card_backs/set2/gray.gif","""event"",""trial"",""time""
""fullscreenenter"",""1"",""5161""
""fullscreenexit"",""11"",""65773""
","
","
","""event"",""trial"",""time""
""fullscreenenter"",""1"",""5161""
","""event"",""trial"",""time""
""fullscreenexit"",""11"",""65773""
","","7334.4000000059605","You should try to figure out which decks are lucky. </br> Then, try to choose the lucky decks so you can win the most tokens.","87","","instructions","2021-06-29 23:19:12.396","","","","","",""
"casino-keyboard-response","27","193222","0.0-16.0-0.5","208","false","img/card_backs/set1/green.gif","img/card_backs/set1/purple.gif","img/card_backs/set1/red.gif","img/card_backs/set1/yellow.gif","img/card_backs/set2/blue.gif","img/card_backs/set2/orange.gif","img/card_backs/set2/pink.gif","img/card_backs/set2/gray.gif","""event"",""trial"",""time""
""fullscreenenter"",""1"",""5161""
""fullscreenexit"",""11"",""65773""
","
","
","""event"",""trial"",""time""
""fullscreenenter"",""1"",""5161""
","""event"",""trial"",""time""
""fullscreenexit"",""11"",""65773""
","","11669.39999999106","To make it trickier, the casino dealer will switch the locations of the decks on every turn. </br> The color of the deck determines how lucky it is. The location does not matter.","88","","instructions","2021-06-29 23:19:24.069","","","","","",""
"casino-keyboard-response","28","203814","0.0-16.0-0.6","208","false","img/card_backs/set1/green.gif","img/card_backs/set1/purple.gif","img/card_backs/set1/red.gif","img/card_backs/set1/yellow.gif","img/card_backs/set2/blue.gif","img/card_backs/set2/orange.gif","img/card_backs/set2/pink.gif","img/card_backs/set2/gray.gif","""event"",""trial"",""time""
""fullscreenenter"",""1"",""5161""
""fullscreenexit"",""11"",""65773""
","
","
","""event"",""trial"",""time""
""fullscreenenter"",""1"",""5161""
","""event"",""trial"",""time""
""fullscreenexit"",""11"",""65773""
","","10588.40000000596","The mix of cards in each colored deck will stay the same throughout the game. </br> That means that a deck that is lucky early on will stay lucky.","79","","instructions","2021-06-29 23:19:34.661","","","","","",""
"casino-keyboard-response","29","212494","0.0-16.0-0.7","208","false","img/card_backs/set1/green.gif","img/card_backs/set1/purple.gif","img/card_backs/set1/red.gif","img/card_backs/set1/yellow.gif","img/card_backs/set2/blue.gif","img/card_backs/set2/orange.gif","img/card_backs/set2/pink.gif","img/card_backs/set2/gray.gif","""event"",""trial"",""time""
""fullscreenenter"",""1"",""5161""
""fullscreenexit"",""11"",""65773""
","
","
","""event"",""trial"",""time""
""fullscreenenter"",""1"",""5161""
","""event"",""trial"",""time""
""fullscreenexit"",""11"",""65773""
","","8675.70000000298","Remember though, all the decks have a <b> mix </b> of both <b> good </b> and <b> bad </b> cards so it may take a couple of turns to figure out if a deck is lucky.","69","","instructions","2021-06-29 23:19:43.341","","","","","",""
"casino-keyboard-response","30","221928","0.0-16.0-0.8","208","false","img/card_backs/set1/green.gif","img/card_backs/set1/purple.gif","img/card_backs/set1/red.gif","img/card_backs/set1/yellow.gif","img/card_backs/set2/blue.gif","img/card_backs/set2/orange.gif","img/card_backs/set2/pink.gif","img/card_backs/set2/gray.gif","""event"",""trial"",""time""
""fullscreenenter"",""1"",""5161""
""fullscreenexit"",""11"",""65773""
","
","
","""event"",""trial"",""time""
""fullscreenenter"",""1"",""5161""
","""event"",""trial"",""time""
""fullscreenexit"",""11"",""65773""
","","9429.90000000596","At the end of the game, you will be paid bonus money based on how many tokens you win. </br> If you win more tokens, you will earn more money!","72","","instructions","2021-06-29 23:19:52.775","","","","","",""
"casino-keyboard-response","31","233223","0.0-16.0-0.9","208","false","img/card_backs/set1/green.gif","img/card_backs/set1/purple.gif","img/card_backs/set1/red.gif","img/card_backs/set1/yellow.gif","img/card_backs/set2/blue.gif","img/card_backs/set2/orange.gif","img/card_backs/set2/pink.gif","img/card_backs/set2/gray.gif","""event"",""trial"",""time""
""fullscreenenter"",""1"",""5161""
""fullscreenexit"",""11"",""65773""
","
","
","""event"",""trial"",""time""
""fullscreenenter"",""1"",""5161""
","""event"",""trial"",""time""
""fullscreenexit"",""11"",""65773""
","","11290.60000000894","You will never <b> lose </b> money. </br> If you end up with fewer than 0 tokens, you will earn $0 of bonus money, but you will still be paid for playing the game.","83","","instructions","2021-06-29 23:20:04.070","","","","","",""
"casino-keyboard-response","32","237562","0.0-16.0-0.10","208","false","img/card_backs/set1/green.gif","img/card_backs/set1/purple.gif","img/card_backs/set1/red.gif","img/card_backs/set1/yellow.gif","img/card_backs/set2/blue.gif","img/card_backs/set2/orange.gif","img/card_backs/set2/pink.gif","img/card_backs/set2/gray.gif","""event"",""trial"",""time""
""fullscreenenter"",""1"",""5161""
""fullscreenexit"",""11"",""65773""
","
","
","""event"",""trial"",""time""
""fullscreenenter"",""1"",""5161""
","""event"",""trial"",""time""
""fullscreenexit"",""11"",""65773""
","","4333.4000000059605","You will have 10 seconds to make each choice.","82","","instructions","2021-06-29 23:20:08.409","","","","","",""
"casino-keyboard-response","33","247167","0.0-16.0-0.11","208","false","img/card_backs/set1/green.gif","img/card_backs/set1/purple.gif","img/card_backs/set1/red.gif","img/card_backs/set1/yellow.gif","img/card_backs/set2/blue.gif","img/card_backs/set2/orange.gif","img/card_backs/set2/pink.gif","img/card_backs/set2/gray.gif","""event"",""trial"",""time""
""fullscreenenter"",""1"",""5161""
""fullscreenexit"",""11"",""65773""
","
","
","""event"",""trial"",""time""
""fullscreenenter"",""1"",""5161""
","""event"",""trial"",""time""
""fullscreenexit"",""11"",""65773""
","","9601.29999999702","Before you play the game for real, you will play with practice decks. </br> The tokens you earn during practice won't count toward your total.","86","","instructions","2021-06-29 23:20:18.014","","","","","",""
"casino-keyboard-response","34","258690","0.0-16.0-0.12","208","false","img/card_backs/set1/green.gif","img/card_backs/set1/purple.gif","img/card_backs/set1/red.gif","img/card_backs/set1/yellow.gif","img/card_backs/set2/blue.gif","img/card_backs/set2/orange.gif","img/card_backs/set2/pink.gif","img/card_backs/set2/gray.gif","""event"",""trial"",""time""
""fullscreenenter"",""1"",""5161""
""fullscreenexit"",""11"",""65773""
","
","
","""event"",""trial"",""time""
""fullscreenenter"",""1"",""5161""
","""event"",""trial"",""time""
""fullscreenexit"",""11"",""65773""
","","11520.40000000596","Ready? Remember, use the '2', '4', '6', and '8' keys to select the decks. </br> Put your fingers on those keys now and then press '2' to begin.","50","","instructions","2021-06-29 23:20:29.537","","","","","",""
"casino-fixation","35","259209","0.0-17.0-0.0","208","false","img/card_backs/set1/green.gif","img/card_backs/set1/purple.gif","img/card_backs/set1/red.gif","img/card_backs/set1/yellow.gif","img/card_backs/set2/blue.gif","img/card_backs/set2/orange.gif","img/card_backs/set2/pink.gif","img/card_backs/set2/gray.gif","""event"",""trial"",""time""
""fullscreenenter"",""1"",""5161""
""fullscreenexit"",""11"",""65773""
","
","
","""event"",""trial"",""time""
""fullscreenenter"",""1"",""5161""
","""event"",""trial"",""time""
""fullscreenexit"",""11"",""65773""
","","null","","null","","fixation","2021-06-29 23:20:30.056","","","","","",""
"card-selection-trial","36","263364","0.0-17.0-1.0","208","false","img/card_backs/set1/green.gif","img/card_backs/set1/purple.gif","img/card_backs/set1/red.gif","img/card_backs/set1/yellow.gif","img/card_backs/set2/blue.gif","img/card_backs/set2/orange.gif","img/card_backs/set2/pink.gif","img/card_backs/set2/gray.gif","""event"",""trial"",""time""
""fullscreenenter"",""1"",""5161""
""fullscreenexit"",""11"",""65773""
","
","
","""event"",""trial"",""time""
""fullscreenenter"",""1"",""5161""
","""event"",""trial"",""time""
""fullscreenexit"",""11"",""65773""
","","2143.7000000029802","","","","practice","2021-06-29 23:20:34.211","img/practice_cards/backs/dark_blue.gif","0","200","0","",""
"casino-fixation","37","263867","0.0-17.0-0.1","208","false","img/card_backs/set1/green.gif","img/card_backs/set1/purple.gif","img/card_backs/set1/red.gif","img/card_backs/set1/yellow.gif","img/card_backs/set2/blue.gif","img/card_backs/set2/orange.gif","img/card_backs/set2/pink.gif","img/card_backs/set2/gray.gif","""event"",""trial"",""time""
""fullscreenenter"",""1"",""5161""
""fullscreenexit"",""11"",""65773""
","
","
","""event"",""trial"",""time""
""fullscreenenter"",""1"",""5161""
","""event"",""trial"",""time""
""fullscreenexit"",""11"",""65773""
","","null","","null","","fixation","2021-06-29 23:20:34.714","","","","","",""
"card-selection-trial","38","268380","0.0-17.0-1.1","208","false","img/card_backs/set1/green.gif","img/card_backs/set1/purple.gif","img/card_backs/set1/red.gif","img/card_backs/set1/yellow.gif","img/card_backs/set2/blue.gif","img/card_backs/set2/orange.gif","img/card_backs/set2/pink.gif","img/card_backs/set2/gray.gif","""event"",""trial"",""time""
""fullscreenenter"",""1"",""5161""
""fullscreenexit"",""11"",""65773""
","
","
","""event"",""trial"",""time""
""fullscreenenter"",""1"",""5161""
","""event"",""trial"",""time""
""fullscreenexit"",""11"",""65773""
","","2502.7000000029802","","","","practice","2021-06-29 23:20:39.227","img/practice_cards/backs/dark_blue.gif","3","200","0","",""
"casino-fixation","39","268882","0.0-17.0-0.2","208","false","img/card_backs/set1/green.gif","img/card_backs/set1/purple.gif","img/card_backs/set1/red.gif","img/card_backs/set1/yellow.gif","img/card_backs/set2/blue.gif","img/card_backs/set2/orange.gif","img/card_backs/set2/pink.gif","img/card_backs/set2/gray.gif","""event"",""trial"",""time""
""fullscreenenter"",""1"",""5161""
""fullscreenexit"",""11"",""65773""
","
","
","""event"",""trial"",""time""
""fullscreenenter"",""1"",""5161""
","""event"",""trial"",""time""
""fullscreenexit"",""11"",""65773""
","","null","","null","","fixation","2021-06-29 23:20:39.730","","","","","",""
"card-selection-trial","40","280351","0.0-17.0-1.2","208","false","img/card_backs/set1/green.gif","img/card_backs/set1/purple.gif","img/card_backs/set1/red.gif","img/card_backs/set1/yellow.gif","img/card_backs/set2/blue.gif","img/card_backs/set2/orange.gif","img/card_backs/set2/pink.gif","img/card_backs/set2/gray.gif","""event"",""trial"",""time""
""fullscreenenter"",""1"",""5161""
""fullscreenexit"",""11"",""65773""
","
","
","""event"",""trial"",""time""
""fullscreenenter"",""1"",""5161""
","""event"",""trial"",""time""
""fullscreenexit"",""11"",""65773""
","","9459","","","","practice","2021-06-29 23:20:51.198","img/practice_cards/backs/black.gif","1","-100","0","",""
"casino-fixation","41","280855","0.0-17.0-0.3","208","false","img/card_backs/set1/green.gif","img/card_backs/set1/purple.gif","img/card_backs/set1/red.gif","img/card_backs/set1/yellow.gif","img/card_backs/set2/blue.gif","img/card_backs/set2/orange.gif","img/card_backs/set2/pink.gif","img/card_backs/set2/gray.gif","""event"",""trial"",""time""
""fullscreenenter"",""1"",""5161""
""fullscreenexit"",""11"",""65773""
","
","
","""event"",""trial"",""time""
""fullscreenenter"",""1"",""5161""
","""event"",""trial"",""time""
""fullscreenexit"",""11"",""65773""
","","null","","null","","fixation","2021-06-29 23:20:51.702","","","","","",""
"card-selection-trial","42","286476","0.0-17.0-1.3","208","false","img/card_backs/set1/green.gif","img/card_backs/set1/purple.gif","img/card_backs/set1/red.gif","img/card_backs/set1/yellow.gif","img/card_backs/set2/blue.gif","img/card_backs/set2/orange.gif","img/card_backs/set2/pink.gif","img/card_backs/set2/gray.gif","""event"",""trial"",""time""
""fullscreenenter"",""1"",""5161""
""fullscreenexit"",""11"",""65773""
","
","
","""event"",""trial"",""time""
""fullscreenenter"",""1"",""5161""
","""event"",""trial"",""time""
""fullscreenexit"",""11"",""65773""
","","3611.2000000029802","","","","practice","2021-06-29 23:20:57.323","img/practice_cards/backs/dark_blue.gif","1","200","0","",""
"casino-fixation","43","286981","0.0-17.0-0.4","208","false","img/card_backs/set1/green.gif","img/card_backs/set1/purple.gif","img/card_backs/set1/red.gif","img/card_backs/set1/yellow.gif","img/card_backs/set2/blue.gif","img/card_backs/set2/orange.gif","img/card_backs/set2/pink.gif","img/card_backs/set2/gray.gif","""event"",""trial"",""time""
""fullscreenenter"",""1"",""5161""
""fullscreenexit"",""11"",""65773""
","
","
","""event"",""trial"",""time""
""fullscreenenter"",""1"",""5161""
","""event"",""trial"",""time""
""fullscreenexit"",""11"",""65773""
","","null","","null","","fixation","2021-06-29 23:20:57.829","","","","","",""
"card-selection-trial","44","290457","0.0-17.0-1.4","208","false","img/card_backs/set1/green.gif","img/card_backs/set1/purple.gif","img/card_backs/set1/red.gif","img/card_backs/set1/yellow.gif","img/card_backs/set2/blue.gif","img/card_backs/set2/orange.gif","img/card_backs/set2/pink.gif","img/card_backs/set2/gray.gif","""event"",""trial"",""time""
""fullscreenenter"",""1"",""5161""
""fullscreenexit"",""11"",""65773""
","
","
","""event"",""trial"",""time""
""fullscreenenter"",""1"",""5161""
","""event"",""trial"",""time""
""fullscreenexit"",""11"",""65773""
","","1465.4000000059605","","","","practice","2021-06-29 23:21:01.304","img/practice_cards/backs/dark_green.gif","2","200","0","",""
"casino-fixation","45","290959","0.0-17.0-0.5","208","false","img/card_backs/set1/green.gif","img/card_backs/set1/purple.gif","img/card_backs/set1/red.gif","img/card_backs/set1/yellow.gif","img/card_backs/set2/blue.gif","img/card_backs/set2/orange.gif","img/card_backs/set2/pink.gif","img/card_backs/set2/gray.gif","""event"",""trial"",""time""
""fullscreenenter"",""1"",""5161""
""fullscreenexit"",""11"",""65773""
","
","
","""event"",""trial"",""time""
""fullscreenenter"",""1"",""5161""
","""event"",""trial"",""time""
""fullscreenexit"",""11"",""65773""
","","null","","null","","fixation","2021-06-29 23:21:01.806","","","","","",""
"card-selection-trial","46","294985","0.0-17.0-1.5","208","false","img/card_backs/set1/green.gif","img/card_backs/set1/purple.gif","img/card_backs/set1/red.gif","img/card_backs/set1/yellow.gif","img/card_backs/set2/blue.gif","img/card_backs/set2/orange.gif","img/card_backs/set2/pink.gif","img/card_backs/set2/gray.gif","""event"",""trial"",""time""
""fullscreenenter"",""1"",""5161""
""fullscreenexit"",""11"",""65773""
","
","
","""event"",""trial"",""time""
""fullscreenenter"",""1"",""5161""
","""event"",""trial"",""time""
""fullscreenexit"",""11"",""65773""
","","2015.7000000029802","","","","practice","2021-06-29 23:21:05.832","img/practice_cards/backs/dark_blue.gif","3","200","0","",""
"casino-fixation","47","295488","0.0-17.0-0.6","208","false","img/card_backs/set1/green.gif","img/card_backs/set1/purple.gif","img/card_backs/set1/red.gif","img/card_backs/set1/yellow.gif","img/card_backs/set2/blue.gif","img/card_backs/set2/orange.gif","img/card_backs/set2/pink.gif","img/card_backs/set2/gray.gif","""event"",""trial"",""time""
""fullscreenenter"",""1"",""5161""
""fullscreenexit"",""11"",""65773""
","
","
","""event"",""trial"",""time""
""fullscreenenter"",""1"",""5161""
","""event"",""trial"",""time""
""fullscreenexit"",""11"",""65773""
","","null","","null","","fixation","2021-06-29 23:21:06.335","","","","","",""
"card-selection-trial","48","299046","0.0-17.0-1.6","208","false","img/card_backs/set1/green.gif","img/card_backs/set1/purple.gif","img/card_backs/set1/red.gif","img/card_backs/set1/yellow.gif","img/card_backs/set2/blue.gif","img/card_backs/set2/orange.gif","img/card_backs/set2/pink.gif","img/card_backs/set2/gray.gif","""event"",""trial"",""time""
""fullscreenenter"",""1"",""5161""
""fullscreenexit"",""11"",""65773""
","
","
","""event"",""trial"",""time""
""fullscreenenter"",""1"",""5161""
","""event"",""trial"",""time""
""fullscreenexit"",""11"",""65773""
","","1547.7999999970198","","","","practice","2021-06-29 23:21:09.893","img/practice_cards/backs/dark_blue.gif","1","-200","0","",""
"casino-fixation","49","299549","0.0-17.0-0.7","208","false","img/card_backs/set1/green.gif","img/card_backs/set1/purple.gif","img/card_backs/set1/red.gif","img/card_backs/set1/yellow.gif","img/card_backs/set2/blue.gif","img/card_backs/set2/orange.gif","img/card_backs/set2/pink.gif","img/card_backs/set2/gray.gif","""event"",""trial"",""time""
""fullscreenenter"",""1"",""5161""
""fullscreenexit"",""11"",""65773""
","
","
","""event"",""trial"",""time""
""fullscreenenter"",""1"",""5161""
","""event"",""trial"",""time""
""fullscreenexit"",""11"",""65773""
","","null","","null","","fixation","2021-06-29 23:21:10.396","","","","","",""
"card-selection-trial","50","302375","0.0-17.0-1.7","208","false","img/card_backs/set1/green.gif","img/card_backs/set1/purple.gif","img/card_backs/set1/red.gif","img/card_backs/set1/yellow.gif","img/card_backs/set2/blue.gif","img/card_backs/set2/orange.gif","img/card_backs/set2/pink.gif","img/card_backs/set2/gray.gif","""event"",""trial"",""time""
""fullscreenenter"",""1"",""5161""
""fullscreenexit"",""11"",""65773""
","
","
","""event"",""trial"",""time""
""fullscreenenter"",""1"",""5161""
","""event"",""trial"",""time""
""fullscreenexit"",""11"",""65773""
","","814.7000000029802","","","","practice","2021-06-29 23:21:13.222","img/practice_cards/backs/brown.gif","3","100","0","",""
"casino-fixation","51","302877","0.0-17.0-0.8","208","false","img/card_backs/set1/green.gif","img/card_backs/set1/purple.gif","img/card_backs/set1/red.gif","img/card_backs/set1/yellow.gif","img/card_backs/set2/blue.gif","img/card_backs/set2/orange.gif","img/card_backs/set2/pink.gif","img/card_backs/set2/gray.gif","""event"",""trial"",""time""
""fullscreenenter"",""1"",""5161""
""fullscreenexit"",""11"",""65773""
","
","
","""event"",""trial"",""time""
""fullscreenenter"",""1"",""5161""
","""event"",""trial"",""time""
""fullscreenexit"",""11"",""65773""
","","null","","null","","fixation","2021-06-29 23:21:13.724","","","","","",""
"card-selection-trial","52","305293","0.0-17.0-1.8","208","false","img/card_backs/set1/green.gif","img/card_backs/set1/purple.gif","img/card_backs/set1/red.gif","img/card_backs/set1/yellow.gif","img/card_backs/set2/blue.gif","img/card_backs/set2/orange.gif","img/card_backs/set2/pink.gif","img/card_backs/set2/gray.gif","""event"",""trial"",""time""
""fullscreenenter"",""1"",""5161""
""fullscreenexit"",""11"",""65773""
","
","
","""event"",""trial"",""time""
""fullscreenenter"",""1"",""5161""
","""event"",""trial"",""time""
""fullscreenexit"",""11"",""65773""
","","409.90000000596046","","","","practice","2021-06-29 23:21:16.140","img/practice_cards/backs/dark_blue.gif","2","200","0","",""
"casino-fixation","53","305795","0.0-17.0-0.9","208","false","img/card_backs/set1/green.gif","img/card_backs/set1/purple.gif","img/card_backs/set1/red.gif","img/card_backs/set1/yellow.gif","img/card_backs/set2/blue.gif","img/card_backs/set2/orange.gif","img/card_backs/set2/pink.gif","img/card_backs/set2/gray.gif","""event"",""trial"",""time""
""fullscreenenter"",""1"",""5161""
""fullscreenexit"",""11"",""65773""
","
","
","""event"",""trial"",""time""
""fullscreenenter"",""1"",""5161""
","""event"",""trial"",""time""
""fullscreenexit"",""11"",""65773""
","","null","","null","","fixation","2021-06-29 23:21:16.642","","","","","",""
"card-selection-trial","54","308235","0.0-17.0-1.9","208","false","img/card_backs/set1/green.gif","img/card_backs/set1/purple.gif","img/card_backs/set1/red.gif","img/card_backs/set1/yellow.gif","img/card_backs/set2/blue.gif","img/card_backs/set2/orange.gif","img/card_backs/set2/pink.gif","img/card_backs/set2/gray.gif","""event"",""trial"",""time""
""fullscreenenter"",""1"",""5161""
""fullscreenexit"",""11"",""65773""
","
","
","""event"",""trial"",""time""
""fullscreenenter"",""1"",""5161""
","""event"",""trial"",""time""
""fullscreenexit"",""11"",""65773""
","","431.29999999701977","","","","practice","2021-06-29 23:21:19.082","img/practice_cards/backs/black.gif","2","-100","0","",""
"casino-keyboard-response","55","312229","0.0-18.0","208","false","img/card_backs/set1/green.gif","img/card_backs/set1/purple.gif","img/card_backs/set1/red.gif","img/card_backs/set1/yellow.gif","img/card_backs/set2/blue.gif","img/card_backs/set2/orange.gif","img/card_backs/set2/pink.gif","img/card_backs/set2/gray.gif","""event"",""trial"",""time""
""fullscreenenter"",""1"",""5161""
""fullscreenexit"",""11"",""65773""
","
","
","""event"",""trial"",""time""
""fullscreenenter"",""1"",""5161""
","""event"",""trial"",""time""
""fullscreenexit"",""11"",""65773""
","","3991.0999999940395","You earned 900 tokens during the practice round!","82","","","2021-06-29 23:21:23.076","","","","","",""
"casino-keyboard-response","56","317634","0.0-19.0-0.0","208","false","img/card_backs/set1/green.gif","img/card_backs/set1/purple.gif","img/card_backs/set1/red.gif","img/card_backs/set1/yellow.gif","img/card_backs/set2/blue.gif","img/card_backs/set2/orange.gif","img/card_backs/set2/pink.gif","img/card_backs/set2/gray.gif","""event"",""trial"",""time""
""fullscreenenter"",""1"",""5161""
""fullscreenexit"",""11"",""65773""
","
","
","""event"",""trial"",""time""
""fullscreenenter"",""1"",""5161""
","""event"",""trial"",""time""
""fullscreenexit"",""11"",""65773""
","","5402.29999999702","Nice job! You are almost ready to play the real game.","86","","instructions","2021-06-29 23:21:28.481","","","","","",""
"casino-keyboard-response","57","324870","0.0-19.0-0.1","208","false","img/card_backs/set1/green.gif","img/card_backs/set1/purple.gif","img/card_backs/set1/red.gif","img/card_backs/set1/yellow.gif","img/card_backs/set2/blue.gif","img/card_backs/set2/orange.gif","img/card_backs/set2/pink.gif","img/card_backs/set2/gray.gif","""event"",""trial"",""time""
""fullscreenenter"",""1"",""5161""
""fullscreenexit"",""11"",""65773""
","
","
","""event"",""trial"",""time""
""fullscreenenter"",""1"",""5161""
","""event"",""trial"",""time""
""fullscreenexit"",""11"",""65773""
","","7233.20000000298","You will play two rounds of the real game. In each round, you will pick 100 cards in total.","73","","instructions","2021-06-29 23:21:35.718","","","","","",""
"casino-keyboard-response","58","330722","0.0-19.0-0.2","208","false","img/card_backs/set1/green.gif","img/card_backs/set1/purple.gif","img/card_backs/set1/red.gif","img/card_backs/set1/yellow.gif","img/card_backs/set2/blue.gif","img/card_backs/set2/orange.gif","img/card_backs/set2/pink.gif","img/card_backs/set2/gray.gif","""event"",""trial"",""time""
""fullscreenenter"",""1"",""5161""
""fullscreenexit"",""11"",""65773""
","
","
","""event"",""trial"",""time""
""fullscreenenter"",""1"",""5161""
","""event"",""trial"",""time""
""fullscreenexit"",""11"",""65773""
","","5847.20000000298","We are now going to ask you some questions about how the game works.","66","","instructions","2021-06-29 23:21:41.569","","","","","",""
"casino-keyboard-response","59","337351","0.0-19.0-0.3","208","false","img/card_backs/set1/green.gif","img/card_backs/set1/purple.gif","img/card_backs/set1/red.gif","img/card_backs/set1/yellow.gif","img/card_backs/set2/blue.gif","img/card_backs/set2/orange.gif","img/card_backs/set2/pink.gif","img/card_backs/set2/gray.gif","""event"",""trial"",""time""
""fullscreenenter"",""1"",""5161""
""fullscreenexit"",""11"",""65773""
","
","
","""event"",""trial"",""time""
""fullscreenenter"",""1"",""5161""
","""event"",""trial"",""time""
""fullscreenexit"",""11"",""65773""
","","6626","Answer carefully. You will not be able to begin the game until you answer them correctly.","67","","instructions","2021-06-29 23:21:48.198","","","","","",""
"casino-comp_q","60","344796","0.0-20.0-0.0","208","false","img/card_backs/set1/green.gif","img/card_backs/set1/purple.gif","img/card_backs/set1/red.gif","img/card_backs/set1/yellow.gif","img/card_backs/set2/blue.gif","img/card_backs/set2/orange.gif","img/card_backs/set2/pink.gif","img/card_backs/set2/gray.gif","""event"",""trial"",""time""
""fullscreenenter"",""1"",""5161""
""fullscreenexit"",""11"",""65773""
","
","
","""event"",""trial"",""time""
""fullscreenenter"",""1"",""5161""
","""event"",""trial"",""time""
""fullscreenexit"",""11"",""65773""
","","7436.5","True or False: All the decks have some cards that cause you to win tokens and some cards that cause you to lose tokens.","84","","","2021-06-29 23:21:55.644","","","","","",""
"casino-keyboard-response","61","348782","0.0-20.0-1.0","208","false","img/card_backs/set1/green.gif","img/card_backs/set1/purple.gif","img/card_backs/set1/red.gif","img/card_backs/set1/yellow.gif","img/card_backs/set2/blue.gif","img/card_backs/set2/orange.gif","img/card_backs/set2/pink.gif","img/card_backs/set2/gray.gif","""event"",""trial"",""time""
""fullscreenenter"",""1"",""5161""
""fullscreenexit"",""11"",""65773""
","
","
","""event"",""trial"",""time""
""fullscreenenter"",""1"",""5161""
","""event"",""trial"",""time""
""fullscreenexit"",""11"",""65773""
","","3979.2000000029802","True is correct! All the decks have a mix of winning and losing cards.","77","","","2021-06-29 23:21:59.629","","","","","true",""
"casino-comp_q","62","354289","0.0-21.0-0.0","208","false","img/card_backs/set1/green.gif","img/card_backs/set1/purple.gif","img/card_backs/set1/red.gif","img/card_backs/set1/yellow.gif","img/card_backs/set2/blue.gif","img/card_backs/set2/orange.gif","img/card_backs/set2/pink.gif","img/card_backs/set2/gray.gif","""event"",""trial"",""time""
""fullscreenenter"",""1"",""5161""
""fullscreenexit"",""11"",""65773""
","
","
","""event"",""trial"",""time""
""fullscreenenter"",""1"",""5161""
","""event"",""trial"",""time""
""fullscreenexit"",""11"",""65773""
","","5502.5","True or False: You will have as much time as you want to make your response.","70","","","2021-06-29 23:22:05.136","","","","","",""
"casino-keyboard-response","63","358342","0.0-21.0-1.0","208","false","img/card_backs/set1/green.gif","img/card_backs/set1/purple.gif","img/card_backs/set1/red.gif","img/card_backs/set1/yellow.gif","img/card_backs/set2/blue.gif","img/card_backs/set2/orange.gif","img/card_backs/set2/pink.gif","img/card_backs/set2/gray.gif","""event"",""trial"",""time""
""fullscreenenter"",""1"",""5161""
""fullscreenexit"",""11"",""65773""
","
","
","""event"",""trial"",""time""
""fullscreenenter"",""1"",""5161""
","""event"",""trial"",""time""
""fullscreenexit"",""11"",""65773""
","","4048.2000000029802","False is correct! You will only have 10 seconds to make each choice.","75","","","2021-06-29 23:22:09.189","","","","","true",""
"casino-comp_q","64","363159","0.0-22.0-0.0","208","false","img/card_backs/set1/green.gif","img/card_backs/set1/purple.gif","img/card_backs/set1/red.gif","img/card_backs/set1/yellow.gif","img/card_backs/set2/blue.gif","img/card_backs/set2/orange.gif","img/card_backs/set2/pink.gif","img/card_backs/set2/gray.gif","""event"",""trial"",""time""
""fullscreenenter"",""1"",""5161""
""fullscreenexit"",""11"",""65773""
","
","
","""event"",""trial"",""time""
""fullscreenenter"",""1"",""5161""
","""event"",""trial"",""time""
""fullscreenexit"",""11"",""65773""
","","4813.29999999702","True or False: The location of the deck determines how lucky it is.","70","","","2021-06-29 23:22:14.006","","","","","",""
"casino-keyboard-response","65","370800","0.0-22.0-1.0","208","false","img/card_backs/set1/green.gif","img/card_backs/set1/purple.gif","img/card_backs/set1/red.gif","img/card_backs/set1/yellow.gif","img/card_backs/set2/blue.gif","img/card_backs/set2/orange.gif","img/card_backs/set2/pink.gif","img/card_backs/set2/gray.gif","""event"",""trial"",""time""
""fullscreenenter"",""1"",""5161""
""fullscreenexit"",""11"",""65773""
","
","
","""event"",""trial"",""time""
""fullscreenenter"",""1"",""5161""
","""event"",""trial"",""time""
""fullscreenexit"",""11"",""65773""
","","7637.9000000059605","False is correct! The <i>color</i>  of the deck determines how lucky or unlucky it is.","68","","","2021-06-29 23:22:21.647","","","","","true",""
"casino-keyboard-response","66","376854","0.0-23.0-0.0","208","false","img/card_backs/set1/green.gif","img/card_backs/set1/purple.gif","img/card_backs/set1/red.gif","img/card_backs/set1/yellow.gif","img/card_backs/set2/blue.gif","img/card_backs/set2/orange.gif","img/card_backs/set2/pink.gif","img/card_backs/set2/gray.gif","""event"",""trial"",""time""
""fullscreenenter"",""1"",""5161""
""fullscreenexit"",""11"",""65773""
","
","
","""event"",""trial"",""time""
""fullscreenenter"",""1"",""5161""
","""event"",""trial"",""time""
""fullscreenexit"",""11"",""65773""
","","6050","Great job! Now it's time to start the real game.","82","","instructions","2021-06-29 23:22:27.701","","","","","",""
"casino-keyboard-response","67","383754","0.0-23.0-0.1","208","false","img/card_backs/set1/green.gif","img/card_backs/set1/purple.gif","img/card_backs/set1/red.gif","img/card_backs/set1/yellow.gif","img/card_backs/set2/blue.gif","img/card_backs/set2/orange.gif","img/card_backs/set2/pink.gif","img/card_backs/set2/gray.gif","""event"",""trial"",""time""
""fullscreenenter"",""1"",""5161""
""fullscreenexit"",""11"",""65773""
","
","
","""event"",""trial"",""time""
""fullscreenenter"",""1"",""5161""
","""event"",""trial"",""time""
""fullscreenexit"",""11"",""65773""
","","6895.0999999940395","Before we start, we're going to head into a new room of the casino.","86","","instructions","2021-06-29 23:22:34.601","","","","","",""
"casino-keyboard-response","68","390934","0.0-24.0-0.0","208","false","img/card_backs/set1/green.gif","img/card_backs/set1/purple.gif","img/card_backs/set1/red.gif","img/card_backs/set1/yellow.gif","img/card_backs/set2/blue.gif","img/card_backs/set2/orange.gif","img/card_backs/set2/pink.gif","img/card_backs/set2/gray.gif","""event"",""trial"",""time""
""fullscreenenter"",""1"",""5161""
""fullscreenexit"",""11"",""65773""
","
","
","""event"",""trial"",""time""
""fullscreenenter"",""1"",""5161""
","""event"",""trial"",""time""
""fullscreenexit"",""11"",""65773""
","","7177.5999999940395","Here we are! The real game will use different cards, but the rules will be the same.","71","","instructions","2021-06-29 23:22:41.781","","","","","",""
"casino-keyboard-response","69","398765","0.0-24.0-0.1","208","false","img/card_backs/set1/green.gif","img/card_backs/set1/purple.gif","img/card_backs/set1/red.gif","img/card_backs/set1/yellow.gif","img/card_backs/set2/blue.gif","img/card_backs/set2/orange.gif","img/card_backs/set2/pink.gif","img/card_backs/set2/gray.gif","""event"",""trial"",""time""
""fullscreenenter"",""1"",""5161""
""fullscreenexit"",""11"",""65773""
","
","
","""event"",""trial"",""time""
""fullscreenenter"",""1"",""5161""
","""event"",""trial"",""time""
""fullscreenexit"",""11"",""65773""
","","7826.399999991059","Ready? Put your fingers over the '2', '4', 6', and '8' keys so you are ready to play the game. </br> Then press 2 to start.","50","","instructions","2021-06-29 23:22:49.612","","","","","",""
"casino-fixation","70","399269","0.0-25.0-0.0","208","false","img/card_backs/set1/green.gif","img/card_backs/set1/purple.gif","img/card_backs/set1/red.gif","img/card_backs/set1/yellow.gif","img/card_backs/set2/blue.gif","img/card_backs/set2/orange.gif","img/card_backs/set2/pink.gif","img/card_backs/set2/gray.gif","""event"",""trial"",""time""
""fullscreenenter"",""1"",""5161""
""fullscreenexit"",""11"",""65773""
","
","
","""event"",""trial"",""time""
""fullscreenenter"",""1"",""5161""
","""event"",""trial"",""time""
""fullscreenexit"",""11"",""65773""
","","null","","null","","fixation","2021-06-29 23:22:50.116","","","","","",""
"card-selection-trial","71","404149","0.0-25.0-1.0","208","false","img/card_backs/set1/green.gif","img/card_backs/set1/purple.gif","img/card_backs/set1/red.gif","img/card_backs/set1/yellow.gif","img/card_backs/set2/blue.gif","img/card_backs/set2/orange.gif","img/card_backs/set2/pink.gif","img/card_backs/set2/gray.gif","""event"",""trial"",""time""
""fullscreenenter"",""1"",""5161""
""fullscreenexit"",""11"",""65773""
","
","
","""event"",""trial"",""time""
""fullscreenenter"",""1"",""5161""
","""event"",""trial"",""time""
""fullscreenexit"",""11"",""65773""
","","2870.2000000029802","","","","real_trial","2021-06-29 23:22:54.996","img/card_backs/set1/red.gif","2","-50","1","",""
"casino-fixation","72","404652","0.0-25.0-0.1","208","false","img/card_backs/set1/green.gif","img/card_backs/set1/purple.gif","img/card_backs/set1/red.gif","img/card_backs/set1/yellow.gif","img/card_backs/set2/blue.gif","img/card_backs/set2/orange.gif","img/card_backs/set2/pink.gif","img/card_backs/set2/gray.gif","""event"",""trial"",""time""
""fullscreenenter"",""1"",""5161""
""fullscreenexit"",""11"",""65773""
","
","
","""event"",""trial"",""time""
""fullscreenenter"",""1"",""5161""
","""event"",""trial"",""time""
""fullscreenexit"",""11"",""65773""
","","null","","null","","fixation","2021-06-29 23:22:55.499","","","","","",""
"card-selection-trial","73","409807","0.0-25.0-1.1","208","false","img/card_backs/set1/green.gif","img/card_backs/set1/purple.gif","img/card_backs/set1/red.gif","img/card_backs/set1/yellow.gif","img/card_backs/set2/blue.gif","img/card_backs/set2/orange.gif","img/card_backs/set2/pink.gif","img/card_backs/set2/gray.gif","""event"",""trial"",""time""
""fullscreenenter"",""1"",""5161""
""fullscreenexit"",""11"",""65773""
","
","
","""event"",""trial"",""time""
""fullscreenenter"",""1"",""5161""
","""event"",""trial"",""time""
""fullscreenexit"",""11"",""65773""
","","3144.2999999970198","","","","real_trial","2021-06-29 23:23:00.654","img/card_backs/set1/purple.gif","1","180","1","",""
"casino-fixation","74","410311","0.0-25.0-0.2","208","false","img/card_backs/set1/green.gif","img/card_backs/set1/purple.gif","img/card_backs/set1/red.gif","img/card_backs/set1/yellow.gif","img/card_backs/set2/blue.gif","img/card_backs/set2/orange.gif","img/card_backs/set2/pink.gif","img/card_backs/set2/gray.gif","""event"",""trial"",""time""
""fullscreenenter"",""1"",""5161""
""fullscreenexit"",""11"",""65773""
","
","
","""event"",""trial"",""time""
""fullscreenenter"",""1"",""5161""
","""event"",""trial"",""time""
""fullscreenexit"",""11"",""65773""
","","null","","null","","fixation","2021-06-29 23:23:01.158","","","","","",""
"card-selection-trial","75","417107","0.0-25.0-1.2","208","false","img/card_backs/set1/green.gif","img/card_backs/set1/purple.gif","img/card_backs/set1/red.gif","img/card_backs/set1/yellow.gif","img/card_backs/set2/blue.gif","img/card_backs/set2/orange.gif","img/card_backs/set2/pink.gif","img/card_backs/set2/gray.gif","""event"",""trial"",""time""
""fullscreenenter"",""1"",""5161""
""fullscreenexit"",""11"",""65773""
","
","
","""event"",""trial"",""time""
""fullscreenenter"",""1"",""5161""
","""event"",""trial"",""time""
""fullscreenexit"",""11"",""65773""
","","4784.699999988079","","","","real_trial","2021-06-29 23:23:07.954","img/card_backs/set1/yellow.gif","3","100","1","",""
"casino-fixation","76","417613","0.0-25.0-0.3","208","false","img/card_backs/set1/green.gif","img/card_backs/set1/purple.gif","img/card_backs/set1/red.gif","img/card_backs/set1/yellow.gif","img/card_backs/set2/blue.gif","img/card_backs/set2/orange.gif","img/card_backs/set2/pink.gif","img/card_backs/set2/gray.gif","""event"",""trial"",""time""
""fullscreenenter"",""1"",""5161""
""fullscreenexit"",""11"",""65773""
","
","
","""event"",""trial"",""time""
""fullscreenenter"",""1"",""5161""
","""event"",""trial"",""time""
""fullscreenexit"",""11"",""65773""
","","null","","null","","fixation","2021-06-29 23:23:08.460","","","","","",""
"card-selection-trial","77","421726","0.0-25.0-1.3","208","false","img/card_backs/set1/green.gif","img/card_backs/set1/purple.gif","img/card_backs/set1/red.gif","img/card_backs/set1/yellow.gif","img/card_backs/set2/blue.gif","img/card_backs/set2/orange.gif","img/card_backs/set2/pink.gif","img/card_backs/set2/gray.gif","""event"",""trial"",""time""
""fullscreenenter"",""1"",""5161""
""fullscreenexit"",""11"",""65773""
","
","
","""event"",""trial"",""time""
""fullscreenenter"",""1"",""5161""
","""event"",""trial"",""time""
""fullscreenexit"",""11"",""65773""
","","2102.3999999910593","","","","real_trial","2021-06-29 23:23:12.573","img/card_backs/set1/purple.gif","3","-240","1","",""
"casino-fixation","78","422229","0.0-25.0-0.4","208","false","img/card_backs/set1/green.gif","img/card_backs/set1/purple.gif","img/card_backs/set1/red.gif","img/card_backs/set1/yellow.gif","img/card_backs/set2/blue.gif","img/card_backs/set2/orange.gif","img/card_backs/set2/pink.gif","img/card_backs/set2/gray.gif","""event"",""trial"",""time""
""fullscreenenter"",""1"",""5161""
""fullscreenexit"",""11"",""65773""
","
","
","""event"",""trial"",""time""
""fullscreenenter"",""1"",""5161""
","""event"",""trial"",""time""
""fullscreenexit"",""11"",""65773""
","","null","","null","","fixation","2021-06-29 23:23:13.076","","","","","",""
"card-selection-trial","79","429901","0.0-25.0-1.4","208","false","img/card_backs/set1/green.gif","img/card_backs/set1/purple.gif","img/card_backs/set1/red.gif","img/card_backs/set1/yellow.gif","img/card_backs/set2/blue.gif","img/card_backs/set2/orange.gif","img/card_backs/set2/pink.gif","img/card_backs/set2/gray.gif","""event"",""trial"",""time""
""fullscreenenter"",""1"",""5161""
""fullscreenexit"",""11"",""65773""
","
","
","""event"",""trial"",""time""
""fullscreenenter"",""1"",""5161""
","""event"",""trial"",""time""
""fullscreenexit"",""11"",""65773""
","","5661.79999999702","","","","real_trial","2021-06-29 23:23:20.748","img/card_backs/set1/red.gif","1","100","1","",""
"casino-fixation","80","430403","0.0-25.0-0.5","208","false","img/card_backs/set1/green.gif","img/card_backs/set1/purple.gif","img/card_backs/set1/red.gif","img/card_backs/set1/yellow.gif","img/card_backs/set2/blue.gif","img/card_backs/set2/orange.gif","img/card_backs/set2/pink.gif","img/card_backs/set2/gray.gif","""event"",""trial"",""time""
""fullscreenenter"",""1"",""5161""
""fullscreenexit"",""11"",""65773""
","
","
","""event"",""trial"",""time""
""fullscreenenter"",""1"",""5161""
","""event"",""trial"",""time""
""fullscreenexit"",""11"",""65773""
","","null","","null","","fixation","2021-06-29 23:23:21.250","","","","","",""
"card-selection-trial","81","433962","0.0-25.0-1.5","208","false","img/card_backs/set1/green.gif","img/card_backs/set1/purple.gif","img/card_backs/set1/red.gif","img/card_backs/set1/yellow.gif","img/card_backs/set2/blue.gif","img/card_backs/set2/orange.gif","img/card_backs/set2/pink.gif","img/card_backs/set2/gray.gif","""event"",""trial"",""time""
""fullscreenenter"",""1"",""5161""
""fullscreenexit"",""11"",""65773""
","
","
","""event"",""trial"",""time""
""fullscreenenter"",""1"",""5161""
","""event"",""trial"",""time""
""fullscreenexit"",""11"",""65773""
","","1545.9000000059605","","","","real_trial","2021-06-29 23:23:24.809","img/card_backs/set1/purple.gif","3","200","1","",""
"casino-fixation","82","434466","0.0-25.0-0.6","208","false","img/card_backs/set1/green.gif","img/card_backs/set1/purple.gif","img/card_backs/set1/red.gif","img/card_backs/set1/yellow.gif","img/card_backs/set2/blue.gif","img/card_backs/set2/orange.gif","img/card_backs/set2/pink.gif","img/card_backs/set2/gray.gif","""event"",""trial"",""time""
""fullscreenenter"",""1"",""5161""
""fullscreenexit"",""11"",""65773""
","
","
","""event"",""trial"",""time""
""fullscreenenter"",""1"",""5161""
","""event"",""trial"",""time""
""fullscreenexit"",""11"",""65773""
","","null","","null","","fixation","2021-06-29 23:23:25.313","","","","","",""
"card-selection-trial","83","439070","0.0-25.0-1.6","208","false","img/card_backs/set1/green.gif","img/card_backs/set1/purple.gif","img/card_backs/set1/red.gif","img/card_backs/set1/yellow.gif","img/card_backs/set2/blue.gif","img/card_backs/set2/orange.gif","img/card_backs/set2/pink.gif","img/card_backs/set2/gray.gif","""event"",""trial"",""time""
""fullscreenenter"",""1"",""5161""
""fullscreenexit"",""11"",""65773""
","
","
","""event"",""trial"",""time""
""fullscreenenter"",""1"",""5161""
","""event"",""trial"",""time""
""fullscreenexit"",""11"",""65773""
","","2593.5999999940395","","","","real_trial","2021-06-29 23:23:29.917","img/card_backs/set1/yellow.gif","1","-60","1","",""
"casino-fixation","84","439575","0.0-25.0-0.7","208","false","img/card_backs/set1/green.gif","img/card_backs/set1/purple.gif","img/card_backs/set1/red.gif","img/card_backs/set1/yellow.gif","img/card_backs/set2/blue.gif","img/card_backs/set2/orange.gif","img/card_backs/set2/pink.gif","img/card_backs/set2/gray.gif","""event"",""trial"",""time""
""fullscreenenter"",""1"",""5161""
""fullscreenexit"",""11"",""65773""
","
","
","""event"",""trial"",""time""
""fullscreenenter"",""1"",""5161""
","""event"",""trial"",""time""
""fullscreenexit"",""11"",""65773""
","","null","","null","","fixation","2021-06-29 23:23:30.422","","","","","",""
"card-selection-trial","85","443208","0.0-25.0-1.7","208","false","img/card_backs/set1/green.gif","img/card_backs/set1/purple.gif","img/card_backs/set1/red.gif","img/card_backs/set1/yellow.gif","img/card_backs/set2/blue.gif","img/card_backs/set2/orange.gif","img/card_backs/set2/pink.gif","img/card_backs/set2/gray.gif","""event"",""trial"",""time""
""fullscreenenter"",""1"",""5161""
""fullscreenexit"",""11"",""65773""
","
","
","""event"",""trial"",""time""
""fullscreenenter"",""1"",""5161""
","""event"",""trial"",""time""
""fullscreenexit"",""11"",""65773""
","","1623.6000000089407","","","","real_trial","2021-06-29 23:23:34.055","img/card_backs/set1/purple.gif","0","190","1","",""
"casino-fixation","86","443711","0.0-25.0-0.8","208","false","img/card_backs/set1/green.gif","img/card_backs/set1/purple.gif","img/card_backs/set1/red.gif","img/card_backs/set1/yellow.gif","img/card_backs/set2/blue.gif","img/card_backs/set2/orange.gif","img/card_backs/set2/pink.gif","img/card_backs/set2/gray.gif","""event"",""trial"",""time""
""fullscreenenter"",""1"",""5161""
""fullscreenexit"",""11"",""65773""
","
","
","""event"",""trial"",""time""
""fullscreenenter"",""1"",""5161""
","""event"",""trial"",""time""
""fullscreenexit"",""11"",""65773""
","","null","","null","","fixation","2021-06-29 23:23:34.558","","","","","",""
"card-selection-trial","87","447622","0.0-25.0-1.8","208","false","img/card_backs/set1/green.gif","img/card_backs/set1/purple.gif","img/card_backs/set1/red.gif","img/card_backs/set1/yellow.gif","img/card_backs/set2/blue.gif","img/card_backs/set2/orange.gif","img/card_backs/set2/pink.gif","img/card_backs/set2/gray.gif","""event"",""trial"",""time""
""fullscreenenter"",""1"",""5161""
""fullscreenexit"",""11"",""65773""
","
","
","""event"",""trial"",""time""
""fullscreenenter"",""1"",""5161""
","""event"",""trial"",""time""
""fullscreenexit"",""11"",""65773""
","","1900.7000000029802","","","","real_trial","2021-06-29 23:23:38.469","img/card_backs/set1/purple.gif","3","-240","1","",""
"casino-fixation","88","448126","0.0-25.0-0.9","208","false","img/card_backs/set1/green.gif","img/card_backs/set1/purple.gif","img/card_backs/set1/red.gif","img/card_backs/set1/yellow.gif","img/card_backs/set2/blue.gif","img/card_backs/set2/orange.gif","img/card_backs/set2/pink.gif","img/card_backs/set2/gray.gif","""event"",""trial"",""time""
""fullscreenenter"",""1"",""5161""
""fullscreenexit"",""11"",""65773""
","
","
","""event"",""trial"",""time""
""fullscreenenter"",""1"",""5161""
","""event"",""trial"",""time""
""fullscreenexit"",""11"",""65773""
","","null","","null","","fixation","2021-06-29 23:23:38.973","","","","","",""
"card-selection-trial","89","451928","0.0-25.0-1.9","208","false","img/card_backs/set1/green.gif","img/card_backs/set1/purple.gif","img/card_backs/set1/red.gif","img/card_backs/set1/yellow.gif","img/card_backs/set2/blue.gif","img/card_backs/set2/orange.gif","img/card_backs/set2/pink.gif","img/card_backs/set2/gray.gif","""event"",""trial"",""time""
""fullscreenenter"",""1"",""5161""
""fullscreenexit"",""11"",""65773""
","
","
","""event"",""trial"",""time""
""fullscreenenter"",""1"",""5161""
","""event"",""trial"",""time""
""fullscreenexit"",""11"",""65773""
","","1792","","","","real_trial","2021-06-29 23:23:42.775","img/card_backs/set1/green.gif","2","-250","1","",""
"casino-fixation","90","452435","0.0-25.0-0.10","208","false","img/card_backs/set1/green.gif","img/card_backs/set1/purple.gif","img/card_backs/set1/red.gif","img/card_backs/set1/yellow.gif","img/card_backs/set2/blue.gif","img/card_backs/set2/orange.gif","img/card_backs/set2/pink.gif","img/card_backs/set2/gray.gif","""event"",""trial"",""time""
""fullscreenenter"",""1"",""5161""
""fullscreenexit"",""11"",""65773""
","
","
","""event"",""trial"",""time""
""fullscreenenter"",""1"",""5161""
","""event"",""trial"",""time""
""fullscreenexit"",""11"",""65773""
","","null","","null","","fixation","2021-06-29 23:23:43.282","","","","","",""
"card-selection-trial","91","456115","0.0-25.0-1.10","208","false","img/card_backs/set1/green.gif","img/card_backs/set1/purple.gif","img/card_backs/set1/red.gif","img/card_backs/set1/yellow.gif","img/card_backs/set2/blue.gif","img/card_backs/set2/orange.gif","img/card_backs/set2/pink.gif","img/card_backs/set2/gray.gif","""event"",""trial"",""time""
""fullscreenenter"",""1"",""5161""
""fullscreenexit"",""11"",""65773""
","
","
","""event"",""trial"",""time""
""fullscreenenter"",""1"",""5161""
","""event"",""trial"",""time""
""fullscreenexit"",""11"",""65773""
","","1669.1000000089407","","","","real_trial","2021-06-29 23:23:46.962","img/card_backs/set1/green.gif","3","190","1","",""
"casino-fixation","92","456618","0.0-25.0-0.11","208","false","img/card_backs/set1/green.gif","img/card_backs/set1/purple.gif","img/card_backs/set1/red.gif","img/card_backs/set1/yellow.gif","img/card_backs/set2/blue.gif","img/card_backs/set2/orange.gif","img/card_backs/set2/pink.gif","img/card_backs/set2/gray.gif","""event"",""trial"",""time""
""fullscreenenter"",""1"",""5161""
""fullscreenexit"",""11"",""65773""
","
","
","""event"",""trial"",""time""
""fullscreenenter"",""1"",""5161""
","""event"",""trial"",""time""
""fullscreenexit"",""11"",""65773""
","","null","","null","","fixation","2021-06-29 23:23:47.465","","","","","",""
"card-selection-trial","93","462179","0.0-25.0-1.11","208","false","img/card_backs/set1/green.gif","img/card_backs/set1/purple.gif","img/card_backs/set1/red.gif","img/card_backs/set1/yellow.gif","img/card_backs/set2/blue.gif","img/card_backs/set2/orange.gif","img/card_backs/set2/pink.gif","img/card_backs/set2/gray.gif","""event"",""trial"",""time""
""fullscreenenter"",""1"",""5161""
""fullscreenexit"",""11"",""65773""
","
","
","""event"",""trial"",""time""
""fullscreenenter"",""1"",""5161""
","""event"",""trial"",""time""
""fullscreenexit"",""11"",""65773""
","","3550.7999999970198","","","","real_trial","2021-06-29 23:23:53.026","img/card_backs/set1/red.gif","0","-50","1","",""
"casino-fixation","94","462682","0.0-25.0-0.12","208","false","img/card_backs/set1/green.gif","img/card_backs/set1/purple.gif","img/card_backs/set1/red.gif","img/card_backs/set1/yellow.gif","img/card_backs/set2/blue.gif","img/card_backs/set2/orange.gif","img/card_backs/set2/pink.gif","img/card_backs/set2/gray.gif","""event"",""trial"",""time""
""fullscreenenter"",""1"",""5161""
""fullscreenexit"",""11"",""65773""
","
","
","""event"",""trial"",""time""
""fullscreenenter"",""1"",""5161""
","""event"",""trial"",""time""
""fullscreenexit"",""11"",""65773""
","","null","","null","","fixation","2021-06-29 23:23:53.529","","","","","",""
"card-selection-trial","95","466410","0.0-25.0-1.12","208","false","img/card_backs/set1/green.gif","img/card_backs/set1/purple.gif","img/card_backs/set1/red.gif","img/card_backs/set1/yellow.gif","img/card_backs/set2/blue.gif","img/card_backs/set2/orange.gif","img/card_backs/set2/pink.gif","img/card_backs/set2/gray.gif","""event"",""trial"",""time""
""fullscreenenter"",""1"",""5161""
""fullscreenexit"",""11"",""65773""
","
","
","""event"",""trial"",""time""
""fullscreenenter"",""1"",""5161""
","""event"",""trial"",""time""
""fullscreenexit"",""11"",""65773""
","","1718.1000000089407","","","","real_trial","2021-06-29 23:23:57.257","img/card_backs/set1/red.gif","2","110","1","",""
"casino-fixation","96","466914","0.0-25.0-0.13","208","false","img/card_backs/set1/green.gif","img/card_backs/set1/purple.gif","img/card_backs/set1/red.gif","img/card_backs/set1/yellow.gif","img/card_backs/set2/blue.gif","img/card_backs/set2/orange.gif","img/card_backs/set2/pink.gif","img/card_backs/set2/gray.gif","""event"",""trial"",""time""
""fullscreenenter"",""1"",""5161""
""fullscreenexit"",""11"",""65773""
","
","
","""event"",""trial"",""time""
""fullscreenenter"",""1"",""5161""
","""event"",""trial"",""time""
""fullscreenexit"",""11"",""65773""
","","null","","null","","fixation","2021-06-29 23:23:57.761","","","","","",""
"card-selection-trial","97","471626","0.0-25.0-1.13","208","false","img/card_backs/set1/green.gif","img/card_backs/set1/purple.gif","img/card_backs/set1/red.gif","img/card_backs/set1/yellow.gif","img/card_backs/set2/blue.gif","img/card_backs/set2/orange.gif","img/card_backs/set2/pink.gif","img/card_backs/set2/gray.gif","""event"",""trial"",""time""
""fullscreenenter"",""1"",""5161""
""fullscreenexit"",""11"",""65773""
","
","
","""event"",""trial"",""time""
""fullscreenenter"",""1"",""5161""
","""event"",""trial"",""time""
""fullscreenexit"",""11"",""65773""
","","2700.5999999940395","","","","real_trial","2021-06-29 23:24:02.473","img/card_backs/set1/yellow.gif","0","100","1","",""
"casino-fixation","98","472129","0.0-25.0-0.14","208","false","img/card_backs/set1/green.gif","img/card_backs/set1/purple.gif","img/card_backs/set1/red.gif","img/card_backs/set1/yellow.gif","img/card_backs/set2/blue.gif","img/card_backs/set2/orange.gif","img/card_backs/set2/pink.gif","img/card_backs/set2/gray.gif","""event"",""trial"",""time""
""fullscreenenter"",""1"",""5161""
""fullscreenexit"",""11"",""65773""
","
","
","""event"",""trial"",""time""
""fullscreenenter"",""1"",""5161""
","""event"",""trial"",""time""
""fullscreenexit"",""11"",""65773""
","","null","","null","","fixation","2021-06-29 23:24:02.976","","","","","",""
"card-selection-trial","99","475552","0.0-25.0-1.14","208","false","img/card_backs/set1/green.gif","img/card_backs/set1/purple.gif","img/card_backs/set1/red.gif","img/card_backs/set1/yellow.gif","img/card_backs/set2/blue.gif","img/card_backs/set2/orange.gif","img/card_backs/set2/pink.gif","img/card_backs/set2/gray.gif","""event"",""trial"",""time""
""fullscreenenter"",""1"",""5161""
""fullscreenexit"",""11"",""65773""
","
","
","""event"",""trial"",""time""
""fullscreenenter"",""1"",""5161""
","""event"",""trial"",""time""
""fullscreenexit"",""11"",""65773""
","","1413.5999999940395","","","","real_trial","2021-06-29 23:24:06.399","img/card_backs/set1/red.gif","2","-50","1","",""
"casino-fixation","100","476055","0.0-25.0-0.15","208","false","img/card_backs/set1/green.gif","img/card_backs/set1/purple.gif","img/card_backs/set1/red.gif","img/card_backs/set1/yellow.gif","img/card_backs/set2/blue.gif","img/card_backs/set2/orange.gif","img/card_backs/set2/pink.gif","img/card_backs/set2/gray.gif","""event"",""trial"",""time""
""fullscreenenter"",""1"",""5161""
""fullscreenexit"",""11"",""65773""
","
","
","""event"",""trial"",""time""
""fullscreenenter"",""1"",""5161""
","""event"",""trial"",""time""
""fullscreenexit"",""11"",""65773""
","","null","","null","","fixation","2021-06-29 23:24:06.902","","","","","",""
"card-selection-trial","101","478588","0.0-25.0-1.15","208","false","img/card_backs/set1/green.gif","img/card_backs/set1/purple.gif","img/card_backs/set1/red.gif","img/card_backs/set1/yellow.gif","img/card_backs/set2/blue.gif","img/card_backs/set2/orange.gif","img/card_backs/set2/pink.gif","img/card_backs/set2/gray.gif","""event"",""trial"",""time""
""fullscreenenter"",""1"",""5161""
""fullscreenexit"",""11"",""65773""
","
","
","""event"",""trial"",""time""
""fullscreenenter"",""1"",""5161""
","""event"",""trial"",""time""
""fullscreenexit"",""11"",""65773""
","","526.2000000029802","","","","real_trial","2021-06-29 23:24:09.435","img/card_backs/set1/green.gif","3","-240","1","",""
"casino-fixation","102","479090","0.0-25.0-0.16","208","false","img/card_backs/set1/green.gif","img/card_backs/set1/purple.gif","img/card_backs/set1/red.gif","img/card_backs/set1/yellow.gif","img/card_backs/set2/blue.gif","img/card_backs/set2/orange.gif","img/card_backs/set2/pink.gif","img/card_backs/set2/gray.gif","""event"",""trial"",""time""
""fullscreenenter"",""1"",""5161""
""fullscreenexit"",""11"",""65773""
","
","
","""event"",""trial"",""time""
""fullscreenenter"",""1"",""5161""
","""event"",""trial"",""time""
""fullscreenexit"",""11"",""65773""
","","null","","null","","fixation","2021-06-29 23:24:09.937","","","","","",""
"card-selection-trial","103","483174","0.0-25.0-1.16","208","false","img/card_backs/set1/green.gif","img/card_backs/set1/purple.gif","img/card_backs/set1/red.gif","img/card_backs/set1/yellow.gif","img/card_backs/set2/blue.gif","img/card_backs/set2/orange.gif","img/card_backs/set2/pink.gif","img/card_backs/set2/gray.gif","""event"",""trial"",""time""
""fullscreenenter"",""1"",""5161""
""fullscreenexit"",""11"",""65773""
","
","
","""event"",""trial"",""time""
""fullscreenenter"",""1"",""5161""
","""event"",""trial"",""time""
""fullscreenexit"",""11"",""65773""
","","2073.7999999970198","","","","real_trial","2021-06-29 23:24:14.021","img/card_backs/set1/green.gif","0","-250","1","",""
"casino-fixation","104","483677","0.0-25.0-0.17","208","false","img/card_backs/set1/green.gif","img/card_backs/set1/purple.gif","img/card_backs/set1/red.gif","img/card_backs/set1/yellow.gif","img/card_backs/set2/blue.gif","img/card_backs/set2/orange.gif","img/card_backs/set2/pink.gif","img/card_backs/set2/gray.gif","""event"",""trial"",""time""
""fullscreenenter"",""1"",""5161""
""fullscreenexit"",""11"",""65773""
","
","
","""event"",""trial"",""time""
""fullscreenenter"",""1"",""5161""
","""event"",""trial"",""time""
""fullscreenexit"",""11"",""65773""
","","null","","null","","fixation","2021-06-29 23:24:14.524","","","","","",""
"card-selection-trial","105","487907","0.0-25.0-1.17","208","false","img/card_backs/set1/green.gif","img/card_backs/set1/purple.gif","img/card_backs/set1/red.gif","img/card_backs/set1/yellow.gif","img/card_backs/set2/blue.gif","img/card_backs/set2/orange.gif","img/card_backs/set2/pink.gif","img/card_backs/set2/gray.gif","""event"",""trial"",""time""
""fullscreenenter"",""1"",""5161""
""fullscreenexit"",""11"",""65773""
","
","
","""event"",""trial"",""time""
""fullscreenenter"",""1"",""5161""
","""event"",""trial"",""time""
""fullscreenexit"",""11"",""65773""
","","2220.5","","","","real_trial","2021-06-29 23:24:18.755","img/card_backs/set1/green.gif","1","190","1","",""
"casino-fixation","106","488410","0.0-25.0-0.18","208","false","img/card_backs/set1/green.gif","img/card_backs/set1/purple.gif","img/card_backs/set1/red.gif","img/card_backs/set1/yellow.gif","img/card_backs/set2/blue.gif","img/card_backs/set2/orange.gif","img/card_backs/set2/pink.gif","img/card_backs/set2/gray.gif","""event"",""trial"",""time""
""fullscreenenter"",""1"",""5161""
""fullscreenexit"",""11"",""65773""
","
","
","""event"",""trial"",""time""
""fullscreenenter"",""1"",""5161""
","""event"",""trial"",""time""
""fullscreenexit"",""11"",""65773""
","","null","","null","","fixation","2021-06-29 23:24:19.257","","","","","",""
"card-selection-trial","107","493144","0.0-25.0-1.18","208","false","img/card_backs/set1/green.gif","img/card_backs/set1/purple.gif","img/card_backs/set1/red.gif","img/card_backs/set1/yellow.gif","img/card_backs/set2/blue.gif","img/card_backs/set2/orange.gif","img/card_backs/set2/pink.gif","img/card_backs/set2/gray.gif","""event"",""trial"",""time""
""fullscreenenter"",""1"",""5161""
""fullscreenexit"",""11"",""65773""
","
","
","""event"",""trial"",""time""
""fullscreenenter"",""1"",""5161""
","""event"",""trial"",""time""
""fullscreenexit"",""11"",""65773""
","","2722.4000000059605","","","","real_trial","2021-06-29 23:24:23.991","img/card_backs/set1/red.gif","2","-50","1","",""
"casino-fixation","108","493648","0.0-25.0-0.19","208","false","img/card_backs/set1/green.gif","img/card_backs/set1/purple.gif","img/card_backs/set1/red.gif","img/card_backs/set1/yellow.gif","img/card_backs/set2/blue.gif","img/card_backs/set2/orange.gif","img/card_backs/set2/pink.gif","img/card_backs/set2/gray.gif","""event"",""trial"",""time""
""fullscreenenter"",""1"",""5161""
""fullscreenexit"",""11"",""65773""
","
","
","""event"",""trial"",""time""
""fullscreenenter"",""1"",""5161""
","""event"",""trial"",""time""
""fullscreenexit"",""11"",""65773""
","","null","","null","","fixation","2021-06-29 23:24:24.495","","","","","",""
"card-selection-trial","109","497649","0.0-25.0-1.19","208","false","img/card_backs/set1/green.gif","img/card_backs/set1/purple.gif","img/card_backs/set1/red.gif","img/card_backs/set1/yellow.gif","img/card_backs/set2/blue.gif","img/card_backs/set2/orange.gif","img/card_backs/set2/pink.gif","img/card_backs/set2/gray.gif","""event"",""trial"",""time""
""fullscreenenter"",""1"",""5161""
""fullscreenexit"",""11"",""65773""
","
","
","""event"",""trial"",""time""
""fullscreenenter"",""1"",""5161""
","""event"",""trial"",""time""
""fullscreenexit"",""11"",""65773""
","","1991.5","","","","real_trial","2021-06-29 23:24:28.496","img/card_backs/set1/green.gif","0","190","1","",""
"casino-fixation","110","498152","0.0-25.0-0.20","208","false","img/card_backs/set1/green.gif","img/card_backs/set1/purple.gif","img/card_backs/set1/red.gif","img/card_backs/set1/yellow.gif","img/card_backs/set2/blue.gif","img/card_backs/set2/orange.gif","img/card_backs/set2/pink.gif","img/card_backs/set2/gray.gif","""event"",""trial"",""time""
""fullscreenenter"",""1"",""5161""
""fullscreenexit"",""11"",""65773""
","
","
","""event"",""trial"",""time""
""fullscreenenter"",""1"",""5161""
","""event"",""trial"",""time""
""fullscreenexit"",""11"",""65773""
","","null","","null","","fixation","2021-06-29 23:24:28.999","","","","","",""
"card-selection-trial","111","501534","0.0-25.0-1.20","208","false","img/card_backs/set1/green.gif","img/card_backs/set1/purple.gif","img/card_backs/set1/red.gif","img/card_backs/set1/yellow.gif","img/card_backs/set2/blue.gif","img/card_backs/set2/orange.gif","img/card_backs/set2/pink.gif","img/card_backs/set2/gray.gif","""event"",""trial"",""time""
""fullscreenenter"",""1"",""5161""
""fullscreenexit"",""11"",""65773""
","
","
","""event"",""trial"",""time""
""fullscreenenter"",""1"",""5161""
","""event"",""trial"",""time""
""fullscreenexit"",""11"",""65773""
","","1371.4000000059605","","","","real_trial","2021-06-29 23:24:32.381","img/card_backs/set1/yellow.gif","3","-70","1","",""
"casino-fixation","112","502037","0.0-25.0-0.21","208","false","img/card_backs/set1/green.gif","img/card_backs/set1/purple.gif","img/card_backs/set1/red.gif","img/card_backs/set1/yellow.gif","img/card_backs/set2/blue.gif","img/card_backs/set2/orange.gif","img/card_backs/set2/pink.gif","img/card_backs/set2/gray.gif","""event"",""trial"",""time""
""fullscreenenter"",""1"",""5161""
""fullscreenexit"",""11"",""65773""
","
","
","""event"",""trial"",""time""
""fullscreenenter"",""1"",""5161""
","""event"",""trial"",""time""
""fullscreenexit"",""11"",""65773""
","","null","","null","","fixation","2021-06-29 23:24:32.884","","","","","",""
"card-selection-trial","113","506456","0.0-25.0-1.21","208","false","img/card_backs/set1/green.gif","img/card_backs/set1/purple.gif","img/card_backs/set1/red.gif","img/card_backs/set1/yellow.gif","img/card_backs/set2/blue.gif","img/card_backs/set2/orange.gif","img/card_backs/set2/pink.gif","img/card_backs/set2/gray.gif","""event"",""trial"",""time""
""fullscreenenter"",""1"",""5161""
""fullscreenexit"",""11"",""65773""
","
","
","""event"",""trial"",""time""
""fullscreenenter"",""1"",""5161""
","""event"",""trial"",""time""
""fullscreenexit"",""11"",""65773""
","","2410.5","","","","real_trial","2021-06-29 23:24:37.303","img/card_backs/set1/yellow.gif","0","100","1","",""
"casino-fixation","114","506960","0.0-25.0-0.22","208","false","img/card_backs/set1/green.gif","img/card_backs/set1/purple.gif","img/card_backs/set1/red.gif","img/card_backs/set1/yellow.gif","img/card_backs/set2/blue.gif","img/card_backs/set2/orange.gif","img/card_backs/set2/pink.gif","img/card_backs/set2/gray.gif","""event"",""trial"",""time""
""fullscreenenter"",""1"",""5161""
""fullscreenexit"",""11"",""65773""
","
","
","""event"",""trial"",""time""
""fullscreenenter"",""1"",""5161""
","""event"",""trial"",""time""
""fullscreenexit"",""11"",""65773""
","","null","","null","","fixation","2021-06-29 23:24:37.807","","","","","",""
"card-selection-trial","115","510569","0.0-25.0-1.22","208","false","img/card_backs/set1/green.gif","img/card_backs/set1/purple.gif","img/card_backs/set1/red.gif","img/card_backs/set1/yellow.gif","img/card_backs/set2/blue.gif","img/card_backs/set2/orange.gif","img/card_backs/set2/pink.gif","img/card_backs/set2/gray.gif","""event"",""trial"",""time""
""fullscreenenter"",""1"",""5161""
""fullscreenexit"",""11"",""65773""
","
","
","""event"",""trial"",""time""
""fullscreenenter"",""1"",""5161""
","""event"",""trial"",""time""
""fullscreenexit"",""11"",""65773""
","","1598.2000000029802","","","","real_trial","2021-06-29 23:24:41.416","img/card_backs/set1/red.gif","2","-70","1","",""
"casino-fixation","116","511072","0.0-25.0-0.23","208","false","img/card_backs/set1/green.gif","img/card_backs/set1/purple.gif","img/card_backs/set1/red.gif","img/card_backs/set1/yellow.gif","img/card_backs/set2/blue.gif","img/card_backs/set2/orange.gif","img/card_backs/set2/pink.gif","img/card_backs/set2/gray.gif","""event"",""trial"",""time""
""fullscreenenter"",""1"",""5161""
""fullscreenexit"",""11"",""65773""
","
","
","""event"",""trial"",""time""
""fullscreenenter"",""1"",""5161""
","""event"",""trial"",""time""
""fullscreenexit"",""11"",""65773""
","","null","","null","","fixation","2021-06-29 23:24:41.919","","","","","",""
"card-selection-trial","117","514748","0.0-25.0-1.23","208","false","img/card_backs/set1/green.gif","img/card_backs/set1/purple.gif","img/card_backs/set1/red.gif","img/card_backs/set1/yellow.gif","img/card_backs/set2/blue.gif","img/card_backs/set2/orange.gif","img/card_backs/set2/pink.gif","img/card_backs/set2/gray.gif","""event"",""trial"",""time""
""fullscreenenter"",""1"",""5161""
""fullscreenexit"",""11"",""65773""
","
","
","""event"",""trial"",""time""
""fullscreenenter"",""1"",""5161""
","""event"",""trial"",""time""
""fullscreenexit"",""11"",""65773""
","","1666.2999999970198","","","","real_trial","2021-06-29 23:24:45.595","img/card_backs/set1/green.gif","2","180","1","",""
"casino-fixation","118","515257","0.0-25.0-0.24","208","false","img/card_backs/set1/green.gif","img/card_backs/set1/purple.gif","img/card_backs/set1/red.gif","img/card_backs/set1/yellow.gif","img/card_backs/set2/blue.gif","img/card_backs/set2/orange.gif","img/card_backs/set2/pink.gif","img/card_backs/set2/gray.gif","""event"",""trial"",""time""
""fullscreenenter"",""1"",""5161""
""fullscreenexit"",""11"",""65773""
","
","
","""event"",""trial"",""time""
""fullscreenenter"",""1"",""5161""
","""event"",""trial"",""time""
""fullscreenexit"",""11"",""65773""
","","null","","null","","fixation","2021-06-29 23:24:46.104","","","","","",""
"card-selection-trial","119","520806","0.0-25.0-1.24","208","false","img/card_backs/set1/green.gif","img/card_backs/set1/purple.gif","img/card_backs/set1/red.gif","img/card_backs/set1/yellow.gif","img/card_backs/set2/blue.gif","img/card_backs/set2/orange.gif","img/card_backs/set2/pink.gif","img/card_backs/set2/gray.gif","""event"",""trial"",""time""
""fullscreenenter"",""1"",""5161""
""fullscreenexit"",""11"",""65773""
","
","
","""event"",""trial"",""time""
""fullscreenenter"",""1"",""5161""
","""event"",""trial"",""time""
""fullscreenexit"",""11"",""65773""
","","3538.7000000029802","","","","real_trial","2021-06-29 23:24:51.653","img/card_backs/set1/green.gif","0","180","1","",""
"casino-fixation","120","521309","0.0-25.0-0.25","208","false","img/card_backs/set1/green.gif","img/card_backs/set1/purple.gif","img/card_backs/set1/red.gif","img/card_backs/set1/yellow.gif","img/card_backs/set2/blue.gif","img/card_backs/set2/orange.gif","img/card_backs/set2/pink.gif","img/card_backs/set2/gray.gif","""event"",""trial"",""time""
""fullscreenenter"",""1"",""5161""
""fullscreenexit"",""11"",""65773""
","
","
","""event"",""trial"",""time""
""fullscreenenter"",""1"",""5161""
","""event"",""trial"",""time""
""fullscreenexit"",""11"",""65773""
","","null","","null","","fixation","2021-06-29 23:24:52.156","","","","","",""
"card-selection-trial","121","525872","0.0-25.0-1.25","208","false","img/card_backs/set1/green.gif","img/card_backs/set1/purple.gif","img/card_backs/set1/red.gif","img/card_backs/set1/yellow.gif","img/card_backs/set2/blue.gif","img/card_backs/set2/orange.gif","img/card_backs/set2/pink.gif","img/card_backs/set2/gray.gif","""event"",""trial"",""time""
""fullscreenenter"",""1"",""5161""
""fullscreenexit"",""11"",""65773""
","
","
","""event"",""trial"",""time""
""fullscreenenter"",""1"",""5161""
","""event"",""trial"",""time""
""fullscreenexit"",""11"",""65773""
","","2551.7000000029802","","","","real_trial","2021-06-29 23:24:56.719","img/card_backs/set1/green.gif","0","-230","1","",""
"casino-fixation","122","526374","0.0-25.0-0.26","208","false","img/card_backs/set1/green.gif","img/card_backs/set1/purple.gif","img/card_backs/set1/red.gif","img/card_backs/set1/yellow.gif","img/card_backs/set2/blue.gif","img/card_backs/set2/orange.gif","img/card_backs/set2/pink.gif","img/card_backs/set2/gray.gif","""event"",""trial"",""time""
""fullscreenenter"",""1"",""5161""
""fullscreenexit"",""11"",""65773""
","
","
","""event"",""trial"",""time""
""fullscreenenter"",""1"",""5161""
","""event"",""trial"",""time""
""fullscreenexit"",""11"",""65773""
","","null","","null","","fixation","2021-06-29 23:24:57.222","","","","","",""
"card-selection-trial","123","528907","0.0-25.0-1.26","208","false","img/card_backs/set1/green.gif","img/card_backs/set1/purple.gif","img/card_backs/set1/red.gif","img/card_backs/set1/yellow.gif","img/card_backs/set2/blue.gif","img/card_backs/set2/orange.gif","img/card_backs/set2/pink.gif","img/card_backs/set2/gray.gif","""event"",""trial"",""time""
""fullscreenenter"",""1"",""5161""
""fullscreenexit"",""11"",""65773""
","
","
","""event"",""trial"",""time""
""fullscreenenter"",""1"",""5161""
","""event"",""trial"",""time""
""fullscreenexit"",""11"",""65773""
","","521.6000000089407","","","","real_trial","2021-06-29 23:24:59.754","img/card_backs/set1/green.gif","3","190","1","",""
"casino-fixation","124","529411","0.0-25.0-0.27","208","false","img/card_backs/set1/green.gif","img/card_backs/set1/purple.gif","img/card_backs/set1/red.gif","img/card_backs/set1/yellow.gif","img/card_backs/set2/blue.gif","img/card_backs/set2/orange.gif","img/card_backs/set2/pink.gif","img/card_backs/set2/gray.gif","""event"",""trial"",""time""
""fullscreenenter"",""1"",""5161""
""fullscreenexit"",""11"",""65773""
","
","
","""event"",""trial"",""time""
""fullscreenenter"",""1"",""5161""
","""event"",""trial"",""time""
""fullscreenexit"",""11"",""65773""
","","null","","null","","fixation","2021-06-29 23:25:00.258","","","","","",""
"card-selection-trial","125","534214","0.0-25.0-1.27","208","false","img/card_backs/set1/green.gif","img/card_backs/set1/purple.gif","img/card_backs/set1/red.gif","img/card_backs/set1/yellow.gif","img/card_backs/set2/blue.gif","img/card_backs/set2/orange.gif","img/card_backs/set2/pink.gif","img/card_backs/set2/gray.gif","""event"",""trial"",""time""
""fullscreenenter"",""1"",""5161""
""fullscreenexit"",""11"",""65773""
","
","
","""event"",""trial"",""time""
""fullscreenenter"",""1"",""5161""
","""event"",""trial"",""time""
""fullscreenexit"",""11"",""65773""
","","2792.2000000029802","","","","real_trial","2021-06-29 23:25:05.061","img/card_backs/set1/yellow.gif","1","100","1","",""
"casino-fixation","126","534718","0.0-25.0-0.28","208","false","img/card_backs/set1/green.gif","img/card_backs/set1/purple.gif","img/card_backs/set1/red.gif","img/card_backs/set1/yellow.gif","img/card_backs/set2/blue.gif","img/card_backs/set2/orange.gif","img/card_backs/set2/pink.gif","img/card_backs/set2/gray.gif","""event"",""trial"",""time""
""fullscreenenter"",""1"",""5161""
""fullscreenexit"",""11"",""65773""
","
","
","""event"",""trial"",""time""
""fullscreenenter"",""1"",""5161""
","""event"",""trial"",""time""
""fullscreenexit"",""11"",""65773""
","","null","","null","","fixation","2021-06-29 23:25:05.565","","","","","",""
"card-selection-trial","127","538604","0.0-25.0-1.28","208","false","img/card_backs/set1/green.gif","img/card_backs/set1/purple.gif","img/card_backs/set1/red.gif","img/card_backs/set1/yellow.gif","img/card_backs/set2/blue.gif","img/card_backs/set2/orange.gif","img/card_backs/set2/pink.gif","img/card_backs/set2/gray.gif","""event"",""trial"",""time""
""fullscreenenter"",""1"",""5161""
""fullscreenexit"",""11"",""65773""
","
","
","""event"",""trial"",""time""
""fullscreenenter"",""1"",""5161""
","""event"",""trial"",""time""
""fullscreenexit"",""11"",""65773""
","","1876.3999999910593","","","","real_trial","2021-06-29 23:25:09.451","img/card_backs/set1/red.gif","0","-50","1","",""
"casino-fixation","128","539109","0.0-25.0-0.29","208","false","img/card_backs/set1/green.gif","img/card_backs/set1/purple.gif","img/card_backs/set1/red.gif","img/card_backs/set1/yellow.gif","img/card_backs/set2/blue.gif","img/card_backs/set2/orange.gif","img/card_backs/set2/pink.gif","img/card_backs/set2/gray.gif","""event"",""trial"",""time""
""fullscreenenter"",""1"",""5161""
""fullscreenexit"",""11"",""65773""
","
","
","""event"",""trial"",""time""
""fullscreenenter"",""1"",""5161""
","""event"",""trial"",""time""
""fullscreenexit"",""11"",""65773""
","","null","","null","","fixation","2021-06-29 23:25:09.956","","","","","",""
"card-selection-trial","129","543109","0.0-25.0-1.29","208","false","img/card_backs/set1/green.gif","img/card_backs/set1/purple.gif","img/card_backs/set1/red.gif","img/card_backs/set1/yellow.gif","img/card_backs/set2/blue.gif","img/card_backs/set2/orange.gif","img/card_backs/set2/pink.gif","img/card_backs/set2/gray.gif","""event"",""trial"",""time""
""fullscreenenter"",""1"",""5161""
""fullscreenexit"",""11"",""65773""
","
","
","""event"",""trial"",""time""
""fullscreenenter"",""1"",""5161""
","""event"",""trial"",""time""
""fullscreenexit"",""11"",""65773""
","","1989.5","","","","real_trial","2021-06-29 23:25:13.956","img/card_backs/set1/green.gif","2","200","1","",""
"casino-fixation","130","543615","0.0-25.0-0.30","208","false","img/card_backs/set1/green.gif","img/card_backs/set1/purple.gif","img/card_backs/set1/red.gif","img/card_backs/set1/yellow.gif","img/card_backs/set2/blue.gif","img/card_backs/set2/orange.gif","img/card_backs/set2/pink.gif","img/card_backs/set2/gray.gif","""event"",""trial"",""time""
""fullscreenenter"",""1"",""5161""
""fullscreenexit"",""11"",""65773""
","
","
","""event"",""trial"",""time""
""fullscreenenter"",""1"",""5161""
","""event"",""trial"",""time""
""fullscreenexit"",""11"",""65773""
","","null","","null","","fixation","2021-06-29 23:25:14.462","","","","","",""
"card-selection-trial","131","547494","0.0-25.0-1.30","208","false","img/card_backs/set1/green.gif","img/card_backs/set1/purple.gif","img/card_backs/set1/red.gif","img/card_backs/set1/yellow.gif","img/card_backs/set2/blue.gif","img/card_backs/set2/orange.gif","img/card_backs/set2/pink.gif","img/card_backs/set2/gray.gif","""event"",""trial"",""time""
""fullscreenenter"",""1"",""5161""
""fullscreenexit"",""11"",""65773""
","
","
","""event"",""trial"",""time""
""fullscreenenter"",""1"",""5161""
","""event"",""trial"",""time""
""fullscreenexit"",""11"",""65773""
","","1869.0999999940395","","","","real_trial","2021-06-29 23:25:18.341","img/card_backs/set1/red.gif","0","-60","1","",""
"casino-fixation","132","547998","0.0-25.0-0.31","208","false","img/card_backs/set1/green.gif","img/card_backs/set1/purple.gif","img/card_backs/set1/red.gif","img/card_backs/set1/yellow.gif","img/card_backs/set2/blue.gif","img/card_backs/set2/orange.gif","img/card_backs/set2/pink.gif","img/card_backs/set2/gray.gif","""event"",""trial"",""time""
""fullscreenenter"",""1"",""5161""
""fullscreenexit"",""11"",""65773""
","
","
","""event"",""trial"",""time""
""fullscreenenter"",""1"",""5161""
","""event"",""trial"",""time""
""fullscreenexit"",""11"",""65773""
","","null","","null","","fixation","2021-06-29 23:25:18.845","","","","","",""
"card-selection-trial","133","552776","0.0-25.0-1.31","208","false","img/card_backs/set1/green.gif","img/card_backs/set1/purple.gif","img/card_backs/set1/red.gif","img/card_backs/set1/yellow.gif","img/card_backs/set2/blue.gif","img/card_backs/set2/orange.gif","img/card_backs/set2/pink.gif","img/card_backs/set2/gray.gif","""event"",""trial"",""time""
""fullscreenenter"",""1"",""5161""
""fullscreenexit"",""11"",""65773""
","
","
","""event"",""trial"",""time""
""fullscreenenter"",""1"",""5161""
","""event"",""trial"",""time""
""fullscreenexit"",""11"",""65773""
","","2765.5999999940395","","","","real_trial","2021-06-29 23:25:23.624","img/card_backs/set1/green.gif","0","200","1","",""
"casino-fixation","134","553280","0.0-25.0-0.32","208","false","img/card_backs/set1/green.gif","img/card_backs/set1/purple.gif","img/card_backs/set1/red.gif","img/card_backs/set1/yellow.gif","img/card_backs/set2/blue.gif","img/card_backs/set2/orange.gif","img/card_backs/set2/pink.gif","img/card_backs/set2/gray.gif","""event"",""trial"",""time""
""fullscreenenter"",""1"",""5161""
""fullscreenexit"",""11"",""65773""
","
","
","""event"",""trial"",""time""
""fullscreenenter"",""1"",""5161""
","""event"",""trial"",""time""
""fullscreenexit"",""11"",""65773""
","","null","","null","","fixation","2021-06-29 23:25:24.127","","","","","",""
"card-selection-trial","135","557291","0.0-25.0-1.32","208","false","img/card_backs/set1/green.gif","img/card_backs/set1/purple.gif","img/card_backs/set1/red.gif","img/card_backs/set1/yellow.gif","img/card_backs/set2/blue.gif","img/card_backs/set2/orange.gif","img/card_backs/set2/pink.gif","img/card_backs/set2/gray.gif","""event"",""trial"",""time""
""fullscreenenter"",""1"",""5161""
""fullscreenexit"",""11"",""65773""
","
","
","""event"",""trial"",""time""
""fullscreenenter"",""1"",""5161""
","""event"",""trial"",""time""
""fullscreenexit"",""11"",""65773""
","","2000.2999999970198","","","","real_trial","2021-06-29 23:25:28.138","img/card_backs/set1/purple.gif","1","-230","1","",""
"casino-fixation","136","557794","0.0-25.0-0.33","208","false","img/card_backs/set1/green.gif","img/card_backs/set1/purple.gif","img/card_backs/set1/red.gif","img/card_backs/set1/yellow.gif","img/card_backs/set2/blue.gif","img/card_backs/set2/orange.gif","img/card_backs/set2/pink.gif","img/card_backs/set2/gray.gif","""event"",""trial"",""time""
""fullscreenenter"",""1"",""5161""
""fullscreenexit"",""11"",""65773""
","
","
","""event"",""trial"",""time""
""fullscreenenter"",""1"",""5161""
","""event"",""trial"",""time""
""fullscreenexit"",""11"",""65773""
","","null","","null","","fixation","2021-06-29 23:25:28.642","","","","","",""
"card-selection-trial","137","561307","0.0-25.0-1.33","208","false","img/card_backs/set1/green.gif","img/card_backs/set1/purple.gif","img/card_backs/set1/red.gif","img/card_backs/set1/yellow.gif","img/card_backs/set2/blue.gif","img/card_backs/set2/orange.gif","img/card_backs/set2/pink.gif","img/card_backs/set2/gray.gif","""event"",""trial"",""time""
""fullscreenenter"",""1"",""5161""
""fullscreenexit"",""11"",""65773""
","
","
","""event"",""trial"",""time""
""fullscreenenter"",""1"",""5161""
","""event"",""trial"",""time""
""fullscreenexit"",""11"",""65773""
","","1500.7999999970198","","","","real_trial","2021-06-29 23:25:32.154","img/card_backs/set1/yellow.gif","3","-70","1","",""
"casino-fixation","138","561810","0.0-25.0-0.34","208","false","img/card_backs/set1/green.gif","img/card_backs/set1/purple.gif","img/card_backs/set1/red.gif","img/card_backs/set1/yellow.gif","img/card_backs/set2/blue.gif","img/card_backs/set2/orange.gif","img/card_backs/set2/pink.gif","img/card_backs/set2/gray.gif","""event"",""trial"",""time""
""fullscreenenter"",""1"",""5161""
""fullscreenexit"",""11"",""65773""
","
","
","""event"",""trial"",""time""
""fullscreenenter"",""1"",""5161""
","""event"",""trial"",""time""
""fullscreenexit"",""11"",""65773""
","","null","","null","","fixation","2021-06-29 23:25:32.658","","","","","",""
"card-selection-trial","139","565293","0.0-25.0-1.34","208","false","img/card_backs/set1/green.gif","img/card_backs/set1/purple.gif","img/card_backs/set1/red.gif","img/card_backs/set1/yellow.gif","img/card_backs/set2/blue.gif","img/card_backs/set2/orange.gif","img/card_backs/set2/pink.gif","img/card_backs/set2/gray.gif","""event"",""trial"",""time""
""fullscreenenter"",""1"",""5161""
""fullscreenexit"",""11"",""65773""
","
","
","""event"",""trial"",""time""
""fullscreenenter"",""1"",""5161""
","""event"",""trial"",""time""
""fullscreenexit"",""11"",""65773""
","","1473.9000000059605","","","","real_trial","2021-06-29 23:25:36.140","img/card_backs/set1/green.gif","1","190","1","",""
"casino-fixation","140","565797","0.0-25.0-0.35","208","false","img/card_backs/set1/green.gif","img/card_backs/set1/purple.gif","img/card_backs/set1/red.gif","img/card_backs/set1/yellow.gif","img/card_backs/set2/blue.gif","img/card_backs/set2/orange.gif","img/card_backs/set2/pink.gif","img/card_backs/set2/gray.gif","""event"",""trial"",""time""
""fullscreenenter"",""1"",""5161""
""fullscreenexit"",""11"",""65773""
","
","
","""event"",""trial"",""time""
""fullscreenenter"",""1"",""5161""
","""event"",""trial"",""time""
""fullscreenexit"",""11"",""65773""
","","null","","null","","fixation","2021-06-29 23:25:36.644","","","","","",""
"card-selection-trial","141","571898","0.0-25.0-1.35","208","false","img/card_backs/set1/green.gif","img/card_backs/set1/purple.gif","img/card_backs/set1/red.gif","img/card_backs/set1/yellow.gif","img/card_backs/set2/blue.gif","img/card_backs/set2/orange.gif","img/card_backs/set2/pink.gif","img/card_backs/set2/gray.gif","""event"",""trial"",""time""
""fullscreenenter"",""1"",""5161""
""fullscreenexit"",""11"",""65773""
","
","
","""event"",""trial"",""time""
""fullscreenenter"",""1"",""5161""
","""event"",""trial"",""time""
""fullscreenexit"",""11"",""65773""
","","4069.7000000029802","","","","real_trial","2021-06-29 23:25:42.745","img/card_backs/set1/purple.gif","2","-250","1","",""
"casino-fixation","142","572402","0.0-25.0-0.36","208","false","img/card_backs/set1/green.gif","img/card_backs/set1/purple.gif","img/card_backs/set1/red.gif","img/card_backs/set1/yellow.gif","img/card_backs/set2/blue.gif","img/card_backs/set2/orange.gif","img/card_backs/set2/pink.gif","img/card_backs/set2/gray.gif","""event"",""trial"",""time""
""fullscreenenter"",""1"",""5161""
""fullscreenexit"",""11"",""65773""
","
","
","""event"",""trial"",""time""
""fullscreenenter"",""1"",""5161""
","""event"",""trial"",""time""
""fullscreenexit"",""11"",""65773""
","","null","","null","","fixation","2021-06-29 23:25:43.249","","","","","",""
"card-selection-trial","143","576673","0.0-25.0-1.36","208","false","img/card_backs/set1/green.gif","img/card_backs/set1/purple.gif","img/card_backs/set1/red.gif","img/card_backs/set1/yellow.gif","img/card_backs/set2/blue.gif","img/card_backs/set2/orange.gif","img/card_backs/set2/pink.gif","img/card_backs/set2/gray.gif","""event"",""trial"",""time""
""fullscreenenter"",""1"",""5161""
""fullscreenexit"",""11"",""65773""
","
","
","""event"",""trial"",""time""
""fullscreenenter"",""1"",""5161""
","""event"",""trial"",""time""
""fullscreenexit"",""11"",""65773""
