"trial_type","trial_index","time_elapsed","internal_node_id","sub_id","risk_good_first","block1_A","block1_B","block1_C","block1_D","block2_A","block2_B","block2_C","block2_D","interactions","blur_events","focus_events","fullscreenenter_events","fullscreenexit_events","success","rt","stimulus","key_press","button_pressed","task_part","timestamp","card_choice","choice_position","points_earned","block","correct","response"
"pavlovia","0","18","0.0-0.0","A217","false","img/card_backs/set1/yellow.gif","img/card_backs/set1/green.gif","img/card_backs/set1/red.gif","img/card_backs/set1/purple.gif","img/card_backs/set2/orange.gif","img/card_backs/set2/blue.gif","img/card_backs/set2/gray.gif","img/card_backs/set2/pink.gif","""event"",""trial"",""time""
""fullscreenenter"",""1"",""3539""
","
","
","""event"",""trial"",""time""
""fullscreenenter"",""1"",""3539""
","
","","","","","","","","","","","","",""
"fullscreen","1","4430","0.0-1.0","A217","false","img/card_backs/set1/yellow.gif","img/card_backs/set1/green.gif","img/card_backs/set1/red.gif","img/card_backs/set1/purple.gif","img/card_backs/set2/orange.gif","img/card_backs/set2/blue.gif","img/card_backs/set2/gray.gif","img/card_backs/set2/pink.gif","""event"",""trial"",""time""
""fullscreenenter"",""1"",""3539""
","
","
","""event"",""trial"",""time""
""fullscreenenter"",""1"",""3539""
","
","true","","","","","","","","","","","",""
"audio-keyboard-response","2","6679","0.0-2.0","A217","false","img/card_backs/set1/yellow.gif","img/card_backs/set1/green.gif","img/card_backs/set1/red.gif","img/card_backs/set1/purple.gif","img/card_backs/set2/orange.gif","img/card_backs/set2/blue.gif","img/card_backs/set2/gray.gif","img/card_backs/set2/pink.gif","""event"",""trial"",""time""
""fullscreenenter"",""1"",""3539""
","
","
","""event"",""trial"",""time""
""fullscreenenter"",""1"",""3539""
","
","","0","audio/beep_loop.wav","32","","","","","","","","",""
"audio-button-response","3","9614","0.0-3.0","A217","false","img/card_backs/set1/yellow.gif","img/card_backs/set1/green.gif","img/card_backs/set1/red.gif","img/card_backs/set1/purple.gif","img/card_backs/set2/orange.gif","img/card_backs/set2/blue.gif","img/card_backs/set2/gray.gif","img/card_backs/set2/pink.gif","""event"",""trial"",""time""
""fullscreenenter"",""1"",""3539""
","
","
","""event"",""trial"",""time""
""fullscreenenter"",""1"",""3539""
","
","","NaN","audio/turtle.mp3","","3","","","","","","","",""
"audio-button-response","4","12085","0.0-4.0","A217","false","img/card_backs/set1/yellow.gif","img/card_backs/set1/green.gif","img/card_backs/set1/red.gif","img/card_backs/set1/purple.gif","img/card_backs/set2/orange.gif","img/card_backs/set2/blue.gif","img/card_backs/set2/gray.gif","img/card_backs/set2/pink.gif","""event"",""trial"",""time""
""fullscreenenter"",""1"",""3539""
","
","
","""event"",""trial"",""time""
""fullscreenenter"",""1"",""3539""
","
","","NaN","audio/shark.mp3","","2","","","","","","","",""
"fullscreen","5","15768","0.0-5.0","A217","false","img/card_backs/set1/yellow.gif","img/card_backs/set1/green.gif","img/card_backs/set1/red.gif","img/card_backs/set1/purple.gif","img/card_backs/set2/orange.gif","img/card_backs/set2/blue.gif","img/card_backs/set2/gray.gif","img/card_backs/set2/pink.gif","""event"",""trial"",""time""
""fullscreenenter"",""1"",""3539""
","
","
","""event"",""trial"",""time""
""fullscreenenter"",""1"",""3539""
","
","true","","","","","","","","","","","",""
"casino-keyboard-response","6","19755","0.0-6.0-0.0","A217","false","img/card_backs/set1/yellow.gif","img/card_backs/set1/green.gif","img/card_backs/set1/red.gif","img/card_backs/set1/purple.gif","img/card_backs/set2/orange.gif","img/card_backs/set2/blue.gif","img/card_backs/set2/gray.gif","img/card_backs/set2/pink.gif","""event"",""trial"",""time""
""fullscreenenter"",""1"",""3539""
","
","
","""event"",""trial"",""time""
""fullscreenenter"",""1"",""3539""
","
","","3975.5","Welcome to the casino!","71","","instructions","2021-08-03 03:06:31.485","","","","","",""
"casino-keyboard-response","7","29893","0.0-6.0-0.1","A217","false","img/card_backs/set1/yellow.gif","img/card_backs/set1/green.gif","img/card_backs/set1/red.gif","img/card_backs/set1/purple.gif","img/card_backs/set2/orange.gif","img/card_backs/set2/blue.gif","img/card_backs/set2/gray.gif","img/card_backs/set2/pink.gif","""event"",""trial"",""time""
""fullscreenenter"",""1"",""3539""
","
","
","""event"",""trial"",""time""
""fullscreenenter"",""1"",""3539""
","
","","10132.600000023842","Today you will be playing a game to earn tokens. </br> At the end of the experiment, you will be paid a bonus based on how many tokens you win. ","69","","instructions","2021-08-03 03:06:41.623","","","","","",""
"casino-keyboard-response","8","63443","0.0-6.0-0.2","A217","false","img/card_backs/set1/yellow.gif","img/card_backs/set1/green.gif","img/card_backs/set1/red.gif","img/card_backs/set1/purple.gif","img/card_backs/set2/orange.gif","img/card_backs/set2/blue.gif","img/card_backs/set2/gray.gif","img/card_backs/set2/pink.gif","""event"",""trial"",""time""
""fullscreenenter"",""1"",""3539""
","
","
","""event"",""trial"",""time""
""fullscreenenter"",""1"",""3539""
","
","","33537.199999928474","On every turn, you will be shown four different decks of cards. </br> You need to select a card from one of the four decks.  ","75","","instructions","2021-08-03 03:07:15.172","","","","","",""
"casino-keyboard-response","9","68460","0.0-6.0-0.3","A217","false","img/card_backs/set1/yellow.gif","img/card_backs/set1/green.gif","img/card_backs/set1/red.gif","img/card_backs/set1/purple.gif","img/card_backs/set2/orange.gif","img/card_backs/set2/blue.gif","img/card_backs/set2/gray.gif","img/card_backs/set2/pink.gif","""event"",""trial"",""time""
""fullscreenenter"",""1"",""3539""
","
","
","""event"",""trial"",""time""
""fullscreenenter"",""1"",""3539""
","
","","5013.899999976158","On the next screen, you will see what the decks will look like. ","66","","instructions","2021-08-03 03:07:20.189","","","","","",""
"card-selection-trial","10","72483","0.0-7.0-0.0","A217","false","img/card_backs/set1/yellow.gif","img/card_backs/set1/green.gif","img/card_backs/set1/red.gif","img/card_backs/set1/purple.gif","img/card_backs/set2/orange.gif","img/card_backs/set2/blue.gif","img/card_backs/set2/gray.gif","img/card_backs/set2/pink.gif","""event"",""trial"",""time""
""fullscreenenter"",""1"",""3539""
","
","
","""event"",""trial"",""time""
""fullscreenenter"",""1"",""3539""
","
","","null","","","","practice","2021-08-03 03:07:24.212","null","null","null","0","",""
"casino-keyboard-response","11","82210","0.0-8.0-0.0","A217","false","img/card_backs/set1/yellow.gif","img/card_backs/set1/green.gif","img/card_backs/set1/red.gif","img/card_backs/set1/purple.gif","img/card_backs/set2/orange.gif","img/card_backs/set2/blue.gif","img/card_backs/set2/gray.gif","img/card_backs/set2/pink.gif","""event"",""trial"",""time""
""fullscreenenter"",""1"",""3539""
","
","
","""event"",""trial"",""time""
""fullscreenenter"",""1"",""3539""
","
","","9723.399999976158","You should pick a card from a deck using the '2', '4', '6', and '8' keys at the top of the keyboard.","85","","instructions","2021-08-03 03:07:33.939","","","","","",""
"casino-keyboard-response","12","88026","0.0-8.0-0.1","A217","false","img/card_backs/set1/yellow.gif","img/card_backs/set1/green.gif","img/card_backs/set1/red.gif","img/card_backs/set1/purple.gif","img/card_backs/set2/orange.gif","img/card_backs/set2/blue.gif","img/card_backs/set2/gray.gif","img/card_backs/set2/pink.gif","""event"",""trial"",""time""
""fullscreenenter"",""1"",""3539""
","
","
","""event"",""trial"",""time""
""fullscreenenter"",""1"",""3539""
","
","","5810.5","Once you select a card, it will turn over and you will see how many tokens you earned.","83","","instructions","2021-08-03 03:07:39.755","","","","","",""
"casino-keyboard-response","13","108099","0.0-8.0-0.2","A217","false","img/card_backs/set1/yellow.gif","img/card_backs/set1/green.gif","img/card_backs/set1/red.gif","img/card_backs/set1/purple.gif","img/card_backs/set2/orange.gif","img/card_backs/set2/blue.gif","img/card_backs/set2/gray.gif","img/card_backs/set2/pink.gif","""event"",""trial"",""time""
""fullscreenenter"",""1"",""3539""
","
","
","""event"",""trial"",""time""
""fullscreenenter"",""1"",""3539""
","
","","20051.200000047684","Let's try practicing that! </br> First, try to put your fingers over the '2', '4', '6', and '8' keys. </br>  You can use whatever fingers are most comfortable for you. Try to find a comfortable position now. ","50","","instructions","2021-08-03 03:07:59.828","","","","","",""
"casino-keyboard-response","14","114397","0.0-8.0-0.3","A217","false","img/card_backs/set1/yellow.gif","img/card_backs/set1/green.gif","img/card_backs/set1/red.gif","img/card_backs/set1/purple.gif","img/card_backs/set2/orange.gif","img/card_backs/set2/blue.gif","img/card_backs/set2/gray.gif","img/card_backs/set2/pink.gif","""event"",""trial"",""time""
""fullscreenenter"",""1"",""3539""
","
","
","""event"",""trial"",""time""
""fullscreenenter"",""1"",""3539""
","
","","6295.599999904633","Okay ready? </br> On the next screen, press '2' to select the left deck. ","50","","instructions","2021-08-03 03:08:06.126","","","","","",""
"card-selection-trial","15","117994","0.0-9.0-0.0","A217","false","img/card_backs/set1/yellow.gif","img/card_backs/set1/green.gif","img/card_backs/set1/red.gif","img/card_backs/set1/purple.gif","img/card_backs/set2/orange.gif","img/card_backs/set2/blue.gif","img/card_backs/set2/gray.gif","img/card_backs/set2/pink.gif","""event"",""trial"",""time""
""fullscreenenter"",""1"",""3539""
","
","
","""event"",""trial"",""time""
""fullscreenenter"",""1"",""3539""
","
","","1152.4000000953674","","","","practice_card_selection","2021-08-03 03:08:09.723","img/practice_cards/backs/black.gif","0","-100","","",""
"casino-keyboard-response","16","121706","0.0-10.0-0.0","A217","false","img/card_backs/set1/yellow.gif","img/card_backs/set1/green.gif","img/card_backs/set1/red.gif","img/card_backs/set1/purple.gif","img/card_backs/set2/orange.gif","img/card_backs/set2/blue.gif","img/card_backs/set2/gray.gif","img/card_backs/set2/pink.gif","""event"",""trial"",""time""
""fullscreenenter"",""1"",""3539""
","
","
","""event"",""trial"",""time""
""fullscreenenter"",""1"",""3539""
","
","","3708","Great! Now on the next screen, try pressing '6' to select the third deck.","54","","instructions","2021-08-03 03:08:13.435","","","","","",""
"card-selection-trial","17","125394","0.0-11.0-0.0","A217","false","img/card_backs/set1/yellow.gif","img/card_backs/set1/green.gif","img/card_backs/set1/red.gif","img/card_backs/set1/purple.gif","img/card_backs/set2/orange.gif","img/card_backs/set2/blue.gif","img/card_backs/set2/gray.gif","img/card_backs/set2/pink.gif","""event"",""trial"",""time""
""fullscreenenter"",""1"",""3539""
","
","
","""event"",""trial"",""time""
""fullscreenenter"",""1"",""3539""
","
","","1664.2000000476837","","","","practice_card_selection","2021-08-03 03:08:17.123","img/practice_cards/backs/black.gif","2","100","","",""
"casino-keyboard-response","18","132565","0.0-12.0-0.0","A217","false","img/card_backs/set1/yellow.gif","img/card_backs/set1/green.gif","img/card_backs/set1/red.gif","img/card_backs/set1/purple.gif","img/card_backs/set2/orange.gif","img/card_backs/set2/blue.gif","img/card_backs/set2/gray.gif","img/card_backs/set2/pink.gif","""event"",""trial"",""time""
""fullscreenenter"",""1"",""3539""
","
","
","""event"",""trial"",""time""
""fullscreenenter"",""1"",""3539""
","
","","7166.800000071526","Now on the next screen, try pressing '4' to select the second deck.","52","","instructions","2021-08-03 03:08:24.294","","","","","",""
"card-selection-trial","19","135601","0.0-13.0-0.0","A217","false","img/card_backs/set1/yellow.gif","img/card_backs/set1/green.gif","img/card_backs/set1/red.gif","img/card_backs/set1/purple.gif","img/card_backs/set2/orange.gif","img/card_backs/set2/blue.gif","img/card_backs/set2/gray.gif","img/card_backs/set2/pink.gif","""event"",""trial"",""time""
""fullscreenenter"",""1"",""3539""
","
","
","""event"",""trial"",""time""
""fullscreenenter"",""1"",""3539""
","
","","1011.6000000238419","","","","practice_card_selection","2021-08-03 03:08:27.330","img/practice_cards/backs/brown.gif","1","100","","",""
"casino-keyboard-response","20","140101","0.0-14.0-0.0","A217","false","img/card_backs/set1/yellow.gif","img/card_backs/set1/green.gif","img/card_backs/set1/red.gif","img/card_backs/set1/purple.gif","img/card_backs/set2/orange.gif","img/card_backs/set2/blue.gif","img/card_backs/set2/gray.gif","img/card_backs/set2/pink.gif","""event"",""trial"",""time""
""fullscreenenter"",""1"",""3539""
","
","
","""event"",""trial"",""time""
""fullscreenenter"",""1"",""3539""
","
","","4496.700000047684","Finally, try pressing '8' to select the deck all the way on the right.","56","","instructions","2021-08-03 03:08:31.830","","","","","",""
"card-selection-trial","21","142596","0.0-15.0-0.0","A217","false","img/card_backs/set1/yellow.gif","img/card_backs/set1/green.gif","img/card_backs/set1/red.gif","img/card_backs/set1/purple.gif","img/card_backs/set2/orange.gif","img/card_backs/set2/blue.gif","img/card_backs/set2/gray.gif","img/card_backs/set2/pink.gif","""event"",""trial"",""time""
""fullscreenenter"",""1"",""3539""
","
","
","""event"",""trial"",""time""
""fullscreenenter"",""1"",""3539""
","
","","457.6999999284744","","","","practice_card_selection","2021-08-03 03:08:34.325","img/practice_cards/backs/brown.gif","3","100","","",""
"casino-keyboard-response","22","146410","0.0-16.0-0.0","A217","false","img/card_backs/set1/yellow.gif","img/card_backs/set1/green.gif","img/card_backs/set1/red.gif","img/card_backs/set1/purple.gif","img/card_backs/set2/orange.gif","img/card_backs/set2/blue.gif","img/card_backs/set2/gray.gif","img/card_backs/set2/pink.gif","""event"",""trial"",""time""
""fullscreenenter"",""1"",""3539""
","
","
","""event"",""trial"",""time""
""fullscreenenter"",""1"",""3539""
","
","","3809.5","Great! It seems like you are getting the hang of this.","80","","instructions","2021-08-03 03:08:38.139","","","","","",""
"casino-keyboard-response","23","153770","0.0-16.0-0.1","A217","false","img/card_backs/set1/yellow.gif","img/card_backs/set1/green.gif","img/card_backs/set1/red.gif","img/card_backs/set1/purple.gif","img/card_backs/set2/orange.gif","img/card_backs/set2/blue.gif","img/card_backs/set2/gray.gif","img/card_backs/set2/pink.gif","""event"",""trial"",""time""
""fullscreenenter"",""1"",""3539""
","
","
","""event"",""trial"",""time""
""fullscreenenter"",""1"",""3539""
","
","","7355.200000047684","You may have noticed that some cards will cause you to <b> win </b> tokens while other cards will cause you to <b> lose </b>  tokens.","70","","instructions","2021-08-03 03:08:45.499","","","","","",""
"casino-keyboard-response","24","162400","0.0-16.0-0.2","A217","false","img/card_backs/set1/yellow.gif","img/card_backs/set1/green.gif","img/card_backs/set1/red.gif","img/card_backs/set1/purple.gif","img/card_backs/set2/orange.gif","img/card_backs/set2/blue.gif","img/card_backs/set2/gray.gif","img/card_backs/set2/pink.gif","""event"",""trial"",""time""
""fullscreenenter"",""1"",""3539""
","
","
","""event"",""trial"",""time""
""fullscreenenter"",""1"",""3539""
","
","","8626.200000047684","Each deck has a mix of cards that will cause you to win and lose tokens. </br> However, the cards in each colored deck are different.","73","","instructions","2021-08-03 03:08:54.129","","","","","",""
"casino-keyboard-response","25","171451","0.0-16.0-0.3","A217","false","img/card_backs/set1/yellow.gif","img/card_backs/set1/green.gif","img/card_backs/set1/red.gif","img/card_backs/set1/purple.gif","img/card_backs/set2/orange.gif","img/card_backs/set2/blue.gif","img/card_backs/set2/gray.gif","img/card_backs/set2/pink.gif","""event"",""trial"",""time""
""fullscreenenter"",""1"",""3539""
","
","
","""event"",""trial"",""time""
""fullscreenenter"",""1"",""3539""
","
","","9043.399999976158","Some colored decks are luckier than others. </br> If you choose the lucky decks, you will earn more tokens than if you choose the unlucky decks.","69","","instructions","2021-08-03 03:09:03.180","","","","","",""
"casino-keyboard-response","26","180094","0.0-16.0-0.4","A217","false","img/card_backs/set1/yellow.gif","img/card_backs/set1/green.gif","img/card_backs/set1/red.gif","img/card_backs/set1/purple.gif","img/card_backs/set2/orange.gif","img/card_backs/set2/blue.gif","img/card_backs/set2/gray.gif","img/card_backs/set2/pink.gif","""event"",""trial"",""time""
""fullscreenenter"",""1"",""3539""
","
","
","""event"",""trial"",""time""
""fullscreenenter"",""1"",""3539""
","
","","8638.700000047684","You should try to figure out which decks are lucky. </br> Then, try to choose the lucky decks so you can win the most tokens.","87","","instructions","2021-08-03 03:09:11.823","","","","","",""
"casino-keyboard-response","27","192179","0.0-16.0-0.5","A217","false","img/card_backs/set1/yellow.gif","img/card_backs/set1/green.gif","img/card_backs/set1/red.gif","img/card_backs/set1/purple.gif","img/card_backs/set2/orange.gif","img/card_backs/set2/blue.gif","img/card_backs/set2/gray.gif","img/card_backs/set2/pink.gif","""event"",""trial"",""time""
""fullscreenenter"",""1"",""3539""
","
","
","""event"",""trial"",""time""
""fullscreenenter"",""1"",""3539""
","
","","12081.399999976158","To make it trickier, the casino dealer will switch the locations of the decks on every turn. </br> The color of the deck determines how lucky it is. The location does not matter.","88","","instructions","2021-08-03 03:09:23.908","","","","","",""
"casino-keyboard-response","28","201735","0.0-16.0-0.6","A217","false","img/card_backs/set1/yellow.gif","img/card_backs/set1/green.gif","img/card_backs/set1/red.gif","img/card_backs/set1/purple.gif","img/card_backs/set2/orange.gif","img/card_backs/set2/blue.gif","img/card_backs/set2/gray.gif","img/card_backs/set2/pink.gif","""event"",""trial"",""time""
""fullscreenenter"",""1"",""3539""
","
","
","""event"",""trial"",""time""
""fullscreenenter"",""1"",""3539""
","
","","9551.800000071526","The mix of cards in each colored deck will stay the same throughout the game. </br> That means that a deck that is lucky early on will stay lucky.","79","","instructions","2021-08-03 03:09:33.465","","","","","",""
"casino-keyboard-response","29","210302","0.0-16.0-0.7","A217","false","img/card_backs/set1/yellow.gif","img/card_backs/set1/green.gif","img/card_backs/set1/red.gif","img/card_backs/set1/purple.gif","img/card_backs/set2/orange.gif","img/card_backs/set2/blue.gif","img/card_backs/set2/gray.gif","img/card_backs/set2/pink.gif","""event"",""trial"",""time""
""fullscreenenter"",""1"",""3539""
","
","
","""event"",""trial"",""time""
""fullscreenenter"",""1"",""3539""
","
","","8560.600000023842","Remember though, all the decks have a <b> mix </b> of both <b> good </b> and <b> bad </b> cards so it may take a couple of turns to figure out if a deck is lucky.","69","","instructions","2021-08-03 03:09:42.031","","","","","",""
"casino-keyboard-response","30","219655","0.0-16.0-0.8","A217","false","img/card_backs/set1/yellow.gif","img/card_backs/set1/green.gif","img/card_backs/set1/red.gif","img/card_backs/set1/purple.gif","img/card_backs/set2/orange.gif","img/card_backs/set2/blue.gif","img/card_backs/set2/gray.gif","img/card_backs/set2/pink.gif","""event"",""trial"",""time""
""fullscreenenter"",""1"",""3539""
","
","
","""event"",""trial"",""time""
""fullscreenenter"",""1"",""3539""
","
","","9346.700000047684","At the end of the game, you will be paid bonus money based on how many tokens you win. </br> If you win more tokens, you will earn more money!","72","","instructions","2021-08-03 03:09:51.384","","","","","",""
"casino-keyboard-response","31","230310","0.0-16.0-0.9","A217","false","img/card_backs/set1/yellow.gif","img/card_backs/set1/green.gif","img/card_backs/set1/red.gif","img/card_backs/set1/purple.gif","img/card_backs/set2/orange.gif","img/card_backs/set2/blue.gif","img/card_backs/set2/gray.gif","img/card_backs/set2/pink.gif","""event"",""trial"",""time""
""fullscreenenter"",""1"",""3539""
","
","
","""event"",""trial"",""time""
""fullscreenenter"",""1"",""3539""
","
","","10650.5","You will never <b> lose </b> money. </br> If you end up with fewer than 0 tokens, you will earn $0 of bonus money, but you will still be paid for playing the game.","83","","instructions","2021-08-03 03:10:02.039","","","","","",""
"casino-keyboard-response","32","234865","0.0-16.0-0.10","A217","false","img/card_backs/set1/yellow.gif","img/card_backs/set1/green.gif","img/card_backs/set1/red.gif","img/card_backs/set1/purple.gif","img/card_backs/set2/orange.gif","img/card_backs/set2/blue.gif","img/card_backs/set2/gray.gif","img/card_backs/set2/pink.gif","""event"",""trial"",""time""
""fullscreenenter"",""1"",""3539""
","
","
","""event"",""trial"",""time""
""fullscreenenter"",""1"",""3539""
","
","","4548.5","You will have 10 seconds to make each choice.","82","","instructions","2021-08-03 03:10:06.594","","","","","",""
"casino-keyboard-response","33","243248","0.0-16.0-0.11","A217","false","img/card_backs/set1/yellow.gif","img/card_backs/set1/green.gif","img/card_backs/set1/red.gif","img/card_backs/set1/purple.gif","img/card_backs/set2/orange.gif","img/card_backs/set2/blue.gif","img/card_backs/set2/gray.gif","img/card_backs/set2/pink.gif","""event"",""trial"",""time""
""fullscreenenter"",""1"",""3539""
","
","
","""event"",""trial"",""time""
""fullscreenenter"",""1"",""3539""
","
","","8374.600000023842","Before you play the game for real, you will play with practice decks. </br> The tokens you earn during practice won't count toward your total.","86","","instructions","2021-08-03 03:10:14.977","","","","","",""
"casino-keyboard-response","34","254839","0.0-16.0-0.12","A217","false","img/card_backs/set1/yellow.gif","img/card_backs/set1/green.gif","img/card_backs/set1/red.gif","img/card_backs/set1/purple.gif","img/card_backs/set2/orange.gif","img/card_backs/set2/blue.gif","img/card_backs/set2/gray.gif","img/card_backs/set2/pink.gif","""event"",""trial"",""time""
""fullscreenenter"",""1"",""3539""
","
","
","""event"",""trial"",""time""
""fullscreenenter"",""1"",""3539""
","
","","11586.700000047684","Ready? Remember, use the '2', '4', '6', and '8' keys to select the decks. </br> Put your fingers on those keys now and then press '2' to begin.","50","","instructions","2021-08-03 03:10:26.568","","","","","",""
"casino-fixation","35","255363","0.0-17.0-0.0","A217","false","img/card_backs/set1/yellow.gif","img/card_backs/set1/green.gif","img/card_backs/set1/red.gif","img/card_backs/set1/purple.gif","img/card_backs/set2/orange.gif","img/card_backs/set2/blue.gif","img/card_backs/set2/gray.gif","img/card_backs/set2/pink.gif","""event"",""trial"",""time""
""fullscreenenter"",""1"",""3539""
","
","
","""event"",""trial"",""time""
""fullscreenenter"",""1"",""3539""
","
","","null","","null","","fixation","2021-08-03 03:10:27.092","","","","","",""
"card-selection-trial","36","258287","0.0-17.0-1.0","A217","false","img/card_backs/set1/yellow.gif","img/card_backs/set1/green.gif","img/card_backs/set1/red.gif","img/card_backs/set1/purple.gif","img/card_backs/set2/orange.gif","img/card_backs/set2/blue.gif","img/card_backs/set2/gray.gif","img/card_backs/set2/pink.gif","""event"",""trial"",""time""
""fullscreenenter"",""1"",""3539""
","
","
","""event"",""trial"",""time""
""fullscreenenter"",""1"",""3539""
","
","","905.1000000238419","","","","practice","2021-08-03 03:10:30.016","img/practice_cards/backs/dark_green.gif","0","-200","0","",""
"casino-fixation","37","258804","0.0-17.0-0.1","A217","false","img/card_backs/set1/yellow.gif","img/card_backs/set1/green.gif","img/card_backs/set1/red.gif","img/card_backs/set1/purple.gif","img/card_backs/set2/orange.gif","img/card_backs/set2/blue.gif","img/card_backs/set2/gray.gif","img/card_backs/set2/pink.gif","""event"",""trial"",""time""
""fullscreenenter"",""1"",""3539""
","
","
","""event"",""trial"",""time""
""fullscreenenter"",""1"",""3539""
","
","","null","","null","","fixation","2021-08-03 03:10:30.533","","","","","",""
"card-selection-trial","38","261553","0.0-17.0-1.1","A217","false","img/card_backs/set1/yellow.gif","img/card_backs/set1/green.gif","img/card_backs/set1/red.gif","img/card_backs/set1/purple.gif","img/card_backs/set2/orange.gif","img/card_backs/set2/blue.gif","img/card_backs/set2/gray.gif","img/card_backs/set2/pink.gif","""event"",""trial"",""time""
""fullscreenenter"",""1"",""3539""
","
","
","""event"",""trial"",""time""
""fullscreenenter"",""1"",""3539""
","
","","716.7999999523163","","","","practice","2021-08-03 03:10:33.282","img/practice_cards/backs/dark_green.gif","1","-200","0","",""
"casino-fixation","39","262062","0.0-17.0-0.2","A217","false","img/card_backs/set1/yellow.gif","img/card_backs/set1/green.gif","img/card_backs/set1/red.gif","img/card_backs/set1/purple.gif","img/card_backs/set2/orange.gif","img/card_backs/set2/blue.gif","img/card_backs/set2/gray.gif","img/card_backs/set2/pink.gif","""event"",""trial"",""time""
""fullscreenenter"",""1"",""3539""
","
","
","""event"",""trial"",""time""
""fullscreenenter"",""1"",""3539""
","
","","null","","null","","fixation","2021-08-03 03:10:33.791","","","","","",""
"card-selection-trial","40","266405","0.0-17.0-1.2","A217","false","img/card_backs/set1/yellow.gif","img/card_backs/set1/green.gif","img/card_backs/set1/red.gif","img/card_backs/set1/purple.gif","img/card_backs/set2/orange.gif","img/card_backs/set2/blue.gif","img/card_backs/set2/gray.gif","img/card_backs/set2/pink.gif","""event"",""trial"",""time""
""fullscreenenter"",""1"",""3539""
","
","
","""event"",""trial"",""time""
""fullscreenenter"",""1"",""3539""
","
","","2322","","","","practice","2021-08-03 03:10:38.134","img/practice_cards/backs/brown.gif","2","100","0","",""
"casino-fixation","41","266922","0.0-17.0-0.3","A217","false","img/card_backs/set1/yellow.gif","img/card_backs/set1/green.gif","img/card_backs/set1/red.gif","img/card_backs/set1/purple.gif","img/card_backs/set2/orange.gif","img/card_backs/set2/blue.gif","img/card_backs/set2/gray.gif","img/card_backs/set2/pink.gif","""event"",""trial"",""time""
""fullscreenenter"",""1"",""3539""
","
","
","""event"",""trial"",""time""
""fullscreenenter"",""1"",""3539""
","
","","null","","null","","fixation","2021-08-03 03:10:38.652","","","","","",""
"card-selection-trial","42","270583","0.0-17.0-1.3","A217","false","img/card_backs/set1/yellow.gif","img/card_backs/set1/green.gif","img/card_backs/set1/red.gif","img/card_backs/set1/purple.gif","img/card_backs/set2/orange.gif","img/card_backs/set2/blue.gif","img/card_backs/set2/gray.gif","img/card_backs/set2/pink.gif","""event"",""trial"",""time""
""fullscreenenter"",""1"",""3539""
","
","
","""event"",""trial"",""time""
""fullscreenenter"",""1"",""3539""
","
","","1632.1000000238419","","","","practice","2021-08-03 03:10:42.312","img/practice_cards/backs/dark_blue.gif","1","-200","0","",""
"casino-fixation","43","271094","0.0-17.0-0.4","A217","false","img/card_backs/set1/yellow.gif","img/card_backs/set1/green.gif","img/card_backs/set1/red.gif","img/card_backs/set1/purple.gif","img/card_backs/set2/orange.gif","img/card_backs/set2/blue.gif","img/card_backs/set2/gray.gif","img/card_backs/set2/pink.gif","""event"",""trial"",""time""
""fullscreenenter"",""1"",""3539""
","
","
","""event"",""trial"",""time""
""fullscreenenter"",""1"",""3539""
","
","","null","","null","","fixation","2021-08-03 03:10:42.823","","","","","",""
"card-selection-trial","44","274353","0.0-17.0-1.4","A217","false","img/card_backs/set1/yellow.gif","img/card_backs/set1/green.gif","img/card_backs/set1/red.gif","img/card_backs/set1/purple.gif","img/card_backs/set2/orange.gif","img/card_backs/set2/blue.gif","img/card_backs/set2/gray.gif","img/card_backs/set2/pink.gif","""event"",""trial"",""time""
""fullscreenenter"",""1"",""3539""
","
","
","""event"",""trial"",""time""
""fullscreenenter"",""1"",""3539""
","
","","1235.1000000238419","","","","practice","2021-08-03 03:10:46.082","img/practice_cards/backs/black.gif","3","-100","0","",""
"casino-fixation","45","274872","0.0-17.0-0.5","A217","false","img/card_backs/set1/yellow.gif","img/card_backs/set1/green.gif","img/card_backs/set1/red.gif","img/card_backs/set1/purple.gif","img/card_backs/set2/orange.gif","img/card_backs/set2/blue.gif","img/card_backs/set2/gray.gif","img/card_backs/set2/pink.gif","""event"",""trial"",""time""
""fullscreenenter"",""1"",""3539""
","
","
","""event"",""trial"",""time""
""fullscreenenter"",""1"",""3539""
","
","","null","","null","","fixation","2021-08-03 03:10:46.601","","","","","",""
"card-selection-trial","46","279344","0.0-17.0-1.5","A217","false","img/card_backs/set1/yellow.gif","img/card_backs/set1/green.gif","img/card_backs/set1/red.gif","img/card_backs/set1/purple.gif","img/card_backs/set2/orange.gif","img/card_backs/set2/blue.gif","img/card_backs/set2/gray.gif","img/card_backs/set2/pink.gif","""event"",""trial"",""time""
""fullscreenenter"",""1"",""3539""
","
","
","""event"",""trial"",""time""
""fullscreenenter"",""1"",""3539""
","
","","2439.2999999523163","","","","practice","2021-08-03 03:10:51.074","img/practice_cards/backs/dark_blue.gif","1","-200","0","",""
"casino-fixation","47","279862","0.0-17.0-0.6","A217","false","img/card_backs/set1/yellow.gif","img/card_backs/set1/green.gif","img/card_backs/set1/red.gif","img/card_backs/set1/purple.gif","img/card_backs/set2/orange.gif","img/card_backs/set2/blue.gif","img/card_backs/set2/gray.gif","img/card_backs/set2/pink.gif","""event"",""trial"",""time""
""fullscreenenter"",""1"",""3539""
","
","
","""event"",""trial"",""time""
""fullscreenenter"",""1"",""3539""
","
","","null","","null","","fixation","2021-08-03 03:10:51.591","","","","","",""
"card-selection-trial","48","283415","0.0-17.0-1.6","A217","false","img/card_backs/set1/yellow.gif","img/card_backs/set1/green.gif","img/card_backs/set1/red.gif","img/card_backs/set1/purple.gif","img/card_backs/set2/orange.gif","img/card_backs/set2/blue.gif","img/card_backs/set2/gray.gif","img/card_backs/set2/pink.gif","""event"",""trial"",""time""
""fullscreenenter"",""1"",""3539""
","
","
","""event"",""trial"",""time""
""fullscreenenter"",""1"",""3539""
","
","","1524.5","","","","practice","2021-08-03 03:10:55.145","img/practice_cards/backs/dark_blue.gif","3","-200","0","",""
"casino-fixation","49","283922","0.0-17.0-0.7","A217","false","img/card_backs/set1/yellow.gif","img/card_backs/set1/green.gif","img/card_backs/set1/red.gif","img/card_backs/set1/purple.gif","img/card_backs/set2/orange.gif","img/card_backs/set2/blue.gif","img/card_backs/set2/gray.gif","img/card_backs/set2/pink.gif","""event"",""trial"",""time""
""fullscreenenter"",""1"",""3539""
","
","
","""event"",""trial"",""time""
""fullscreenenter"",""1"",""3539""
","
","","null","","null","","fixation","2021-08-03 03:10:55.651","","","","","",""
"card-selection-trial","50","286668","0.0-17.0-1.7","A217","false","img/card_backs/set1/yellow.gif","img/card_backs/set1/green.gif","img/card_backs/set1/red.gif","img/card_backs/set1/purple.gif","img/card_backs/set2/orange.gif","img/card_backs/set2/blue.gif","img/card_backs/set2/gray.gif","img/card_backs/set2/pink.gif","""event"",""trial"",""time""
""fullscreenenter"",""1"",""3539""
","
","
","""event"",""trial"",""time""
""fullscreenenter"",""1"",""3539""
","
","","734.6000000238419","","","","practice","2021-08-03 03:10:58.397","img/practice_cards/backs/brown.gif","0","-100","0","",""
"casino-fixation","51","287173","0.0-17.0-0.8","A217","false","img/card_backs/set1/yellow.gif","img/card_backs/set1/green.gif","img/card_backs/set1/red.gif","img/card_backs/set1/purple.gif","img/card_backs/set2/orange.gif","img/card_backs/set2/blue.gif","img/card_backs/set2/gray.gif","img/card_backs/set2/pink.gif","""event"",""trial"",""time""
""fullscreenenter"",""1"",""3539""
","
","
","""event"",""trial"",""time""
""fullscreenenter"",""1"",""3539""
","
","","null","","null","","fixation","2021-08-03 03:10:58.902","","","","","",""
"card-selection-trial","52","290244","0.0-17.0-1.8","A217","false","img/card_backs/set1/yellow.gif","img/card_backs/set1/green.gif","img/card_backs/set1/red.gif","img/card_backs/set1/purple.gif","img/card_backs/set2/orange.gif","img/card_backs/set2/blue.gif","img/card_backs/set2/gray.gif","img/card_backs/set2/pink.gif","""event"",""trial"",""time""
""fullscreenenter"",""1"",""3539""
","
","
","""event"",""trial"",""time""
""fullscreenenter"",""1"",""3539""
","
","","1053.0999999046326","","","","practice","2021-08-03 03:11:01.974","img/practice_cards/backs/black.gif","1","100","0","",""
"casino-fixation","53","290749","0.0-17.0-0.9","A217","false","img/card_backs/set1/yellow.gif","img/card_backs/set1/green.gif","img/card_backs/set1/red.gif","img/card_backs/set1/purple.gif","img/card_backs/set2/orange.gif","img/card_backs/set2/blue.gif","img/card_backs/set2/gray.gif","img/card_backs/set2/pink.gif","""event"",""trial"",""time""
""fullscreenenter"",""1"",""3539""
","
","
","""event"",""trial"",""time""
""fullscreenenter"",""1"",""3539""
","
","","null","","null","","fixation","2021-08-03 03:11:02.478","","","","","",""
"card-selection-trial","54","293925","0.0-17.0-1.9","A217","false","img/card_backs/set1/yellow.gif","img/card_backs/set1/green.gif","img/card_backs/set1/red.gif","img/card_backs/set1/purple.gif","img/card_backs/set2/orange.gif","img/card_backs/set2/blue.gif","img/card_backs/set2/gray.gif","img/card_backs/set2/pink.gif","""event"",""trial"",""time""
""fullscreenenter"",""1"",""3539""
","
","
","""event"",""trial"",""time""
""fullscreenenter"",""1"",""3539""
","
","","1165","","","","practice","2021-08-03 03:11:05.654","img/practice_cards/backs/brown.gif","3","-100","0","",""
"casino-keyboard-response","55","296794","0.0-18.0","A217","false","img/card_backs/set1/yellow.gif","img/card_backs/set1/green.gif","img/card_backs/set1/red.gif","img/card_backs/set1/purple.gif","img/card_backs/set2/orange.gif","img/card_backs/set2/blue.gif","img/card_backs/set2/gray.gif","img/card_backs/set2/pink.gif","""event"",""trial"",""time""
""fullscreenenter"",""1"",""3539""
","
","
","""event"",""trial"",""time""
""fullscreenenter"",""1"",""3539""
","
","","2866.5","You earned -1100 tokens during the practice round!","82","","","2021-08-03 03:11:08.524","","","","","",""
"casino-keyboard-response","56","301404","0.0-19.0-0.0","A217","false","img/card_backs/set1/yellow.gif","img/card_backs/set1/green.gif","img/card_backs/set1/red.gif","img/card_backs/set1/purple.gif","img/card_backs/set2/orange.gif","img/card_backs/set2/blue.gif","img/card_backs/set2/gray.gif","img/card_backs/set2/pink.gif","""event"",""trial"",""time""
""fullscreenenter"",""1"",""3539""
","
","
","""event"",""trial"",""time""
""fullscreenenter"",""1"",""3539""
","
","","4605","Nice job! You are almost ready to play the real game.","86","","instructions","2021-08-03 03:11:13.134","","","","","",""
"casino-keyboard-response","57","308666","0.0-19.0-0.1","A217","false","img/card_backs/set1/yellow.gif","img/card_backs/set1/green.gif","img/card_backs/set1/red.gif","img/card_backs/set1/purple.gif","img/card_backs/set2/orange.gif","img/card_backs/set2/blue.gif","img/card_backs/set2/gray.gif","img/card_backs/set2/pink.gif","""event"",""trial"",""time""
""fullscreenenter"",""1"",""3539""
","
","
","""event"",""trial"",""time""
""fullscreenenter"",""1"",""3539""
","
","","7256.899999976158","You will play two rounds of the real game. In each round, you will pick 100 cards in total.","73","","instructions","2021-08-03 03:11:20.395","","","","","",""
"casino-keyboard-response","58","312984","0.0-19.0-0.2","A217","false","img/card_backs/set1/yellow.gif","img/card_backs/set1/green.gif","img/card_backs/set1/red.gif","img/card_backs/set1/purple.gif","img/card_backs/set2/orange.gif","img/card_backs/set2/blue.gif","img/card_backs/set2/gray.gif","img/card_backs/set2/pink.gif","""event"",""trial"",""time""
""fullscreenenter"",""1"",""3539""
","
","
","""event"",""trial"",""time""
""fullscreenenter"",""1"",""3539""
","
","","4311.700000047684","We are now going to ask you some questions about how the game works.","66","","instructions","2021-08-03 03:11:24.713","","","","","",""
"casino-keyboard-response","59","319302","0.0-19.0-0.3","A217","false","img/card_backs/set1/yellow.gif","img/card_backs/set1/green.gif","img/card_backs/set1/red.gif","img/card_backs/set1/purple.gif","img/card_backs/set2/orange.gif","img/card_backs/set2/blue.gif","img/card_backs/set2/gray.gif","img/card_backs/set2/pink.gif","""event"",""trial"",""time""
""fullscreenenter"",""1"",""3539""
","
","
","""event"",""trial"",""time""
""fullscreenenter"",""1"",""3539""
","
","","6313.100000023842","Answer carefully. You will not be able to begin the game until you answer them correctly.","67","","instructions","2021-08-03 03:11:31.031","","","","","",""
"casino-comp_q","60","326060","0.0-20.0-0.0","A217","false","img/card_backs/set1/yellow.gif","img/card_backs/set1/green.gif","img/card_backs/set1/red.gif","img/card_backs/set1/purple.gif","img/card_backs/set2/orange.gif","img/card_backs/set2/blue.gif","img/card_backs/set2/gray.gif","img/card_backs/set2/pink.gif","""event"",""trial"",""time""
""fullscreenenter"",""1"",""3539""
","
","
","""event"",""trial"",""time""
""fullscreenenter"",""1"",""3539""
","
","","6751.200000047684","True or False: All the decks have some cards that cause you to win tokens and some cards that cause you to lose tokens.","84","","","2021-08-03 03:11:37.789","","","","","",""
"casino-keyboard-response","61","330406","0.0-20.0-1.0","A217","false","img/card_backs/set1/yellow.gif","img/card_backs/set1/green.gif","img/card_backs/set1/red.gif","img/card_backs/set1/purple.gif","img/card_backs/set2/orange.gif","img/card_backs/set2/blue.gif","img/card_backs/set2/gray.gif","img/card_backs/set2/pink.gif","""event"",""trial"",""time""
""fullscreenenter"",""1"",""3539""
","
","
","""event"",""trial"",""time""
""fullscreenenter"",""1"",""3539""
","
","","4341.100000023842","True is correct! All the decks have a mix of winning and losing cards.","77","","","2021-08-03 03:11:42.135","","","","","true",""
"casino-comp_q","62","334662","0.0-21.0-0.0","A217","false","img/card_backs/set1/yellow.gif","img/card_backs/set1/green.gif","img/card_backs/set1/red.gif","img/card_backs/set1/purple.gif","img/card_backs/set2/orange.gif","img/card_backs/set2/blue.gif","img/card_backs/set2/gray.gif","img/card_backs/set2/pink.gif","""event"",""trial"",""time""
""fullscreenenter"",""1"",""3539""
","
","
","""event"",""trial"",""time""
""fullscreenenter"",""1"",""3539""
","
","","4250.800000071526","True or False: You will have as much time as you want to make your response.","70","","","2021-08-03 03:11:46.391","","","","","",""
"casino-keyboard-response","63","340077","0.0-21.0-1.0","A217","false","img/card_backs/set1/yellow.gif","img/card_backs/set1/green.gif","img/card_backs/set1/red.gif","img/card_backs/set1/purple.gif","img/card_backs/set2/orange.gif","img/card_backs/set2/blue.gif","img/card_backs/set2/gray.gif","img/card_backs/set2/pink.gif","""event"",""trial"",""time""
""fullscreenenter"",""1"",""3539""
","
","
","""event"",""trial"",""time""
""fullscreenenter"",""1"",""3539""
","
","","5402.200000047684","False is correct! You will only have 10 seconds to make each choice.","75","","","2021-08-03 03:11:51.806","","","","","true",""
"casino-comp_q","64","344312","0.0-22.0-0.0","A217","false","img/card_backs/set1/yellow.gif","img/card_backs/set1/green.gif","img/card_backs/set1/red.gif","img/card_backs/set1/purple.gif","img/card_backs/set2/orange.gif","img/card_backs/set2/blue.gif","img/card_backs/set2/gray.gif","img/card_backs/set2/pink.gif","""event"",""trial"",""time""
""fullscreenenter"",""1"",""3539""
","
","
","""event"",""trial"",""time""
""fullscreenenter"",""1"",""3539""
","
","","4227.700000047684","True or False: The location of the deck determines how lucky it is.","70","","","2021-08-03 03:11:56.041","","","","","",""
"casino-keyboard-response","65","348893","0.0-22.0-1.0","A217","false","img/card_backs/set1/yellow.gif","img/card_backs/set1/green.gif","img/card_backs/set1/red.gif","img/card_backs/set1/purple.gif","img/card_backs/set2/orange.gif","img/card_backs/set2/blue.gif","img/card_backs/set2/gray.gif","img/card_backs/set2/pink.gif","""event"",""trial"",""time""
""fullscreenenter"",""1"",""3539""
","
","
","""event"",""trial"",""time""
""fullscreenenter"",""1"",""3539""
","
","","4566.899999976158","False is correct! The <i>color</i>  of the deck determines how lucky or unlucky it is.","68","","","2021-08-03 03:12:00.622","","","","","true",""
"casino-keyboard-response","66","353619","0.0-23.0-0.0","A217","false","img/card_backs/set1/yellow.gif","img/card_backs/set1/green.gif","img/card_backs/set1/red.gif","img/card_backs/set1/purple.gif","img/card_backs/set2/orange.gif","img/card_backs/set2/blue.gif","img/card_backs/set2/gray.gif","img/card_backs/set2/pink.gif","""event"",""trial"",""time""
""fullscreenenter"",""1"",""3539""
","
","
","""event"",""trial"",""time""
""fullscreenenter"",""1"",""3539""
","
","","4722.299999952316","Great job! Now it's time to start the real game.","82","","instructions","2021-08-03 03:12:05.348","","","","","",""
"casino-keyboard-response","67","359063","0.0-23.0-0.1","A217","false","img/card_backs/set1/yellow.gif","img/card_backs/set1/green.gif","img/card_backs/set1/red.gif","img/card_backs/set1/purple.gif","img/card_backs/set2/orange.gif","img/card_backs/set2/blue.gif","img/card_backs/set2/gray.gif","img/card_backs/set2/pink.gif","""event"",""trial"",""time""
""fullscreenenter"",""1"",""3539""
","
","
","""event"",""trial"",""time""
""fullscreenenter"",""1"",""3539""
","
","","5441.299999952316","Before we start, we're going to head into a new room of the casino.","86","","instructions","2021-08-03 03:12:10.792","","","","","",""
"casino-keyboard-response","68","365331","0.0-24.0-0.0","A217","false","img/card_backs/set1/yellow.gif","img/card_backs/set1/green.gif","img/card_backs/set1/red.gif","img/card_backs/set1/purple.gif","img/card_backs/set2/orange.gif","img/card_backs/set2/blue.gif","img/card_backs/set2/gray.gif","img/card_backs/set2/pink.gif","""event"",""trial"",""time""
""fullscreenenter"",""1"",""3539""
","
","
","""event"",""trial"",""time""
""fullscreenenter"",""1"",""3539""
","
","","6263.699999928474","Here we are! The real game will use different cards, but the rules will be the same.","71","","instructions","2021-08-03 03:12:17.060","","","","","",""
"casino-keyboard-response","69","373642","0.0-24.0-0.1","A217","false","img/card_backs/set1/yellow.gif","img/card_backs/set1/green.gif","img/card_backs/set1/red.gif","img/card_backs/set1/purple.gif","img/card_backs/set2/orange.gif","img/card_backs/set2/blue.gif","img/card_backs/set2/gray.gif","img/card_backs/set2/pink.gif","""event"",""trial"",""time""
""fullscreenenter"",""1"",""3539""
","
","
","""event"",""trial"",""time""
""fullscreenenter"",""1"",""3539""
","
","","8308","Ready? Put your fingers over the '2', '4', 6', and '8' keys so you are ready to play the game. </br> Then press 2 to start.","50","","instructions","2021-08-03 03:12:25.371","","","","","",""
"casino-fixation","70","374159","0.0-25.0-0.0","A217","false","img/card_backs/set1/yellow.gif","img/card_backs/set1/green.gif","img/card_backs/set1/red.gif","img/card_backs/set1/purple.gif","img/card_backs/set2/orange.gif","img/card_backs/set2/blue.gif","img/card_backs/set2/gray.gif","img/card_backs/set2/pink.gif","""event"",""trial"",""time""
""fullscreenenter"",""1"",""3539""
","
","
","""event"",""trial"",""time""
""fullscreenenter"",""1"",""3539""
","
","","null","","null","","fixation","2021-08-03 03:12:25.888","","","","","",""
"card-selection-trial","71","377220","0.0-25.0-1.0","A217","false","img/card_backs/set1/yellow.gif","img/card_backs/set1/green.gif","img/card_backs/set1/red.gif","img/card_backs/set1/purple.gif","img/card_backs/set2/orange.gif","img/card_backs/set2/blue.gif","img/card_backs/set2/gray.gif","img/card_backs/set2/pink.gif","""event"",""trial"",""time""
""fullscreenenter"",""1"",""3539""
","
","
","""event"",""trial"",""time""
""fullscreenenter"",""1"",""3539""
","
","","1043.7999999523163","","","","real_trial","2021-08-03 03:12:28.949","img/card_backs/set1/red.gif","0","-70","1","",""
"casino-fixation","72","377729","0.0-25.0-0.1","A217","false","img/card_backs/set1/yellow.gif","img/card_backs/set1/green.gif","img/card_backs/set1/red.gif","img/card_backs/set1/purple.gif","img/card_backs/set2/orange.gif","img/card_backs/set2/blue.gif","img/card_backs/set2/gray.gif","img/card_backs/set2/pink.gif","""event"",""trial"",""time""
""fullscreenenter"",""1"",""3539""
","
","
","""event"",""trial"",""time""
""fullscreenenter"",""1"",""3539""
","
","","null","","null","","fixation","2021-08-03 03:12:29.458","","","","","",""
"card-selection-trial","73","380550","0.0-25.0-1.1","A217","false","img/card_backs/set1/yellow.gif","img/card_backs/set1/green.gif","img/card_backs/set1/red.gif","img/card_backs/set1/purple.gif","img/card_backs/set2/orange.gif","img/card_backs/set2/blue.gif","img/card_backs/set2/gray.gif","img/card_backs/set2/pink.gif","""event"",""trial"",""time""
""fullscreenenter"",""1"",""3539""
","
","
","""event"",""trial"",""time""
""fullscreenenter"",""1"",""3539""
","
","","793.3999999761581","","","","real_trial","2021-08-03 03:12:32.279","img/card_backs/set1/green.gif","0","-240","1","",""
"casino-fixation","74","381069","0.0-25.0-0.2","A217","false","img/card_backs/set1/yellow.gif","img/card_backs/set1/green.gif","img/card_backs/set1/red.gif","img/card_backs/set1/purple.gif","img/card_backs/set2/orange.gif","img/card_backs/set2/blue.gif","img/card_backs/set2/gray.gif","img/card_backs/set2/pink.gif","""event"",""trial"",""time""
""fullscreenenter"",""1"",""3539""
","
","
","""event"",""trial"",""time""
""fullscreenenter"",""1"",""3539""
","
","","null","","null","","fixation","2021-08-03 03:12:32.799","","","","","",""
"card-selection-trial","75","384120","0.0-25.0-1.2","A217","false","img/card_backs/set1/yellow.gif","img/card_backs/set1/green.gif","img/card_backs/set1/red.gif","img/card_backs/set1/purple.gif","img/card_backs/set2/orange.gif","img/card_backs/set2/blue.gif","img/card_backs/set2/gray.gif","img/card_backs/set2/pink.gif","""event"",""trial"",""time""
""fullscreenenter"",""1"",""3539""
","
","
","""event"",""trial"",""time""
""fullscreenenter"",""1"",""3539""
","
","","1038.3999999761581","","","","real_trial","2021-08-03 03:12:35.849","img/card_backs/set1/purple.gif","2","120","1","",""
"casino-fixation","76","384639","0.0-25.0-0.3","A217","false","img/card_backs/set1/yellow.gif","img/card_backs/set1/green.gif","img/card_backs/set1/red.gif","img/card_backs/set1/purple.gif","img/card_backs/set2/orange.gif","img/card_backs/set2/blue.gif","img/card_backs/set2/gray.gif","img/card_backs/set2/pink.gif","""event"",""trial"",""time""
""fullscreenenter"",""1"",""3539""
","
","
","""event"",""trial"",""time""
""fullscreenenter"",""1"",""3539""
","
","","null","","null","","fixation","2021-08-03 03:12:36.368","","","","","",""
"card-selection-trial","77","387805","0.0-25.0-1.3","A217","false","img/card_backs/set1/yellow.gif","img/card_backs/set1/green.gif","img/card_backs/set1/red.gif","img/card_backs/set1/purple.gif","img/card_backs/set2/orange.gif","img/card_backs/set2/blue.gif","img/card_backs/set2/gray.gif","img/card_backs/set2/pink.gif","""event"",""trial"",""time""
""fullscreenenter"",""1"",""3539""
","
","
","""event"",""trial"",""time""
""fullscreenenter"",""1"",""3539""
","
","","1137.4000000953674","","","","real_trial","2021-08-03 03:12:39.534","img/card_backs/set1/yellow.gif","2","180","1","",""
"casino-fixation","78","388329","0.0-25.0-0.4","A217","false","img/card_backs/set1/yellow.gif","img/card_backs/set1/green.gif","img/card_backs/set1/red.gif","img/card_backs/set1/purple.gif","img/card_backs/set2/orange.gif","img/card_backs/set2/blue.gif","img/card_backs/set2/gray.gif","img/card_backs/set2/pink.gif","""event"",""trial"",""time""
""fullscreenenter"",""1"",""3539""
","
","
","""event"",""trial"",""time""
""fullscreenenter"",""1"",""3539""
","
","","null","","null","","fixation","2021-08-03 03:12:40.058","","","","","",""
"card-selection-trial","79","391491","0.0-25.0-1.4","A217","false","img/card_backs/set1/yellow.gif","img/card_backs/set1/green.gif","img/card_backs/set1/red.gif","img/card_backs/set1/purple.gif","img/card_backs/set2/orange.gif","img/card_backs/set2/blue.gif","img/card_backs/set2/gray.gif","img/card_backs/set2/pink.gif","""event"",""trial"",""time""
""fullscreenenter"",""1"",""3539""
","
","
","""event"",""trial"",""time""
""fullscreenenter"",""1"",""3539""
","
","","1142.6999999284744","","","","real_trial","2021-08-03 03:12:43.220","img/card_backs/set1/green.gif","3","-240","1","",""
"casino-fixation","80","392006","0.0-25.0-0.5","A217","false","img/card_backs/set1/yellow.gif","img/card_backs/set1/green.gif","img/card_backs/set1/red.gif","img/card_backs/set1/purple.gif","img/card_backs/set2/orange.gif","img/card_backs/set2/blue.gif","img/card_backs/set2/gray.gif","img/card_backs/set2/pink.gif","""event"",""trial"",""time""
""fullscreenenter"",""1"",""3539""
","
","
","""event"",""trial"",""time""
""fullscreenenter"",""1"",""3539""
","
","","null","","null","","fixation","2021-08-03 03:12:43.735","","","","","",""
"card-selection-trial","81","395021","0.0-25.0-1.5","A217","false","img/card_backs/set1/yellow.gif","img/card_backs/set1/green.gif","img/card_backs/set1/red.gif","img/card_backs/set1/purple.gif","img/card_backs/set2/orange.gif","img/card_backs/set2/blue.gif","img/card_backs/set2/gray.gif","img/card_backs/set2/pink.gif","""event"",""trial"",""time""
""fullscreenenter"",""1"",""3539""
","
","
","""event"",""trial"",""time""
""fullscreenenter"",""1"",""3539""
","
","","987.1000000238419","","","","real_trial","2021-08-03 03:12:46.750","img/card_backs/set1/purple.gif","2","-50","1","",""
"casino-fixation","82","395549","0.0-25.0-0.6","A217","false","img/card_backs/set1/yellow.gif","img/card_backs/set1/green.gif","img/card_backs/set1/red.gif","img/card_backs/set1/purple.gif","img/card_backs/set2/orange.gif","img/card_backs/set2/blue.gif","img/card_backs/set2/gray.gif","img/card_backs/set2/pink.gif","""event"",""trial"",""time""
""fullscreenenter"",""1"",""3539""
","
","
","""event"",""trial"",""time""
""fullscreenenter"",""1"",""3539""
","
","","null","","null","","fixation","2021-08-03 03:12:47.278","","","","","",""
"card-selection-trial","83","398629","0.0-25.0-1.6","A217","false","img/card_backs/set1/yellow.gif","img/card_backs/set1/green.gif","img/card_backs/set1/red.gif","img/card_backs/set1/purple.gif","img/card_backs/set2/orange.gif","img/card_backs/set2/blue.gif","img/card_backs/set2/gray.gif","img/card_backs/set2/pink.gif","""event"",""trial"",""time""
""fullscreenenter"",""1"",""3539""
","
","
","""event"",""trial"",""time""
""fullscreenenter"",""1"",""3539""
","
","","1056.6999999284744","","","","real_trial","2021-08-03 03:12:50.358","img/card_backs/set1/yellow.gif","1","180","1","",""
"casino-fixation","84","399149","0.0-25.0-0.7","A217","false","img/card_backs/set1/yellow.gif","img/card_backs/set1/green.gif","img/card_backs/set1/red.gif","img/card_backs/set1/purple.gif","img/card_backs/set2/orange.gif","img/card_backs/set2/blue.gif","img/card_backs/set2/gray.gif","img/card_backs/set2/pink.gif","""event"",""trial"",""time""
""fullscreenenter"",""1"",""3539""
","
","
","""event"",""trial"",""time""
""fullscreenenter"",""1"",""3539""
","
","","null","","null","","fixation","2021-08-03 03:12:50.878","","","","","",""
"card-selection-trial","85","402542","0.0-25.0-1.7","A217","false","img/card_backs/set1/yellow.gif","img/card_backs/set1/green.gif","img/card_backs/set1/red.gif","img/card_backs/set1/purple.gif","img/card_backs/set2/orange.gif","img/card_backs/set2/blue.gif","img/card_backs/set2/gray.gif","img/card_backs/set2/pink.gif","""event"",""trial"",""time""
""fullscreenenter"",""1"",""3539""
","
","
","""event"",""trial"",""time""
""fullscreenenter"",""1"",""3539""
","
","","1368.8999999761581","","","","real_trial","2021-08-03 03:12:54.271","img/card_backs/set1/red.gif","1","-50","1","",""
"casino-fixation","86","403049","0.0-25.0-0.8","A217","false","img/card_backs/set1/yellow.gif","img/card_backs/set1/green.gif","img/card_backs/set1/red.gif","img/card_backs/set1/purple.gif","img/card_backs/set2/orange.gif","img/card_backs/set2/blue.gif","img/card_backs/set2/gray.gif","img/card_backs/set2/pink.gif","""event"",""trial"",""time""
""fullscreenenter"",""1"",""3539""
","
","
","""event"",""trial"",""time""
""fullscreenenter"",""1"",""3539""
","
","","null","","null","","fixation","2021-08-03 03:12:54.778","","","","","",""
"card-selection-trial","87","405856","0.0-25.0-1.8","A217","false","img/card_backs/set1/yellow.gif","img/card_backs/set1/green.gif","img/card_backs/set1/red.gif","img/card_backs/set1/purple.gif","img/card_backs/set2/orange.gif","img/card_backs/set2/blue.gif","img/card_backs/set2/gray.gif","img/card_backs/set2/pink.gif","""event"",""trial"",""time""
""fullscreenenter"",""1"",""3539""
","
","
","""event"",""trial"",""time""
""fullscreenenter"",""1"",""3539""
","
","","796.7999999523163","","","","real_trial","2021-08-03 03:12:57.586","img/card_backs/set1/purple.gif","0","120","1","",""
"casino-fixation","88","406360","0.0-25.0-0.9","A217","false","img/card_backs/set1/yellow.gif","img/card_backs/set1/green.gif","img/card_backs/set1/red.gif","img/card_backs/set1/purple.gif","img/card_backs/set2/orange.gif","img/card_backs/set2/blue.gif","img/card_backs/set2/gray.gif","img/card_backs/set2/pink.gif","""event"",""trial"",""time""
""fullscreenenter"",""1"",""3539""
","
","
","""event"",""trial"",""time""
""fullscreenenter"",""1"",""3539""
","
","","null","","null","","fixation","2021-08-03 03:12:58.090","","","","","",""
"card-selection-trial","89","409855","0.0-25.0-1.9","A217","false","img/card_backs/set1/yellow.gif","img/card_backs/set1/green.gif","img/card_backs/set1/red.gif","img/card_backs/set1/purple.gif","img/card_backs/set2/orange.gif","img/card_backs/set2/blue.gif","img/card_backs/set2/gray.gif","img/card_backs/set2/pink.gif","""event"",""trial"",""time""
""fullscreenenter"",""1"",""3539""
","
","
","""event"",""trial"",""time""
""fullscreenenter"",""1"",""3539""
","
","","1483","","","","real_trial","2021-08-03 03:13:01.585","img/card_backs/set1/purple.gif","3","110","1","",""
"casino-fixation","90","410359","0.0-25.0-0.10","A217","false","img/card_backs/set1/yellow.gif","img/card_backs/set1/green.gif","img/card_backs/set1/red.gif","img/card_backs/set1/purple.gif","img/card_backs/set2/orange.gif","img/card_backs/set2/blue.gif","img/card_backs/set2/gray.gif","img/card_backs/set2/pink.gif","""event"",""trial"",""time""
""fullscreenenter"",""1"",""3539""
","
","
","""event"",""trial"",""time""
""fullscreenenter"",""1"",""3539""
","
","","null","","null","","fixation","2021-08-03 03:13:02.088","","","","","",""
"card-selection-trial","91","413160","0.0-25.0-1.10","A217","false","img/card_backs/set1/yellow.gif","img/card_backs/set1/green.gif","img/card_backs/set1/red.gif","img/card_backs/set1/purple.gif","img/card_backs/set2/orange.gif","img/card_backs/set2/blue.gif","img/card_backs/set2/gray.gif","img/card_backs/set2/pink.gif","""event"",""trial"",""time""
""fullscreenenter"",""1"",""3539""
","
","
","""event"",""trial"",""time""
""fullscreenenter"",""1"",""3539""
","
","","789","","","","real_trial","2021-08-03 03:13:04.889","img/card_backs/set1/purple.gif","3","110","1","",""
"casino-fixation","92","413664","0.0-25.0-0.11","A217","false","img/card_backs/set1/yellow.gif","img/card_backs/set1/green.gif","img/card_backs/set1/red.gif","img/card_backs/set1/purple.gif","img/card_backs/set2/orange.gif","img/card_backs/set2/blue.gif","img/card_backs/set2/gray.gif","img/card_backs/set2/pink.gif","""event"",""trial"",""time""
""fullscreenenter"",""1"",""3539""
","
","
","""event"",""trial"",""time""
""fullscreenenter"",""1"",""3539""
","
","","null","","null","","fixation","2021-08-03 03:13:05.393","","","","","",""
"card-selection-trial","93","417434","0.0-25.0-1.11","A217","false","img/card_backs/set1/yellow.gif","img/card_backs/set1/green.gif","img/card_backs/set1/red.gif","img/card_backs/set1/purple.gif","img/card_backs/set2/orange.gif","img/card_backs/set2/blue.gif","img/card_backs/set2/gray.gif","img/card_backs/set2/pink.gif","""event"",""trial"",""time""
""fullscreenenter"",""1"",""3539""
","
","
","""event"",""trial"",""time""
""fullscreenenter"",""1"",""3539""
","
","","1752.6999999284744","","","","real_trial","2021-08-03 03:13:09.163","img/card_backs/set1/red.gif","2","-70","1","",""
"casino-fixation","94","417938","0.0-25.0-0.12","A217","false","img/card_backs/set1/yellow.gif","img/card_backs/set1/green.gif","img/card_backs/set1/red.gif","img/card_backs/set1/purple.gif","img/card_backs/set2/orange.gif","img/card_backs/set2/blue.gif","img/card_backs/set2/gray.gif","img/card_backs/set2/pink.gif","""event"",""trial"",""time""
""fullscreenenter"",""1"",""3539""
","
","
","""event"",""trial"",""time""
""fullscreenenter"",""1"",""3539""
","
","","null","","null","","fixation","2021-08-03 03:13:09.667","","","","","",""
"card-selection-trial","95","420791","0.0-25.0-1.12","A217","false","img/card_backs/set1/yellow.gif","img/card_backs/set1/green.gif","img/card_backs/set1/red.gif","img/card_backs/set1/purple.gif","img/card_backs/set2/orange.gif","img/card_backs/set2/blue.gif","img/card_backs/set2/gray.gif","img/card_backs/set2/pink.gif","""event"",""trial"",""time""
""fullscreenenter"",""1"",""3539""
","
","
","""event"",""trial"",""time""
""fullscreenenter"",""1"",""3539""
","
","","841.3999999761581","","","","real_trial","2021-08-03 03:13:12.520","img/card_backs/set1/purple.gif","0","100","1","",""
"casino-fixation","96","421295","0.0-25.0-0.13","A217","false","img/card_backs/set1/yellow.gif","img/card_backs/set1/green.gif","img/card_backs/set1/red.gif","img/card_backs/set1/purple.gif","img/card_backs/set2/orange.gif","img/card_backs/set2/blue.gif","img/card_backs/set2/gray.gif","img/card_backs/set2/pink.gif","""event"",""trial"",""time""
""fullscreenenter"",""1"",""3539""
","
","
","""event"",""trial"",""time""
""fullscreenenter"",""1"",""3539""
","
","","null","","null","","fixation","2021-08-03 03:13:13.024","","","","","",""
"card-selection-trial","97","425213","0.0-25.0-1.13","A217","false","img/card_backs/set1/yellow.gif","img/card_backs/set1/green.gif","img/card_backs/set1/red.gif","img/card_backs/set1/purple.gif","img/card_backs/set2/orange.gif","img/card_backs/set2/blue.gif","img/card_backs/set2/gray.gif","img/card_backs/set2/pink.gif","""event"",""trial"",""time""
""fullscreenenter"",""1"",""3539""
","
","
","""event"",""trial"",""time""
""fullscreenenter"",""1"",""3539""
","
","","1909.8999999761581","","","","real_trial","2021-08-03 03:13:16.942","img/card_backs/set1/purple.gif","2","-60","1","",""
"casino-fixation","98","425717","0.0-25.0-0.14","A217","false","img/card_backs/set1/yellow.gif","img/card_backs/set1/green.gif","img/card_backs/set1/red.gif","img/card_backs/set1/purple.gif","img/card_backs/set2/orange.gif","img/card_backs/set2/blue.gif","img/card_backs/set2/gray.gif","img/card_backs/set2/pink.gif","""event"",""trial"",""time""
""fullscreenenter"",""1"",""3539""
","
","
","""event"",""trial"",""time""
""fullscreenenter"",""1"",""3539""
","
","","null","","null","","fixation","2021-08-03 03:13:17.446","","","","","",""
"card-selection-trial","99","428952","0.0-25.0-1.14","A217","false","img/card_backs/set1/yellow.gif","img/card_backs/set1/green.gif","img/card_backs/set1/red.gif","img/card_backs/set1/purple.gif","img/card_backs/set2/orange.gif","img/card_backs/set2/blue.gif","img/card_backs/set2/gray.gif","img/card_backs/set2/pink.gif","""event"",""trial"",""time""
""fullscreenenter"",""1"",""3539""
","
","
","""event"",""trial"",""time""
""fullscreenenter"",""1"",""3539""
","
","","1224.1000000238419","","","","real_trial","2021-08-03 03:13:20.681","img/card_backs/set1/red.gif","2","120","1","",""
"casino-fixation","100","429456","0.0-25.0-0.15","A217","false","img/card_backs/set1/yellow.gif","img/card_backs/set1/green.gif","img/card_backs/set1/red.gif","img/card_backs/set1/purple.gif","img/card_backs/set2/orange.gif","img/card_backs/set2/blue.gif","img/card_backs/set2/gray.gif","img/card_backs/set2/pink.gif","""event"",""trial"",""time""
""fullscreenenter"",""1"",""3539""
","
","
","""event"",""trial"",""time""
""fullscreenenter"",""1"",""3539""
","
","","null","","null","","fixation","2021-08-03 03:13:21.185","","","","","",""
"card-selection-trial","101","432543","0.0-25.0-1.15","A217","false","img/card_backs/set1/yellow.gif","img/card_backs/set1/green.gif","img/card_backs/set1/red.gif","img/card_backs/set1/purple.gif","img/card_backs/set2/orange.gif","img/card_backs/set2/blue.gif","img/card_backs/set2/gray.gif","img/card_backs/set2/pink.gif","""event"",""trial"",""time""
""fullscreenenter"",""1"",""3539""
","
","
","""event"",""trial"",""time""
""fullscreenenter"",""1"",""3539""
","
","","1069.2999999523163","","","","real_trial","2021-08-03 03:13:24.272","img/card_backs/set1/red.gif","0","120","1","",""
"casino-fixation","102","433046","0.0-25.0-0.16","A217","false","img/card_backs/set1/yellow.gif","img/card_backs/set1/green.gif","img/card_backs/set1/red.gif","img/card_backs/set1/purple.gif","img/card_backs/set2/orange.gif","img/card_backs/set2/blue.gif","img/card_backs/set2/gray.gif","img/card_backs/set2/pink.gif","""event"",""trial"",""time""
""fullscreenenter"",""1"",""3539""
","
","
","""event"",""trial"",""time""
""fullscreenenter"",""1"",""3539""
","
","","null","","null","","fixation","2021-08-03 03:13:24.775","","","","","",""
"card-selection-trial","103","435967","0.0-25.0-1.16","A217","false","img/card_backs/set1/yellow.gif","img/card_backs/set1/green.gif","img/card_backs/set1/red.gif","img/card_backs/set1/purple.gif","img/card_backs/set2/orange.gif","img/card_backs/set2/blue.gif","img/card_backs/set2/gray.gif","img/card_backs/set2/pink.gif","""event"",""trial"",""time""
""fullscreenenter"",""1"",""3539""
","
","
","""event"",""trial"",""time""
""fullscreenenter"",""1"",""3539""
","
","","910.7999999523163","","","","real_trial","2021-08-03 03:13:27.696","img/card_backs/set1/red.gif","2","-70","1","",""
"casino-fixation","104","436471","0.0-25.0-0.17","A217","false","img/card_backs/set1/yellow.gif","img/card_backs/set1/green.gif","img/card_backs/set1/red.gif","img/card_backs/set1/purple.gif","img/card_backs/set2/orange.gif","img/card_backs/set2/blue.gif","img/card_backs/set2/gray.gif","img/card_backs/set2/pink.gif","""event"",""trial"",""time""
""fullscreenenter"",""1"",""3539""
","
","
","""event"",""trial"",""time""
""fullscreenenter"",""1"",""3539""
","
","","null","","null","","fixation","2021-08-03 03:13:28.200","","","","","",""
"card-selection-trial","105","439428","0.0-25.0-1.17","A217","false","img/card_backs/set1/yellow.gif","img/card_backs/set1/green.gif","img/card_backs/set1/red.gif","img/card_backs/set1/purple.gif","img/card_backs/set2/orange.gif","img/card_backs/set2/blue.gif","img/card_backs/set2/gray.gif","img/card_backs/set2/pink.gif","""event"",""trial"",""time""
""fullscreenenter"",""1"",""3539""
","
","
","""event"",""trial"",""time""
""fullscreenenter"",""1"",""3539""
","
","","945.1000000238419","","","","real_trial","2021-08-03 03:13:31.157","img/card_backs/set1/purple.gif","0","-60","1","",""
"casino-fixation","106","439931","0.0-25.0-0.18","A217","false","img/card_backs/set1/yellow.gif","img/card_backs/set1/green.gif","img/card_backs/set1/red.gif","img/card_backs/set1/purple.gif","img/card_backs/set2/orange.gif","img/card_backs/set2/blue.gif","img/card_backs/set2/gray.gif","img/card_backs/set2/pink.gif","""event"",""trial"",""time""
""fullscreenenter"",""1"",""3539""
","
","
","""event"",""trial"",""time""
""fullscreenenter"",""1"",""3539""
","
","","null","","null","","fixation","2021-08-03 03:13:31.660","","","","","",""
"card-selection-trial","107","442854","0.0-25.0-1.18","A217","false","img/card_backs/set1/yellow.gif","img/card_backs/set1/green.gif","img/card_backs/set1/red.gif","img/card_backs/set1/purple.gif","img/card_backs/set2/orange.gif","img/card_backs/set2/blue.gif","img/card_backs/set2/gray.gif","img/card_backs/set2/pink.gif","""event"",""trial"",""time""
""fullscreenenter"",""1"",""3539""
","
","
","""event"",""trial"",""time""
""fullscreenenter"",""1"",""3539""
","
","","904.2000000476837","","","","real_trial","2021-08-03 03:13:34.583","img/card_backs/set1/red.gif","2","100","1","",""
"casino-fixation","108","443357","0.0-25.0-0.19","A217","false","img/card_backs/set1/yellow.gif","img/card_backs/set1/green.gif","img/card_backs/set1/red.gif","img/card_backs/set1/purple.gif","img/card_backs/set2/orange.gif","img/card_backs/set2/blue.gif","img/card_backs/set2/gray.gif","img/card_backs/set2/pink.gif","""event"",""trial"",""time""
""fullscreenenter"",""1"",""3539""
","
","
","""event"",""trial"",""time""
""fullscreenenter"",""1"",""3539""
","
","","null","","null","","fixation","2021-08-03 03:13:35.086","","","","","",""
"card-selection-trial","109","446248","0.0-25.0-1.19","A217","false","img/card_backs/set1/yellow.gif","img/card_backs/set1/green.gif","img/card_backs/set1/red.gif","img/card_backs/set1/purple.gif","img/card_backs/set2/orange.gif","img/card_backs/set2/blue.gif","img/card_backs/set2/gray.gif","img/card_backs/set2/pink.gif","""event"",""trial"",""time""
""fullscreenenter"",""1"",""3539""
","
","
","""event"",""trial"",""time""
""fullscreenenter"",""1"",""3539""
","
","","875.8000000715256","","","","real_trial","2021-08-03 03:13:37.977","img/card_backs/set1/red.gif","0","100","1","",""
"casino-fixation","110","446753","0.0-25.0-0.20","A217","false","img/card_backs/set1/yellow.gif","img/card_backs/set1/green.gif","img/card_backs/set1/red.gif","img/card_backs/set1/purple.gif","img/card_backs/set2/orange.gif","img/card_backs/set2/blue.gif","img/card_backs/set2/gray.gif","img/card_backs/set2/pink.gif","""event"",""trial"",""time""
""fullscreenenter"",""1"",""3539""
","
","
","""event"",""trial"",""time""
""fullscreenenter"",""1"",""3539""
","
","","null","","null","","fixation","2021-08-03 03:13:38.482","","","","","",""
"card-selection-trial","111","449840","0.0-25.0-1.20","A217","false","img/card_backs/set1/yellow.gif","img/card_backs/set1/green.gif","img/card_backs/set1/red.gif","img/card_backs/set1/purple.gif","img/card_backs/set2/orange.gif","img/card_backs/set2/blue.gif","img/card_backs/set2/gray.gif","img/card_backs/set2/pink.gif","""event"",""trial"",""time""
""fullscreenenter"",""1"",""3539""
","
","
","""event"",""trial"",""time""
""fullscreenenter"",""1"",""3539""
","
","","1068","","","","real_trial","2021-08-03 03:13:41.569","img/card_backs/set1/red.gif","2","-60","1","",""
"casino-fixation","112","450345","0.0-25.0-0.21","A217","false","img/card_backs/set1/yellow.gif","img/card_backs/set1/green.gif","img/card_backs/set1/red.gif","img/card_backs/set1/purple.gif","img/card_backs/set2/orange.gif","img/card_backs/set2/blue.gif","img/card_backs/set2/gray.gif","img/card_backs/set2/pink.gif","""event"",""trial"",""time""
""fullscreenenter"",""1"",""3539""
","
","
","""event"",""trial"",""time""
""fullscreenenter"",""1"",""3539""
","
","","null","","null","","fixation","2021-08-03 03:13:42.074","","","","","",""
"card-selection-trial","113","453277","0.0-25.0-1.21","A217","false","img/card_backs/set1/yellow.gif","img/card_backs/set1/green.gif","img/card_backs/set1/red.gif","img/card_backs/set1/purple.gif","img/card_backs/set2/orange.gif","img/card_backs/set2/blue.gif","img/card_backs/set2/gray.gif","img/card_backs/set2/pink.gif","""event"",""trial"",""time""
""fullscreenenter"",""1"",""3539""
","
","
","""event"",""trial"",""time""
""fullscreenenter"",""1"",""3539""
","
","","921.2000000476837","","","","real_trial","2021-08-03 03:13:45.006","img/card_backs/set1/purple.gif","1","-70","1","",""
"casino-fixation","114","453781","0.0-25.0-0.22","A217","false","img/card_backs/set1/yellow.gif","img/card_backs/set1/green.gif","img/card_backs/set1/red.gif","img/card_backs/set1/purple.gif","img/card_backs/set2/orange.gif","img/card_backs/set2/blue.gif","img/card_backs/set2/gray.gif","img/card_backs/set2/pink.gif","""event"",""trial"",""time""
""fullscreenenter"",""1"",""3539""
","
","
","""event"",""trial"",""time""
""fullscreenenter"",""1"",""3539""
","
","","null","","null","","fixation","2021-08-03 03:13:45.510","","","","","",""
"card-selection-trial","115","456676","0.0-25.0-1.22","A217","false","img/card_backs/set1/yellow.gif","img/card_backs/set1/green.gif","img/card_backs/set1/red.gif","img/card_backs/set1/purple.gif","img/card_backs/set2/orange.gif","img/card_backs/set2/blue.gif","img/card_backs/set2/gray.gif","img/card_backs/set2/pink.gif","""event"",""trial"",""time""
""fullscreenenter"",""1"",""3539""
","
","
","""event"",""trial"",""time""
""fullscreenenter"",""1"",""3539""
","
","","886.7999999523163","","","","real_trial","2021-08-03 03:13:48.405","img/card_backs/set1/green.gif","2","-230","1","",""
"casino-fixation","116","457181","0.0-25.0-0.23","A217","false","img/card_backs/set1/yellow.gif","img/card_backs/set1/green.gif","img/card_backs/set1/red.gif","img/card_backs/set1/purple.gif","img/card_backs/set2/orange.gif","img/card_backs/set2/blue.gif","img/card_backs/set2/gray.gif","img/card_backs/set2/pink.gif","""event"",""trial"",""time""
""fullscreenenter"",""1"",""3539""
","
","
","""event"",""trial"",""time""
""fullscreenenter"",""1"",""3539""
","
","","null","","null","","fixation","2021-08-03 03:13:48.910","","","","","",""
"card-selection-trial","117","460554","0.0-25.0-1.23","A217","false","img/card_backs/set1/yellow.gif","img/card_backs/set1/green.gif","img/card_backs/set1/red.gif","img/card_backs/set1/purple.gif","img/card_backs/set2/orange.gif","img/card_backs/set2/blue.gif","img/card_backs/set2/gray.gif","img/card_backs/set2/pink.gif","""event"",""trial"",""time""
""fullscreenenter"",""1"",""3539""
","
","
","""event"",""trial"",""time""
""fullscreenenter"",""1"",""3539""
","
","","1352.2999999523163","","","","real_trial","2021-08-03 03:13:52.283","img/card_backs/set1/yellow.gif","3","200","1","",""
"casino-fixation","118","461059","0.0-25.0-0.24","A217","false","img/card_backs/set1/yellow.gif","img/card_backs/set1/green.gif","img/card_backs/set1/red.gif","img/card_backs/set1/purple.gif","img/card_backs/set2/orange.gif","img/card_backs/set2/blue.gif","img/card_backs/set2/gray.gif","img/card_backs/set2/pink.gif","""event"",""trial"",""time""
""fullscreenenter"",""1"",""3539""
","
","
","""event"",""trial"",""time""
""fullscreenenter"",""1"",""3539""
","
","","null","","null","","fixation","2021-08-03 03:13:52.788","","","","","",""
"card-selection-trial","119","463621","0.0-25.0-1.24","A217","false","img/card_backs/set1/yellow.gif","img/card_backs/set1/green.gif","img/card_backs/set1/red.gif","img/card_backs/set1/purple.gif","img/card_backs/set2/orange.gif","img/card_backs/set2/blue.gif","img/card_backs/set2/gray.gif","img/card_backs/set2/pink.gif","""event"",""trial"",""time""
""fullscreenenter"",""1"",""3539""
","
","
","""event"",""trial"",""time""
""fullscreenenter"",""1"",""3539""
","
","","552.9000000953674","","","","real_trial","2021-08-03 03:13:55.350","img/card_backs/set1/yellow.gif","3","-230","1","",""
"casino-fixation","120","464126","0.0-25.0-0.25","A217","false","img/card_backs/set1/yellow.gif","img/card_backs/set1/green.gif","img/card_backs/set1/red.gif","img/card_backs/set1/purple.gif","img/card_backs/set2/orange.gif","img/card_backs/set2/blue.gif","img/card_backs/set2/gray.gif","img/card_backs/set2/pink.gif","""event"",""trial"",""time""
""fullscreenenter"",""1"",""3539""
","
","
","""event"",""trial"",""time""
""fullscreenenter"",""1"",""3539""
","
","","null","","null","","fixation","2021-08-03 03:13:55.855","","","","","",""
"card-selection-trial","121","467220","0.0-25.0-1.25","A217","false","img/card_backs/set1/yellow.gif","img/card_backs/set1/green.gif","img/card_backs/set1/red.gif","img/card_backs/set1/purple.gif","img/card_backs/set2/orange.gif","img/card_backs/set2/blue.gif","img/card_backs/set2/gray.gif","img/card_backs/set2/pink.gif","""event"",""trial"",""time""
""fullscreenenter"",""1"",""3539""
","
","
","""event"",""trial"",""time""
""fullscreenenter"",""1"",""3539""
","
","","1084.7000000476837","","","","real_trial","2021-08-03 03:13:58.949","img/card_backs/set1/purple.gif","3","-50","1","",""
"casino-fixation","122","467723","0.0-25.0-0.26","A217","false","img/card_backs/set1/yellow.gif","img/card_backs/set1/green.gif","img/card_backs/set1/red.gif","img/card_backs/set1/purple.gif","img/card_backs/set2/orange.gif","img/card_backs/set2/blue.gif","img/card_backs/set2/gray.gif","img/card_backs/set2/pink.gif","""event"",""trial"",""time""
""fullscreenenter"",""1"",""3539""
","
","
","""event"",""trial"",""time""
""fullscreenenter"",""1"",""3539""
","
","","null","","null","","fixation","2021-08-03 03:13:59.452","","","","","",""
"card-selection-trial","123","470957","0.0-25.0-1.26","A217","false","img/card_backs/set1/yellow.gif","img/card_backs/set1/green.gif","img/card_backs/set1/red.gif","img/card_backs/set1/purple.gif","img/card_backs/set2/orange.gif","img/card_backs/set2/blue.gif","img/card_backs/set2/gray.gif","img/card_backs/set2/pink.gif","""event"",""trial"",""time""
""fullscreenenter"",""1"",""3539""
","
","
","""event"",""trial"",""time""
""fullscreenenter"",""1"",""3539""
","
","","1210.2999999523163","","","","real_trial","2021-08-03 03:14:02.686","img/card_backs/set1/red.gif","1","-70","1","",""
"casino-fixation","124","471462","0.0-25.0-0.27","A217","false","img/card_backs/set1/yellow.gif","img/card_backs/set1/green.gif","img/card_backs/set1/red.gif","img/card_backs/set1/purple.gif","img/card_backs/set2/orange.gif","img/card_backs/set2/blue.gif","img/card_backs/set2/gray.gif","img/card_backs/set2/pink.gif","""event"",""trial"",""time""
""fullscreenenter"",""1"",""3539""
","
","
","""event"",""trial"",""time""
""fullscreenenter"",""1"",""3539""
","
","","null","","null","","fixation","2021-08-03 03:14:03.192","","","","","",""
"card-selection-trial","125","474597","0.0-25.0-1.27","A217","false","img/card_backs/set1/yellow.gif","img/card_backs/set1/green.gif","img/card_backs/set1/red.gif","img/card_backs/set1/purple.gif","img/card_backs/set2/orange.gif","img/card_backs/set2/blue.gif","img/card_backs/set2/gray.gif","img/card_backs/set2/pink.gif","""event"",""trial"",""time""
""fullscreenenter"",""1"",""3539""
","
","
","""event"",""trial"",""time""
""fullscreenenter"",""1"",""3539""
","
","","1126.1999999284744","","","","real_trial","2021-08-03 03:14:06.326","img/card_backs/set1/purple.gif","1","-50","1","",""
"casino-fixation","126","475102","0.0-25.0-0.28","A217","false","img/card_backs/set1/yellow.gif","img/card_backs/set1/green.gif","img/card_backs/set1/red.gif","img/card_backs/set1/purple.gif","img/card_backs/set2/orange.gif","img/card_backs/set2/blue.gif","img/card_backs/set2/gray.gif","img/card_backs/set2/pink.gif","""event"",""trial"",""time""
""fullscreenenter"",""1"",""3539""
","
","
","""event"",""trial"",""time""
""fullscreenenter"",""1"",""3539""
","
","","null","","null","","fixation","2021-08-03 03:14:06.831","","","","","",""
"card-selection-trial","127","478445","0.0-25.0-1.28","A217","false","img/card_backs/set1/yellow.gif","img/card_backs/set1/green.gif","img/card_backs/set1/red.gif","img/card_backs/set1/purple.gif","img/card_backs/set2/orange.gif","img/card_backs/set2/blue.gif","img/card_backs/set2/gray.gif","img/card_backs/set2/pink.gif","""event"",""trial"",""time""
""fullscreenenter"",""1"",""3539""
","
","
","""event"",""trial"",""time""
""fullscreenenter"",""1"",""3539""
","
","","1331.6999999284744","","","","real_trial","2021-08-03 03:14:10.174","img/card_backs/set1/yellow.gif","3","180","1","",""
"casino-fixation","128","478949","0.0-25.0-0.29","A217","false","img/card_backs/set1/yellow.gif","img/card_backs/set1/green.gif","img/card_backs/set1/red.gif","img/card_backs/set1/purple.gif","img/card_backs/set2/orange.gif","img/card_backs/set2/blue.gif","img/card_backs/set2/gray.gif","img/card_backs/set2/pink.gif","""event"",""trial"",""time""
""fullscreenenter"",""1"",""3539""
","
","
","""event"",""trial"",""time""
""fullscreenenter"",""1"",""3539""
","
","","null","","null","","fixation","2021-08-03 03:14:10.678","","","","","",""
"card-selection-trial","129","482168","0.0-25.0-1.29","A217","false","img/card_backs/set1/yellow.gif","img/card_backs/set1/green.gif","img/card_backs/set1/red.gif","img/card_backs/set1/purple.gif","img/card_backs/set2/orange.gif","img/card_backs/set2/blue.gif","img/card_backs/set2/gray.gif","img/card_backs/set2/pink.gif","""event"",""trial"",""time""
""fullscreenenter"",""1"",""3539""
","
","
","""event"",""trial"",""time""
""fullscreenenter"",""1"",""3539""
","
","","1201.7999999523163","","","","real_trial","2021-08-03 03:14:13.898","img/card_backs/set1/red.gif","2","110","1","",""
"casino-fixation","130","482674","0.0-25.0-0.30","A217","false","img/card_backs/set1/yellow.gif","img/card_backs/set1/green.gif","img/card_backs/set1/red.gif","img/card_backs/set1/purple.gif","img/card_backs/set2/orange.gif","img/card_backs/set2/blue.gif","img/card_backs/set2/gray.gif","img/card_backs/set2/pink.gif","""event"",""trial"",""time""
""fullscreenenter"",""1"",""3539""
","
","
","""event"",""trial"",""time""
""fullscreenenter"",""1"",""3539""
","
","","null","","null","","fixation","2021-08-03 03:14:14.403","","","","","",""
"card-selection-trial","131","485604","0.0-25.0-1.30","A217","false","img/card_backs/set1/yellow.gif","img/card_backs/set1/green.gif","img/card_backs/set1/red.gif","img/card_backs/set1/purple.gif","img/card_backs/set2/orange.gif","img/card_backs/set2/blue.gif","img/card_backs/set2/gray.gif","img/card_backs/set2/pink.gif","""event"",""trial"",""time""
""fullscreenenter"",""1"",""3539""
","
","
","""event"",""trial"",""time""
""fullscreenenter"",""1"",""3539""
","
","","916.9000000953674","","","","real_trial","2021-08-03 03:14:17.333","img/card_backs/set1/red.gif","0","-50","1","",""
"casino-fixation","132","486108","0.0-25.0-0.31","A217","false","img/card_backs/set1/yellow.gif","img/card_backs/set1/green.gif","img/card_backs/set1/red.gif","img/card_backs/set1/purple.gif","img/card_backs/set2/orange.gif","img/card_backs/set2/blue.gif","img/card_backs/set2/gray.gif","img/card_backs/set2/pink.gif","""event"",""trial"",""time""
""fullscreenenter"",""1"",""3539""
","
","
","""event"",""trial"",""time""
""fullscreenenter"",""1"",""3539""
","
","","null","","null","","fixation","2021-08-03 03:14:17.837","","","","","",""
"card-selection-trial","133","489153","0.0-25.0-1.31","A217","false","img/card_backs/set1/yellow.gif","img/card_backs/set1/green.gif","img/card_backs/set1/red.gif","img/card_backs/set1/purple.gif","img/card_backs/set2/orange.gif","img/card_backs/set2/blue.gif","img/card_backs/set2/gray.gif","img/card_backs/set2/pink.gif","""event"",""trial"",""time""
""fullscreenenter"",""1"",""3539""
","
","
","""event"",""trial"",""time""
""fullscreenenter"",""1"",""3539""
","
","","1032.5","","","","real_trial","2021-08-03 03:14:20.882","img/card_backs/set1/yellow.gif","2","200","1","",""
"casino-fixation","134","489656","0.0-25.0-0.32","A217","false","img/card_backs/set1/yellow.gif","img/card_backs/set1/green.gif","img/card_backs/set1/red.gif","img/card_backs/set1/purple.gif","img/card_backs/set2/orange.gif","img/card_backs/set2/blue.gif","img/card_backs/set2/gray.gif","img/card_backs/set2/pink.gif","""event"",""trial"",""time""
""fullscreenenter"",""1"",""3539""
","
","
","""event"",""trial"",""time""
""fullscreenenter"",""1"",""3539""
","
","","null","","null","","fixation","2021-08-03 03:14:21.385","","","","","",""
"card-selection-trial","135","492846","0.0-25.0-1.32","A217","false","img/card_backs/set1/yellow.gif","img/card_backs/set1/green.gif","img/card_backs/set1/red.gif","img/card_backs/set1/purple.gif","img/card_backs/set2/orange.gif","img/card_backs/set2/blue.gif","img/card_backs/set2/gray.gif","img/card_backs/set2/pink.gif","""event"",""trial"",""time""
""fullscreenenter"",""1"",""3539""
","
","
","""event"",""trial"",""time""
""fullscreenenter"",""1"",""3539""
","
","","1175.1999999284744","","","","real_trial","2021-08-03 03:14:24.575","img/card_backs/set1/yellow.gif","3","-250","1","",""
"casino-fixation","136","493351","0.0-25.0-0.33","A217","false","img/card_backs/set1/yellow.gif","img/card_backs/set1/green.gif","img/card_backs/set1/red.gif","img/card_backs/set1/purple.gif","img/card_backs/set2/orange.gif","img/card_backs/set2/blue.gif","img/card_backs/set2/gray.gif","img/card_backs/set2/pink.gif","""event"",""trial"",""time""
""fullscreenenter"",""1"",""3539""
","
","
","""event"",""trial"",""time""
""fullscreenenter"",""1"",""3539""
","
","","null","","null","","fixation","2021-08-03 03:14:25.080","","","","","",""
"card-selection-trial","137","496447","0.0-25.0-1.33","A217","false","img/card_backs/set1/yellow.gif","img/card_backs/set1/green.gif","img/card_backs/set1/red.gif","img/card_backs/set1/purple.gif","img/card_backs/set2/orange.gif","img/card_backs/set2/blue.gif","img/card_backs/set2/gray.gif","img/card_backs/set2/pink.gif","""event"",""trial"",""time""
""fullscreenenter"",""1"",""3539""
","
","
","""event"",""trial"",""time""
""fullscreenenter"",""1"",""3539""
","
","","1078.3000000715256","","","","real_trial","2021-08-03 03:14:28.176","img/card_backs/set1/purple.gif","1","100","1","",""
"casino-fixation","138","496953","0.0-25.0-0.34","A217","false","img/card_backs/set1/yellow.gif","img/card_backs/set1/green.gif","img/card_backs/set1/red.gif","img/card_backs/set1/purple.gif","img/card_backs/set2/orange.gif","img/card_backs/set2/blue.gif","img/card_backs/set2/gray.gif","img/card_backs/set2/pink.gif","""event"",""trial"",""time""
""fullscreenenter"",""1"",""3539""
","
","
","""event"",""trial"",""time""
""fullscreenenter"",""1"",""3539""
","
","","null","","null","","fixation","2021-08-03 03:14:28.682","","","","","",""
"card-selection-trial","139","500676","0.0-25.0-1.34","A217","false","img/card_backs/set1/yellow.gif","img/card_backs/set1/green.gif","img/card_backs/set1/red.gif","img/card_backs/set1/purple.gif","img/card_backs/set2/orange.gif","img/card_backs/set2/blue.gif","img/card_backs/set2/gray.gif","img/card_backs/set2/pink.gif","""event"",""trial"",""time""
""fullscreenenter"",""1"",""3539""
","
","
","""event"",""trial"",""time""
""fullscreenenter"",""1"",""3539""
","
","","1704.8999999761581","","","","real_trial","2021-08-03 03:14:32.405","img/card_backs/set1/purple.gif","3","-70","1","",""
"casino-fixation","140","501181","0.0-25.0-0.35","A217","false","img/card_backs/set1/yellow.gif","img/card_backs/set1/green.gif","img/card_backs/set1/red.gif","img/card_backs/set1/purple.gif","img/card_backs/set2/orange.gif","img/card_backs/set2/blue.gif","img/card_backs/set2/gray.gif","img/card_backs/set2/pink.gif","""event"",""trial"",""time""
""fullscreenenter"",""1"",""3539""
","
","
","""event"",""trial"",""time""
""fullscreenenter"",""1"",""3539""
","
","","null","","null","","fixation","2021-08-03 03:14:32.911","","","","","",""
"card-selection-trial","141","505143","0.0-25.0-1.35","A217","false","img/card_backs/set1/yellow.gif","img/card_backs/set1/green.gif","img/card_backs/set1/red.gif","img/card_backs/set1/purple.gif","img/card_backs/set2/orange.gif","img/card_backs/set2/blue.gif","img/card_backs/set2/gray.gif","img/card_backs/set2/pink.gif","""event"",""trial"",""time""
""fullscreenenter"",""1"",""3539""
","
","
","""event"",""trial"",""time""
""fullscreenenter"",""1"",""3539""
","
","","1941.6000000238419","","","","real_trial","2021-08-03 03:14:36.872","img/card_backs/set1/red.gif","2","-70","1","",""
"casino-fixation","142","505648","0.0-25.0-0.36","A217","false","img/card_backs/set1/yellow.gif","img/card_backs/set1/green.gif","img/card_backs/set1/red.gif","img/card_backs/set1/purple.gif","img/card_backs/set2/orange.gif","img/card_backs/set2/blue.gif","img/card_backs/set2/gray.gif","img/card_backs/set2/pink.gif","""event"",""trial"",""time""
""fullscreenenter"",""1"",""3539""
","
","
","""event"",""trial"",""time""
""fullscreenenter"",""1"",""3539""
","
","","null","","null","","fixation","2021-08-03 03:14:37.377","","","","","",""
"card-selection-trial","143","508404","0.0-25.0-1.36","A217","false","img/card_backs/set1/yellow.gif","img/card_backs/set1/green.gif","img/card_backs/set1/red.gif","img/card_backs/set1/purple.gif","img/card_backs/set2/orange.gif","img/card_backs/set2/blue.gif","img/card_backs/set2/gray.gif","img/card_backs/set2/pink.gif","""event"",""trial"",""time""
""fullscreenenter"",""1"",""3539""
","
","
","""event"",""trial"",""time""
""fullscreenenter"",""1"",""3539""
","
","","736.2999999523163","","","","real_trial","2021-08-03 03:14:40.133","img/card_backs/set1/yellow.gif","0","-250","1","",""
"casino-fixation","144","508909","0.0-25.0-0.37","A217","false","img/card_backs/set1/yellow.gif","img/card_backs/set1/green.gif","img/card_backs/set1/red.gif","img/card_backs/set1/purple.gif","img/card_backs/set2/orange.gif","img/card_backs/set2/blue.gif","img/card_backs/set2/gray.gif","img/card_backs/set2/pink.gif","""event"",""trial"",""time""
""fullscreenenter"",""1"",""3539""
","
","
","""event"",""trial"",""time""
""fullscreenenter"",""1"",""3539""
","
","","null","","null","","fixation","2021-08-03 03:14:40.638","","","","","",""
"card-selection-trial","145","511990","0.0-25.0-1.37","A217","false","img/card_backs/set1/yellow.gif","img/card_backs/set1/green.gif","img/card_backs/set1/red.gif","img/card_backs/set1/purple.gif","img/card_backs/set2/orange.gif","img/card_backs/set2/blue.gif","img/card_backs/set2/gray.gif","img/card_backs/set2/pink.gif","""event"",""trial"",""time""
""fullscreenenter"",""1"",""3539""
","
","
","""event"",""trial"",""time""
""fullscreenenter"",""1"",""3539""
","
","","1070.3000000715256","","","","real_trial","2021-08-03 03:14:43.719","img/card_backs/set1/purple.gif","1","-70","1","",""
"casino-fixation","146","512495","0.0-25.0-0.38","A217","false","img/card_backs/set1/yellow.gif","img/card_backs/set1/green.gif","img/card_backs/set1/red.gif","img/card_backs/set1/purple.gif","img/card_backs/set2/orange.gif","img/card_backs/set2/blue.gif","img/card_backs/set2/gray.gif","img/card_backs/set2/pink.gif","""event"",""trial"",""time""
""fullscreenenter"",""1"",""3539""
","
","
","""event"",""trial"",""time""
""fullscreenenter"",""1"",""3539""
","
","","null","","null","","fixation","2021-08-03 03:14:44.224","","","","","",""
"card-selection-trial","147","515734","0.0-25.0-1.38","A217","false","img/card_backs/set1/yellow.gif","img/card_backs/set1/green.gif","img/card_backs/set1/red.gif","img/card_backs/set1/purple.gif","img/card_backs/set2/orange.gif","img/card_backs/set2/blue.gif","img/card_backs/set2/gray.gif","img/card_backs/set2/pink.gif","""event"",""trial"",""time""
""fullscreenenter"",""1"",""3539""
","
","
","""event"",""trial"",""time""
""fullscreenenter"",""1"",""3539""
","
","","1220.7000000476837","","","","real_trial","2021-08-03 03:14:47.463","img/card_backs/set1/yellow.gif","1","200","1","",""
"casino-fixation","148","516238","0.0-25.0-0.39","A217","false","img/card_backs/set1/yellow.gif","img/card_backs/set1/green.gif","img/card_backs/set1/red.gif","img/card_backs/set1/purple.gif","img/card_backs/set2/orange.gif","img/card_backs/set2/blue.gif","img/card_backs/set2/gray.gif","img/card_backs/set2/pink.gif","""event"",""trial"",""time""
""fullscreenenter"",""1"",""3539""
","
","
","""event"",""trial"",""time""
""fullscreenenter"",""1"",""3539""
","
","","null","","null","","fixation","2021-08-03 03:14:47.967","","","","","",""
"card-selection-trial","149","519313","0.0-25.0-1.39","A217","false","img/card_backs/set1/yellow.gif","img/card_backs/set1/green.gif","img/card_backs/set1/red.gif","img/card_backs/set1/purple.gif","img/card_backs/set2/orange.gif","img/card_backs/set2/blue.gif","img/card_backs/set2/gray.gif","img/card_backs/set2/pink.gif","""event"",""trial"",""time""
""fullscreenenter"",""1"",""3539""
","
","
","""event"",""trial"",""time""
""fullscreenenter"",""1"",""3539""
","
","","1060.3000000715256","","","","real_trial","2021-08-03 03:14:51.042","img/card_backs/set1/green.gif","1","-230","1","",""
"casino-fixation","150","519817","0.0-25.0-0.40","A217","false","img/card_backs/set1/yellow.gif","img/card_backs/set1/green.gif","img/card_backs/set1/red.gif","img/card_backs/set1/purple.gif","img/card_backs/set2/orange.gif","img/card_backs/set2/blue.gif","img/card_backs/set2/gray.gif","img/card_backs/set2/pink.gif","""event"",""trial"",""time""
""fullscreenenter"",""1"",""3539""
","
","
","""event"",""trial"",""time""
""fullscreenenter"",""1"",""3539""
","
","","null","","null","","fixation","2021-08-03 03:14:51.546","","","","","",""
"card-selection-trial","151","524306","0.0-25.0-1.40","A217","false","img/card_backs/set1/yellow.gif","img/card_backs/set1/green.gif","img/card_backs/set1/red.gif","img/card_backs/set1/purple.gif","img/card_backs/set2/orange.gif","img/card_backs/set2/blue.gif","img/card_backs/set2/gray.gif","img/card_backs/set2/pink.gif","""event"",""trial"",""time""
""fullscreenenter"",""1"",""3539""
","
","
","""event"",""trial"",""time""
""fullscreenenter"",""1"",""3539""
","
","","2471.1999999284744","","","","real_trial","2021-08-03 03:14:56.035","img/card_backs/set1/yellow.gif","3","200","1","",""
"casino-fixation","152","524811","0.0-25.0-0.41","A217","false","img/card_backs/set1/yellow.gif","img/card_backs/set1/green.gif","img/card_backs/set1/red.gif","img/card_backs/set1/purple.gif","img/card_backs/set2/orange.gif","img/card_backs/set2/blue.gif","img/card_backs/set2/gray.gif","img/card_backs/set2/pink.gif","""event"",""trial"",""time""
""fullscreenenter"",""1"",""3539""
","
","
","""event"",""trial"",""time""
""fullscreenenter"",""1"",""3539""
","
","","null","","null","","fixation","2021-08-03 03:14:56.540","","","","","",""
"card-selection-trial","153","528441","0.0-25.0-1.41","A217","false","img/card_backs/set1/yellow.gif","img/card_backs/set1/green.gif","img/card_backs/set1/red.gif","img/card_backs/set1/purple.gif","img/card_backs/set2/orange.gif","img/card_backs/set2/blue.gif","img/card_backs/set2/gray.gif","img/card_backs/set2/pink.gif","""event"",""trial"",""time""
""fullscreenenter"",""1"",""3539""
","
","
","""event"",""trial"",""time""
""fullscreenenter"",""1"",""3539""
","
","","1618.1000000238419","","","","real_trial","2021-08-03 03:15:00.170","img/card_backs/set1/purple.gif","1","110","1","",""
"casino-fixation","154","528945","0.0-25.0-0.42","A217","false","img/card_backs/set1/yellow.gif","img/card_backs/set1/green.gif","img/card_backs/set1/red.gif","img/card_backs/set1/purple.gif","img/card_backs/set2/orange.gif","img/card_backs/set2/blue.gif","img/card_backs/set2/gray.gif","img/card_backs/set2/pink.gif","""event"",""trial"",""time""
""fullscreenenter"",""1"",""3539""
","
","
","""event"",""trial"",""time""
""fullscreenenter"",""1"",""3539""
","
","","null","","null","","fixation","2021-08-03 03:15:00.675","","","","","",""
"card-selection-trial","155","532238","0.0-25.0-1.42","A217","false","img/card_backs/set1/yellow.gif","img/card_backs/set1/green.gif","img/card_backs/set1/red.gif","img/card_backs/set1/purple.gif","img/card_backs/set2/orange.gif","img/card_backs/set2/blue.gif","img/card_backs/set2/gray.gif","img/card_backs/set2/pink.gif","""event"",""trial"",""time""
""fullscreenenter"",""1"",""3539""
","
","
","""event"",""trial"",""time""
""fullscreenenter"",""1"",""3539""
","
","","1281.5","","","","real_trial","2021-08-03 03:15:03.967","img/card_backs/set1/red.gif","0","100","1","",""
"casino-fixation","156","532743","0.0-25.0-0.43","A217","false","img/card_backs/set1/yellow.gif","img/card_backs/set1/green.gif","img/card_backs/set1/red.gif","img/card_backs/set1/purple.gif","img/card_backs/set2/orange.gif","img/card_backs/set2/blue.gif","img/card_backs/set2/gray.gif","img/card_backs/set2/pink.gif","""event"",""trial"",""time""
""fullscreenenter"",""1"",""3539""
","
","
","""event"",""trial"",""time""
""fullscreenenter"",""1"",""3539""
","
","","null","","null","","fixation","2021-08-03 03:15:04.472","","","","","",""
"card-selection-trial","157","536030","0.0-25.0-1.43","A217","false","img/card_backs/set1/yellow.gif","img/card_backs/set1/green.gif","img/card_backs/set1/red.gif","img/card_backs/set1/purple.gif","img/card_backs/set2/orange.gif","img/card_backs/set2/blue.gif","img/card_backs/set2/gray.gif","img/card_backs/set2/pink.gif","""event"",""trial"",""time""
""fullscreenenter"",""1"",""3539""
","
","
","""event"",""trial"",""time""
""fullscreenenter"",""1"",""3539""
","
","","1268.6999999284744","","","","real_trial","2021-08-03 03:15:07.759","img/card_backs/set1/yellow.gif","0","200","1","",""
"casino-fixation","158","536535","0.0-25.0-0.44","A217","false","img/card_backs/set1/yellow.gif","img/card_backs/set1/green.gif","img/card_backs/set1/red.gif","img/card_backs/set1/purple.gif","img/card_backs/set2/orange.gif","img/card_backs/set2/blue.gif","img/card_backs/set2/gray.gif","img/card_backs/set2/pink.gif","""event"",""trial"",""time""
""fullscreenenter"",""1"",""3539""
","
","
","""event"",""trial"",""time""
""fullscreenenter"",""1"",""3539""
","
","","null","","null","","fixation","2021-08-03 03:15:08.264","","","","","",""
"card-selection-trial","159","539679","0.0-25.0-1.44","A217","false","img/card_backs/set1/yellow.gif","img/card_backs/set1/green.gif","img/card_backs/set1/red.gif","img/card_backs/set1/purple.gif","img/card_backs/set2/orange.gif","img/card_backs/set2/blue.gif","img/card_backs/set2/gray.gif","img/card_backs/set2/pink.gif","""event"",""trial"",""time""
""fullscreenenter"",""1"",""3539""
","
","
","""event"",""trial"",""time""
""fullscreenenter"",""1"",""3539""
","
","","1131.3999999761581","","","","real_trial","2021-08-03 03:15:11.409","img/card_backs/set1/red.gif","0","120","1","",""
"casino-fixation","160","540183","0.0-25.0-0.45","A217","false","img/card_backs/set1/yellow.gif","img/card_backs/set1/green.gif","img/card_backs/set1/red.gif","img/card_backs/set1/purple.gif","img/card_backs/set2/orange.gif","img/card_backs/set2/blue.gif","img/card_backs/set2/gray.gif","img/card_backs/set2/pink.gif","""event"",""trial"",""time""
""fullscreenenter"",""1"",""3539""
","
","
","""event"",""trial"",""time""
""fullscreenenter"",""1"",""3539""
","
","","null","","null","","fixation","2021-08-03 03:15:11.912","","","","","",""
"card-selection-trial","161","543472","0.0-25.0-1.45","A217","false","img/card_backs/set1/yellow.gif","img/card_backs/set1/green.gif","img/card_backs/set1/red.gif","img/card_backs/set1/purple.gif","img/card_backs/set2/orange.gif","img/card_backs/set2/blue.gif","img/card_backs/set2/gray.gif","img/card_backs/set2/pink.gif","""event"",""trial"",""time""
""fullscreenenter"",""1"",""3539""
","
","
","""event"",""trial"",""time""
""fullscreenenter"",""1"",""3539""
","
","","1261.6000000238419","","","","real_trial","2021-08-03 03:15:15.201","img/card_backs/set1/purple.gif","3","100","1","",""
"casino-fixation","162","543975","0.0-25.0-0.46","A217","false","img/card_backs/set1/yellow.gif","img/card_backs/set1/green.gif","img/card_backs/set1/red.gif","img/card_backs/set1/purple.gif","img/card_backs/set2/orange.gif","img/card_backs/set2/blue.gif","img/card_backs/set2/gray.gif","img/card_backs/set2/pink.gif","""event"",""trial"",""time""
""fullscreenenter"",""1"",""3539""
","
","
","""event"",""trial"",""time""
""fullscreenenter"",""1"",""3539""
","
","","null","","null","","fixation","2021-08-03 03:15:15.705","","","","","",""
"card-selection-trial","163","547046","0.0-25.0-1.46","A217","false","img/card_backs/set1/yellow.gif","img/card_backs/set1/green.gif","img/card_backs/set1/red.gif","img/card_backs/set1/purple.gif","img/card_backs/set2/orange.gif","img/card_backs/set2/blue.gif","img/card_backs/set2/gray.gif","img/card_backs/set2/pink.gif","""event"",""trial"",""time""
""fullscreenenter"",""1"",""3539""
","
","
","""event"",""trial"",""time""
""fullscreenenter"",""1"",""3539""
","
","","1054.1000000238419","","","","real_trial","2021-08-03 03:15:18.776","img/card_backs/set1/yellow.gif","2","-230","1","",""
"casino-fixation","164","547550","0.0-25.0-0.47","A217","false","img/card_backs/set1/yellow.gif","img/card_backs/set1/green.gif","img/card_backs/set1/red.gif","img/card_backs/set1/purple.gif","img/card_backs/set2/orange.gif","img/card_backs/set2/blue.gif","img/card_backs/set2/gray.gif","img/card_backs/set2/pink.gif","""event"",""trial"",""time""
""fullscreenenter"",""1"",""3539""
","
","
","""event"",""trial"",""time""
""fullscreenenter"",""1"",""3539""
","
","","null","","null","","fixation","2021-08-03 03:15:19.280","","","","","",""
"card-selection-trial","165","550733","0.0-25.0-1.47","A217","false","img/card_backs/set1/yellow.gif","img/card_backs/set1/green.gif","img/card_backs/set1/red.gif","img/card_backs/set1/purple.gif","img/card_backs/set2/orange.gif","img/card_backs/set2/blue.gif","img/card_backs/set2/gray.gif","img/card_backs/set2/pink.gif","""event"",""trial"",""time""
""fullscreenenter"",""1"",""3539""
","
","
","""event"",""trial"",""time""
""fullscreenenter"",""1"",""3539""
","
","","1171.1999999284744","","","","real_trial","2021-08-03 03:15:22.462","img/card_backs/set1/purple.gif","1","100","1","",""
"casino-fixation","166","551237","0.0-25.0-0.48","A217","false","img/card_backs/set1/yellow.gif","img/card_backs/set1/green.gif","img/card_backs/set1/red.gif","img/card_backs/set1/purple.gif","img/card_backs/set2/orange.gif","img/card_backs/set2/blue.gif","img/card_backs/set2/gray.gif","img/card_backs/set2/pink.gif","""event"",""trial"",""time""
""fullscreenenter"",""1"",""3539""
","
","
","""event"",""trial"",""time""
""fullscreenenter"",""1"",""3539""
","
","","null","","null","","fixation","2021-08-03 03:15:22.966","","","","","",""
