"trial_type","trial_index","time_elapsed","internal_node_id","sub_id","risk_good_first","block1_A","block1_B","block1_C","block1_D","block2_A","block2_B","block2_C","block2_D","interactions","blur_events","focus_events","fullscreenenter_events","fullscreenexit_events","success","rt","stimulus","key_press","button_pressed","task_part","timestamp","card_choice","choice_position","points_earned","block","correct","response"
"pavlovia","0","3","0.0-0.0","143","false","img/card_backs/set1/red.gif","img/card_backs/set1/yellow.gif","img/card_backs/set1/purple.gif","img/card_backs/set1/green.gif","img/card_backs/set2/gray.gif","img/card_backs/set2/pink.gif","img/card_backs/set2/blue.gif","img/card_backs/set2/orange.gif","""event"",""trial"",""time""
""fullscreenenter"",""1"",""2129""
","
","
","""event"",""trial"",""time""
""fullscreenenter"",""1"",""2129""
","
","","","","","","","","","","","","",""
"fullscreen","1","3128","0.0-1.0","143","false","img/card_backs/set1/red.gif","img/card_backs/set1/yellow.gif","img/card_backs/set1/purple.gif","img/card_backs/set1/green.gif","img/card_backs/set2/gray.gif","img/card_backs/set2/pink.gif","img/card_backs/set2/blue.gif","img/card_backs/set2/orange.gif","""event"",""trial"",""time""
""fullscreenenter"",""1"",""2129""
","
","
","""event"",""trial"",""time""
""fullscreenenter"",""1"",""2129""
","
","true","","","","","","","","","","","",""
"audio-keyboard-response","2","6299","0.0-2.0","143","false","img/card_backs/set1/red.gif","img/card_backs/set1/yellow.gif","img/card_backs/set1/purple.gif","img/card_backs/set1/green.gif","img/card_backs/set2/gray.gif","img/card_backs/set2/pink.gif","img/card_backs/set2/blue.gif","img/card_backs/set2/orange.gif","""event"",""trial"",""time""
""fullscreenenter"",""1"",""2129""
","
","
","""event"",""trial"",""time""
""fullscreenenter"",""1"",""2129""
","
","","3160","audio/beep_loop.wav","32","","","","","","","","",""
"audio-button-response","3","8592","0.0-3.0","143","false","img/card_backs/set1/red.gif","img/card_backs/set1/yellow.gif","img/card_backs/set1/purple.gif","img/card_backs/set1/green.gif","img/card_backs/set2/gray.gif","img/card_backs/set2/pink.gif","img/card_backs/set2/blue.gif","img/card_backs/set2/orange.gif","""event"",""trial"",""time""
""fullscreenenter"",""1"",""2129""
","
","
","""event"",""trial"",""time""
""fullscreenenter"",""1"",""2129""
","
","","NaN","audio/turtle.mp3","","3","","","","","","","",""
"audio-button-response","4","10402","0.0-4.0","143","false","img/card_backs/set1/red.gif","img/card_backs/set1/yellow.gif","img/card_backs/set1/purple.gif","img/card_backs/set1/green.gif","img/card_backs/set2/gray.gif","img/card_backs/set2/pink.gif","img/card_backs/set2/blue.gif","img/card_backs/set2/orange.gif","""event"",""trial"",""time""
""fullscreenenter"",""1"",""2129""
","
","
","""event"",""trial"",""time""
""fullscreenenter"",""1"",""2129""
","
","","NaN","audio/shark.mp3","","2","","","","","","","",""
"fullscreen","5","13921","0.0-5.0","143","false","img/card_backs/set1/red.gif","img/card_backs/set1/yellow.gif","img/card_backs/set1/purple.gif","img/card_backs/set1/green.gif","img/card_backs/set2/gray.gif","img/card_backs/set2/pink.gif","img/card_backs/set2/blue.gif","img/card_backs/set2/orange.gif","""event"",""trial"",""time""
""fullscreenenter"",""1"",""2129""
","
","
","""event"",""trial"",""time""
""fullscreenenter"",""1"",""2129""
","
","true","","","","","","","","","","","",""
"casino-keyboard-response","6","16939","0.0-6.0-0.0","143","false","img/card_backs/set1/red.gif","img/card_backs/set1/yellow.gif","img/card_backs/set1/purple.gif","img/card_backs/set1/green.gif","img/card_backs/set2/gray.gif","img/card_backs/set2/pink.gif","img/card_backs/set2/blue.gif","img/card_backs/set2/orange.gif","""event"",""trial"",""time""
""fullscreenenter"",""1"",""2129""
","
","
","""event"",""trial"",""time""
""fullscreenenter"",""1"",""2129""
","
","","3016.100000023842","Welcome to the casino!","71","","instructions","2021-08-28 16:22:24.245","","","","","",""
"casino-keyboard-response","7","26315","0.0-6.0-0.1","143","false","img/card_backs/set1/red.gif","img/card_backs/set1/yellow.gif","img/card_backs/set1/purple.gif","img/card_backs/set1/green.gif","img/card_backs/set2/gray.gif","img/card_backs/set2/pink.gif","img/card_backs/set2/blue.gif","img/card_backs/set2/orange.gif","""event"",""trial"",""time""
""fullscreenenter"",""1"",""2129""
","
","
","""event"",""trial"",""time""
""fullscreenenter"",""1"",""2129""
","
","","9374.800000071526","Today you will be playing a game to earn tokens. </br> At the end of the experiment, you will be paid a bonus based on how many tokens you win. ","69","","instructions","2021-08-28 16:22:33.621","","","","","",""
"casino-keyboard-response","8","33404","0.0-6.0-0.2","143","false","img/card_backs/set1/red.gif","img/card_backs/set1/yellow.gif","img/card_backs/set1/purple.gif","img/card_backs/set1/green.gif","img/card_backs/set2/gray.gif","img/card_backs/set2/pink.gif","img/card_backs/set2/blue.gif","img/card_backs/set2/orange.gif","""event"",""trial"",""time""
""fullscreenenter"",""1"",""2129""
","
","
","""event"",""trial"",""time""
""fullscreenenter"",""1"",""2129""
","
","","7088.199999928474","On every turn, you will be shown four different decks of cards. </br> You need to select a card from one of the four decks.  ","75","","instructions","2021-08-28 16:22:40.710","","","","","",""
"casino-keyboard-response","9","37777","0.0-6.0-0.3","143","false","img/card_backs/set1/red.gif","img/card_backs/set1/yellow.gif","img/card_backs/set1/purple.gif","img/card_backs/set1/green.gif","img/card_backs/set2/gray.gif","img/card_backs/set2/pink.gif","img/card_backs/set2/blue.gif","img/card_backs/set2/orange.gif","""event"",""trial"",""time""
""fullscreenenter"",""1"",""2129""
","
","
","""event"",""trial"",""time""
""fullscreenenter"",""1"",""2129""
","
","","4372","On the next screen, you will see what the decks will look like. ","66","","instructions","2021-08-28 16:22:45.083","","","","","",""
"card-selection-trial","10","41779","0.0-7.0-0.0","143","false","img/card_backs/set1/red.gif","img/card_backs/set1/yellow.gif","img/card_backs/set1/purple.gif","img/card_backs/set1/green.gif","img/card_backs/set2/gray.gif","img/card_backs/set2/pink.gif","img/card_backs/set2/blue.gif","img/card_backs/set2/orange.gif","""event"",""trial"",""time""
""fullscreenenter"",""1"",""2129""
","
","
","""event"",""trial"",""time""
""fullscreenenter"",""1"",""2129""
","
","","null","","","","practice","2021-08-28 16:22:49.085","null","null","null","0","",""
"casino-keyboard-response","11","49403","0.0-8.0-0.0","143","false","img/card_backs/set1/red.gif","img/card_backs/set1/yellow.gif","img/card_backs/set1/purple.gif","img/card_backs/set1/green.gif","img/card_backs/set2/gray.gif","img/card_backs/set2/pink.gif","img/card_backs/set2/blue.gif","img/card_backs/set2/orange.gif","""event"",""trial"",""time""
""fullscreenenter"",""1"",""2129""
","
","
","""event"",""trial"",""time""
""fullscreenenter"",""1"",""2129""
","
","","7622.899999976158","You should pick a card from a deck using the '2', '4', '6', and '8' keys at the top of the keyboard.","85","","instructions","2021-08-28 16:22:56.709","","","","","",""
"casino-keyboard-response","12","55034","0.0-8.0-0.1","143","false","img/card_backs/set1/red.gif","img/card_backs/set1/yellow.gif","img/card_backs/set1/purple.gif","img/card_backs/set1/green.gif","img/card_backs/set2/gray.gif","img/card_backs/set2/pink.gif","img/card_backs/set2/blue.gif","img/card_backs/set2/orange.gif","""event"",""trial"",""time""
""fullscreenenter"",""1"",""2129""
","
","
","""event"",""trial"",""time""
""fullscreenenter"",""1"",""2129""
","
","","5630","Once you select a card, it will turn over and you will see how many tokens you earned.","83","","instructions","2021-08-28 16:23:02.340","","","","","",""
"casino-keyboard-response","13","69367","0.0-8.0-0.2","143","false","img/card_backs/set1/red.gif","img/card_backs/set1/yellow.gif","img/card_backs/set1/purple.gif","img/card_backs/set1/green.gif","img/card_backs/set2/gray.gif","img/card_backs/set2/pink.gif","img/card_backs/set2/blue.gif","img/card_backs/set2/orange.gif","""event"",""trial"",""time""
""fullscreenenter"",""1"",""2129""
","
","
","""event"",""trial"",""time""
""fullscreenenter"",""1"",""2129""
","
","","14332.399999976158","Let's try practicing that! </br> First, try to put your fingers over the '2', '4', '6', and '8' keys. </br>  You can use whatever fingers are most comfortable for you. Try to find a comfortable position now. ","50","","instructions","2021-08-28 16:23:16.673","","","","","",""
"casino-keyboard-response","14","75767","0.0-8.0-0.3","143","false","img/card_backs/set1/red.gif","img/card_backs/set1/yellow.gif","img/card_backs/set1/purple.gif","img/card_backs/set1/green.gif","img/card_backs/set2/gray.gif","img/card_backs/set2/pink.gif","img/card_backs/set2/blue.gif","img/card_backs/set2/orange.gif","""event"",""trial"",""time""
""fullscreenenter"",""1"",""2129""
","
","
","""event"",""trial"",""time""
""fullscreenenter"",""1"",""2129""
","
","","6399.300000071526","Okay ready? </br> On the next screen, press '2' to select the left deck. ","50","","instructions","2021-08-28 16:23:23.073","","","","","",""
"card-selection-trial","15","78563","0.0-9.0-0.0","143","false","img/card_backs/set1/red.gif","img/card_backs/set1/yellow.gif","img/card_backs/set1/purple.gif","img/card_backs/set1/green.gif","img/card_backs/set2/gray.gif","img/card_backs/set2/pink.gif","img/card_backs/set2/blue.gif","img/card_backs/set2/orange.gif","""event"",""trial"",""time""
""fullscreenenter"",""1"",""2129""
","
","
","""event"",""trial"",""time""
""fullscreenenter"",""1"",""2129""
","
","","777.7999999523163","","","","practice_card_selection","2021-08-28 16:23:25.870","img/practice_cards/backs/dark_green.gif","0","-200","","",""
"casino-keyboard-response","16","84163","0.0-10.0-0.0","143","false","img/card_backs/set1/red.gif","img/card_backs/set1/yellow.gif","img/card_backs/set1/purple.gif","img/card_backs/set1/green.gif","img/card_backs/set2/gray.gif","img/card_backs/set2/pink.gif","img/card_backs/set2/blue.gif","img/card_backs/set2/orange.gif","""event"",""trial"",""time""
""fullscreenenter"",""1"",""2129""
","
","
","""event"",""trial"",""time""
""fullscreenenter"",""1"",""2129""
","
","","5599.399999976158","Great! Now on the next screen, try pressing '6' to select the third deck.","54","","instructions","2021-08-28 16:23:31.469","","","","","",""
"card-selection-trial","17","86578","0.0-11.0-0.0","143","false","img/card_backs/set1/red.gif","img/card_backs/set1/yellow.gif","img/card_backs/set1/purple.gif","img/card_backs/set1/green.gif","img/card_backs/set2/gray.gif","img/card_backs/set2/pink.gif","img/card_backs/set2/blue.gif","img/card_backs/set2/orange.gif","""event"",""trial"",""time""
""fullscreenenter"",""1"",""2129""
","
","
","""event"",""trial"",""time""
""fullscreenenter"",""1"",""2129""
","
","","396.7000000476837","","","","practice_card_selection","2021-08-28 16:23:33.884","img/practice_cards/backs/dark_blue.gif","2","200","","",""
"casino-keyboard-response","18","91197","0.0-12.0-0.0","143","false","img/card_backs/set1/red.gif","img/card_backs/set1/yellow.gif","img/card_backs/set1/purple.gif","img/card_backs/set1/green.gif","img/card_backs/set2/gray.gif","img/card_backs/set2/pink.gif","img/card_backs/set2/blue.gif","img/card_backs/set2/orange.gif","""event"",""trial"",""time""
""fullscreenenter"",""1"",""2129""
","
","
","""event"",""trial"",""time""
""fullscreenenter"",""1"",""2129""
","
","","4617.899999976158","Now on the next screen, try pressing '4' to select the second deck.","52","","instructions","2021-08-28 16:23:38.503","","","","","",""
"card-selection-trial","19","93545","0.0-13.0-0.0","143","false","img/card_backs/set1/red.gif","img/card_backs/set1/yellow.gif","img/card_backs/set1/purple.gif","img/card_backs/set1/green.gif","img/card_backs/set2/gray.gif","img/card_backs/set2/pink.gif","img/card_backs/set2/blue.gif","img/card_backs/set2/orange.gif","""event"",""trial"",""time""
""fullscreenenter"",""1"",""2129""
","
","
","""event"",""trial"",""time""
""fullscreenenter"",""1"",""2129""
","
","","344.5","","","","practice_card_selection","2021-08-28 16:23:40.851","img/practice_cards/backs/brown.gif","1","100","","",""
"casino-keyboard-response","20","97898","0.0-14.0-0.0","143","false","img/card_backs/set1/red.gif","img/card_backs/set1/yellow.gif","img/card_backs/set1/purple.gif","img/card_backs/set1/green.gif","img/card_backs/set2/gray.gif","img/card_backs/set2/pink.gif","img/card_backs/set2/blue.gif","img/card_backs/set2/orange.gif","""event"",""trial"",""time""
""fullscreenenter"",""1"",""2129""
","
","
","""event"",""trial"",""time""
""fullscreenenter"",""1"",""2129""
","
","","4353","Finally, try pressing '8' to select the deck all the way on the right.","56","","instructions","2021-08-28 16:23:45.204","","","","","",""
"card-selection-trial","21","100406","0.0-15.0-0.0","143","false","img/card_backs/set1/red.gif","img/card_backs/set1/yellow.gif","img/card_backs/set1/purple.gif","img/card_backs/set1/green.gif","img/card_backs/set2/gray.gif","img/card_backs/set2/pink.gif","img/card_backs/set2/blue.gif","img/card_backs/set2/orange.gif","""event"",""trial"",""time""
""fullscreenenter"",""1"",""2129""
","
","
","""event"",""trial"",""time""
""fullscreenenter"",""1"",""2129""
","
","","504.5","","","","practice_card_selection","2021-08-28 16:23:47.712","img/practice_cards/backs/dark_blue.gif","3","-200","","",""
"casino-keyboard-response","22","105375","0.0-16.0-0.0","143","false","img/card_backs/set1/red.gif","img/card_backs/set1/yellow.gif","img/card_backs/set1/purple.gif","img/card_backs/set1/green.gif","img/card_backs/set2/gray.gif","img/card_backs/set2/pink.gif","img/card_backs/set2/blue.gif","img/card_backs/set2/orange.gif","""event"",""trial"",""time""
""fullscreenenter"",""1"",""2129""
","
","
","""event"",""trial"",""time""
""fullscreenenter"",""1"",""2129""
","
","","4967.600000023842","Great! It seems like you are getting the hang of this.","80","","instructions","2021-08-28 16:23:52.681","","","","","",""
"casino-keyboard-response","23","113063","0.0-16.0-0.1","143","false","img/card_backs/set1/red.gif","img/card_backs/set1/yellow.gif","img/card_backs/set1/purple.gif","img/card_backs/set1/green.gif","img/card_backs/set2/gray.gif","img/card_backs/set2/pink.gif","img/card_backs/set2/blue.gif","img/card_backs/set2/orange.gif","""event"",""trial"",""time""
""fullscreenenter"",""1"",""2129""
","
","
","""event"",""trial"",""time""
""fullscreenenter"",""1"",""2129""
","
","","7688","You may have noticed that some cards will cause you to <b> win </b> tokens while other cards will cause you to <b> lose </b>  tokens.","70","","instructions","2021-08-28 16:24:00.369","","","","","",""
"casino-keyboard-response","24","121560","0.0-16.0-0.2","143","false","img/card_backs/set1/red.gif","img/card_backs/set1/yellow.gif","img/card_backs/set1/purple.gif","img/card_backs/set1/green.gif","img/card_backs/set2/gray.gif","img/card_backs/set2/pink.gif","img/card_backs/set2/blue.gif","img/card_backs/set2/orange.gif","""event"",""trial"",""time""
""fullscreenenter"",""1"",""2129""
","
","
","""event"",""trial"",""time""
""fullscreenenter"",""1"",""2129""
","
","","8496.099999904633","Each deck has a mix of cards that will cause you to win and lose tokens. </br> However, the cards in each colored deck are different.","73","","instructions","2021-08-28 16:24:08.866","","","","","",""
"casino-keyboard-response","25","130010","0.0-16.0-0.3","143","false","img/card_backs/set1/red.gif","img/card_backs/set1/yellow.gif","img/card_backs/set1/purple.gif","img/card_backs/set1/green.gif","img/card_backs/set2/gray.gif","img/card_backs/set2/pink.gif","img/card_backs/set2/blue.gif","img/card_backs/set2/orange.gif","""event"",""trial"",""time""
""fullscreenenter"",""1"",""2129""
","
","
","""event"",""trial"",""time""
""fullscreenenter"",""1"",""2129""
","
","","8449.399999976158","Some colored decks are luckier than others. </br> If you choose the lucky decks, you will earn more tokens than if you choose the unlucky decks.","69","","instructions","2021-08-28 16:24:17.316","","","","","",""
"casino-keyboard-response","26","136925","0.0-16.0-0.4","143","false","img/card_backs/set1/red.gif","img/card_backs/set1/yellow.gif","img/card_backs/set1/purple.gif","img/card_backs/set1/green.gif","img/card_backs/set2/gray.gif","img/card_backs/set2/pink.gif","img/card_backs/set2/blue.gif","img/card_backs/set2/orange.gif","""event"",""trial"",""time""
""fullscreenenter"",""1"",""2129""
","
","
","""event"",""trial"",""time""
""fullscreenenter"",""1"",""2129""
","
","","6914.100000023842","You should try to figure out which decks are lucky. </br> Then, try to choose the lucky decks so you can win the most tokens.","87","","instructions","2021-08-28 16:24:24.231","","","","","",""
"casino-keyboard-response","27","149220","0.0-16.0-0.5","143","false","img/card_backs/set1/red.gif","img/card_backs/set1/yellow.gif","img/card_backs/set1/purple.gif","img/card_backs/set1/green.gif","img/card_backs/set2/gray.gif","img/card_backs/set2/pink.gif","img/card_backs/set2/blue.gif","img/card_backs/set2/orange.gif","""event"",""trial"",""time""
""fullscreenenter"",""1"",""2129""
","
","
","""event"",""trial"",""time""
""fullscreenenter"",""1"",""2129""
","
","","12294.100000023842","To make it trickier, the casino dealer will switch the locations of the decks on every turn. </br> The color of the deck determines how lucky it is. The location does not matter.","88","","instructions","2021-08-28 16:24:36.526","","","","","",""
"casino-keyboard-response","28","159228","0.0-16.0-0.6","143","false","img/card_backs/set1/red.gif","img/card_backs/set1/yellow.gif","img/card_backs/set1/purple.gif","img/card_backs/set1/green.gif","img/card_backs/set2/gray.gif","img/card_backs/set2/pink.gif","img/card_backs/set2/blue.gif","img/card_backs/set2/orange.gif","""event"",""trial"",""time""
""fullscreenenter"",""1"",""2129""
","
","
","""event"",""trial"",""time""
""fullscreenenter"",""1"",""2129""
","
","","10007.200000047684","The mix of cards in each colored deck will stay the same throughout the game. </br> That means that a deck that is lucky early on will stay lucky.","79","","instructions","2021-08-28 16:24:46.534","","","","","",""
"casino-keyboard-response","29","168363","0.0-16.0-0.7","143","false","img/card_backs/set1/red.gif","img/card_backs/set1/yellow.gif","img/card_backs/set1/purple.gif","img/card_backs/set1/green.gif","img/card_backs/set2/gray.gif","img/card_backs/set2/pink.gif","img/card_backs/set2/blue.gif","img/card_backs/set2/orange.gif","""event"",""trial"",""time""
""fullscreenenter"",""1"",""2129""
","
","
","""event"",""trial"",""time""
""fullscreenenter"",""1"",""2129""
","
","","9134","Remember though, all the decks have a <b> mix </b> of both <b> good </b> and <b> bad </b> cards so it may take a couple of turns to figure out if a deck is lucky.","69","","instructions","2021-08-28 16:24:55.669","","","","","",""
"casino-keyboard-response","30","176728","0.0-16.0-0.8","143","false","img/card_backs/set1/red.gif","img/card_backs/set1/yellow.gif","img/card_backs/set1/purple.gif","img/card_backs/set1/green.gif","img/card_backs/set2/gray.gif","img/card_backs/set2/pink.gif","img/card_backs/set2/blue.gif","img/card_backs/set2/orange.gif","""event"",""trial"",""time""
""fullscreenenter"",""1"",""2129""
","
","
","""event"",""trial"",""time""
""fullscreenenter"",""1"",""2129""
","
","","8364.300000071526","At the end of the game, you will be paid bonus money based on how many tokens you win. </br> If you win more tokens, you will earn more money!","72","","instructions","2021-08-28 16:25:04.034","","","","","",""
"casino-keyboard-response","31","187619","0.0-16.0-0.9","143","false","img/card_backs/set1/red.gif","img/card_backs/set1/yellow.gif","img/card_backs/set1/purple.gif","img/card_backs/set1/green.gif","img/card_backs/set2/gray.gif","img/card_backs/set2/pink.gif","img/card_backs/set2/blue.gif","img/card_backs/set2/orange.gif","""event"",""trial"",""time""
""fullscreenenter"",""1"",""2129""
","
","
","""event"",""trial"",""time""
""fullscreenenter"",""1"",""2129""
","
","","10890.299999952316","You will never <b> lose </b> money. </br> If you end up with fewer than 0 tokens, you will earn $0 of bonus money, but you will still be paid for playing the game.","83","","instructions","2021-08-28 16:25:14.925","","","","","",""
"casino-keyboard-response","32","192353","0.0-16.0-0.10","143","false","img/card_backs/set1/red.gif","img/card_backs/set1/yellow.gif","img/card_backs/set1/purple.gif","img/card_backs/set1/green.gif","img/card_backs/set2/gray.gif","img/card_backs/set2/pink.gif","img/card_backs/set2/blue.gif","img/card_backs/set2/orange.gif","""event"",""trial"",""time""
""fullscreenenter"",""1"",""2129""
","
","
","""event"",""trial"",""time""
""fullscreenenter"",""1"",""2129""
","
","","4732.799999952316","You will have 10 seconds to make each choice.","82","","instructions","2021-08-28 16:25:19.659","","","","","",""
"casino-keyboard-response","33","200575","0.0-16.0-0.11","143","false","img/card_backs/set1/red.gif","img/card_backs/set1/yellow.gif","img/card_backs/set1/purple.gif","img/card_backs/set1/green.gif","img/card_backs/set2/gray.gif","img/card_backs/set2/pink.gif","img/card_backs/set2/blue.gif","img/card_backs/set2/orange.gif","""event"",""trial"",""time""
""fullscreenenter"",""1"",""2129""
","
","
","""event"",""trial"",""time""
""fullscreenenter"",""1"",""2129""
","
","","8220.899999976158","Before you play the game for real, you will play with practice decks. </br> The tokens you earn during practice won't count toward your total.","86","","instructions","2021-08-28 16:25:27.881","","","","","",""
"casino-keyboard-response","34","203272","0.0-16.0-0.12","143","false","img/card_backs/set1/red.gif","img/card_backs/set1/yellow.gif","img/card_backs/set1/purple.gif","img/card_backs/set1/green.gif","img/card_backs/set2/gray.gif","img/card_backs/set2/pink.gif","img/card_backs/set2/blue.gif","img/card_backs/set2/orange.gif","""event"",""trial"",""time""
""fullscreenenter"",""1"",""2129""
","
","
","""event"",""trial"",""time""
""fullscreenenter"",""1"",""2129""
","
","","2696","Ready? Remember, use the '2', '4', '6', and '8' keys to select the decks. </br> Put your fingers on those keys now and then press '2' to begin.","50","","instructions","2021-08-28 16:25:30.578","","","","","",""
"casino-fixation","35","203783","0.0-17.0-0.0","143","false","img/card_backs/set1/red.gif","img/card_backs/set1/yellow.gif","img/card_backs/set1/purple.gif","img/card_backs/set1/green.gif","img/card_backs/set2/gray.gif","img/card_backs/set2/pink.gif","img/card_backs/set2/blue.gif","img/card_backs/set2/orange.gif","""event"",""trial"",""time""
""fullscreenenter"",""1"",""2129""
","
","
","""event"",""trial"",""time""
""fullscreenenter"",""1"",""2129""
","
","","null","","null","","fixation","2021-08-28 16:25:31.089","","","","","",""
"card-selection-trial","36","206857","0.0-17.0-1.0","143","false","img/card_backs/set1/red.gif","img/card_backs/set1/yellow.gif","img/card_backs/set1/purple.gif","img/card_backs/set1/green.gif","img/card_backs/set2/gray.gif","img/card_backs/set2/pink.gif","img/card_backs/set2/blue.gif","img/card_backs/set2/orange.gif","""event"",""trial"",""time""
""fullscreenenter"",""1"",""2129""
","
","
","""event"",""trial"",""time""
""fullscreenenter"",""1"",""2129""
","
","","1062.6999999284744","","","","practice","2021-08-28 16:25:34.163","img/practice_cards/backs/dark_blue.gif","1","-200","0","",""
"casino-fixation","37","207363","0.0-17.0-0.1","143","false","img/card_backs/set1/red.gif","img/card_backs/set1/yellow.gif","img/card_backs/set1/purple.gif","img/card_backs/set1/green.gif","img/card_backs/set2/gray.gif","img/card_backs/set2/pink.gif","img/card_backs/set2/blue.gif","img/card_backs/set2/orange.gif","""event"",""trial"",""time""
""fullscreenenter"",""1"",""2129""
","
","
","""event"",""trial"",""time""
""fullscreenenter"",""1"",""2129""
","
","","null","","null","","fixation","2021-08-28 16:25:34.669","","","","","",""
"card-selection-trial","38","209845","0.0-17.0-1.1","143","false","img/card_backs/set1/red.gif","img/card_backs/set1/yellow.gif","img/card_backs/set1/purple.gif","img/card_backs/set1/green.gif","img/card_backs/set2/gray.gif","img/card_backs/set2/pink.gif","img/card_backs/set2/blue.gif","img/card_backs/set2/orange.gif","""event"",""trial"",""time""
""fullscreenenter"",""1"",""2129""
","
","
","""event"",""trial"",""time""
""fullscreenenter"",""1"",""2129""
","
","","475.7999999523163","","","","practice","2021-08-28 16:25:37.151","img/practice_cards/backs/dark_blue.gif","0","200","0","",""
"casino-fixation","39","210349","0.0-17.0-0.2","143","false","img/card_backs/set1/red.gif","img/card_backs/set1/yellow.gif","img/card_backs/set1/purple.gif","img/card_backs/set1/green.gif","img/card_backs/set2/gray.gif","img/card_backs/set2/pink.gif","img/card_backs/set2/blue.gif","img/card_backs/set2/orange.gif","""event"",""trial"",""time""
""fullscreenenter"",""1"",""2129""
","
","
","""event"",""trial"",""time""
""fullscreenenter"",""1"",""2129""
","
","","null","","null","","fixation","2021-08-28 16:25:37.656","","","","","",""
"card-selection-trial","40","213030","0.0-17.0-1.2","143","false","img/card_backs/set1/red.gif","img/card_backs/set1/yellow.gif","img/card_backs/set1/purple.gif","img/card_backs/set1/green.gif","img/card_backs/set2/gray.gif","img/card_backs/set2/pink.gif","img/card_backs/set2/blue.gif","img/card_backs/set2/orange.gif","""event"",""trial"",""time""
""fullscreenenter"",""1"",""2129""
","
","
","""event"",""trial"",""time""
""fullscreenenter"",""1"",""2129""
","
","","669.3999999761581","","","","practice","2021-08-28 16:25:40.336","img/practice_cards/backs/black.gif","3","100","0","",""
"casino-fixation","41","213536","0.0-17.0-0.3","143","false","img/card_backs/set1/red.gif","img/card_backs/set1/yellow.gif","img/card_backs/set1/purple.gif","img/card_backs/set1/green.gif","img/card_backs/set2/gray.gif","img/card_backs/set2/pink.gif","img/card_backs/set2/blue.gif","img/card_backs/set2/orange.gif","""event"",""trial"",""time""
""fullscreenenter"",""1"",""2129""
","
","
","""event"",""trial"",""time""
""fullscreenenter"",""1"",""2129""
","
","","null","","null","","fixation","2021-08-28 16:25:40.843","","","","","",""
"card-selection-trial","42","216321","0.0-17.0-1.3","143","false","img/card_backs/set1/red.gif","img/card_backs/set1/yellow.gif","img/card_backs/set1/purple.gif","img/card_backs/set1/green.gif","img/card_backs/set2/gray.gif","img/card_backs/set2/pink.gif","img/card_backs/set2/blue.gif","img/card_backs/set2/orange.gif","""event"",""trial"",""time""
""fullscreenenter"",""1"",""2129""
","
","
","""event"",""trial"",""time""
""fullscreenenter"",""1"",""2129""
","
","","766.1999999284744","","","","practice","2021-08-28 16:25:43.627","img/practice_cards/backs/dark_blue.gif","0","-200","0","",""
"casino-fixation","43","216829","0.0-17.0-0.4","143","false","img/card_backs/set1/red.gif","img/card_backs/set1/yellow.gif","img/card_backs/set1/purple.gif","img/card_backs/set1/green.gif","img/card_backs/set2/gray.gif","img/card_backs/set2/pink.gif","img/card_backs/set2/blue.gif","img/card_backs/set2/orange.gif","""event"",""trial"",""time""
""fullscreenenter"",""1"",""2129""
","
","
","""event"",""trial"",""time""
""fullscreenenter"",""1"",""2129""
","
","","null","","null","","fixation","2021-08-28 16:25:44.135","","","","","",""
"card-selection-trial","44","219091","0.0-17.0-1.4","143","false","img/card_backs/set1/red.gif","img/card_backs/set1/yellow.gif","img/card_backs/set1/purple.gif","img/card_backs/set1/green.gif","img/card_backs/set2/gray.gif","img/card_backs/set2/pink.gif","img/card_backs/set2/blue.gif","img/card_backs/set2/orange.gif","""event"",""trial"",""time""
""fullscreenenter"",""1"",""2129""
","
","
","""event"",""trial"",""time""
""fullscreenenter"",""1"",""2129""
","
","","243.39999997615814","","","","practice","2021-08-28 16:25:46.397","img/practice_cards/backs/dark_blue.gif","1","200","0","",""
"casino-fixation","45","219593","0.0-17.0-0.5","143","false","img/card_backs/set1/red.gif","img/card_backs/set1/yellow.gif","img/card_backs/set1/purple.gif","img/card_backs/set1/green.gif","img/card_backs/set2/gray.gif","img/card_backs/set2/pink.gif","img/card_backs/set2/blue.gif","img/card_backs/set2/orange.gif","""event"",""trial"",""time""
""fullscreenenter"",""1"",""2129""
","
","
","""event"",""trial"",""time""
""fullscreenenter"",""1"",""2129""
","
","","null","","null","","fixation","2021-08-28 16:25:46.899","","","","","",""
"card-selection-trial","46","223658","0.0-17.0-1.5","143","false","img/card_backs/set1/red.gif","img/card_backs/set1/yellow.gif","img/card_backs/set1/purple.gif","img/card_backs/set1/green.gif","img/card_backs/set2/gray.gif","img/card_backs/set2/pink.gif","img/card_backs/set2/blue.gif","img/card_backs/set2/orange.gif","""event"",""trial"",""time""
""fullscreenenter"",""1"",""2129""
","
","
","""event"",""trial"",""time""
""fullscreenenter"",""1"",""2129""
","
","","2050.100000023842","","","","practice","2021-08-28 16:25:50.964","img/practice_cards/backs/dark_blue.gif","2","200","0","",""
"casino-fixation","47","224161","0.0-17.0-0.6","143","false","img/card_backs/set1/red.gif","img/card_backs/set1/yellow.gif","img/card_backs/set1/purple.gif","img/card_backs/set1/green.gif","img/card_backs/set2/gray.gif","img/card_backs/set2/pink.gif","img/card_backs/set2/blue.gif","img/card_backs/set2/orange.gif","""event"",""trial"",""time""
""fullscreenenter"",""1"",""2129""
","
","
","""event"",""trial"",""time""
""fullscreenenter"",""1"",""2129""
","
","","null","","null","","fixation","2021-08-28 16:25:51.467","","","","","",""
"card-selection-trial","48","226888","0.0-17.0-1.6","143","false","img/card_backs/set1/red.gif","img/card_backs/set1/yellow.gif","img/card_backs/set1/purple.gif","img/card_backs/set1/green.gif","img/card_backs/set2/gray.gif","img/card_backs/set2/pink.gif","img/card_backs/set2/blue.gif","img/card_backs/set2/orange.gif","""event"",""trial"",""time""
""fullscreenenter"",""1"",""2129""
","
","
","""event"",""trial"",""time""
""fullscreenenter"",""1"",""2129""
","
","","718.3999999761581","","","","practice","2021-08-28 16:25:54.194","img/practice_cards/backs/dark_blue.gif","3","200","0","",""
"casino-fixation","49","227404","0.0-17.0-0.7","143","false","img/card_backs/set1/red.gif","img/card_backs/set1/yellow.gif","img/card_backs/set1/purple.gif","img/card_backs/set1/green.gif","img/card_backs/set2/gray.gif","img/card_backs/set2/pink.gif","img/card_backs/set2/blue.gif","img/card_backs/set2/orange.gif","""event"",""trial"",""time""
""fullscreenenter"",""1"",""2129""
","
","
","""event"",""trial"",""time""
""fullscreenenter"",""1"",""2129""
","
","","null","","null","","fixation","2021-08-28 16:25:54.710","","","","","",""
"card-selection-trial","50","230265","0.0-17.0-1.7","143","false","img/card_backs/set1/red.gif","img/card_backs/set1/yellow.gif","img/card_backs/set1/purple.gif","img/card_backs/set1/green.gif","img/card_backs/set2/gray.gif","img/card_backs/set2/pink.gif","img/card_backs/set2/blue.gif","img/card_backs/set2/orange.gif","""event"",""trial"",""time""
""fullscreenenter"",""1"",""2129""
","
","
","""event"",""trial"",""time""
""fullscreenenter"",""1"",""2129""
","
","","851.5","","","","practice","2021-08-28 16:25:57.571","img/practice_cards/backs/dark_blue.gif","2","200","0","",""
"casino-fixation","51","230768","0.0-17.0-0.8","143","false","img/card_backs/set1/red.gif","img/card_backs/set1/yellow.gif","img/card_backs/set1/purple.gif","img/card_backs/set1/green.gif","img/card_backs/set2/gray.gif","img/card_backs/set2/pink.gif","img/card_backs/set2/blue.gif","img/card_backs/set2/orange.gif","""event"",""trial"",""time""
""fullscreenenter"",""1"",""2129""
","
","
","""event"",""trial"",""time""
""fullscreenenter"",""1"",""2129""
","
","","null","","null","","fixation","2021-08-28 16:25:58.074","","","","","",""
"card-selection-trial","52","233741","0.0-17.0-1.8","143","false","img/card_backs/set1/red.gif","img/card_backs/set1/yellow.gif","img/card_backs/set1/purple.gif","img/card_backs/set1/green.gif","img/card_backs/set2/gray.gif","img/card_backs/set2/pink.gif","img/card_backs/set2/blue.gif","img/card_backs/set2/orange.gif","""event"",""trial"",""time""
""fullscreenenter"",""1"",""2129""
","
","
","""event"",""trial"",""time""
""fullscreenenter"",""1"",""2129""
","
","","969.8999999761581","","","","practice","2021-08-28 16:26:01.047","img/practice_cards/backs/dark_blue.gif","1","200","0","",""
"casino-fixation","53","234242","0.0-17.0-0.9","143","false","img/card_backs/set1/red.gif","img/card_backs/set1/yellow.gif","img/card_backs/set1/purple.gif","img/card_backs/set1/green.gif","img/card_backs/set2/gray.gif","img/card_backs/set2/pink.gif","img/card_backs/set2/blue.gif","img/card_backs/set2/orange.gif","""event"",""trial"",""time""
""fullscreenenter"",""1"",""2129""
","
","
","""event"",""trial"",""time""
""fullscreenenter"",""1"",""2129""
","
","","null","","null","","fixation","2021-08-28 16:26:01.548","","","","","",""
"card-selection-trial","54","236950","0.0-17.0-1.9","143","false","img/card_backs/set1/red.gif","img/card_backs/set1/yellow.gif","img/card_backs/set1/purple.gif","img/card_backs/set1/green.gif","img/card_backs/set2/gray.gif","img/card_backs/set2/pink.gif","img/card_backs/set2/blue.gif","img/card_backs/set2/orange.gif","""event"",""trial"",""time""
""fullscreenenter"",""1"",""2129""
","
","
","""event"",""trial"",""time""
""fullscreenenter"",""1"",""2129""
","
","","704.5","","","","practice","2021-08-28 16:26:04.256","img/practice_cards/backs/dark_blue.gif","0","200","0","",""
"casino-keyboard-response","55","241054","0.0-18.0","143","false","img/card_backs/set1/red.gif","img/card_backs/set1/yellow.gif","img/card_backs/set1/purple.gif","img/card_backs/set1/green.gif","img/card_backs/set2/gray.gif","img/card_backs/set2/pink.gif","img/card_backs/set2/blue.gif","img/card_backs/set2/orange.gif","""event"",""trial"",""time""
""fullscreenenter"",""1"",""2129""
","
","
","""event"",""trial"",""time""
""fullscreenenter"",""1"",""2129""
","
","","4103.300000071526","You earned 1100 tokens during the practice round!","82","","","2021-08-28 16:26:08.360","","","","","",""
"casino-keyboard-response","56","245654","0.0-19.0-0.0","143","false","img/card_backs/set1/red.gif","img/card_backs/set1/yellow.gif","img/card_backs/set1/purple.gif","img/card_backs/set1/green.gif","img/card_backs/set2/gray.gif","img/card_backs/set2/pink.gif","img/card_backs/set2/blue.gif","img/card_backs/set2/orange.gif","""event"",""trial"",""time""
""fullscreenenter"",""1"",""2129""
","
","
","""event"",""trial"",""time""
""fullscreenenter"",""1"",""2129""
","
","","4599.200000047684","Nice job! You are almost ready to play the real game.","86","","instructions","2021-08-28 16:26:12.960","","","","","",""
"casino-keyboard-response","57","251998","0.0-19.0-0.1","143","false","img/card_backs/set1/red.gif","img/card_backs/set1/yellow.gif","img/card_backs/set1/purple.gif","img/card_backs/set1/green.gif","img/card_backs/set2/gray.gif","img/card_backs/set2/pink.gif","img/card_backs/set2/blue.gif","img/card_backs/set2/orange.gif","""event"",""trial"",""time""
""fullscreenenter"",""1"",""2129""
","
","
","""event"",""trial"",""time""
""fullscreenenter"",""1"",""2129""
","
","","6342.899999976158","You will play two rounds of the real game. In each round, you will pick 100 cards in total.","73","","instructions","2021-08-28 16:26:19.304","","","","","",""
"casino-keyboard-response","58","256473","0.0-19.0-0.2","143","false","img/card_backs/set1/red.gif","img/card_backs/set1/yellow.gif","img/card_backs/set1/purple.gif","img/card_backs/set1/green.gif","img/card_backs/set2/gray.gif","img/card_backs/set2/pink.gif","img/card_backs/set2/blue.gif","img/card_backs/set2/orange.gif","""event"",""trial"",""time""
""fullscreenenter"",""1"",""2129""
","
","
","""event"",""trial"",""time""
""fullscreenenter"",""1"",""2129""
","
","","4474.399999976158","We are now going to ask you some questions about how the game works.","66","","instructions","2021-08-28 16:26:23.779","","","","","",""
"casino-keyboard-response","59","263113","0.0-19.0-0.3","143","false","img/card_backs/set1/red.gif","img/card_backs/set1/yellow.gif","img/card_backs/set1/purple.gif","img/card_backs/set1/green.gif","img/card_backs/set2/gray.gif","img/card_backs/set2/pink.gif","img/card_backs/set2/blue.gif","img/card_backs/set2/orange.gif","""event"",""trial"",""time""
""fullscreenenter"",""1"",""2129""
","
","
","""event"",""trial"",""time""
""fullscreenenter"",""1"",""2129""
","
","","6639","Answer carefully. You will not be able to begin the game until you answer them correctly.","67","","instructions","2021-08-28 16:26:30.419","","","","","",""
"casino-comp_q","60","268465","0.0-20.0-0.0","143","false","img/card_backs/set1/red.gif","img/card_backs/set1/yellow.gif","img/card_backs/set1/purple.gif","img/card_backs/set1/green.gif","img/card_backs/set2/gray.gif","img/card_backs/set2/pink.gif","img/card_backs/set2/blue.gif","img/card_backs/set2/orange.gif","""event"",""trial"",""time""
""fullscreenenter"",""1"",""2129""
","
","
","""event"",""trial"",""time""
""fullscreenenter"",""1"",""2129""
","
","","5351.100000023842","True or False: All the decks have some cards that cause you to win tokens and some cards that cause you to lose tokens.","84","","","2021-08-28 16:26:35.771","","","","","",""
"casino-keyboard-response","61","271845","0.0-20.0-1.0","143","false","img/card_backs/set1/red.gif","img/card_backs/set1/yellow.gif","img/card_backs/set1/purple.gif","img/card_backs/set1/green.gif","img/card_backs/set2/gray.gif","img/card_backs/set2/pink.gif","img/card_backs/set2/blue.gif","img/card_backs/set2/orange.gif","""event"",""trial"",""time""
""fullscreenenter"",""1"",""2129""
","
","
","""event"",""trial"",""time""
""fullscreenenter"",""1"",""2129""
","
","","3378.7000000476837","True is correct! All the decks have a mix of winning and losing cards.","77","","","2021-08-28 16:26:39.151","","","","","true",""
"casino-comp_q","62","274566","0.0-21.0-0.0","143","false","img/card_backs/set1/red.gif","img/card_backs/set1/yellow.gif","img/card_backs/set1/purple.gif","img/card_backs/set1/green.gif","img/card_backs/set2/gray.gif","img/card_backs/set2/pink.gif","img/card_backs/set2/blue.gif","img/card_backs/set2/orange.gif","""event"",""trial"",""time""
""fullscreenenter"",""1"",""2129""
","
","
","""event"",""trial"",""time""
""fullscreenenter"",""1"",""2129""
","
","","2720.2000000476837","True or False: You will have as much time as you want to make your response.","70","","","2021-08-28 16:26:41.872","","","","","",""
"casino-keyboard-response","63","279078","0.0-21.0-1.0","143","false","img/card_backs/set1/red.gif","img/card_backs/set1/yellow.gif","img/card_backs/set1/purple.gif","img/card_backs/set1/green.gif","img/card_backs/set2/gray.gif","img/card_backs/set2/pink.gif","img/card_backs/set2/blue.gif","img/card_backs/set2/orange.gif","""event"",""trial"",""time""
""fullscreenenter"",""1"",""2129""
","
","
","""event"",""trial"",""time""
""fullscreenenter"",""1"",""2129""
","
","","4510.799999952316","False is correct! You will only have 10 seconds to make each choice.","75","","","2021-08-28 16:26:46.384","","","","","true",""
"casino-comp_q","64","282105","0.0-22.0-0.0","143","false","img/card_backs/set1/red.gif","img/card_backs/set1/yellow.gif","img/card_backs/set1/purple.gif","img/card_backs/set1/green.gif","img/card_backs/set2/gray.gif","img/card_backs/set2/pink.gif","img/card_backs/set2/blue.gif","img/card_backs/set2/orange.gif","""event"",""trial"",""time""
""fullscreenenter"",""1"",""2129""
","
","
","""event"",""trial"",""time""
""fullscreenenter"",""1"",""2129""
","
","","3025.7000000476837","True or False: The location of the deck determines how lucky it is.","70","","","2021-08-28 16:26:49.411","","","","","",""
"casino-keyboard-response","65","287138","0.0-22.0-1.0","143","false","img/card_backs/set1/red.gif","img/card_backs/set1/yellow.gif","img/card_backs/set1/purple.gif","img/card_backs/set1/green.gif","img/card_backs/set2/gray.gif","img/card_backs/set2/pink.gif","img/card_backs/set2/blue.gif","img/card_backs/set2/orange.gif","""event"",""trial"",""time""
""fullscreenenter"",""1"",""2129""
","
","
","""event"",""trial"",""time""
""fullscreenenter"",""1"",""2129""
","
","","5032.100000023842","False is correct! The <i>color</i>  of the deck determines how lucky or unlucky it is.","68","","","2021-08-28 16:26:54.444","","","","","true",""
"casino-keyboard-response","66","291317","0.0-23.0-0.0","143","false","img/card_backs/set1/red.gif","img/card_backs/set1/yellow.gif","img/card_backs/set1/purple.gif","img/card_backs/set1/green.gif","img/card_backs/set2/gray.gif","img/card_backs/set2/pink.gif","img/card_backs/set2/blue.gif","img/card_backs/set2/orange.gif","""event"",""trial"",""time""
""fullscreenenter"",""1"",""2129""
","
","
","""event"",""trial"",""time""
""fullscreenenter"",""1"",""2129""
","
","","4178.200000047684","Great job! Now it's time to start the real game.","82","","instructions","2021-08-28 16:26:58.623","","","","","",""
"casino-keyboard-response","67","296814","0.0-23.0-0.1","143","false","img/card_backs/set1/red.gif","img/card_backs/set1/yellow.gif","img/card_backs/set1/purple.gif","img/card_backs/set1/green.gif","img/card_backs/set2/gray.gif","img/card_backs/set2/pink.gif","img/card_backs/set2/blue.gif","img/card_backs/set2/orange.gif","""event"",""trial"",""time""
""fullscreenenter"",""1"",""2129""
","
","
","""event"",""trial"",""time""
""fullscreenenter"",""1"",""2129""
","
","","5496","Before we start, we're going to head into a new room of the casino.","86","","instructions","2021-08-28 16:27:04.120","","","","","",""
"casino-keyboard-response","68","303276","0.0-24.0-0.0","143","false","img/card_backs/set1/red.gif","img/card_backs/set1/yellow.gif","img/card_backs/set1/purple.gif","img/card_backs/set1/green.gif","img/card_backs/set2/gray.gif","img/card_backs/set2/pink.gif","img/card_backs/set2/blue.gif","img/card_backs/set2/orange.gif","""event"",""trial"",""time""
""fullscreenenter"",""1"",""2129""
","
","
","""event"",""trial"",""time""
""fullscreenenter"",""1"",""2129""
","
","","6461.299999952316","Here we are! The real game will use different cards, but the rules will be the same.","71","","instructions","2021-08-28 16:27:10.582","","","","","",""
"casino-keyboard-response","69","308420","0.0-24.0-0.1","143","false","img/card_backs/set1/red.gif","img/card_backs/set1/yellow.gif","img/card_backs/set1/purple.gif","img/card_backs/set1/green.gif","img/card_backs/set2/gray.gif","img/card_backs/set2/pink.gif","img/card_backs/set2/blue.gif","img/card_backs/set2/orange.gif","""event"",""trial"",""time""
""fullscreenenter"",""1"",""2129""
","
","
","""event"",""trial"",""time""
""fullscreenenter"",""1"",""2129""
","
","","5143","Ready? Put your fingers over the '2', '4', 6', and '8' keys so you are ready to play the game. </br> Then press 2 to start.","50","","instructions","2021-08-28 16:27:15.726","","","","","",""
"casino-fixation","70","308926","0.0-25.0-0.0","143","false","img/card_backs/set1/red.gif","img/card_backs/set1/yellow.gif","img/card_backs/set1/purple.gif","img/card_backs/set1/green.gif","img/card_backs/set2/gray.gif","img/card_backs/set2/pink.gif","img/card_backs/set2/blue.gif","img/card_backs/set2/orange.gif","""event"",""trial"",""time""
""fullscreenenter"",""1"",""2129""
","
","
","""event"",""trial"",""time""
""fullscreenenter"",""1"",""2129""
","
","","null","","null","","fixation","2021-08-28 16:27:16.232","","","","","",""
"card-selection-trial","71","312551","0.0-25.0-1.0","143","false","img/card_backs/set1/red.gif","img/card_backs/set1/yellow.gif","img/card_backs/set1/purple.gif","img/card_backs/set1/green.gif","img/card_backs/set2/gray.gif","img/card_backs/set2/pink.gif","img/card_backs/set2/blue.gif","img/card_backs/set2/orange.gif","""event"",""trial"",""time""
""fullscreenenter"",""1"",""2129""
","
","
","""event"",""trial"",""time""
""fullscreenenter"",""1"",""2129""
","
","","1619.5999999046326","","","","real_trial","2021-08-28 16:27:19.857","img/card_backs/set1/yellow.gif","1","-240","1","",""
"casino-fixation","72","313060","0.0-25.0-0.1","143","false","img/card_backs/set1/red.gif","img/card_backs/set1/yellow.gif","img/card_backs/set1/purple.gif","img/card_backs/set1/green.gif","img/card_backs/set2/gray.gif","img/card_backs/set2/pink.gif","img/card_backs/set2/blue.gif","img/card_backs/set2/orange.gif","""event"",""trial"",""time""
""fullscreenenter"",""1"",""2129""
","
","
","""event"",""trial"",""time""
""fullscreenenter"",""1"",""2129""
","
","","null","","null","","fixation","2021-08-28 16:27:20.366","","","","","",""
"card-selection-trial","73","317388","0.0-25.0-1.1","143","false","img/card_backs/set1/red.gif","img/card_backs/set1/yellow.gif","img/card_backs/set1/purple.gif","img/card_backs/set1/green.gif","img/card_backs/set2/gray.gif","img/card_backs/set2/pink.gif","img/card_backs/set2/blue.gif","img/card_backs/set2/orange.gif","""event"",""trial"",""time""
""fullscreenenter"",""1"",""2129""
","
","
","""event"",""trial"",""time""
""fullscreenenter"",""1"",""2129""
","
","","2317.8000000715256","","","","real_trial","2021-08-28 16:27:24.694","img/card_backs/set1/green.gif","1","100","1","",""
"casino-fixation","74","317898","0.0-25.0-0.2","143","false","img/card_backs/set1/red.gif","img/card_backs/set1/yellow.gif","img/card_backs/set1/purple.gif","img/card_backs/set1/green.gif","img/card_backs/set2/gray.gif","img/card_backs/set2/pink.gif","img/card_backs/set2/blue.gif","img/card_backs/set2/orange.gif","""event"",""trial"",""time""
""fullscreenenter"",""1"",""2129""
","
","
","""event"",""trial"",""time""
""fullscreenenter"",""1"",""2129""
","
","","null","","null","","fixation","2021-08-28 16:27:25.204","","","","","",""
"card-selection-trial","75","320602","0.0-25.0-1.2","143","false","img/card_backs/set1/red.gif","img/card_backs/set1/yellow.gif","img/card_backs/set1/purple.gif","img/card_backs/set1/green.gif","img/card_backs/set2/gray.gif","img/card_backs/set2/pink.gif","img/card_backs/set2/blue.gif","img/card_backs/set2/orange.gif","""event"",""trial"",""time""
""fullscreenenter"",""1"",""2129""
","
","
","""event"",""trial"",""time""
""fullscreenenter"",""1"",""2129""
","
","","691.5","","","","real_trial","2021-08-28 16:27:27.908","img/card_backs/set1/green.gif","0","120","1","",""
"casino-fixation","76","321118","0.0-25.0-0.3","143","false","img/card_backs/set1/red.gif","img/card_backs/set1/yellow.gif","img/card_backs/set1/purple.gif","img/card_backs/set1/green.gif","img/card_backs/set2/gray.gif","img/card_backs/set2/pink.gif","img/card_backs/set2/blue.gif","img/card_backs/set2/orange.gif","""event"",""trial"",""time""
""fullscreenenter"",""1"",""2129""
","
","
","""event"",""trial"",""time""
""fullscreenenter"",""1"",""2129""
","
","","null","","null","","fixation","2021-08-28 16:27:28.425","","","","","",""
"card-selection-trial","77","324101","0.0-25.0-1.3","143","false","img/card_backs/set1/red.gif","img/card_backs/set1/yellow.gif","img/card_backs/set1/purple.gif","img/card_backs/set1/green.gif","img/card_backs/set2/gray.gif","img/card_backs/set2/pink.gif","img/card_backs/set2/blue.gif","img/card_backs/set2/orange.gif","""event"",""trial"",""time""
""fullscreenenter"",""1"",""2129""
","
","
","""event"",""trial"",""time""
""fullscreenenter"",""1"",""2129""
","
","","970.1000000238419","","","","real_trial","2021-08-28 16:27:31.407","img/card_backs/set1/red.gif","2","-240","1","",""
"casino-fixation","78","324610","0.0-25.0-0.4","143","false","img/card_backs/set1/red.gif","img/card_backs/set1/yellow.gif","img/card_backs/set1/purple.gif","img/card_backs/set1/green.gif","img/card_backs/set2/gray.gif","img/card_backs/set2/pink.gif","img/card_backs/set2/blue.gif","img/card_backs/set2/orange.gif","""event"",""trial"",""time""
""fullscreenenter"",""1"",""2129""
","
","
","""event"",""trial"",""time""
""fullscreenenter"",""1"",""2129""
","
","","null","","null","","fixation","2021-08-28 16:27:31.916","","","","","",""
"card-selection-trial","79","329663","0.0-25.0-1.4","143","false","img/card_backs/set1/red.gif","img/card_backs/set1/yellow.gif","img/card_backs/set1/purple.gif","img/card_backs/set1/green.gif","img/card_backs/set2/gray.gif","img/card_backs/set2/pink.gif","img/card_backs/set2/blue.gif","img/card_backs/set2/orange.gif","""event"",""trial"",""time""
""fullscreenenter"",""1"",""2129""
","
","
","""event"",""trial"",""time""
""fullscreenenter"",""1"",""2129""
","
","","3050","","","","real_trial","2021-08-28 16:27:36.969","img/card_backs/set1/purple.gif","2","110","1","",""
"casino-fixation","80","330176","0.0-25.0-0.5","143","false","img/card_backs/set1/red.gif","img/card_backs/set1/yellow.gif","img/card_backs/set1/purple.gif","img/card_backs/set1/green.gif","img/card_backs/set2/gray.gif","img/card_backs/set2/pink.gif","img/card_backs/set2/blue.gif","img/card_backs/set2/orange.gif","""event"",""trial"",""time""
""fullscreenenter"",""1"",""2129""
","
","
","""event"",""trial"",""time""
""fullscreenenter"",""1"",""2129""
","
","","null","","null","","fixation","2021-08-28 16:27:37.482","","","","","",""
"card-selection-trial","81","334174","0.0-25.0-1.5","143","false","img/card_backs/set1/red.gif","img/card_backs/set1/yellow.gif","img/card_backs/set1/purple.gif","img/card_backs/set1/green.gif","img/card_backs/set2/gray.gif","img/card_backs/set2/pink.gif","img/card_backs/set2/blue.gif","img/card_backs/set2/orange.gif","""event"",""trial"",""time""
""fullscreenenter"",""1"",""2129""
","
","
","""event"",""trial"",""time""
""fullscreenenter"",""1"",""2129""
","
","","1989.2000000476837","","","","real_trial","2021-08-28 16:27:41.480","img/card_backs/set1/purple.gif","1","-60","1","",""
"casino-fixation","82","334682","0.0-25.0-0.6","143","false","img/card_backs/set1/red.gif","img/card_backs/set1/yellow.gif","img/card_backs/set1/purple.gif","img/card_backs/set1/green.gif","img/card_backs/set2/gray.gif","img/card_backs/set2/pink.gif","img/card_backs/set2/blue.gif","img/card_backs/set2/orange.gif","""event"",""trial"",""time""
""fullscreenenter"",""1"",""2129""
","
","
","""event"",""trial"",""time""
""fullscreenenter"",""1"",""2129""
","
","","null","","null","","fixation","2021-08-28 16:27:41.988","","","","","",""
"card-selection-trial","83","338304","0.0-25.0-1.6","143","false","img/card_backs/set1/red.gif","img/card_backs/set1/yellow.gif","img/card_backs/set1/purple.gif","img/card_backs/set1/green.gif","img/card_backs/set2/gray.gif","img/card_backs/set2/pink.gif","img/card_backs/set2/blue.gif","img/card_backs/set2/orange.gif","""event"",""trial"",""time""
""fullscreenenter"",""1"",""2129""
","
","
","""event"",""trial"",""time""
""fullscreenenter"",""1"",""2129""
","
","","1616.8999999761581","","","","real_trial","2021-08-28 16:27:45.610","img/card_backs/set1/green.gif","1","-70","1","",""
"casino-fixation","84","338805","0.0-25.0-0.7","143","false","img/card_backs/set1/red.gif","img/card_backs/set1/yellow.gif","img/card_backs/set1/purple.gif","img/card_backs/set1/green.gif","img/card_backs/set2/gray.gif","img/card_backs/set2/pink.gif","img/card_backs/set2/blue.gif","img/card_backs/set2/orange.gif","""event"",""trial"",""time""
""fullscreenenter"",""1"",""2129""
","
","
","""event"",""trial"",""time""
""fullscreenenter"",""1"",""2129""
","
","","null","","null","","fixation","2021-08-28 16:27:46.111","","","","","",""
"card-selection-trial","85","342505","0.0-25.0-1.7","143","false","img/card_backs/set1/red.gif","img/card_backs/set1/yellow.gif","img/card_backs/set1/purple.gif","img/card_backs/set1/green.gif","img/card_backs/set2/gray.gif","img/card_backs/set2/pink.gif","img/card_backs/set2/blue.gif","img/card_backs/set2/orange.gif","""event"",""trial"",""time""
""fullscreenenter"",""1"",""2129""
","
","
","""event"",""trial"",""time""
""fullscreenenter"",""1"",""2129""
","
","","1697.6999999284744","","","","real_trial","2021-08-28 16:27:49.811","img/card_backs/set1/purple.gif","3","110","1","",""
"casino-fixation","86","343007","0.0-25.0-0.8","143","false","img/card_backs/set1/red.gif","img/card_backs/set1/yellow.gif","img/card_backs/set1/purple.gif","img/card_backs/set1/green.gif","img/card_backs/set2/gray.gif","img/card_backs/set2/pink.gif","img/card_backs/set2/blue.gif","img/card_backs/set2/orange.gif","""event"",""trial"",""time""
""fullscreenenter"",""1"",""2129""
","
","
","""event"",""trial"",""time""
""fullscreenenter"",""1"",""2129""
","
","","null","","null","","fixation","2021-08-28 16:27:50.313","","","","","",""
"card-selection-trial","87","347082","0.0-25.0-1.8","143","false","img/card_backs/set1/red.gif","img/card_backs/set1/yellow.gif","img/card_backs/set1/purple.gif","img/card_backs/set1/green.gif","img/card_backs/set2/gray.gif","img/card_backs/set2/pink.gif","img/card_backs/set2/blue.gif","img/card_backs/set2/orange.gif","""event"",""trial"",""time""
""fullscreenenter"",""1"",""2129""
","
","
","""event"",""trial"",""time""
""fullscreenenter"",""1"",""2129""
","
","","2071.100000023842","","","","real_trial","2021-08-28 16:27:54.388","img/card_backs/set1/green.gif","0","120","1","",""
"casino-fixation","88","347583","0.0-25.0-0.9","143","false","img/card_backs/set1/red.gif","img/card_backs/set1/yellow.gif","img/card_backs/set1/purple.gif","img/card_backs/set1/green.gif","img/card_backs/set2/gray.gif","img/card_backs/set2/pink.gif","img/card_backs/set2/blue.gif","img/card_backs/set2/orange.gif","""event"",""trial"",""time""
""fullscreenenter"",""1"",""2129""
","
","
","""event"",""trial"",""time""
""fullscreenenter"",""1"",""2129""
","
","","null","","null","","fixation","2021-08-28 16:27:54.889","","","","","",""
"card-selection-trial","89","352909","0.0-25.0-1.9","143","false","img/card_backs/set1/red.gif","img/card_backs/set1/yellow.gif","img/card_backs/set1/purple.gif","img/card_backs/set1/green.gif","img/card_backs/set2/gray.gif","img/card_backs/set2/pink.gif","img/card_backs/set2/blue.gif","img/card_backs/set2/orange.gif","""event"",""trial"",""time""
""fullscreenenter"",""1"",""2129""
","
","
","""event"",""trial"",""time""
""fullscreenenter"",""1"",""2129""
","
","","3323.5","","","","real_trial","2021-08-28 16:28:00.215","img/card_backs/set1/purple.gif","1","110","1","",""
"casino-fixation","90","353410","0.0-25.0-0.10","143","false","img/card_backs/set1/red.gif","img/card_backs/set1/yellow.gif","img/card_backs/set1/purple.gif","img/card_backs/set1/green.gif","img/card_backs/set2/gray.gif","img/card_backs/set2/pink.gif","img/card_backs/set2/blue.gif","img/card_backs/set2/orange.gif","""event"",""trial"",""time""
""fullscreenenter"",""1"",""2129""
","
","
","""event"",""trial"",""time""
""fullscreenenter"",""1"",""2129""
","
","","null","","null","","fixation","2021-08-28 16:28:00.716","","","","","",""
"card-selection-trial","91","356481","0.0-25.0-1.10","143","false","img/card_backs/set1/red.gif","img/card_backs/set1/yellow.gif","img/card_backs/set1/purple.gif","img/card_backs/set1/green.gif","img/card_backs/set2/gray.gif","img/card_backs/set2/pink.gif","img/card_backs/set2/blue.gif","img/card_backs/set2/orange.gif","""event"",""trial"",""time""
""fullscreenenter"",""1"",""2129""
","
","
","""event"",""trial"",""time""
""fullscreenenter"",""1"",""2129""
","
","","1067.8999999761581","","","","real_trial","2021-08-28 16:28:03.787","img/card_backs/set1/green.gif","2","110","1","",""
"casino-fixation","92","356982","0.0-25.0-0.11","143","false","img/card_backs/set1/red.gif","img/card_backs/set1/yellow.gif","img/card_backs/set1/purple.gif","img/card_backs/set1/green.gif","img/card_backs/set2/gray.gif","img/card_backs/set2/pink.gif","img/card_backs/set2/blue.gif","img/card_backs/set2/orange.gif","""event"",""trial"",""time""
""fullscreenenter"",""1"",""2129""
","
","
","""event"",""trial"",""time""
""fullscreenenter"",""1"",""2129""
","
","","null","","null","","fixation","2021-08-28 16:28:04.288","","","","","",""
"card-selection-trial","93","359977","0.0-25.0-1.11","143","false","img/card_backs/set1/red.gif","img/card_backs/set1/yellow.gif","img/card_backs/set1/purple.gif","img/card_backs/set1/green.gif","img/card_backs/set2/gray.gif","img/card_backs/set2/pink.gif","img/card_backs/set2/blue.gif","img/card_backs/set2/orange.gif","""event"",""trial"",""time""
""fullscreenenter"",""1"",""2129""
","
","
","""event"",""trial"",""time""
""fullscreenenter"",""1"",""2129""
","
","","992","","","","real_trial","2021-08-28 16:28:07.283","img/card_backs/set1/purple.gif","0","-70","1","",""
"casino-fixation","94","360479","0.0-25.0-0.12","143","false","img/card_backs/set1/red.gif","img/card_backs/set1/yellow.gif","img/card_backs/set1/purple.gif","img/card_backs/set1/green.gif","img/card_backs/set2/gray.gif","img/card_backs/set2/pink.gif","img/card_backs/set2/blue.gif","img/card_backs/set2/orange.gif","""event"",""trial"",""time""
""fullscreenenter"",""1"",""2129""
","
","
","""event"",""trial"",""time""
""fullscreenenter"",""1"",""2129""
","
","","null","","null","","fixation","2021-08-28 16:28:07.785","","","","","",""
"card-selection-trial","95","362953","0.0-25.0-1.12","143","false","img/card_backs/set1/red.gif","img/card_backs/set1/yellow.gif","img/card_backs/set1/purple.gif","img/card_backs/set1/green.gif","img/card_backs/set2/gray.gif","img/card_backs/set2/pink.gif","img/card_backs/set2/blue.gif","img/card_backs/set2/orange.gif","""event"",""trial"",""time""
""fullscreenenter"",""1"",""2129""
","
","
","""event"",""trial"",""time""
""fullscreenenter"",""1"",""2129""
","
","","471.90000009536743","","","","real_trial","2021-08-28 16:28:10.259","img/card_backs/set1/green.gif","1","-60","1","",""
"casino-fixation","96","363454","0.0-25.0-0.13","143","false","img/card_backs/set1/red.gif","img/card_backs/set1/yellow.gif","img/card_backs/set1/purple.gif","img/card_backs/set1/green.gif","img/card_backs/set2/gray.gif","img/card_backs/set2/pink.gif","img/card_backs/set2/blue.gif","img/card_backs/set2/orange.gif","""event"",""trial"",""time""
""fullscreenenter"",""1"",""2129""
","
","
","""event"",""trial"",""time""
""fullscreenenter"",""1"",""2129""
","
","","null","","null","","fixation","2021-08-28 16:28:10.760","","","","","",""
"card-selection-trial","97","366860","0.0-25.0-1.13","143","false","img/card_backs/set1/red.gif","img/card_backs/set1/yellow.gif","img/card_backs/set1/purple.gif","img/card_backs/set1/green.gif","img/card_backs/set2/gray.gif","img/card_backs/set2/pink.gif","img/card_backs/set2/blue.gif","img/card_backs/set2/orange.gif","""event"",""trial"",""time""
""fullscreenenter"",""1"",""2129""
","
","
","""event"",""trial"",""time""
""fullscreenenter"",""1"",""2129""
","
","","1403.1000000238419","","","","real_trial","2021-08-28 16:28:14.166","img/card_backs/set1/yellow.gif","3","180","1","",""
"casino-fixation","98","367362","0.0-25.0-0.14","143","false","img/card_backs/set1/red.gif","img/card_backs/set1/yellow.gif","img/card_backs/set1/purple.gif","img/card_backs/set1/green.gif","img/card_backs/set2/gray.gif","img/card_backs/set2/pink.gif","img/card_backs/set2/blue.gif","img/card_backs/set2/orange.gif","""event"",""trial"",""time""
""fullscreenenter"",""1"",""2129""
","
","
","""event"",""trial"",""time""
""fullscreenenter"",""1"",""2129""
","
","","null","","null","","fixation","2021-08-28 16:28:14.668","","","","","",""
"card-selection-trial","99","373748","0.0-25.0-1.14","143","false","img/card_backs/set1/red.gif","img/card_backs/set1/yellow.gif","img/card_backs/set1/purple.gif","img/card_backs/set1/green.gif","img/card_backs/set2/gray.gif","img/card_backs/set2/pink.gif","img/card_backs/set2/blue.gif","img/card_backs/set2/orange.gif","""event"",""trial"",""time""
""fullscreenenter"",""1"",""2129""
","
","
","""event"",""trial"",""time""
""fullscreenenter"",""1"",""2129""
","
","","4382.5","","","","real_trial","2021-08-28 16:28:21.054","img/card_backs/set1/yellow.gif","0","190","1","",""
"casino-fixation","100","374249","0.0-25.0-0.15","143","false","img/card_backs/set1/red.gif","img/card_backs/set1/yellow.gif","img/card_backs/set1/purple.gif","img/card_backs/set1/green.gif","img/card_backs/set2/gray.gif","img/card_backs/set2/pink.gif","img/card_backs/set2/blue.gif","img/card_backs/set2/orange.gif","""event"",""trial"",""time""
""fullscreenenter"",""1"",""2129""
","
","
","""event"",""trial"",""time""
""fullscreenenter"",""1"",""2129""
","
","","null","","null","","fixation","2021-08-28 16:28:21.555","","","","","",""
"card-selection-trial","101","377481","0.0-25.0-1.15","143","false","img/card_backs/set1/red.gif","img/card_backs/set1/yellow.gif","img/card_backs/set1/purple.gif","img/card_backs/set1/green.gif","img/card_backs/set2/gray.gif","img/card_backs/set2/pink.gif","img/card_backs/set2/blue.gif","img/card_backs/set2/orange.gif","""event"",""trial"",""time""
""fullscreenenter"",""1"",""2129""
","
","
","""event"",""trial"",""time""
""fullscreenenter"",""1"",""2129""
","
","","1229.1999999284744","","","","real_trial","2021-08-28 16:28:24.787","img/card_backs/set1/yellow.gif","3","180","1","",""
"casino-fixation","102","377982","0.0-25.0-0.16","143","false","img/card_backs/set1/red.gif","img/card_backs/set1/yellow.gif","img/card_backs/set1/purple.gif","img/card_backs/set1/green.gif","img/card_backs/set2/gray.gif","img/card_backs/set2/pink.gif","img/card_backs/set2/blue.gif","img/card_backs/set2/orange.gif","""event"",""trial"",""time""
""fullscreenenter"",""1"",""2129""
","
","
","""event"",""trial"",""time""
""fullscreenenter"",""1"",""2129""
","
","","null","","null","","fixation","2021-08-28 16:28:25.288","","","","","",""
"card-selection-trial","103","380745","0.0-25.0-1.16","143","false","img/card_backs/set1/red.gif","img/card_backs/set1/yellow.gif","img/card_backs/set1/purple.gif","img/card_backs/set1/green.gif","img/card_backs/set2/gray.gif","img/card_backs/set2/pink.gif","img/card_backs/set2/blue.gif","img/card_backs/set2/orange.gif","""event"",""trial"",""time""
""fullscreenenter"",""1"",""2129""
","
","
","""event"",""trial"",""time""
""fullscreenenter"",""1"",""2129""
","
","","759.7999999523163","","","","real_trial","2021-08-28 16:28:28.051","img/card_backs/set1/yellow.gif","2","200","1","",""
"casino-fixation","104","381246","0.0-25.0-0.17","143","false","img/card_backs/set1/red.gif","img/card_backs/set1/yellow.gif","img/card_backs/set1/purple.gif","img/card_backs/set1/green.gif","img/card_backs/set2/gray.gif","img/card_backs/set2/pink.gif","img/card_backs/set2/blue.gif","img/card_backs/set2/orange.gif","""event"",""trial"",""time""
""fullscreenenter"",""1"",""2129""
","
","
","""event"",""trial"",""time""
""fullscreenenter"",""1"",""2129""
","
","","null","","null","","fixation","2021-08-28 16:28:28.552","","","","","",""
"card-selection-trial","105","383603","0.0-25.0-1.17","143","false","img/card_backs/set1/red.gif","img/card_backs/set1/yellow.gif","img/card_backs/set1/purple.gif","img/card_backs/set1/green.gif","img/card_backs/set2/gray.gif","img/card_backs/set2/pink.gif","img/card_backs/set2/blue.gif","img/card_backs/set2/orange.gif","""event"",""trial"",""time""
""fullscreenenter"",""1"",""2129""
","
","
","""event"",""trial"",""time""
""fullscreenenter"",""1"",""2129""
","
","","352.6999999284744","","","","real_trial","2021-08-28 16:28:30.909","img/card_backs/set1/yellow.gif","2","-250","1","",""
"casino-fixation","106","384104","0.0-25.0-0.18","143","false","img/card_backs/set1/red.gif","img/card_backs/set1/yellow.gif","img/card_backs/set1/purple.gif","img/card_backs/set1/green.gif","img/card_backs/set2/gray.gif","img/card_backs/set2/pink.gif","img/card_backs/set2/blue.gif","img/card_backs/set2/orange.gif","""event"",""trial"",""time""
""fullscreenenter"",""1"",""2129""
","
","
","""event"",""trial"",""time""
""fullscreenenter"",""1"",""2129""
","
","","null","","null","","fixation","2021-08-28 16:28:31.410","","","","","",""
"card-selection-trial","107","388789","0.0-25.0-1.18","143","false","img/card_backs/set1/red.gif","img/card_backs/set1/yellow.gif","img/card_backs/set1/purple.gif","img/card_backs/set1/green.gif","img/card_backs/set2/gray.gif","img/card_backs/set2/pink.gif","img/card_backs/set2/blue.gif","img/card_backs/set2/orange.gif","""event"",""trial"",""time""
""fullscreenenter"",""1"",""2129""
","
","
","""event"",""trial"",""time""
""fullscreenenter"",""1"",""2129""
","
","","2682.3000000715256","","","","real_trial","2021-08-28 16:28:36.095","img/card_backs/set1/green.gif","2","-70","1","",""
"casino-fixation","108","389291","0.0-25.0-0.19","143","false","img/card_backs/set1/red.gif","img/card_backs/set1/yellow.gif","img/card_backs/set1/purple.gif","img/card_backs/set1/green.gif","img/card_backs/set2/gray.gif","img/card_backs/set2/pink.gif","img/card_backs/set2/blue.gif","img/card_backs/set2/orange.gif","""event"",""trial"",""time""
""fullscreenenter"",""1"",""2129""
","
","
","""event"",""trial"",""time""
""fullscreenenter"",""1"",""2129""
","
","","null","","null","","fixation","2021-08-28 16:28:36.597","","","","","",""
"card-selection-trial","109","393541","0.0-25.0-1.19","143","false","img/card_backs/set1/red.gif","img/card_backs/set1/yellow.gif","img/card_backs/set1/purple.gif","img/card_backs/set1/green.gif","img/card_backs/set2/gray.gif","img/card_backs/set2/pink.gif","img/card_backs/set2/blue.gif","img/card_backs/set2/orange.gif","""event"",""trial"",""time""
""fullscreenenter"",""1"",""2129""
","
","
","""event"",""trial"",""time""
""fullscreenenter"",""1"",""2129""
","
","","2247.600000023842","","","","real_trial","2021-08-28 16:28:40.847","img/card_backs/set1/yellow.gif","2","-230","1","",""
"casino-fixation","110","394042","0.0-25.0-0.20","143","false","img/card_backs/set1/red.gif","img/card_backs/set1/yellow.gif","img/card_backs/set1/purple.gif","img/card_backs/set1/green.gif","img/card_backs/set2/gray.gif","img/card_backs/set2/pink.gif","img/card_backs/set2/blue.gif","img/card_backs/set2/orange.gif","""event"",""trial"",""time""
""fullscreenenter"",""1"",""2129""
","
","
","""event"",""trial"",""time""
""fullscreenenter"",""1"",""2129""
","
","","null","","null","","fixation","2021-08-28 16:28:41.348","","","","","",""
"card-selection-trial","111","397013","0.0-25.0-1.20","143","false","img/card_backs/set1/red.gif","img/card_backs/set1/yellow.gif","img/card_backs/set1/purple.gif","img/card_backs/set1/green.gif","img/card_backs/set2/gray.gif","img/card_backs/set2/pink.gif","img/card_backs/set2/blue.gif","img/card_backs/set2/orange.gif","""event"",""trial"",""time""
""fullscreenenter"",""1"",""2129""
","
","
","""event"",""trial"",""time""
""fullscreenenter"",""1"",""2129""
","
","","967.8999999761581","","","","real_trial","2021-08-28 16:28:44.319","img/card_backs/set1/red.gif","3","200","1","",""
"casino-fixation","112","397514","0.0-25.0-0.21","143","false","img/card_backs/set1/red.gif","img/card_backs/set1/yellow.gif","img/card_backs/set1/purple.gif","img/card_backs/set1/green.gif","img/card_backs/set2/gray.gif","img/card_backs/set2/pink.gif","img/card_backs/set2/blue.gif","img/card_backs/set2/orange.gif","""event"",""trial"",""time""
""fullscreenenter"",""1"",""2129""
","
","
","""event"",""trial"",""time""
""fullscreenenter"",""1"",""2129""
","
","","null","","null","","fixation","2021-08-28 16:28:44.820","","","","","",""
"card-selection-trial","113","401612","0.0-25.0-1.21","143","false","img/card_backs/set1/red.gif","img/card_backs/set1/yellow.gif","img/card_backs/set1/purple.gif","img/card_backs/set1/green.gif","img/card_backs/set2/gray.gif","img/card_backs/set2/pink.gif","img/card_backs/set2/blue.gif","img/card_backs/set2/orange.gif","""event"",""trial"",""time""
""fullscreenenter"",""1"",""2129""
","
","
","""event"",""trial"",""time""
""fullscreenenter"",""1"",""2129""
","
","","2095","","","","real_trial","2021-08-28 16:28:48.918","img/card_backs/set1/purple.gif","2","100","1","",""
"casino-fixation","114","402113","0.0-25.0-0.22","143","false","img/card_backs/set1/red.gif","img/card_backs/set1/yellow.gif","img/card_backs/set1/purple.gif","img/card_backs/set1/green.gif","img/card_backs/set2/gray.gif","img/card_backs/set2/pink.gif","img/card_backs/set2/blue.gif","img/card_backs/set2/orange.gif","""event"",""trial"",""time""
""fullscreenenter"",""1"",""2129""
","
","
","""event"",""trial"",""time""
""fullscreenenter"",""1"",""2129""
","
","","null","","null","","fixation","2021-08-28 16:28:49.419","","","","","",""
"card-selection-trial","115","406386","0.0-25.0-1.22","143","false","img/card_backs/set1/red.gif","img/card_backs/set1/yellow.gif","img/card_backs/set1/purple.gif","img/card_backs/set1/green.gif","img/card_backs/set2/gray.gif","img/card_backs/set2/pink.gif","img/card_backs/set2/blue.gif","img/card_backs/set2/orange.gif","""event"",""trial"",""time""
""fullscreenenter"",""1"",""2129""
","
","
","""event"",""trial"",""time""
""fullscreenenter"",""1"",""2129""
","
","","2269.7999999523163","","","","real_trial","2021-08-28 16:28:53.692","img/card_backs/set1/green.gif","1","-60","1","",""
"casino-fixation","116","406888","0.0-25.0-0.23","143","false","img/card_backs/set1/red.gif","img/card_backs/set1/yellow.gif","img/card_backs/set1/purple.gif","img/card_backs/set1/green.gif","img/card_backs/set2/gray.gif","img/card_backs/set2/pink.gif","img/card_backs/set2/blue.gif","img/card_backs/set2/orange.gif","""event"",""trial"",""time""
""fullscreenenter"",""1"",""2129""
","
","
","""event"",""trial"",""time""
""fullscreenenter"",""1"",""2129""
","
","","null","","null","","fixation","2021-08-28 16:28:54.194","","","","","",""
"card-selection-trial","117","410039","0.0-25.0-1.23","143","false","img/card_backs/set1/red.gif","img/card_backs/set1/yellow.gif","img/card_backs/set1/purple.gif","img/card_backs/set1/green.gif","img/card_backs/set2/gray.gif","img/card_backs/set2/pink.gif","img/card_backs/set2/blue.gif","img/card_backs/set2/orange.gif","""event"",""trial"",""time""
""fullscreenenter"",""1"",""2129""
","
","
","""event"",""trial"",""time""
""fullscreenenter"",""1"",""2129""
","
","","1147.2999999523163","","","","real_trial","2021-08-28 16:28:57.345","img/card_backs/set1/yellow.gif","2","200","1","",""
"casino-fixation","118","410540","0.0-25.0-0.24","143","false","img/card_backs/set1/red.gif","img/card_backs/set1/yellow.gif","img/card_backs/set1/purple.gif","img/card_backs/set1/green.gif","img/card_backs/set2/gray.gif","img/card_backs/set2/pink.gif","img/card_backs/set2/blue.gif","img/card_backs/set2/orange.gif","""event"",""trial"",""time""
""fullscreenenter"",""1"",""2129""
","
","
","""event"",""trial"",""time""
""fullscreenenter"",""1"",""2129""
","
","","null","","null","","fixation","2021-08-28 16:28:57.846","","","","","",""
"card-selection-trial","119","413854","0.0-25.0-1.24","143","false","img/card_backs/set1/red.gif","img/card_backs/set1/yellow.gif","img/card_backs/set1/purple.gif","img/card_backs/set1/green.gif","img/card_backs/set2/gray.gif","img/card_backs/set2/pink.gif","img/card_backs/set2/blue.gif","img/card_backs/set2/orange.gif","""event"",""trial"",""time""
""fullscreenenter"",""1"",""2129""
","
","
","""event"",""trial"",""time""
""fullscreenenter"",""1"",""2129""
","
","","1311.1000000238419","","","","real_trial","2021-08-28 16:29:01.160","img/card_backs/set1/yellow.gif","3","-240","1","",""
"casino-fixation","120","414355","0.0-25.0-0.25","143","false","img/card_backs/set1/red.gif","img/card_backs/set1/yellow.gif","img/card_backs/set1/purple.gif","img/card_backs/set1/green.gif","img/card_backs/set2/gray.gif","img/card_backs/set2/pink.gif","img/card_backs/set2/blue.gif","img/card_backs/set2/orange.gif","""event"",""trial"",""time""
""fullscreenenter"",""1"",""2129""
","
","
","""event"",""trial"",""time""
""fullscreenenter"",""1"",""2129""
","
","","null","","null","","fixation","2021-08-28 16:29:01.661","","","","","",""
"card-selection-trial","121","418718","0.0-25.0-1.25","143","false","img/card_backs/set1/red.gif","img/card_backs/set1/yellow.gif","img/card_backs/set1/purple.gif","img/card_backs/set1/green.gif","img/card_backs/set2/gray.gif","img/card_backs/set2/pink.gif","img/card_backs/set2/blue.gif","img/card_backs/set2/orange.gif","""event"",""trial"",""time""
""fullscreenenter"",""1"",""2129""
","
","
","""event"",""trial"",""time""
""fullscreenenter"",""1"",""2129""
","
","","2359.600000023842","","","","real_trial","2021-08-28 16:29:06.024","img/card_backs/set1/red.gif","0","-240","1","",""
"casino-fixation","122","419220","0.0-25.0-0.26","143","false","img/card_backs/set1/red.gif","img/card_backs/set1/yellow.gif","img/card_backs/set1/purple.gif","img/card_backs/set1/green.gif","img/card_backs/set2/gray.gif","img/card_backs/set2/pink.gif","img/card_backs/set2/blue.gif","img/card_backs/set2/orange.gif","""event"",""trial"",""time""
""fullscreenenter"",""1"",""2129""
","
","
","""event"",""trial"",""time""
""fullscreenenter"",""1"",""2129""
","
","","null","","null","","fixation","2021-08-28 16:29:06.526","","","","","",""
"card-selection-trial","123","421576","0.0-25.0-1.26","143","false","img/card_backs/set1/red.gif","img/card_backs/set1/yellow.gif","img/card_backs/set1/purple.gif","img/card_backs/set1/green.gif","img/card_backs/set2/gray.gif","img/card_backs/set2/pink.gif","img/card_backs/set2/blue.gif","img/card_backs/set2/orange.gif","""event"",""trial"",""time""
""fullscreenenter"",""1"",""2129""
","
","
","""event"",""trial"",""time""
""fullscreenenter"",""1"",""2129""
","
","","353","","","","real_trial","2021-08-28 16:29:08.882","img/card_backs/set1/yellow.gif","1","-230","1","",""
"casino-fixation","124","422084","0.0-25.0-0.27","143","false","img/card_backs/set1/red.gif","img/card_backs/set1/yellow.gif","img/card_backs/set1/purple.gif","img/card_backs/set1/green.gif","img/card_backs/set2/gray.gif","img/card_backs/set2/pink.gif","img/card_backs/set2/blue.gif","img/card_backs/set2/orange.gif","""event"",""trial"",""time""
""fullscreenenter"",""1"",""2129""
","
","
","""event"",""trial"",""time""
""fullscreenenter"",""1"",""2129""
","
","","null","","null","","fixation","2021-08-28 16:29:09.390","","","","","",""
"card-selection-trial","125","425462","0.0-25.0-1.27","143","false","img/card_backs/set1/red.gif","img/card_backs/set1/yellow.gif","img/card_backs/set1/purple.gif","img/card_backs/set1/green.gif","img/card_backs/set2/gray.gif","img/card_backs/set2/pink.gif","img/card_backs/set2/blue.gif","img/card_backs/set2/orange.gif","""event"",""trial"",""time""
""fullscreenenter"",""1"",""2129""
","
","
","""event"",""trial"",""time""
""fullscreenenter"",""1"",""2129""
","
","","1373.6000000238419","","","","real_trial","2021-08-28 16:29:12.768","img/card_backs/set1/green.gif","2","-70","1","",""
"casino-fixation","126","425963","0.0-25.0-0.28","143","false","img/card_backs/set1/red.gif","img/card_backs/set1/yellow.gif","img/card_backs/set1/purple.gif","img/card_backs/set1/green.gif","img/card_backs/set2/gray.gif","img/card_backs/set2/pink.gif","img/card_backs/set2/blue.gif","img/card_backs/set2/orange.gif","""event"",""trial"",""time""
""fullscreenenter"",""1"",""2129""
","
","
","""event"",""trial"",""time""
""fullscreenenter"",""1"",""2129""
","
","","null","","null","","fixation","2021-08-28 16:29:13.269","","","","","",""
"card-selection-trial","127","428744","0.0-25.0-1.28","143","false","img/card_backs/set1/red.gif","img/card_backs/set1/yellow.gif","img/card_backs/set1/purple.gif","img/card_backs/set1/green.gif","img/card_backs/set2/gray.gif","img/card_backs/set2/pink.gif","img/card_backs/set2/blue.gif","img/card_backs/set2/orange.gif","""event"",""trial"",""time""
""fullscreenenter"",""1"",""2129""
","
","
","""event"",""trial"",""time""
""fullscreenenter"",""1"",""2129""
","
","","778.9000000953674","","","","real_trial","2021-08-28 16:29:16.051","img/card_backs/set1/green.gif","0","100","1","",""
"casino-fixation","128","429246","0.0-25.0-0.29","143","false","img/card_backs/set1/red.gif","img/card_backs/set1/yellow.gif","img/card_backs/set1/purple.gif","img/card_backs/set1/green.gif","img/card_backs/set2/gray.gif","img/card_backs/set2/pink.gif","img/card_backs/set2/blue.gif","img/card_backs/set2/orange.gif","""event"",""trial"",""time""
""fullscreenenter"",""1"",""2129""
","
","
","""event"",""trial"",""time""
""fullscreenenter"",""1"",""2129""
","
","","null","","null","","fixation","2021-08-28 16:29:16.552","","","","","",""
"card-selection-trial","129","431953","0.0-25.0-1.29","143","false","img/card_backs/set1/red.gif","img/card_backs/set1/yellow.gif","img/card_backs/set1/purple.gif","img/card_backs/set1/green.gif","img/card_backs/set2/gray.gif","img/card_backs/set2/pink.gif","img/card_backs/set2/blue.gif","img/card_backs/set2/orange.gif","""event"",""trial"",""time""
""fullscreenenter"",""1"",""2129""
","
","
","""event"",""trial"",""time""
""fullscreenenter"",""1"",""2129""
","
","","705","","","","real_trial","2021-08-28 16:29:19.259","img/card_backs/set1/yellow.gif","1","200","1","",""
"casino-fixation","130","432455","0.0-25.0-0.30","143","false","img/card_backs/set1/red.gif","img/card_backs/set1/yellow.gif","img/card_backs/set1/purple.gif","img/card_backs/set1/green.gif","img/card_backs/set2/gray.gif","img/card_backs/set2/pink.gif","img/card_backs/set2/blue.gif","img/card_backs/set2/orange.gif","""event"",""trial"",""time""
""fullscreenenter"",""1"",""2129""
","
","
","""event"",""trial"",""time""
""fullscreenenter"",""1"",""2129""
","
","","null","","null","","fixation","2021-08-28 16:29:19.761","","","","","",""
"card-selection-trial","131","435587","0.0-25.0-1.30","143","false","img/card_backs/set1/red.gif","img/card_backs/set1/yellow.gif","img/card_backs/set1/purple.gif","img/card_backs/set1/green.gif","img/card_backs/set2/gray.gif","img/card_backs/set2/pink.gif","img/card_backs/set2/blue.gif","img/card_backs/set2/orange.gif","""event"",""trial"",""time""
""fullscreenenter"",""1"",""2129""
","
","
","""event"",""trial"",""time""
""fullscreenenter"",""1"",""2129""
","
","","1128.0999999046326","","","","real_trial","2021-08-28 16:29:22.893","img/card_backs/set1/yellow.gif","1","190","1","",""
"casino-fixation","132","436088","0.0-25.0-0.31","143","false","img/card_backs/set1/red.gif","img/card_backs/set1/yellow.gif","img/card_backs/set1/purple.gif","img/card_backs/set1/green.gif","img/card_backs/set2/gray.gif","img/card_backs/set2/pink.gif","img/card_backs/set2/blue.gif","img/card_backs/set2/orange.gif","""event"",""trial"",""time""
""fullscreenenter"",""1"",""2129""
","
","
","""event"",""trial"",""time""
""fullscreenenter"",""1"",""2129""
","
","","null","","null","","fixation","2021-08-28 16:29:23.394","","","","","",""
"card-selection-trial","133","438849","0.0-25.0-1.31","143","false","img/card_backs/set1/red.gif","img/card_backs/set1/yellow.gif","img/card_backs/set1/purple.gif","img/card_backs/set1/green.gif","img/card_backs/set2/gray.gif","img/card_backs/set2/pink.gif","img/card_backs/set2/blue.gif","img/card_backs/set2/orange.gif","""event"",""trial"",""time""
""fullscreenenter"",""1"",""2129""
","
","
","""event"",""trial"",""time""
""fullscreenenter"",""1"",""2129""
","
","","757.6000000238419","","","","real_trial","2021-08-28 16:29:26.155","img/card_backs/set1/green.gif","0","-50","1","",""
"casino-fixation","134","439350","0.0-25.0-0.32","143","false","img/card_backs/set1/red.gif","img/card_backs/set1/yellow.gif","img/card_backs/set1/purple.gif","img/card_backs/set1/green.gif","img/card_backs/set2/gray.gif","img/card_backs/set2/pink.gif","img/card_backs/set2/blue.gif","img/card_backs/set2/orange.gif","""event"",""trial"",""time""
""fullscreenenter"",""1"",""2129""
","
","
","""event"",""trial"",""time""
""fullscreenenter"",""1"",""2129""
","
","","null","","null","","fixation","2021-08-28 16:29:26.656","","","","","",""
"card-selection-trial","135","443537","0.0-25.0-1.32","143","false","img/card_backs/set1/red.gif","img/card_backs/set1/yellow.gif","img/card_backs/set1/purple.gif","img/card_backs/set1/green.gif","img/card_backs/set2/gray.gif","img/card_backs/set2/pink.gif","img/card_backs/set2/blue.gif","img/card_backs/set2/orange.gif","""event"",""trial"",""time""
""fullscreenenter"",""1"",""2129""
","
","
","""event"",""trial"",""time""
""fullscreenenter"",""1"",""2129""
","
","","2183.9000000953674","","","","real_trial","2021-08-28 16:29:30.843","img/card_backs/set1/yellow.gif","3","-250","1","",""
"casino-fixation","136","444038","0.0-25.0-0.33","143","false","img/card_backs/set1/red.gif","img/card_backs/set1/yellow.gif","img/card_backs/set1/purple.gif","img/card_backs/set1/green.gif","img/card_backs/set2/gray.gif","img/card_backs/set2/pink.gif","img/card_backs/set2/blue.gif","img/card_backs/set2/orange.gif","""event"",""trial"",""time""
""fullscreenenter"",""1"",""2129""
","
","
","""event"",""trial"",""time""
""fullscreenenter"",""1"",""2129""
","
","","null","","null","","fixation","2021-08-28 16:29:31.344","","","","","",""
"card-selection-trial","137","447727","0.0-25.0-1.33","143","false","img/card_backs/set1/red.gif","img/card_backs/set1/yellow.gif","img/card_backs/set1/purple.gif","img/card_backs/set1/green.gif","img/card_backs/set2/gray.gif","img/card_backs/set2/pink.gif","img/card_backs/set2/blue.gif","img/card_backs/set2/orange.gif","""event"",""trial"",""time""
""fullscreenenter"",""1"",""2129""
","
","
","""event"",""trial"",""time""
""fullscreenenter"",""1"",""2129""
","
","","1685.5999999046326","","","","real_trial","2021-08-28 16:29:35.033","img/card_backs/set1/purple.gif","0","-50","1","",""
"casino-fixation","138","448228","0.0-25.0-0.34","143","false","img/card_backs/set1/red.gif","img/card_backs/set1/yellow.gif","img/card_backs/set1/purple.gif","img/card_backs/set1/green.gif","img/card_backs/set2/gray.gif","img/card_backs/set2/pink.gif","img/card_backs/set2/blue.gif","img/card_backs/set2/orange.gif","""event"",""trial"",""time""
""fullscreenenter"",""1"",""2129""
","
","
","""event"",""trial"",""time""
""fullscreenenter"",""1"",""2129""
","
","","null","","null","","fixation","2021-08-28 16:29:35.534","","","","","",""
"card-selection-trial","139","450830","0.0-25.0-1.34","143","false","img/card_backs/set1/red.gif","img/card_backs/set1/yellow.gif","img/card_backs/set1/purple.gif","img/card_backs/set1/green.gif","img/card_backs/set2/gray.gif","img/card_backs/set2/pink.gif","img/card_backs/set2/blue.gif","img/card_backs/set2/orange.gif","""event"",""trial"",""time""
""fullscreenenter"",""1"",""2129""
","
","
","""event"",""trial"",""time""
""fullscreenenter"",""1"",""2129""
","
","","598.7000000476837","","","","real_trial","2021-08-28 16:29:38.136","img/card_backs/set1/purple.gif","1","-60","1","",""
"casino-fixation","140","451331","0.0-25.0-0.35","143","false","img/card_backs/set1/red.gif","img/card_backs/set1/yellow.gif","img/card_backs/set1/purple.gif","img/card_backs/set1/green.gif","img/card_backs/set2/gray.gif","img/card_backs/set2/pink.gif","img/card_backs/set2/blue.gif","img/card_backs/set2/orange.gif","""event"",""trial"",""time""
""fullscreenenter"",""1"",""2129""
","
","
","""event"",""trial"",""time""
""fullscreenenter"",""1"",""2129""
","
","","null","","null","","fixation","2021-08-28 16:29:38.637","","","","","",""
"card-selection-trial","141","454153","0.0-25.0-1.35","143","false","img/card_backs/set1/red.gif","img/card_backs/set1/yellow.gif","img/card_backs/set1/purple.gif","img/card_backs/set1/green.gif","img/card_backs/set2/gray.gif","img/card_backs/set2/pink.gif","img/card_backs/set2/blue.gif","img/card_backs/set2/orange.gif","""event"",""trial"",""time""
""fullscreenenter"",""1"",""2129""
","
","
","""event"",""trial"",""time""
""fullscreenenter"",""1"",""2129""
","
","","818.8999999761581","","","","real_trial","2021-08-28 16:29:41.459","img/card_backs/set1/purple.gif","3","100","1","",""
"casino-fixation","142","454654","0.0-25.0-0.36","143","false","img/card_backs/set1/red.gif","img/card_backs/set1/yellow.gif","img/card_backs/set1/purple.gif","img/card_backs/set1/green.gif","img/card_backs/set2/gray.gif","img/card_backs/set2/pink.gif","img/card_backs/set2/blue.gif","img/card_backs/set2/orange.gif","""event"",""trial"",""time""
""fullscreenenter"",""1"",""2129""
","
","
","""event"",""trial"",""time""
""fullscreenenter"",""1"",""2129""
","
","","null","","null","","fixation","2021-08-28 16:29:41.960","","","","","",""
"card-selection-trial","143","457104","0.0-25.0-1.36","143","false","img/card_backs/set1/red.gif","img/card_backs/set1/yellow.gif","img/card_backs/set1/purple.gif","img/card_backs/set1/green.gif","img/card_backs/set2/gray.gif","img/card_backs/set2/pink.gif","img/card_backs/set2/blue.gif","img/card_backs/set2/orange.gif","""event"",""trial"",""time""
""fullscreenenter"",""1"",""2129""
","
","
","""event"",""trial"",""time""
""fullscreenenter"",""1"",""2129""
","
","","447.3000000715256","","","","real_trial","2021-08-28 16:29:44.410","img/card_backs/set1/yellow.gif","1","-240","1","",""
"casino-fixation","144","457606","0.0-25.0-0.37","143","false","img/card_backs/set1/red.gif","img/card_backs/set1/yellow.gif","img/card_backs/set1/purple.gif","img/card_backs/set1/green.gif","img/card_backs/set2/gray.gif","img/card_backs/set2/pink.gif","img/card_backs/set2/blue.gif","img/card_backs/set2/orange.gif","""event"",""trial"",""time""
""fullscreenenter"",""1"",""2129""
","
","
","""event"",""trial"",""time""
""fullscreenenter"",""1"",""2129""
","
","","null","","null","","fixation","2021-08-28 16:29:44.912","","","","","",""
"card-selection-trial","145","462083","0.0-25.0-1.37","143","false","img/card_backs/set1/red.gif","img/card_backs/set1/yellow.gif","img/card_backs/set1/purple.gif","img/card_backs/set1/green.gif","img/card_backs/set2/gray.gif","img/card_backs/set2/pink.gif","img/card_backs/set2/blue.gif","img/card_backs/set2/orange.gif","""event"",""trial"",""time""
""fullscreenenter"",""1"",""2129""
","
","
","""event"",""trial"",""time""
""fullscreenenter"",""1"",""2129""
","
","","2474.100000023842","","","","real_trial","2021-08-28 16:29:49.389","img/card_backs/set1/red.gif","3","190","1","",""
"casino-fixation","146","462584","0.0-25.0-0.38","143","false","img/card_backs/set1/red.gif","img/card_backs/set1/yellow.gif","img/card_backs/set1/purple.gif","img/card_backs/set1/green.gif","img/card_backs/set2/gray.gif","img/card_backs/set2/pink.gif","img/card_backs/set2/blue.gif","img/card_backs/set2/orange.gif","""event"",""trial"",""time""
""fullscreenenter"",""1"",""2129""
","
","
","""event"",""trial"",""time""
""fullscreenenter"",""1"",""2129""
","
","","null","","null","","fixation","2021-08-28 16:29:49.890","","","","","",""
"card-selection-trial","147","466055","0.0-25.0-1.38","143","false","img/card_backs/set1/red.gif","img/card_backs/set1/yellow.gif","img/card_backs/set1/purple.gif","img/card_backs/set1/green.gif","img/card_backs/set2/gray.gif","img/card_backs/set2/pink.gif","img/card_backs/set2/blue.gif","img/card_backs/set2/orange.gif","""event"",""trial"",""time""
""fullscreenenter"",""1"",""2129""
","
","
","""event"",""trial"",""time""
""fullscreenenter"",""1"",""2129""
","
","","1467.3999999761581","","","","real_trial","2021-08-28 16:29:53.361","img/card_backs/set1/yellow.gif","1","-250","1","",""
"casino-fixation","148","466557","0.0-25.0-0.39","143","false","img/card_backs/set1/red.gif","img/card_backs/set1/yellow.gif","img/card_backs/set1/purple.gif","img/card_backs/set1/green.gif","img/card_backs/set2/gray.gif","img/card_backs/set2/pink.gif","img/card_backs/set2/blue.gif","img/card_backs/set2/orange.gif","""event"",""trial"",""time""
""fullscreenenter"",""1"",""2129""
","
","
","""event"",""trial"",""time""
""fullscreenenter"",""1"",""2129""
","
","","null","","null","","fixation","2021-08-28 16:29:53.863","","","","","",""
"card-selection-trial","149","469838","0.0-25.0-1.39","143","false","img/card_backs/set1/red.gif","img/card_backs/set1/yellow.gif","img/card_backs/set1/purple.gif","img/card_backs/set1/green.gif","img/card_backs/set2/gray.gif","img/card_backs/set2/pink.gif","img/card_backs/set2/blue.gif","img/card_backs/set2/orange.gif","""event"",""trial"",""time""
""fullscreenenter"",""1"",""2129""
","
","
","""event"",""trial"",""time""
""fullscreenenter"",""1"",""2129""
","
","","1277.7999999523163","","","","real_trial","2021-08-28 16:29:57.144","img/card_backs/set1/red.gif","0","-240","1","",""
"casino-fixation","150","470339","0.0-25.0-0.40","143","false","img/card_backs/set1/red.gif","img/card_backs/set1/yellow.gif","img/card_backs/set1/purple.gif","img/card_backs/set1/green.gif","img/card_backs/set2/gray.gif","img/card_backs/set2/pink.gif","img/card_backs/set2/blue.gif","img/card_backs/set2/orange.gif","""event"",""trial"",""time""
""fullscreenenter"",""1"",""2129""
","
","
","""event"",""trial"",""time""
""fullscreenenter"",""1"",""2129""
","
","","null","","null","","fixation","2021-08-28 16:29:57.645","","","","","",""
"card-selection-trial","151","473606","0.0-25.0-1.40","143","false","img/card_backs/set1/red.gif","img/card_backs/set1/yellow.gif","img/card_backs/set1/purple.gif","img/card_backs/set1/green.gif","img/card_backs/set2/gray.gif","img/card_backs/set2/pink.gif","img/card_backs/set2/blue.gif","img/card_backs/set2/orange.gif","""event"",""trial"",""time""
""fullscreenenter"",""1"",""2129""
","
","
","""event"",""trial"",""time""
""fullscreenenter"",""1"",""2129""
","
","","1263.5","","","","real_trial","2021-08-28 16:30:00.912","img/card_backs/set1/purple.gif","0","-70","1","",""
"casino-fixation","152","474108","0.0-25.0-0.41","143","false","img/card_backs/set1/red.gif","img/card_backs/set1/yellow.gif","img/card_backs/set1/purple.gif","img/card_backs/set1/green.gif","img/card_backs/set2/gray.gif","img/card_backs/set2/pink.gif","img/card_backs/set2/blue.gif","img/card_backs/set2/orange.gif","""event"",""trial"",""time""
""fullscreenenter"",""1"",""2129""
","
","
","""event"",""trial"",""time""
""fullscreenenter"",""1"",""2129""
","
","","null","","null","","fixation","2021-08-28 16:30:01.414","","","","","",""
"card-selection-trial","153","476817","0.0-25.0-1.41","143","false","img/card_backs/set1/red.gif","img/card_backs/set1/yellow.gif","img/card_backs/set1/purple.gif","img/card_backs/set1/green.gif","img/card_backs/set2/gray.gif","img/card_backs/set2/pink.gif","img/card_backs/set2/blue.gif","img/card_backs/set2/orange.gif","""event"",""trial"",""time""
""fullscreenenter"",""1"",""2129""
","
","
","""event"",""trial"",""time""
""fullscreenenter"",""1"",""2129""
","
","","706.2000000476837","","","","real_trial","2021-08-28 16:30:04.123","img/card_backs/set1/green.gif","0","-60","1","",""
"casino-fixation","154","477318","0.0-25.0-0.42","143","false","img/card_backs/set1/red.gif","img/card_backs/set1/yellow.gif","img/card_backs/set1/purple.gif","img/card_backs/set1/green.gif","img/card_backs/set2/gray.gif","img/card_backs/set2/pink.gif","img/card_backs/set2/blue.gif","img/card_backs/set2/orange.gif","""event"",""trial"",""time""
""fullscreenenter"",""1"",""2129""
","
","
","""event"",""trial"",""time""
""fullscreenenter"",""1"",""2129""
","
","","null","","null","","fixation","2021-08-28 16:30:04.624","","","","","",""
"card-selection-trial","155","480225","0.0-25.0-1.42","143","false","img/card_backs/set1/red.gif","img/card_backs/set1/yellow.gif","img/card_backs/set1/purple.gif","img/card_backs/set1/green.gif","img/card_backs/set2/gray.gif","img/card_backs/set2/pink.gif","img/card_backs/set2/blue.gif","img/card_backs/set2/orange.gif","""event"",""trial"",""time""
""fullscreenenter"",""1"",""2129""
","
","
","""event"",""trial"",""time""
""fullscreenenter"",""1"",""2129""
","
","","903.8999999761581","","","","real_trial","2021-08-28 16:30:07.531","img/card_backs/set1/red.gif","1","-230","1","",""
"casino-fixation","156","480726","0.0-25.0-0.43","143","false","img/card_backs/set1/red.gif","img/card_backs/set1/yellow.gif","img/card_backs/set1/purple.gif","img/card_backs/set1/green.gif","img/card_backs/set2/gray.gif","img/card_backs/set2/pink.gif","img/card_backs/set2/blue.gif","img/card_backs/set2/orange.gif","""event"",""trial"",""time""
""fullscreenenter"",""1"",""2129""
","
","
","""event"",""trial"",""time""
""fullscreenenter"",""1"",""2129""
","
","","null","","null","","fixation","2021-08-28 16:30:08.033","","","","","",""
"card-selection-trial","157","483842","0.0-25.0-1.43","143","false","img/card_backs/set1/red.gif","img/card_backs/set1/yellow.gif","img/card_backs/set1/purple.gif","img/card_backs/set1/green.gif","img/card_backs/set2/gray.gif","img/card_backs/set2/pink.gif","img/card_backs/set2/blue.gif","img/card_backs/set2/orange.gif","""event"",""trial"",""time""
""fullscreenenter"",""1"",""2129""
","
","
","""event"",""trial"",""time""
""fullscreenenter"",""1"",""2129""
","
","","1113.1000000238419","","","","real_trial","2021-08-28 16:30:11.148","img/card_backs/set1/yellow.gif","2","180","1","",""
"casino-fixation","158","484344","0.0-25.0-0.44","143","false","img/card_backs/set1/red.gif","img/card_backs/set1/yellow.gif","img/card_backs/set1/purple.gif","img/card_backs/set1/green.gif","img/card_backs/set2/gray.gif","img/card_backs/set2/pink.gif","img/card_backs/set2/blue.gif","img/card_backs/set2/orange.gif","""event"",""trial"",""time""
""fullscreenenter"",""1"",""2129""
","
","
","""event"",""trial"",""time""
""fullscreenenter"",""1"",""2129""
","
","","null","","null","","fixation","2021-08-28 16:30:11.650","","","","","",""
"card-selection-trial","159","487874","0.0-25.0-1.44","143","false","img/card_backs/set1/red.gif","img/card_backs/set1/yellow.gif","img/card_backs/set1/purple.gif","img/card_backs/set1/green.gif","img/card_backs/set2/gray.gif","img/card_backs/set2/pink.gif","img/card_backs/set2/blue.gif","img/card_backs/set2/orange.gif","""event"",""trial"",""time""
""fullscreenenter"",""1"",""2129""
","
","
","""event"",""trial"",""time""
""fullscreenenter"",""1"",""2129""
","
","","1526.6999999284744","","","","real_trial","2021-08-28 16:30:15.180","img/card_backs/set1/green.gif","2","110","1","",""
"casino-fixation","160","488375","0.0-25.0-0.45","143","false","img/card_backs/set1/red.gif","img/card_backs/set1/yellow.gif","img/card_backs/set1/purple.gif","img/card_backs/set1/green.gif","img/card_backs/set2/gray.gif","img/card_backs/set2/pink.gif","img/card_backs/set2/blue.gif","img/card_backs/set2/orange.gif","""event"",""trial"",""time""
""fullscreenenter"",""1"",""2129""
","
","
","""event"",""trial"",""time""
""fullscreenenter"",""1"",""2129""
","
","","null","","null","","fixation","2021-08-28 16:30:15.681","","","","","",""
"card-selection-trial","161","491704","0.0-25.0-1.45","143","false","img/card_backs/set1/red.gif","img/card_backs/set1/yellow.gif","img/card_backs/set1/purple.gif","img/card_backs/set1/green.gif","img/card_backs/set2/gray.gif","img/card_backs/set2/pink.gif","img/card_backs/set2/blue.gif","img/card_backs/set2/orange.gif","""event"",""trial"",""time""
""fullscreenenter"",""1"",""2129""
","
","
","""event"",""trial"",""time""
""fullscreenenter"",""1"",""2129""
","
","","1323.8999999761581","","","","real_trial","2021-08-28 16:30:19.010","img/card_backs/set1/green.gif","1","120","1","",""
"casino-fixation","162","492205","0.0-25.0-0.46","143","false","img/card_backs/set1/red.gif","img/card_backs/set1/yellow.gif","img/card_backs/set1/purple.gif","img/card_backs/set1/green.gif","img/card_backs/set2/gray.gif","img/card_backs/set2/pink.gif","img/card_backs/set2/blue.gif","img/card_backs/set2/orange.gif","""event"",""trial"",""time""
""fullscreenenter"",""1"",""2129""
","
","
","""event"",""trial"",""time""
""fullscreenenter"",""1"",""2129""
","
","","null","","null","","fixation","2021-08-28 16:30:19.511","","","","","",""
"card-selection-trial","163","495059","0.0-25.0-1.46","143","false","img/card_backs/set1/red.gif","img/card_backs/set1/yellow.gif","img/card_backs/set1/purple.gif","img/card_backs/set1/green.gif","img/card_backs/set2/gray.gif","img/card_backs/set2/pink.gif","img/card_backs/set2/blue.gif","img/card_backs/set2/orange.gif","""event"",""trial"",""time""
""fullscreenenter"",""1"",""2129""
","
","
","""event"",""trial"",""time""
""fullscreenenter"",""1"",""2129""
","
","","850.6000000238419","","","","real_trial","2021-08-28 16:30:22.365","img/card_backs/set1/yellow.gif","2","190","1","",""
"casino-fixation","164","495572","0.0-25.0-0.47","143","false","img/card_backs/set1/red.gif","img/card_backs/set1/yellow.gif","img/card_backs/set1/purple.gif","img/card_backs/set1/green.gif","img/card_backs/set2/gray.gif","img/card_backs/set2/pink.gif","img/card_backs/set2/blue.gif","img/card_backs/set2/orange.gif","""event"",""trial"",""time""
""fullscreenenter"",""1"",""2129""
","
","
","""event"",""trial"",""time""
""fullscreenenter"",""1"",""2129""
","
","","null","","null","","fixation","2021-08-28 16:30:22.878","","","","","",""
"card-selection-trial","165","497898","0.0-25.0-1.47","143","false","img/card_backs/set1/red.gif","img/card_backs/set1/yellow.gif","img/card_backs/set1/purple.gif","img/card_backs/set1/green.gif","img/card_backs/set2/gray.gif","img/card_backs/set2/pink.gif","img/card_backs/set2/blue.gif","img/card_backs/set2/orange.gif","""event"",""trial"",""time""
""fullscreenenter"",""1"",""2129""
","
","
","""event"",""trial"",""time""
""fullscreenenter"",""1"",""2129""
","
","","322.2999999523163","","","","real_trial","2021-08-28 16:30:25.204","img/card_backs/set1/green.gif","1","100","1","",""
"casino-fixation","166","498413","0.0-25.0-0.48","143","false","img/card_backs/set1/red.gif","img/card_backs/set1/yellow.gif","img/card_backs/set1/purple.gif","img/card_backs/set1/green.gif","img/card_backs/set2/gray.gif","img/card_backs/set2/pink.gif","img/card_backs/set2/blue.gif","img/card_backs/set2/orange.gif","""event"",""trial"",""time""
""fullscreenenter"",""1"",""2129""
","
","
","""event"",""trial"",""time""
""fullscreenenter"",""1"",""2129""
","
","","null","","null","","fixation","2021-08-28 16:30:25.719","","","","","",""
"card-selection-trial","167","501367","0.0-25.0-1.48","143","false","img/card_backs/set1/red.gif","img/card_backs/set1/yellow.gif","img/card_backs/set1/purple.gif","img/card_backs/set1/green.gif","img/card_backs/set2/gray.gif","img/card_backs/set2/pink.gif","img/card_backs/set2/blue.gif","img/card_backs/set2/orange.gif","""event"",""trial"",""time""
""fullscreenenter"",""1"",""2129""
","
","
","""event"",""trial"",""time""
""fullscreenenter"",""1"",""2129""
","
