"trial_type","trial_index","time_elapsed","internal_node_id","sub_id","risk_good_first","block1_A","block1_B","block1_C","block1_D","block2_A","block2_B","block2_C","block2_D","interactions","blur_events","focus_events","fullscreenenter_events","fullscreenexit_events","success","rt","stimulus","key_press","button_pressed","task_part","timestamp","card_choice","choice_position","points_earned","block","correct","response"
"pavlovia","0","5","0.0-0.0","1119","false","img/card_backs/set1/purple.gif","img/card_backs/set1/green.gif","img/card_backs/set1/red.gif","img/card_backs/set1/yellow.gif","img/card_backs/set2/orange.gif","img/card_backs/set2/gray.gif","img/card_backs/set2/pink.gif","img/card_backs/set2/blue.gif","""event"",""trial"",""time""
""fullscreenenter"",""1"",""9943""
","
","
","""event"",""trial"",""time""
""fullscreenenter"",""1"",""9943""
","
","","","","","","","","","","","","",""
"fullscreen","1","10822","0.0-1.0","1119","false","img/card_backs/set1/purple.gif","img/card_backs/set1/green.gif","img/card_backs/set1/red.gif","img/card_backs/set1/yellow.gif","img/card_backs/set2/orange.gif","img/card_backs/set2/gray.gif","img/card_backs/set2/pink.gif","img/card_backs/set2/blue.gif","""event"",""trial"",""time""
""fullscreenenter"",""1"",""9943""
","
","
","""event"",""trial"",""time""
""fullscreenenter"",""1"",""9943""
","
","true","","","","","","","","","","","",""
"audio-keyboard-response","2","13726","0.0-2.0","1119","false","img/card_backs/set1/purple.gif","img/card_backs/set1/green.gif","img/card_backs/set1/red.gif","img/card_backs/set1/yellow.gif","img/card_backs/set2/orange.gif","img/card_backs/set2/gray.gif","img/card_backs/set2/pink.gif","img/card_backs/set2/blue.gif","""event"",""trial"",""time""
""fullscreenenter"",""1"",""9943""
","
","
","""event"",""trial"",""time""
""fullscreenenter"",""1"",""9943""
","
","","2781","audio/beep_loop.wav","32","","","","","","","","",""
"audio-button-response","3","16524","0.0-3.0","1119","false","img/card_backs/set1/purple.gif","img/card_backs/set1/green.gif","img/card_backs/set1/red.gif","img/card_backs/set1/yellow.gif","img/card_backs/set2/orange.gif","img/card_backs/set2/gray.gif","img/card_backs/set2/pink.gif","img/card_backs/set2/blue.gif","""event"",""trial"",""time""
""fullscreenenter"",""1"",""9943""
","
","
","""event"",""trial"",""time""
""fullscreenenter"",""1"",""9943""
","
","","NaN","audio/turtle.mp3","","3","","","","","","","",""
"audio-button-response","4","18651","0.0-4.0","1119","false","img/card_backs/set1/purple.gif","img/card_backs/set1/green.gif","img/card_backs/set1/red.gif","img/card_backs/set1/yellow.gif","img/card_backs/set2/orange.gif","img/card_backs/set2/gray.gif","img/card_backs/set2/pink.gif","img/card_backs/set2/blue.gif","""event"",""trial"",""time""
""fullscreenenter"",""1"",""9943""
","
","
","""event"",""trial"",""time""
""fullscreenenter"",""1"",""9943""
","
","","NaN","audio/shark.mp3","","2","","","","","","","",""
"fullscreen","5","21844","0.0-5.0","1119","false","img/card_backs/set1/purple.gif","img/card_backs/set1/green.gif","img/card_backs/set1/red.gif","img/card_backs/set1/yellow.gif","img/card_backs/set2/orange.gif","img/card_backs/set2/gray.gif","img/card_backs/set2/pink.gif","img/card_backs/set2/blue.gif","""event"",""trial"",""time""
""fullscreenenter"",""1"",""9943""
","
","
","""event"",""trial"",""time""
""fullscreenenter"",""1"",""9943""
","
","true","","","","","","","","","","","",""
"casino-keyboard-response","6","25243","0.0-6.0-0.0","1119","false","img/card_backs/set1/purple.gif","img/card_backs/set1/green.gif","img/card_backs/set1/red.gif","img/card_backs/set1/yellow.gif","img/card_backs/set2/orange.gif","img/card_backs/set2/gray.gif","img/card_backs/set2/pink.gif","img/card_backs/set2/blue.gif","""event"",""trial"",""time""
""fullscreenenter"",""1"",""9943""
","
","
","""event"",""trial"",""time""
""fullscreenenter"",""1"",""9943""
","
","","3396.10000000149","Welcome to the casino!","71","","instructions","2021-08-31 02:30:53.416","","","","","",""
"casino-keyboard-response","7","34728","0.0-6.0-0.1","1119","false","img/card_backs/set1/purple.gif","img/card_backs/set1/green.gif","img/card_backs/set1/red.gif","img/card_backs/set1/yellow.gif","img/card_backs/set2/orange.gif","img/card_backs/set2/gray.gif","img/card_backs/set2/pink.gif","img/card_backs/set2/blue.gif","""event"",""trial"",""time""
""fullscreenenter"",""1"",""9943""
","
","
","""event"",""trial"",""time""
""fullscreenenter"",""1"",""9943""
","
","","9483.800000000745","Today you will be playing a game to earn tokens. </br> At the end of the experiment, you will be paid a bonus based on how many tokens you win. ","69","","instructions","2021-08-31 02:31:02.901","","","","","",""
"casino-keyboard-response","8","42564","0.0-6.0-0.2","1119","false","img/card_backs/set1/purple.gif","img/card_backs/set1/green.gif","img/card_backs/set1/red.gif","img/card_backs/set1/yellow.gif","img/card_backs/set2/orange.gif","img/card_backs/set2/gray.gif","img/card_backs/set2/pink.gif","img/card_backs/set2/blue.gif","""event"",""trial"",""time""
""fullscreenenter"",""1"",""9943""
","
","
","""event"",""trial"",""time""
""fullscreenenter"",""1"",""9943""
","
","","7834.89999999851","On every turn, you will be shown four different decks of cards. </br> You need to select a card from one of the four decks.  ","75","","instructions","2021-08-31 02:31:10.737","","","","","",""
"casino-keyboard-response","9","47056","0.0-6.0-0.3","1119","false","img/card_backs/set1/purple.gif","img/card_backs/set1/green.gif","img/card_backs/set1/red.gif","img/card_backs/set1/yellow.gif","img/card_backs/set2/orange.gif","img/card_backs/set2/gray.gif","img/card_backs/set2/pink.gif","img/card_backs/set2/blue.gif","""event"",""trial"",""time""
""fullscreenenter"",""1"",""9943""
","
","
","""event"",""trial"",""time""
""fullscreenenter"",""1"",""9943""
","
","","4490.300000000745","On the next screen, you will see what the decks will look like. ","66","","instructions","2021-08-31 02:31:15.229","","","","","",""
"card-selection-trial","10","51060","0.0-7.0-0.0","1119","false","img/card_backs/set1/purple.gif","img/card_backs/set1/green.gif","img/card_backs/set1/red.gif","img/card_backs/set1/yellow.gif","img/card_backs/set2/orange.gif","img/card_backs/set2/gray.gif","img/card_backs/set2/pink.gif","img/card_backs/set2/blue.gif","""event"",""trial"",""time""
""fullscreenenter"",""1"",""9943""
","
","
","""event"",""trial"",""time""
""fullscreenenter"",""1"",""9943""
","
","","null","","","","practice","2021-08-31 02:31:19.233","null","null","null","0","",""
"casino-keyboard-response","11","58447","0.0-8.0-0.0","1119","false","img/card_backs/set1/purple.gif","img/card_backs/set1/green.gif","img/card_backs/set1/red.gif","img/card_backs/set1/yellow.gif","img/card_backs/set2/orange.gif","img/card_backs/set2/gray.gif","img/card_backs/set2/pink.gif","img/card_backs/set2/blue.gif","""event"",""trial"",""time""
""fullscreenenter"",""1"",""9943""
","
","
","""event"",""trial"",""time""
""fullscreenenter"",""1"",""9943""
","
","","7385.599999997765","You should pick a card from a deck using the '2', '4', '6', and '8' keys at the top of the keyboard.","85","","instructions","2021-08-31 02:31:26.620","","","","","",""
"casino-keyboard-response","12","63892","0.0-8.0-0.1","1119","false","img/card_backs/set1/purple.gif","img/card_backs/set1/green.gif","img/card_backs/set1/red.gif","img/card_backs/set1/yellow.gif","img/card_backs/set2/orange.gif","img/card_backs/set2/gray.gif","img/card_backs/set2/pink.gif","img/card_backs/set2/blue.gif","""event"",""trial"",""time""
""fullscreenenter"",""1"",""9943""
","
","
","""event"",""trial"",""time""
""fullscreenenter"",""1"",""9943""
","
","","5444.39999999851","Once you select a card, it will turn over and you will see how many tokens you earned.","83","","instructions","2021-08-31 02:31:32.065","","","","","",""
"casino-keyboard-response","13","78819","0.0-8.0-0.2","1119","false","img/card_backs/set1/purple.gif","img/card_backs/set1/green.gif","img/card_backs/set1/red.gif","img/card_backs/set1/yellow.gif","img/card_backs/set2/orange.gif","img/card_backs/set2/gray.gif","img/card_backs/set2/pink.gif","img/card_backs/set2/blue.gif","""event"",""trial"",""time""
""fullscreenenter"",""1"",""9943""
","
","
","""event"",""trial"",""time""
""fullscreenenter"",""1"",""9943""
","
","","14926.10000000149","Let's try practicing that! </br> First, try to put your fingers over the '2', '4', '6', and '8' keys. </br>  You can use whatever fingers are most comfortable for you. Try to find a comfortable position now. ","50","","instructions","2021-08-31 02:31:46.992","","","","","",""
"casino-keyboard-response","14","84433","0.0-8.0-0.3","1119","false","img/card_backs/set1/purple.gif","img/card_backs/set1/green.gif","img/card_backs/set1/red.gif","img/card_backs/set1/yellow.gif","img/card_backs/set2/orange.gif","img/card_backs/set2/gray.gif","img/card_backs/set2/pink.gif","img/card_backs/set2/blue.gif","""event"",""trial"",""time""
""fullscreenenter"",""1"",""9943""
","
","
","""event"",""trial"",""time""
""fullscreenenter"",""1"",""9943""
","
","","5612.900000002235","Okay ready? </br> On the next screen, press '2' to select the left deck. ","50","","instructions","2021-08-31 02:31:52.606","","","","","",""
"card-selection-trial","15","88739","0.0-9.0-0.0","1119","false","img/card_backs/set1/purple.gif","img/card_backs/set1/green.gif","img/card_backs/set1/red.gif","img/card_backs/set1/yellow.gif","img/card_backs/set2/orange.gif","img/card_backs/set2/gray.gif","img/card_backs/set2/pink.gif","img/card_backs/set2/blue.gif","""event"",""trial"",""time""
""fullscreenenter"",""1"",""9943""
","
","
","""event"",""trial"",""time""
""fullscreenenter"",""1"",""9943""
","
","","2295.400000002235","","","","practice_card_selection","2021-08-31 02:31:56.912","img/practice_cards/backs/brown.gif","0","-100","","",""
"casino-keyboard-response","16","94307","0.0-10.0-0.0","1119","false","img/card_backs/set1/purple.gif","img/card_backs/set1/green.gif","img/card_backs/set1/red.gif","img/card_backs/set1/yellow.gif","img/card_backs/set2/orange.gif","img/card_backs/set2/gray.gif","img/card_backs/set2/pink.gif","img/card_backs/set2/blue.gif","""event"",""trial"",""time""
""fullscreenenter"",""1"",""9943""
","
","
","""event"",""trial"",""time""
""fullscreenenter"",""1"",""9943""
","
","","5566.800000000745","Great! Now on the next screen, try pressing '6' to select the third deck.","54","","instructions","2021-08-31 02:32:02.480","","","","","",""
"card-selection-trial","17","97051","0.0-11.0-0.0","1119","false","img/card_backs/set1/purple.gif","img/card_backs/set1/green.gif","img/card_backs/set1/red.gif","img/card_backs/set1/yellow.gif","img/card_backs/set2/orange.gif","img/card_backs/set2/gray.gif","img/card_backs/set2/pink.gif","img/card_backs/set2/blue.gif","""event"",""trial"",""time""
""fullscreenenter"",""1"",""9943""
","
","
","""event"",""trial"",""time""
""fullscreenenter"",""1"",""9943""
","
","","738.7000000029802","","","","practice_card_selection","2021-08-31 02:32:05.224","img/practice_cards/backs/brown.gif","2","-100","","",""
"casino-keyboard-response","18","101887","0.0-12.0-0.0","1119","false","img/card_backs/set1/purple.gif","img/card_backs/set1/green.gif","img/card_backs/set1/red.gif","img/card_backs/set1/yellow.gif","img/card_backs/set2/orange.gif","img/card_backs/set2/gray.gif","img/card_backs/set2/pink.gif","img/card_backs/set2/blue.gif","""event"",""trial"",""time""
""fullscreenenter"",""1"",""9943""
","
","
","""event"",""trial"",""time""
""fullscreenenter"",""1"",""9943""
","
","","4834.900000002235","Now on the next screen, try pressing '4' to select the second deck.","52","","instructions","2021-08-31 02:32:10.060","","","","","",""
"card-selection-trial","19","104806","0.0-13.0-0.0","1119","false","img/card_backs/set1/purple.gif","img/card_backs/set1/green.gif","img/card_backs/set1/red.gif","img/card_backs/set1/yellow.gif","img/card_backs/set2/orange.gif","img/card_backs/set2/gray.gif","img/card_backs/set2/pink.gif","img/card_backs/set2/blue.gif","""event"",""trial"",""time""
""fullscreenenter"",""1"",""9943""
","
","
","""event"",""trial"",""time""
""fullscreenenter"",""1"",""9943""
","
","","909.0999999977648","","","","practice_card_selection","2021-08-31 02:32:12.979","img/practice_cards/backs/dark_blue.gif","1","200","","",""
"casino-keyboard-response","20","109649","0.0-14.0-0.0","1119","false","img/card_backs/set1/purple.gif","img/card_backs/set1/green.gif","img/card_backs/set1/red.gif","img/card_backs/set1/yellow.gif","img/card_backs/set2/orange.gif","img/card_backs/set2/gray.gif","img/card_backs/set2/pink.gif","img/card_backs/set2/blue.gif","""event"",""trial"",""time""
""fullscreenenter"",""1"",""9943""
","
","
","""event"",""trial"",""time""
""fullscreenenter"",""1"",""9943""
","
","","4842.199999999255","Finally, try pressing '8' to select the deck all the way on the right.","56","","instructions","2021-08-31 02:32:17.822","","","","","",""
"card-selection-trial","21","112355","0.0-15.0-0.0","1119","false","img/card_backs/set1/purple.gif","img/card_backs/set1/green.gif","img/card_backs/set1/red.gif","img/card_backs/set1/yellow.gif","img/card_backs/set2/orange.gif","img/card_backs/set2/gray.gif","img/card_backs/set2/pink.gif","img/card_backs/set2/blue.gif","""event"",""trial"",""time""
""fullscreenenter"",""1"",""9943""
","
","
","""event"",""trial"",""time""
""fullscreenenter"",""1"",""9943""
","
","","700.1999999992549","","","","practice_card_selection","2021-08-31 02:32:20.528","img/practice_cards/backs/dark_blue.gif","3","200","","",""
"casino-keyboard-response","22","117628","0.0-16.0-0.0","1119","false","img/card_backs/set1/purple.gif","img/card_backs/set1/green.gif","img/card_backs/set1/red.gif","img/card_backs/set1/yellow.gif","img/card_backs/set2/orange.gif","img/card_backs/set2/gray.gif","img/card_backs/set2/pink.gif","img/card_backs/set2/blue.gif","""event"",""trial"",""time""
""fullscreenenter"",""1"",""9943""
","
","
","""event"",""trial"",""time""
""fullscreenenter"",""1"",""9943""
","
","","5272.199999999255","Great! It seems like you are getting the hang of this.","80","","instructions","2021-08-31 02:32:25.801","","","","","",""
"casino-keyboard-response","23","125597","0.0-16.0-0.1","1119","false","img/card_backs/set1/purple.gif","img/card_backs/set1/green.gif","img/card_backs/set1/red.gif","img/card_backs/set1/yellow.gif","img/card_backs/set2/orange.gif","img/card_backs/set2/gray.gif","img/card_backs/set2/pink.gif","img/card_backs/set2/blue.gif","""event"",""trial"",""time""
""fullscreenenter"",""1"",""9943""
","
","
","""event"",""trial"",""time""
""fullscreenenter"",""1"",""9943""
","
","","7967.699999999255","You may have noticed that some cards will cause you to <b> win </b> tokens while other cards will cause you to <b> lose </b>  tokens.","70","","instructions","2021-08-31 02:32:33.770","","","","","",""
"casino-keyboard-response","24","137006","0.0-16.0-0.2","1119","false","img/card_backs/set1/purple.gif","img/card_backs/set1/green.gif","img/card_backs/set1/red.gif","img/card_backs/set1/yellow.gif","img/card_backs/set2/orange.gif","img/card_backs/set2/gray.gif","img/card_backs/set2/pink.gif","img/card_backs/set2/blue.gif","""event"",""trial"",""time""
""fullscreenenter"",""1"",""9943""
","
","
","""event"",""trial"",""time""
""fullscreenenter"",""1"",""9943""
","
","","11407","Each deck has a mix of cards that will cause you to win and lose tokens. </br> However, the cards in each colored deck are different.","73","","instructions","2021-08-31 02:32:45.179","","","","","",""
"casino-keyboard-response","25","145748","0.0-16.0-0.3","1119","false","img/card_backs/set1/purple.gif","img/card_backs/set1/green.gif","img/card_backs/set1/red.gif","img/card_backs/set1/yellow.gif","img/card_backs/set2/orange.gif","img/card_backs/set2/gray.gif","img/card_backs/set2/pink.gif","img/card_backs/set2/blue.gif","""event"",""trial"",""time""
""fullscreenenter"",""1"",""9943""
","
","
","""event"",""trial"",""time""
""fullscreenenter"",""1"",""9943""
","
","","8741.800000000745","Some colored decks are luckier than others. </br> If you choose the lucky decks, you will earn more tokens than if you choose the unlucky decks.","69","","instructions","2021-08-31 02:32:53.921","","","","","",""
"casino-keyboard-response","26","153208","0.0-16.0-0.4","1119","false","img/card_backs/set1/purple.gif","img/card_backs/set1/green.gif","img/card_backs/set1/red.gif","img/card_backs/set1/yellow.gif","img/card_backs/set2/orange.gif","img/card_backs/set2/gray.gif","img/card_backs/set2/pink.gif","img/card_backs/set2/blue.gif","""event"",""trial"",""time""
""fullscreenenter"",""1"",""9943""
","
","
","""event"",""trial"",""time""
""fullscreenenter"",""1"",""9943""
","
","","7459","You should try to figure out which decks are lucky. </br> Then, try to choose the lucky decks so you can win the most tokens.","87","","instructions","2021-08-31 02:33:01.381","","","","","",""
"casino-keyboard-response","27","164497","0.0-16.0-0.5","1119","false","img/card_backs/set1/purple.gif","img/card_backs/set1/green.gif","img/card_backs/set1/red.gif","img/card_backs/set1/yellow.gif","img/card_backs/set2/orange.gif","img/card_backs/set2/gray.gif","img/card_backs/set2/pink.gif","img/card_backs/set2/blue.gif","""event"",""trial"",""time""
""fullscreenenter"",""1"",""9943""
","
","
","""event"",""trial"",""time""
""fullscreenenter"",""1"",""9943""
","
","","11288","To make it trickier, the casino dealer will switch the locations of the decks on every turn. </br> The color of the deck determines how lucky it is. The location does not matter.","88","","instructions","2021-08-31 02:33:12.670","","","","","",""
"casino-keyboard-response","28","174343","0.0-16.0-0.6","1119","false","img/card_backs/set1/purple.gif","img/card_backs/set1/green.gif","img/card_backs/set1/red.gif","img/card_backs/set1/yellow.gif","img/card_backs/set2/orange.gif","img/card_backs/set2/gray.gif","img/card_backs/set2/pink.gif","img/card_backs/set2/blue.gif","""event"",""trial"",""time""
""fullscreenenter"",""1"",""9943""
","
","
","""event"",""trial"",""time""
""fullscreenenter"",""1"",""9943""
","
","","9844.60000000149","The mix of cards in each colored deck will stay the same throughout the game. </br> That means that a deck that is lucky early on will stay lucky.","79","","instructions","2021-08-31 02:33:22.516","","","","","",""
"casino-keyboard-response","29","182388","0.0-16.0-0.7","1119","false","img/card_backs/set1/purple.gif","img/card_backs/set1/green.gif","img/card_backs/set1/red.gif","img/card_backs/set1/yellow.gif","img/card_backs/set2/orange.gif","img/card_backs/set2/gray.gif","img/card_backs/set2/pink.gif","img/card_backs/set2/blue.gif","""event"",""trial"",""time""
""fullscreenenter"",""1"",""9943""
","
","
","""event"",""trial"",""time""
""fullscreenenter"",""1"",""9943""
","
","","8044.800000000745","Remember though, all the decks have a <b> mix </b> of both <b> good </b> and <b> bad </b> cards so it may take a couple of turns to figure out if a deck is lucky.","69","","instructions","2021-08-31 02:33:30.561","","","","","",""
"casino-keyboard-response","30","190705","0.0-16.0-0.8","1119","false","img/card_backs/set1/purple.gif","img/card_backs/set1/green.gif","img/card_backs/set1/red.gif","img/card_backs/set1/yellow.gif","img/card_backs/set2/orange.gif","img/card_backs/set2/gray.gif","img/card_backs/set2/pink.gif","img/card_backs/set2/blue.gif","""event"",""trial"",""time""
""fullscreenenter"",""1"",""9943""
","
","
","""event"",""trial"",""time""
""fullscreenenter"",""1"",""9943""
","
","","8315.10000000149","At the end of the game, you will be paid bonus money based on how many tokens you win. </br> If you win more tokens, you will earn more money!","72","","instructions","2021-08-31 02:33:38.878","","","","","",""
"casino-keyboard-response","31","200883","0.0-16.0-0.9","1119","false","img/card_backs/set1/purple.gif","img/card_backs/set1/green.gif","img/card_backs/set1/red.gif","img/card_backs/set1/yellow.gif","img/card_backs/set2/orange.gif","img/card_backs/set2/gray.gif","img/card_backs/set2/pink.gif","img/card_backs/set2/blue.gif","""event"",""trial"",""time""
""fullscreenenter"",""1"",""9943""
","
","
","""event"",""trial"",""time""
""fullscreenenter"",""1"",""9943""
","
","","10177.39999999851","You will never <b> lose </b> money. </br> If you end up with fewer than 0 tokens, you will earn $0 of bonus money, but you will still be paid for playing the game.","83","","instructions","2021-08-31 02:33:49.056","","","","","",""
"casino-keyboard-response","32","204967","0.0-16.0-0.10","1119","false","img/card_backs/set1/purple.gif","img/card_backs/set1/green.gif","img/card_backs/set1/red.gif","img/card_backs/set1/yellow.gif","img/card_backs/set2/orange.gif","img/card_backs/set2/gray.gif","img/card_backs/set2/pink.gif","img/card_backs/set2/blue.gif","""event"",""trial"",""time""
""fullscreenenter"",""1"",""9943""
","
","
","""event"",""trial"",""time""
""fullscreenenter"",""1"",""9943""
","
","","4082.900000002235","You will have 10 seconds to make each choice.","82","","instructions","2021-08-31 02:33:53.140","","","","","",""
"casino-keyboard-response","33","213147","0.0-16.0-0.11","1119","false","img/card_backs/set1/purple.gif","img/card_backs/set1/green.gif","img/card_backs/set1/red.gif","img/card_backs/set1/yellow.gif","img/card_backs/set2/orange.gif","img/card_backs/set2/gray.gif","img/card_backs/set2/pink.gif","img/card_backs/set2/blue.gif","""event"",""trial"",""time""
""fullscreenenter"",""1"",""9943""
","
","
","""event"",""trial"",""time""
""fullscreenenter"",""1"",""9943""
","
","","8177.89999999851","Before you play the game for real, you will play with practice decks. </br> The tokens you earn during practice won't count toward your total.","86","","instructions","2021-08-31 02:34:01.320","","","","","",""
"casino-keyboard-response","34","224195","0.0-16.0-0.12","1119","false","img/card_backs/set1/purple.gif","img/card_backs/set1/green.gif","img/card_backs/set1/red.gif","img/card_backs/set1/yellow.gif","img/card_backs/set2/orange.gif","img/card_backs/set2/gray.gif","img/card_backs/set2/pink.gif","img/card_backs/set2/blue.gif","""event"",""trial"",""time""
""fullscreenenter"",""1"",""9943""
","
","
","""event"",""trial"",""time""
""fullscreenenter"",""1"",""9943""
","
","","11046.70000000298","Ready? Remember, use the '2', '4', '6', and '8' keys to select the decks. </br> Put your fingers on those keys now and then press '2' to begin.","50","","instructions","2021-08-31 02:34:12.368","","","","","",""
"casino-fixation","35","224700","0.0-17.0-0.0","1119","false","img/card_backs/set1/purple.gif","img/card_backs/set1/green.gif","img/card_backs/set1/red.gif","img/card_backs/set1/yellow.gif","img/card_backs/set2/orange.gif","img/card_backs/set2/gray.gif","img/card_backs/set2/pink.gif","img/card_backs/set2/blue.gif","""event"",""trial"",""time""
""fullscreenenter"",""1"",""9943""
","
","
","""event"",""trial"",""time""
""fullscreenenter"",""1"",""9943""
","
","","null","","null","","fixation","2021-08-31 02:34:12.873","","","","","",""
"card-selection-trial","36","230346","0.0-17.0-1.0","1119","false","img/card_backs/set1/purple.gif","img/card_backs/set1/green.gif","img/card_backs/set1/red.gif","img/card_backs/set1/yellow.gif","img/card_backs/set2/orange.gif","img/card_backs/set2/gray.gif","img/card_backs/set2/pink.gif","img/card_backs/set2/blue.gif","""event"",""trial"",""time""
""fullscreenenter"",""1"",""9943""
","
","
","""event"",""trial"",""time""
""fullscreenenter"",""1"",""9943""
","
","","3638.5","","","","practice","2021-08-31 02:34:18.519","img/practice_cards/backs/brown.gif","1","-100","0","",""
"casino-fixation","37","230851","0.0-17.0-0.1","1119","false","img/card_backs/set1/purple.gif","img/card_backs/set1/green.gif","img/card_backs/set1/red.gif","img/card_backs/set1/yellow.gif","img/card_backs/set2/orange.gif","img/card_backs/set2/gray.gif","img/card_backs/set2/pink.gif","img/card_backs/set2/blue.gif","""event"",""trial"",""time""
""fullscreenenter"",""1"",""9943""
","
","
","""event"",""trial"",""time""
""fullscreenenter"",""1"",""9943""
","
","","null","","null","","fixation","2021-08-31 02:34:19.024","","","","","",""
"card-selection-trial","38","237532","0.0-17.0-1.1","1119","false","img/card_backs/set1/purple.gif","img/card_backs/set1/green.gif","img/card_backs/set1/red.gif","img/card_backs/set1/yellow.gif","img/card_backs/set2/orange.gif","img/card_backs/set2/gray.gif","img/card_backs/set2/pink.gif","img/card_backs/set2/blue.gif","""event"",""trial"",""time""
""fullscreenenter"",""1"",""9943""
","
","
","""event"",""trial"",""time""
""fullscreenenter"",""1"",""9943""
","
","","4673.199999999255","","","","practice","2021-08-31 02:34:25.705","img/practice_cards/backs/black.gif","2","100","0","",""
"casino-fixation","39","238037","0.0-17.0-0.2","1119","false","img/card_backs/set1/purple.gif","img/card_backs/set1/green.gif","img/card_backs/set1/red.gif","img/card_backs/set1/yellow.gif","img/card_backs/set2/orange.gif","img/card_backs/set2/gray.gif","img/card_backs/set2/pink.gif","img/card_backs/set2/blue.gif","""event"",""trial"",""time""
""fullscreenenter"",""1"",""9943""
","
","
","""event"",""trial"",""time""
""fullscreenenter"",""1"",""9943""
","
","","null","","null","","fixation","2021-08-31 02:34:26.210","","","","","",""
"card-selection-trial","40","241317","0.0-17.0-1.2","1119","false","img/card_backs/set1/purple.gif","img/card_backs/set1/green.gif","img/card_backs/set1/red.gif","img/card_backs/set1/yellow.gif","img/card_backs/set2/orange.gif","img/card_backs/set2/gray.gif","img/card_backs/set2/pink.gif","img/card_backs/set2/blue.gif","""event"",""trial"",""time""
""fullscreenenter"",""1"",""9943""
","
","
","""event"",""trial"",""time""
""fullscreenenter"",""1"",""9943""
","
","","1272.8999999985099","","","","practice","2021-08-31 02:34:29.490","img/practice_cards/backs/dark_green.gif","3","200","0","",""
"casino-fixation","41","241822","0.0-17.0-0.3","1119","false","img/card_backs/set1/purple.gif","img/card_backs/set1/green.gif","img/card_backs/set1/red.gif","img/card_backs/set1/yellow.gif","img/card_backs/set2/orange.gif","img/card_backs/set2/gray.gif","img/card_backs/set2/pink.gif","img/card_backs/set2/blue.gif","""event"",""trial"",""time""
""fullscreenenter"",""1"",""9943""
","
","
","""event"",""trial"",""time""
""fullscreenenter"",""1"",""9943""
","
","","null","","null","","fixation","2021-08-31 02:34:29.995","","","","","",""
"card-selection-trial","42","244701","0.0-17.0-1.3","1119","false","img/card_backs/set1/purple.gif","img/card_backs/set1/green.gif","img/card_backs/set1/red.gif","img/card_backs/set1/yellow.gif","img/card_backs/set2/orange.gif","img/card_backs/set2/gray.gif","img/card_backs/set2/pink.gif","img/card_backs/set2/blue.gif","""event"",""trial"",""time""
""fullscreenenter"",""1"",""9943""
","
","
","""event"",""trial"",""time""
""fullscreenenter"",""1"",""9943""
","
","","875.1000000014901","","","","practice","2021-08-31 02:34:32.874","img/practice_cards/backs/brown.gif","0","-100","0","",""
"casino-fixation","43","245206","0.0-17.0-0.4","1119","false","img/card_backs/set1/purple.gif","img/card_backs/set1/green.gif","img/card_backs/set1/red.gif","img/card_backs/set1/yellow.gif","img/card_backs/set2/orange.gif","img/card_backs/set2/gray.gif","img/card_backs/set2/pink.gif","img/card_backs/set2/blue.gif","""event"",""trial"",""time""
""fullscreenenter"",""1"",""9943""
","
","
","""event"",""trial"",""time""
""fullscreenenter"",""1"",""9943""
","
","","null","","null","","fixation","2021-08-31 02:34:33.379","","","","","",""
"card-selection-trial","44","247702","0.0-17.0-1.4","1119","false","img/card_backs/set1/purple.gif","img/card_backs/set1/green.gif","img/card_backs/set1/red.gif","img/card_backs/set1/yellow.gif","img/card_backs/set2/orange.gif","img/card_backs/set2/gray.gif","img/card_backs/set2/pink.gif","img/card_backs/set2/blue.gif","""event"",""trial"",""time""
""fullscreenenter"",""1"",""9943""
","
","
","""event"",""trial"",""time""
""fullscreenenter"",""1"",""9943""
","
","","486.5","","","","practice","2021-08-31 02:34:35.875","img/practice_cards/backs/black.gif","3","-100","0","",""
"casino-fixation","45","248207","0.0-17.0-0.5","1119","false","img/card_backs/set1/purple.gif","img/card_backs/set1/green.gif","img/card_backs/set1/red.gif","img/card_backs/set1/yellow.gif","img/card_backs/set2/orange.gif","img/card_backs/set2/gray.gif","img/card_backs/set2/pink.gif","img/card_backs/set2/blue.gif","""event"",""trial"",""time""
""fullscreenenter"",""1"",""9943""
","
","
","""event"",""trial"",""time""
""fullscreenenter"",""1"",""9943""
","
","","null","","null","","fixation","2021-08-31 02:34:36.380","","","","","",""
"card-selection-trial","46","251585","0.0-17.0-1.5","1119","false","img/card_backs/set1/purple.gif","img/card_backs/set1/green.gif","img/card_backs/set1/red.gif","img/card_backs/set1/yellow.gif","img/card_backs/set2/orange.gif","img/card_backs/set2/gray.gif","img/card_backs/set2/pink.gif","img/card_backs/set2/blue.gif","""event"",""trial"",""time""
""fullscreenenter"",""1"",""9943""
","
","
","""event"",""trial"",""time""
""fullscreenenter"",""1"",""9943""
","
","","1373.1000000014901","","","","practice","2021-08-31 02:34:39.758","img/practice_cards/backs/dark_blue.gif","1","200","0","",""
"casino-fixation","47","252090","0.0-17.0-0.6","1119","false","img/card_backs/set1/purple.gif","img/card_backs/set1/green.gif","img/card_backs/set1/red.gif","img/card_backs/set1/yellow.gif","img/card_backs/set2/orange.gif","img/card_backs/set2/gray.gif","img/card_backs/set2/pink.gif","img/card_backs/set2/blue.gif","""event"",""trial"",""time""
""fullscreenenter"",""1"",""9943""
","
","
","""event"",""trial"",""time""
""fullscreenenter"",""1"",""9943""
","
","","null","","null","","fixation","2021-08-31 02:34:40.263","","","","","",""
"card-selection-trial","48","255069","0.0-17.0-1.6","1119","false","img/card_backs/set1/purple.gif","img/card_backs/set1/green.gif","img/card_backs/set1/red.gif","img/card_backs/set1/yellow.gif","img/card_backs/set2/orange.gif","img/card_backs/set2/gray.gif","img/card_backs/set2/pink.gif","img/card_backs/set2/blue.gif","""event"",""trial"",""time""
""fullscreenenter"",""1"",""9943""
","
","
","""event"",""trial"",""time""
""fullscreenenter"",""1"",""9943""
","
","","972.9000000022352","","","","practice","2021-08-31 02:34:43.242","img/practice_cards/backs/dark_blue.gif","3","200","0","",""
"casino-fixation","49","255574","0.0-17.0-0.7","1119","false","img/card_backs/set1/purple.gif","img/card_backs/set1/green.gif","img/card_backs/set1/red.gif","img/card_backs/set1/yellow.gif","img/card_backs/set2/orange.gif","img/card_backs/set2/gray.gif","img/card_backs/set2/pink.gif","img/card_backs/set2/blue.gif","""event"",""trial"",""time""
""fullscreenenter"",""1"",""9943""
","
","
","""event"",""trial"",""time""
""fullscreenenter"",""1"",""9943""
","
","","null","","null","","fixation","2021-08-31 02:34:43.747","","","","","",""
"card-selection-trial","50","259150","0.0-17.0-1.7","1119","false","img/card_backs/set1/purple.gif","img/card_backs/set1/green.gif","img/card_backs/set1/red.gif","img/card_backs/set1/yellow.gif","img/card_backs/set2/orange.gif","img/card_backs/set2/gray.gif","img/card_backs/set2/pink.gif","img/card_backs/set2/blue.gif","""event"",""trial"",""time""
""fullscreenenter"",""1"",""9943""
","
","
","""event"",""trial"",""time""
""fullscreenenter"",""1"",""9943""
","
","","1571","","","","practice","2021-08-31 02:34:47.323","img/practice_cards/backs/dark_blue.gif","0","-200","0","",""
"casino-fixation","51","259655","0.0-17.0-0.8","1119","false","img/card_backs/set1/purple.gif","img/card_backs/set1/green.gif","img/card_backs/set1/red.gif","img/card_backs/set1/yellow.gif","img/card_backs/set2/orange.gif","img/card_backs/set2/gray.gif","img/card_backs/set2/pink.gif","img/card_backs/set2/blue.gif","""event"",""trial"",""time""
""fullscreenenter"",""1"",""9943""
","
","
","""event"",""trial"",""time""
""fullscreenenter"",""1"",""9943""
","
","","null","","null","","fixation","2021-08-31 02:34:47.828","","","","","",""
"card-selection-trial","52","262911","0.0-17.0-1.8","1119","false","img/card_backs/set1/purple.gif","img/card_backs/set1/green.gif","img/card_backs/set1/red.gif","img/card_backs/set1/yellow.gif","img/card_backs/set2/orange.gif","img/card_backs/set2/gray.gif","img/card_backs/set2/pink.gif","img/card_backs/set2/blue.gif","""event"",""trial"",""time""
""fullscreenenter"",""1"",""9943""
","
","
","""event"",""trial"",""time""
""fullscreenenter"",""1"",""9943""
","
","","1248.5","","","","practice","2021-08-31 02:34:51.085","img/practice_cards/backs/dark_blue.gif","2","-200","0","",""
"casino-fixation","53","263416","0.0-17.0-0.9","1119","false","img/card_backs/set1/purple.gif","img/card_backs/set1/green.gif","img/card_backs/set1/red.gif","img/card_backs/set1/yellow.gif","img/card_backs/set2/orange.gif","img/card_backs/set2/gray.gif","img/card_backs/set2/pink.gif","img/card_backs/set2/blue.gif","""event"",""trial"",""time""
""fullscreenenter"",""1"",""9943""
","
","
","""event"",""trial"",""time""
""fullscreenenter"",""1"",""9943""
","
","","null","","null","","fixation","2021-08-31 02:34:51.589","","","","","",""
"card-selection-trial","54","266515","0.0-17.0-1.9","1119","false","img/card_backs/set1/purple.gif","img/card_backs/set1/green.gif","img/card_backs/set1/red.gif","img/card_backs/set1/yellow.gif","img/card_backs/set2/orange.gif","img/card_backs/set2/gray.gif","img/card_backs/set2/pink.gif","img/card_backs/set2/blue.gif","""event"",""trial"",""time""
""fullscreenenter"",""1"",""9943""
","
","
","""event"",""trial"",""time""
""fullscreenenter"",""1"",""9943""
","
","","1092.5","","","","practice","2021-08-31 02:34:54.689","img/practice_cards/backs/dark_green.gif","3","200","0","",""
"casino-keyboard-response","55","269658","0.0-18.0","1119","false","img/card_backs/set1/purple.gif","img/card_backs/set1/green.gif","img/card_backs/set1/red.gif","img/card_backs/set1/yellow.gif","img/card_backs/set2/orange.gif","img/card_backs/set2/gray.gif","img/card_backs/set2/pink.gif","img/card_backs/set2/blue.gif","""event"",""trial"",""time""
""fullscreenenter"",""1"",""9943""
","
","
","""event"",""trial"",""time""
""fullscreenenter"",""1"",""9943""
","
","","3141.89999999851","You earned 200 tokens during the practice round!","82","","","2021-08-31 02:34:57.832","","","","","",""
"casino-keyboard-response","56","273928","0.0-19.0-0.0","1119","false","img/card_backs/set1/purple.gif","img/card_backs/set1/green.gif","img/card_backs/set1/red.gif","img/card_backs/set1/yellow.gif","img/card_backs/set2/orange.gif","img/card_backs/set2/gray.gif","img/card_backs/set2/pink.gif","img/card_backs/set2/blue.gif","""event"",""trial"",""time""
""fullscreenenter"",""1"",""9943""
","
","
","""event"",""trial"",""time""
""fullscreenenter"",""1"",""9943""
","
","","4268","Nice job! You are almost ready to play the real game.","86","","instructions","2021-08-31 02:35:02.101","","","","","",""
"casino-keyboard-response","57","280513","0.0-19.0-0.1","1119","false","img/card_backs/set1/purple.gif","img/card_backs/set1/green.gif","img/card_backs/set1/red.gif","img/card_backs/set1/yellow.gif","img/card_backs/set2/orange.gif","img/card_backs/set2/gray.gif","img/card_backs/set2/pink.gif","img/card_backs/set2/blue.gif","""event"",""trial"",""time""
""fullscreenenter"",""1"",""9943""
","
","
","""event"",""trial"",""time""
""fullscreenenter"",""1"",""9943""
","
","","6584.400000002235","You will play two rounds of the real game. In each round, you will pick 100 cards in total.","73","","instructions","2021-08-31 02:35:08.686","","","","","",""
"casino-keyboard-response","58","284748","0.0-19.0-0.2","1119","false","img/card_backs/set1/purple.gif","img/card_backs/set1/green.gif","img/card_backs/set1/red.gif","img/card_backs/set1/yellow.gif","img/card_backs/set2/orange.gif","img/card_backs/set2/gray.gif","img/card_backs/set2/pink.gif","img/card_backs/set2/blue.gif","""event"",""trial"",""time""
""fullscreenenter"",""1"",""9943""
","
","
","""event"",""trial"",""time""
""fullscreenenter"",""1"",""9943""
","
","","4234.10000000149","We are now going to ask you some questions about how the game works.","66","","instructions","2021-08-31 02:35:12.922","","","","","",""
"casino-keyboard-response","59","290909","0.0-19.0-0.3","1119","false","img/card_backs/set1/purple.gif","img/card_backs/set1/green.gif","img/card_backs/set1/red.gif","img/card_backs/set1/yellow.gif","img/card_backs/set2/orange.gif","img/card_backs/set2/gray.gif","img/card_backs/set2/pink.gif","img/card_backs/set2/blue.gif","""event"",""trial"",""time""
""fullscreenenter"",""1"",""9943""
","
","
","""event"",""trial"",""time""
""fullscreenenter"",""1"",""9943""
","
","","6159.199999999255","Answer carefully. You will not be able to begin the game until you answer them correctly.","67","","instructions","2021-08-31 02:35:19.082","","","","","",""
"casino-comp_q","60","297824","0.0-20.0-0.0","1119","false","img/card_backs/set1/purple.gif","img/card_backs/set1/green.gif","img/card_backs/set1/red.gif","img/card_backs/set1/yellow.gif","img/card_backs/set2/orange.gif","img/card_backs/set2/gray.gif","img/card_backs/set2/pink.gif","img/card_backs/set2/blue.gif","""event"",""trial"",""time""
""fullscreenenter"",""1"",""9943""
","
","
","""event"",""trial"",""time""
""fullscreenenter"",""1"",""9943""
","
","","6913.099999997765","True or False: All the decks have some cards that cause you to win tokens and some cards that cause you to lose tokens.","84","","","2021-08-31 02:35:25.997","","","","","",""
"casino-keyboard-response","61","304137","0.0-20.0-1.0","1119","false","img/card_backs/set1/purple.gif","img/card_backs/set1/green.gif","img/card_backs/set1/red.gif","img/card_backs/set1/yellow.gif","img/card_backs/set2/orange.gif","img/card_backs/set2/gray.gif","img/card_backs/set2/pink.gif","img/card_backs/set2/blue.gif","""event"",""trial"",""time""
""fullscreenenter"",""1"",""9943""
","
","
","""event"",""trial"",""time""
""fullscreenenter"",""1"",""9943""
","
","","6311.699999999255","True is correct! All the decks have a mix of winning and losing cards.","77","","","2021-08-31 02:35:32.310","","","","","true",""
"casino-comp_q","62","308023","0.0-21.0-0.0","1119","false","img/card_backs/set1/purple.gif","img/card_backs/set1/green.gif","img/card_backs/set1/red.gif","img/card_backs/set1/yellow.gif","img/card_backs/set2/orange.gif","img/card_backs/set2/gray.gif","img/card_backs/set2/pink.gif","img/card_backs/set2/blue.gif","""event"",""trial"",""time""
""fullscreenenter"",""1"",""9943""
","
","
","""event"",""trial"",""time""
""fullscreenenter"",""1"",""9943""
","
","","3884","True or False: You will have as much time as you want to make your response.","70","","","2021-08-31 02:35:36.196","","","","","",""
"casino-keyboard-response","63","312829","0.0-21.0-1.0","1119","false","img/card_backs/set1/purple.gif","img/card_backs/set1/green.gif","img/card_backs/set1/red.gif","img/card_backs/set1/yellow.gif","img/card_backs/set2/orange.gif","img/card_backs/set2/gray.gif","img/card_backs/set2/pink.gif","img/card_backs/set2/blue.gif","""event"",""trial"",""time""
""fullscreenenter"",""1"",""9943""
","
","
","""event"",""trial"",""time""
""fullscreenenter"",""1"",""9943""
","
","","4804.300000000745","False is correct! You will only have 10 seconds to make each choice.","75","","","2021-08-31 02:35:41.003","","","","","true",""
"casino-comp_q","64","318550","0.0-22.0-0.0","1119","false","img/card_backs/set1/purple.gif","img/card_backs/set1/green.gif","img/card_backs/set1/red.gif","img/card_backs/set1/yellow.gif","img/card_backs/set2/orange.gif","img/card_backs/set2/gray.gif","img/card_backs/set2/pink.gif","img/card_backs/set2/blue.gif","""event"",""trial"",""time""
""fullscreenenter"",""1"",""9943""
","
","
","""event"",""trial"",""time""
""fullscreenenter"",""1"",""9943""
","
","","5718.39999999851","True or False: The location of the deck determines how lucky it is.","70","","","2021-08-31 02:35:46.723","","","","","",""
"casino-keyboard-response","65","321465","0.0-22.0-1.0","1119","false","img/card_backs/set1/purple.gif","img/card_backs/set1/green.gif","img/card_backs/set1/red.gif","img/card_backs/set1/yellow.gif","img/card_backs/set2/orange.gif","img/card_backs/set2/gray.gif","img/card_backs/set2/pink.gif","img/card_backs/set2/blue.gif","""event"",""trial"",""time""
""fullscreenenter"",""1"",""9943""
","
","
","""event"",""trial"",""time""
""fullscreenenter"",""1"",""9943""
","
","","2913.699999999255","False is correct! The <i>color</i>  of the deck determines how lucky or unlucky it is.","68","","","2021-08-31 02:35:49.638","","","","","true",""
"casino-keyboard-response","66","325565","0.0-23.0-0.0","1119","false","img/card_backs/set1/purple.gif","img/card_backs/set1/green.gif","img/card_backs/set1/red.gif","img/card_backs/set1/yellow.gif","img/card_backs/set2/orange.gif","img/card_backs/set2/gray.gif","img/card_backs/set2/pink.gif","img/card_backs/set2/blue.gif","""event"",""trial"",""time""
""fullscreenenter"",""1"",""9943""
","
","
","""event"",""trial"",""time""
""fullscreenenter"",""1"",""9943""
","
","","4097.79999999702","Great job! Now it's time to start the real game.","82","","instructions","2021-08-31 02:35:53.738","","","","","",""
"casino-keyboard-response","67","330604","0.0-23.0-0.1","1119","false","img/card_backs/set1/purple.gif","img/card_backs/set1/green.gif","img/card_backs/set1/red.gif","img/card_backs/set1/yellow.gif","img/card_backs/set2/orange.gif","img/card_backs/set2/gray.gif","img/card_backs/set2/pink.gif","img/card_backs/set2/blue.gif","""event"",""trial"",""time""
""fullscreenenter"",""1"",""9943""
","
","
","""event"",""trial"",""time""
""fullscreenenter"",""1"",""9943""
","
","","5038.300000000745","Before we start, we're going to head into a new room of the casino.","86","","instructions","2021-08-31 02:35:58.777","","","","","",""
"casino-keyboard-response","68","336514","0.0-24.0-0.0","1119","false","img/card_backs/set1/purple.gif","img/card_backs/set1/green.gif","img/card_backs/set1/red.gif","img/card_backs/set1/yellow.gif","img/card_backs/set2/orange.gif","img/card_backs/set2/gray.gif","img/card_backs/set2/pink.gif","img/card_backs/set2/blue.gif","""event"",""trial"",""time""
""fullscreenenter"",""1"",""9943""
","
","
","""event"",""trial"",""time""
""fullscreenenter"",""1"",""9943""
","
","","5909.39999999851","Here we are! The real game will use different cards, but the rules will be the same.","71","","instructions","2021-08-31 02:36:04.688","","","","","",""
"casino-keyboard-response","69","339828","0.0-24.0-0.1","1119","false","img/card_backs/set1/purple.gif","img/card_backs/set1/green.gif","img/card_backs/set1/red.gif","img/card_backs/set1/yellow.gif","img/card_backs/set2/orange.gif","img/card_backs/set2/gray.gif","img/card_backs/set2/pink.gif","img/card_backs/set2/blue.gif","""event"",""trial"",""time""
""fullscreenenter"",""1"",""9943""
","
","
","""event"",""trial"",""time""
""fullscreenenter"",""1"",""9943""
","
","","3312.300000000745","Ready? Put your fingers over the '2', '4', 6', and '8' keys so you are ready to play the game. </br> Then press 2 to start.","50","","instructions","2021-08-31 02:36:08.001","","","","","",""
"casino-fixation","70","340330","0.0-25.0-0.0","1119","false","img/card_backs/set1/purple.gif","img/card_backs/set1/green.gif","img/card_backs/set1/red.gif","img/card_backs/set1/yellow.gif","img/card_backs/set2/orange.gif","img/card_backs/set2/gray.gif","img/card_backs/set2/pink.gif","img/card_backs/set2/blue.gif","""event"",""trial"",""time""
""fullscreenenter"",""1"",""9943""
","
","
","""event"",""trial"",""time""
""fullscreenenter"",""1"",""9943""
","
","","null","","null","","fixation","2021-08-31 02:36:08.503","","","","","",""
"card-selection-trial","71","343673","0.0-25.0-1.0","1119","false","img/card_backs/set1/purple.gif","img/card_backs/set1/green.gif","img/card_backs/set1/red.gif","img/card_backs/set1/yellow.gif","img/card_backs/set2/orange.gif","img/card_backs/set2/gray.gif","img/card_backs/set2/pink.gif","img/card_backs/set2/blue.gif","""event"",""trial"",""time""
""fullscreenenter"",""1"",""9943""
","
","
","""event"",""trial"",""time""
""fullscreenenter"",""1"",""9943""
","
","","1335","","","","real_trial","2021-08-31 02:36:11.847","img/card_backs/set1/purple.gif","2","-250","1","",""
"casino-fixation","72","344178","0.0-25.0-0.1","1119","false","img/card_backs/set1/purple.gif","img/card_backs/set1/green.gif","img/card_backs/set1/red.gif","img/card_backs/set1/yellow.gif","img/card_backs/set2/orange.gif","img/card_backs/set2/gray.gif","img/card_backs/set2/pink.gif","img/card_backs/set2/blue.gif","""event"",""trial"",""time""
""fullscreenenter"",""1"",""9943""
","
","
","""event"",""trial"",""time""
""fullscreenenter"",""1"",""9943""
","
","","null","","null","","fixation","2021-08-31 02:36:12.351","","","","","",""
"card-selection-trial","73","346820","0.0-25.0-1.1","1119","false","img/card_backs/set1/purple.gif","img/card_backs/set1/green.gif","img/card_backs/set1/red.gif","img/card_backs/set1/yellow.gif","img/card_backs/set2/orange.gif","img/card_backs/set2/gray.gif","img/card_backs/set2/pink.gif","img/card_backs/set2/blue.gif","""event"",""trial"",""time""
""fullscreenenter"",""1"",""9943""
","
","
","""event"",""trial"",""time""
""fullscreenenter"",""1"",""9943""
","
","","633.3999999985099","","","","real_trial","2021-08-31 02:36:14.993","img/card_backs/set1/green.gif","1","200","1","",""
"casino-fixation","74","347324","0.0-25.0-0.2","1119","false","img/card_backs/set1/purple.gif","img/card_backs/set1/green.gif","img/card_backs/set1/red.gif","img/card_backs/set1/yellow.gif","img/card_backs/set2/orange.gif","img/card_backs/set2/gray.gif","img/card_backs/set2/pink.gif","img/card_backs/set2/blue.gif","""event"",""trial"",""time""
""fullscreenenter"",""1"",""9943""
","
","
","""event"",""trial"",""time""
""fullscreenenter"",""1"",""9943""
","
","","null","","null","","fixation","2021-08-31 02:36:15.498","","","","","",""
"card-selection-trial","75","350511","0.0-25.0-1.2","1119","false","img/card_backs/set1/purple.gif","img/card_backs/set1/green.gif","img/card_backs/set1/red.gif","img/card_backs/set1/yellow.gif","img/card_backs/set2/orange.gif","img/card_backs/set2/gray.gif","img/card_backs/set2/pink.gif","img/card_backs/set2/blue.gif","""event"",""trial"",""time""
""fullscreenenter"",""1"",""9943""
","
","
","""event"",""trial"",""time""
""fullscreenenter"",""1"",""9943""
","
","","1182.4000000022352","","","","real_trial","2021-08-31 02:36:18.684","img/card_backs/set1/purple.gif","2","-250","1","",""
"casino-fixation","76","351016","0.0-25.0-0.3","1119","false","img/card_backs/set1/purple.gif","img/card_backs/set1/green.gif","img/card_backs/set1/red.gif","img/card_backs/set1/yellow.gif","img/card_backs/set2/orange.gif","img/card_backs/set2/gray.gif","img/card_backs/set2/pink.gif","img/card_backs/set2/blue.gif","""event"",""trial"",""time""
""fullscreenenter"",""1"",""9943""
","
","
","""event"",""trial"",""time""
""fullscreenenter"",""1"",""9943""
","
","","null","","null","","fixation","2021-08-31 02:36:19.189","","","","","",""
"card-selection-trial","77","353913","0.0-25.0-1.3","1119","false","img/card_backs/set1/purple.gif","img/card_backs/set1/green.gif","img/card_backs/set1/red.gif","img/card_backs/set1/yellow.gif","img/card_backs/set2/orange.gif","img/card_backs/set2/gray.gif","img/card_backs/set2/pink.gif","img/card_backs/set2/blue.gif","""event"",""trial"",""time""
""fullscreenenter"",""1"",""9943""
","
","
","""event"",""trial"",""time""
""fullscreenenter"",""1"",""9943""
","
","","891.6000000014901","","","","real_trial","2021-08-31 02:36:22.086","img/card_backs/set1/green.gif","3","-240","1","",""
"casino-fixation","78","354418","0.0-25.0-0.4","1119","false","img/card_backs/set1/purple.gif","img/card_backs/set1/green.gif","img/card_backs/set1/red.gif","img/card_backs/set1/yellow.gif","img/card_backs/set2/orange.gif","img/card_backs/set2/gray.gif","img/card_backs/set2/pink.gif","img/card_backs/set2/blue.gif","""event"",""trial"",""time""
""fullscreenenter"",""1"",""9943""
","
","
","""event"",""trial"",""time""
""fullscreenenter"",""1"",""9943""
","
","","null","","null","","fixation","2021-08-31 02:36:22.591","","","","","",""
"card-selection-trial","79","358249","0.0-25.0-1.4","1119","false","img/card_backs/set1/purple.gif","img/card_backs/set1/green.gif","img/card_backs/set1/red.gif","img/card_backs/set1/yellow.gif","img/card_backs/set2/orange.gif","img/card_backs/set2/gray.gif","img/card_backs/set2/pink.gif","img/card_backs/set2/blue.gif","""event"",""trial"",""time""
""fullscreenenter"",""1"",""9943""
","
","
","""event"",""trial"",""time""
""fullscreenenter"",""1"",""9943""
","
","","1825","","","","real_trial","2021-08-31 02:36:26.422","img/card_backs/set1/red.gif","0","-50","1","",""
"casino-fixation","80","358754","0.0-25.0-0.5","1119","false","img/card_backs/set1/purple.gif","img/card_backs/set1/green.gif","img/card_backs/set1/red.gif","img/card_backs/set1/yellow.gif","img/card_backs/set2/orange.gif","img/card_backs/set2/gray.gif","img/card_backs/set2/pink.gif","img/card_backs/set2/blue.gif","""event"",""trial"",""time""
""fullscreenenter"",""1"",""9943""
","
","
","""event"",""trial"",""time""
""fullscreenenter"",""1"",""9943""
","
","","null","","null","","fixation","2021-08-31 02:36:26.927","","","","","",""
"card-selection-trial","81","361858","0.0-25.0-1.5","1119","false","img/card_backs/set1/purple.gif","img/card_backs/set1/green.gif","img/card_backs/set1/red.gif","img/card_backs/set1/yellow.gif","img/card_backs/set2/orange.gif","img/card_backs/set2/gray.gif","img/card_backs/set2/pink.gif","img/card_backs/set2/blue.gif","""event"",""trial"",""time""
""fullscreenenter"",""1"",""9943""
","
","
","""event"",""trial"",""time""
""fullscreenenter"",""1"",""9943""
","
","","1095.699999999255","","","","real_trial","2021-08-31 02:36:30.031","img/card_backs/set1/yellow.gif","2","-60","1","",""
"casino-fixation","82","362362","0.0-25.0-0.6","1119","false","img/card_backs/set1/purple.gif","img/card_backs/set1/green.gif","img/card_backs/set1/red.gif","img/card_backs/set1/yellow.gif","img/card_backs/set2/orange.gif","img/card_backs/set2/gray.gif","img/card_backs/set2/pink.gif","img/card_backs/set2/blue.gif","""event"",""trial"",""time""
""fullscreenenter"",""1"",""9943""
","
","
","""event"",""trial"",""time""
""fullscreenenter"",""1"",""9943""
","
","","null","","null","","fixation","2021-08-31 02:36:30.535","","","","","",""
"card-selection-trial","83","365540","0.0-25.0-1.6","1119","false","img/card_backs/set1/purple.gif","img/card_backs/set1/green.gif","img/card_backs/set1/red.gif","img/card_backs/set1/yellow.gif","img/card_backs/set2/orange.gif","img/card_backs/set2/gray.gif","img/card_backs/set2/pink.gif","img/card_backs/set2/blue.gif","""event"",""trial"",""time""
""fullscreenenter"",""1"",""9943""
","
","
","""event"",""trial"",""time""
""fullscreenenter"",""1"",""9943""
","
","","1173.2000000029802","","","","real_trial","2021-08-31 02:36:33.713","img/card_backs/set1/purple.gif","1","200","1","",""
"casino-fixation","84","366045","0.0-25.0-0.7","1119","false","img/card_backs/set1/purple.gif","img/card_backs/set1/green.gif","img/card_backs/set1/red.gif","img/card_backs/set1/yellow.gif","img/card_backs/set2/orange.gif","img/card_backs/set2/gray.gif","img/card_backs/set2/pink.gif","img/card_backs/set2/blue.gif","""event"",""trial"",""time""
""fullscreenenter"",""1"",""9943""
","
","
","""event"",""trial"",""time""
""fullscreenenter"",""1"",""9943""
","
","","null","","null","","fixation","2021-08-31 02:36:34.218","","","","","",""
"card-selection-trial","85","371797","0.0-25.0-1.7","1119","false","img/card_backs/set1/purple.gif","img/card_backs/set1/green.gif","img/card_backs/set1/red.gif","img/card_backs/set1/yellow.gif","img/card_backs/set2/orange.gif","img/card_backs/set2/gray.gif","img/card_backs/set2/pink.gif","img/card_backs/set2/blue.gif","""event"",""trial"",""time""
""fullscreenenter"",""1"",""9943""
","
","
","""event"",""trial"",""time""
""fullscreenenter"",""1"",""9943""
","
","","3744.5","","","","real_trial","2021-08-31 02:36:39.970","img/card_backs/set1/purple.gif","0","190","1","",""
"casino-fixation","86","372303","0.0-25.0-0.8","1119","false","img/card_backs/set1/purple.gif","img/card_backs/set1/green.gif","img/card_backs/set1/red.gif","img/card_backs/set1/yellow.gif","img/card_backs/set2/orange.gif","img/card_backs/set2/gray.gif","img/card_backs/set2/pink.gif","img/card_backs/set2/blue.gif","""event"",""trial"",""time""
""fullscreenenter"",""1"",""9943""
","
","
","""event"",""trial"",""time""
""fullscreenenter"",""1"",""9943""
","
","","null","","null","","fixation","2021-08-31 02:36:40.476","","","","","",""
"card-selection-trial","87","376584","0.0-25.0-1.8","1119","false","img/card_backs/set1/purple.gif","img/card_backs/set1/green.gif","img/card_backs/set1/red.gif","img/card_backs/set1/yellow.gif","img/card_backs/set2/orange.gif","img/card_backs/set2/gray.gif","img/card_backs/set2/pink.gif","img/card_backs/set2/blue.gif","""event"",""trial"",""time""
""fullscreenenter"",""1"",""9943""
","
","
","""event"",""trial"",""time""
""fullscreenenter"",""1"",""9943""
","
","","2272.89999999851","","","","real_trial","2021-08-31 02:36:44.757","img/card_backs/set1/yellow.gif","2","110","1","",""
"casino-fixation","88","377089","0.0-25.0-0.9","1119","false","img/card_backs/set1/purple.gif","img/card_backs/set1/green.gif","img/card_backs/set1/red.gif","img/card_backs/set1/yellow.gif","img/card_backs/set2/orange.gif","img/card_backs/set2/gray.gif","img/card_backs/set2/pink.gif","img/card_backs/set2/blue.gif","""event"",""trial"",""time""
""fullscreenenter"",""1"",""9943""
","
","
","""event"",""trial"",""time""
""fullscreenenter"",""1"",""9943""
","
","","null","","null","","fixation","2021-08-31 02:36:45.262","","","","","",""
"card-selection-trial","89","380308","0.0-25.0-1.9","1119","false","img/card_backs/set1/purple.gif","img/card_backs/set1/green.gif","img/card_backs/set1/red.gif","img/card_backs/set1/yellow.gif","img/card_backs/set2/orange.gif","img/card_backs/set2/gray.gif","img/card_backs/set2/pink.gif","img/card_backs/set2/blue.gif","""event"",""trial"",""time""
""fullscreenenter"",""1"",""9943""
","
","
","""event"",""trial"",""time""
""fullscreenenter"",""1"",""9943""
","
","","1211.800000000745","","","","real_trial","2021-08-31 02:36:48.481","img/card_backs/set1/green.gif","1","200","1","",""
"casino-fixation","90","380813","0.0-25.0-0.10","1119","false","img/card_backs/set1/purple.gif","img/card_backs/set1/green.gif","img/card_backs/set1/red.gif","img/card_backs/set1/yellow.gif","img/card_backs/set2/orange.gif","img/card_backs/set2/gray.gif","img/card_backs/set2/pink.gif","img/card_backs/set2/blue.gif","""event"",""trial"",""time""
""fullscreenenter"",""1"",""9943""
","
","
","""event"",""trial"",""time""
""fullscreenenter"",""1"",""9943""
","
","","null","","null","","fixation","2021-08-31 02:36:48.986","","","","","",""
"card-selection-trial","91","385457","0.0-25.0-1.10","1119","false","img/card_backs/set1/purple.gif","img/card_backs/set1/green.gif","img/card_backs/set1/red.gif","img/card_backs/set1/yellow.gif","img/card_backs/set2/orange.gif","img/card_backs/set2/gray.gif","img/card_backs/set2/pink.gif","img/card_backs/set2/blue.gif","""event"",""trial"",""time""
""fullscreenenter"",""1"",""9943""
","
","
","""event"",""trial"",""time""
""fullscreenenter"",""1"",""9943""
","
","","2634.300000000745","","","","real_trial","2021-08-31 02:36:53.630","img/card_backs/set1/purple.gif","1","180","1","",""
"casino-fixation","92","385962","0.0-25.0-0.11","1119","false","img/card_backs/set1/purple.gif","img/card_backs/set1/green.gif","img/card_backs/set1/red.gif","img/card_backs/set1/yellow.gif","img/card_backs/set2/orange.gif","img/card_backs/set2/gray.gif","img/card_backs/set2/pink.gif","img/card_backs/set2/blue.gif","""event"",""trial"",""time""
""fullscreenenter"",""1"",""9943""
","
","
","""event"",""trial"",""time""
""fullscreenenter"",""1"",""9943""
","
","","null","","null","","fixation","2021-08-31 02:36:54.135","","","","","",""
"card-selection-trial","93","389306","0.0-25.0-1.11","1119","false","img/card_backs/set1/purple.gif","img/card_backs/set1/green.gif","img/card_backs/set1/red.gif","img/card_backs/set1/yellow.gif","img/card_backs/set2/orange.gif","img/card_backs/set2/gray.gif","img/card_backs/set2/pink.gif","img/card_backs/set2/blue.gif","""event"",""trial"",""time""
""fullscreenenter"",""1"",""9943""
","
","
","""event"",""trial"",""time""
""fullscreenenter"",""1"",""9943""
","
","","1337","","","","real_trial","2021-08-31 02:36:57.479","img/card_backs/set1/purple.gif","2","-250","1","",""
"casino-fixation","94","389810","0.0-25.0-0.12","1119","false","img/card_backs/set1/purple.gif","img/card_backs/set1/green.gif","img/card_backs/set1/red.gif","img/card_backs/set1/yellow.gif","img/card_backs/set2/orange.gif","img/card_backs/set2/gray.gif","img/card_backs/set2/pink.gif","img/card_backs/set2/blue.gif","""event"",""trial"",""time""
""fullscreenenter"",""1"",""9943""
","
","
","""event"",""trial"",""time""
""fullscreenenter"",""1"",""9943""
","
","","null","","null","","fixation","2021-08-31 02:36:57.984","","","","","",""
"card-selection-trial","95","392521","0.0-25.0-1.12","1119","false","img/card_backs/set1/purple.gif","img/card_backs/set1/green.gif","img/card_backs/set1/red.gif","img/card_backs/set1/yellow.gif","img/card_backs/set2/orange.gif","img/card_backs/set2/gray.gif","img/card_backs/set2/pink.gif","img/card_backs/set2/blue.gif","""event"",""trial"",""time""
""fullscreenenter"",""1"",""9943""
","
","
","""event"",""trial"",""time""
""fullscreenenter"",""1"",""9943""
","
","","703.8000000007451","","","","real_trial","2021-08-31 02:37:00.695","img/card_backs/set1/red.gif","3","110","1","",""
"casino-fixation","96","393026","0.0-25.0-0.13","1119","false","img/card_backs/set1/purple.gif","img/card_backs/set1/green.gif","img/card_backs/set1/red.gif","img/card_backs/set1/yellow.gif","img/card_backs/set2/orange.gif","img/card_backs/set2/gray.gif","img/card_backs/set2/pink.gif","img/card_backs/set2/blue.gif","""event"",""trial"",""time""
""fullscreenenter"",""1"",""9943""
","
","
","""event"",""trial"",""time""
""fullscreenenter"",""1"",""9943""
","
","","null","","null","","fixation","2021-08-31 02:37:01.199","","","","","",""
"card-selection-trial","97","396277","0.0-25.0-1.13","1119","false","img/card_backs/set1/purple.gif","img/card_backs/set1/green.gif","img/card_backs/set1/red.gif","img/card_backs/set1/yellow.gif","img/card_backs/set2/orange.gif","img/card_backs/set2/gray.gif","img/card_backs/set2/pink.gif","img/card_backs/set2/blue.gif","""event"",""trial"",""time""
""fullscreenenter"",""1"",""9943""
","
","
","""event"",""trial"",""time""
""fullscreenenter"",""1"",""9943""
","
","","1243.5","","","","real_trial","2021-08-31 02:37:04.450","img/card_backs/set1/red.gif","3","100","1","",""
"casino-fixation","98","396782","0.0-25.0-0.14","1119","false","img/card_backs/set1/purple.gif","img/card_backs/set1/green.gif","img/card_backs/set1/red.gif","img/card_backs/set1/yellow.gif","img/card_backs/set2/orange.gif","img/card_backs/set2/gray.gif","img/card_backs/set2/pink.gif","img/card_backs/set2/blue.gif","""event"",""trial"",""time""
""fullscreenenter"",""1"",""9943""
","
","
","""event"",""trial"",""time""
""fullscreenenter"",""1"",""9943""
","
","","null","","null","","fixation","2021-08-31 02:37:04.955","","","","","",""
"card-selection-trial","99","400149","0.0-25.0-1.14","1119","false","img/card_backs/set1/purple.gif","img/card_backs/set1/green.gif","img/card_backs/set1/red.gif","img/card_backs/set1/yellow.gif","img/card_backs/set2/orange.gif","img/card_backs/set2/gray.gif","img/card_backs/set2/pink.gif","img/card_backs/set2/blue.gif","""event"",""trial"",""time""
""fullscreenenter"",""1"",""9943""
","
","
","""event"",""trial"",""time""
""fullscreenenter"",""1"",""9943""
","
","","1357.699999999255","","","","real_trial","2021-08-31 02:37:08.322","img/card_backs/set1/red.gif","1","-50","1","",""
"casino-fixation","100","400654","0.0-25.0-0.15","1119","false","img/card_backs/set1/purple.gif","img/card_backs/set1/green.gif","img/card_backs/set1/red.gif","img/card_backs/set1/yellow.gif","img/card_backs/set2/orange.gif","img/card_backs/set2/gray.gif","img/card_backs/set2/pink.gif","img/card_backs/set2/blue.gif","""event"",""trial"",""time""
""fullscreenenter"",""1"",""9943""
","
","
","""event"",""trial"",""time""
""fullscreenenter"",""1"",""9943""
","
","","null","","null","","fixation","2021-08-31 02:37:08.827","","","","","",""
"card-selection-trial","101","403556","0.0-25.0-1.15","1119","false","img/card_backs/set1/purple.gif","img/card_backs/set1/green.gif","img/card_backs/set1/red.gif","img/card_backs/set1/yellow.gif","img/card_backs/set2/orange.gif","img/card_backs/set2/gray.gif","img/card_backs/set2/pink.gif","img/card_backs/set2/blue.gif","""event"",""trial"",""time""
""fullscreenenter"",""1"",""9943""
","
","
","""event"",""trial"",""time""
""fullscreenenter"",""1"",""9943""
","
","","897.1999999992549","","","","real_trial","2021-08-31 02:37:11.729","img/card_backs/set1/yellow.gif","2","100","1","",""
"casino-fixation","102","404061","0.0-25.0-0.16","1119","false","img/card_backs/set1/purple.gif","img/card_backs/set1/green.gif","img/card_backs/set1/red.gif","img/card_backs/set1/yellow.gif","img/card_backs/set2/orange.gif","img/card_backs/set2/gray.gif","img/card_backs/set2/pink.gif","img/card_backs/set2/blue.gif","""event"",""trial"",""time""
""fullscreenenter"",""1"",""9943""
","
","
","""event"",""trial"",""time""
""fullscreenenter"",""1"",""9943""
","
","","null","","null","","fixation","2021-08-31 02:37:12.234","","","","","",""
"card-selection-trial","103","406447","0.0-25.0-1.16","1119","false","img/card_backs/set1/purple.gif","img/card_backs/set1/green.gif","img/card_backs/set1/red.gif","img/card_backs/set1/yellow.gif","img/card_backs/set2/orange.gif","img/card_backs/set2/gray.gif","img/card_backs/set2/pink.gif","img/card_backs/set2/blue.gif","""event"",""trial"",""time""
""fullscreenenter"",""1"",""9943""
","
","
","""event"",""trial"",""time""
""fullscreenenter"",""1"",""9943""
","
","","380.3999999985099","","","","real_trial","2021-08-31 02:37:14.620","img/card_backs/set1/yellow.gif","2","110","1","",""
"casino-fixation","104","406952","0.0-25.0-0.17","1119","false","img/card_backs/set1/purple.gif","img/card_backs/set1/green.gif","img/card_backs/set1/red.gif","img/card_backs/set1/yellow.gif","img/card_backs/set2/orange.gif","img/card_backs/set2/gray.gif","img/card_backs/set2/pink.gif","img/card_backs/set2/blue.gif","""event"",""trial"",""time""
""fullscreenenter"",""1"",""9943""
","
","
","""event"",""trial"",""time""
""fullscreenenter"",""1"",""9943""
","
","","null","","null","","fixation","2021-08-31 02:37:15.125","","","","","",""
"card-selection-trial","105","409500","0.0-25.0-1.17","1119","false","img/card_backs/set1/purple.gif","img/card_backs/set1/green.gif","img/card_backs/set1/red.gif","img/card_backs/set1/yellow.gif","img/card_backs/set2/orange.gif","img/card_backs/set2/gray.gif","img/card_backs/set2/pink.gif","img/card_backs/set2/blue.gif","""event"",""trial"",""time""
""fullscreenenter"",""1"",""9943""
","
","
","""event"",""trial"",""time""
""fullscreenenter"",""1"",""9943""
","
","","542.1000000014901","","","","real_trial","2021-08-31 02:37:17.674","img/card_backs/set1/yellow.gif","2","110","1","",""
"casino-fixation","106","410005","0.0-25.0-0.18","1119","false","img/card_backs/set1/purple.gif","img/card_backs/set1/green.gif","img/card_backs/set1/red.gif","img/card_backs/set1/yellow.gif","img/card_backs/set2/orange.gif","img/card_backs/set2/gray.gif","img/card_backs/set2/pink.gif","img/card_backs/set2/blue.gif","""event"",""trial"",""time""
""fullscreenenter"",""1"",""9943""
","
","
","""event"",""trial"",""time""
""fullscreenenter"",""1"",""9943""
","
","","null","","null","","fixation","2021-08-31 02:37:18.178","","","","","",""
"card-selection-trial","107","412786","0.0-25.0-1.18","1119","false","img/card_backs/set1/purple.gif","img/card_backs/set1/green.gif","img/card_backs/set1/red.gif","img/card_backs/set1/yellow.gif","img/card_backs/set2/orange.gif","img/card_backs/set2/gray.gif","img/card_backs/set2/pink.gif","img/card_backs/set2/blue.gif","""event"",""trial"",""time""
""fullscreenenter"",""1"",""9943""
","
","
","""event"",""trial"",""time""
""fullscreenenter"",""1"",""9943""
","
","","770.8999999985099","","","","real_trial","2021-08-31 02:37:20.959","img/card_backs/set1/yellow.gif","3","120","1","",""
"casino-fixation","108","413291","0.0-25.0-0.19","1119","false","img/card_backs/set1/purple.gif","img/card_backs/set1/green.gif","img/card_backs/set1/red.gif","img/card_backs/set1/yellow.gif","img/card_backs/set2/orange.gif","img/card_backs/set2/gray.gif","img/card_backs/set2/pink.gif","img/card_backs/set2/blue.gif","""event"",""trial"",""time""
""fullscreenenter"",""1"",""9943""
","
","
","""event"",""trial"",""time""
""fullscreenenter"",""1"",""9943""
","
","","null","","null","","fixation","2021-08-31 02:37:21.464","","","","","",""
"card-selection-trial","109","416428","0.0-25.0-1.19","1119","false","img/card_backs/set1/purple.gif","img/card_backs/set1/green.gif","img/card_backs/set1/red.gif","img/card_backs/set1/yellow.gif","img/card_backs/set2/orange.gif","img/card_backs/set2/gray.gif","img/card_backs/set2/pink.gif","img/card_backs/set2/blue.gif","""event"",""trial"",""time""
""fullscreenenter"",""1"",""9943""
","
","
","""event"",""trial"",""time""
""fullscreenenter"",""1"",""9943""
","
","","1128.699999999255","","","","real_trial","2021-08-31 02:37:24.601","img/card_backs/set1/yellow.gif","0","110","1","",""
"casino-fixation","110","416932","0.0-25.0-0.20","1119","false","img/card_backs/set1/purple.gif","img/card_backs/set1/green.gif","img/card_backs/set1/red.gif","img/card_backs/set1/yellow.gif","img/card_backs/set2/orange.gif","img/card_backs/set2/gray.gif","img/card_backs/set2/pink.gif","img/card_backs/set2/blue.gif","""event"",""trial"",""time""
""fullscreenenter"",""1"",""9943""
","
","
","""event"",""trial"",""time""
""fullscreenenter"",""1"",""9943""
","
","","null","","null","","fixation","2021-08-31 02:37:25.105","","","","","",""
"card-selection-trial","111","420297","0.0-25.0-1.20","1119","false","img/card_backs/set1/purple.gif","img/card_backs/set1/green.gif","img/card_backs/set1/red.gif","img/card_backs/set1/yellow.gif","img/card_backs/set2/orange.gif","img/card_backs/set2/gray.gif","img/card_backs/set2/pink.gif","img/card_backs/set2/blue.gif","""event"",""trial"",""time""
""fullscreenenter"",""1"",""9943""
","
","
","""event"",""trial"",""time""
""fullscreenenter"",""1"",""9943""
","
","","1357.0999999977648","","","","real_trial","2021-08-31 02:37:28.470","img/card_backs/set1/yellow.gif","3","110","1","",""
"casino-fixation","112","420802","0.0-25.0-0.21","1119","false","img/card_backs/set1/purple.gif","img/card_backs/set1/green.gif","img/card_backs/set1/red.gif","img/card_backs/set1/yellow.gif","img/card_backs/set2/orange.gif","img/card_backs/set2/gray.gif","img/card_backs/set2/pink.gif","img/card_backs/set2/blue.gif","""event"",""trial"",""time""
""fullscreenenter"",""1"",""9943""
","
","
","""event"",""trial"",""time""
""fullscreenenter"",""1"",""9943""
","
","","null","","null","","fixation","2021-08-31 02:37:28.975","","","","","",""
"card-selection-trial","113","423403","0.0-25.0-1.21","1119","false","img/card_backs/set1/purple.gif","img/card_backs/set1/green.gif","img/card_backs/set1/red.gif","img/card_backs/set1/yellow.gif","img/card_backs/set2/orange.gif","img/card_backs/set2/gray.gif","img/card_backs/set2/pink.gif","img/card_backs/set2/blue.gif","""event"",""trial"",""time""
""fullscreenenter"",""1"",""9943""
","
","
","""event"",""trial"",""time""
""fullscreenenter"",""1"",""9943""
","
","","594","","","","real_trial","2021-08-31 02:37:31.576","img/card_backs/set1/yellow.gif","3","100","1","",""
"casino-fixation","114","423908","0.0-25.0-0.22","1119","false","img/card_backs/set1/purple.gif","img/card_backs/set1/green.gif","img/card_backs/set1/red.gif","img/card_backs/set1/yellow.gif","img/card_backs/set2/orange.gif","img/card_backs/set2/gray.gif","img/card_backs/set2/pink.gif","img/card_backs/set2/blue.gif","""event"",""trial"",""time""
""fullscreenenter"",""1"",""9943""
","
","
","""event"",""trial"",""time""
""fullscreenenter"",""1"",""9943""
","
","","null","","null","","fixation","2021-08-31 02:37:32.081","","","","","",""
"card-selection-trial","115","427106","0.0-25.0-1.22","1119","false","img/card_backs/set1/purple.gif","img/card_backs/set1/green.gif","img/card_backs/set1/red.gif","img/card_backs/set1/yellow.gif","img/card_backs/set2/orange.gif","img/card_backs/set2/gray.gif","img/card_backs/set2/pink.gif","img/card_backs/set2/blue.gif","""event"",""trial"",""time""
""fullscreenenter"",""1"",""9943""
","
","
","""event"",""trial"",""time""
""fullscreenenter"",""1"",""9943""
","
","","1189.7999999970198","","","","real_trial","2021-08-31 02:37:35.279","img/card_backs/set1/yellow.gif","2","-70","1","",""
"casino-fixation","116","427611","0.0-25.0-0.23","1119","false","img/card_backs/set1/purple.gif","img/card_backs/set1/green.gif","img/card_backs/set1/red.gif","img/card_backs/set1/yellow.gif","img/card_backs/set2/orange.gif","img/card_backs/set2/gray.gif","img/card_backs/set2/pink.gif","img/card_backs/set2/blue.gif","""event"",""trial"",""time""
""fullscreenenter"",""1"",""9943""
","
","
","""event"",""trial"",""time""
""fullscreenenter"",""1"",""9943""
","
","","null","","null","","fixation","2021-08-31 02:37:35.784","","","","","",""
"card-selection-trial","117","430310","0.0-25.0-1.23","1119","false","img/card_backs/set1/purple.gif","img/card_backs/set1/green.gif","img/card_backs/set1/red.gif","img/card_backs/set1/yellow.gif","img/card_backs/set2/orange.gif","img/card_backs/set2/gray.gif","img/card_backs/set2/pink.gif","img/card_backs/set2/blue.gif","""event"",""trial"",""time""
""fullscreenenter"",""1"",""9943""
","
","
","""event"",""trial"",""time""
""fullscreenenter"",""1"",""9943""
","
","","693.1000000014901","","","","real_trial","2021-08-31 02:37:38.483","img/card_backs/set1/red.gif","1","100","1","",""
"casino-fixation","118","430815","0.0-25.0-0.24","1119","false","img/card_backs/set1/purple.gif","img/card_backs/set1/green.gif","img/card_backs/set1/red.gif","img/card_backs/set1/yellow.gif","img/card_backs/set2/orange.gif","img/card_backs/set2/gray.gif","img/card_backs/set2/pink.gif","img/card_backs/set2/blue.gif","""event"",""trial"",""time""
""fullscreenenter"",""1"",""9943""
","
","
","""event"",""trial"",""time""
""fullscreenenter"",""1"",""9943""
","
","","null","","null","","fixation","2021-08-31 02:37:38.988","","","","","",""
"card-selection-trial","119","433532","0.0-25.0-1.24","1119","false","img/card_backs/set1/purple.gif","img/card_backs/set1/green.gif","img/card_backs/set1/red.gif","img/card_backs/set1/yellow.gif","img/card_backs/set2/orange.gif","img/card_backs/set2/gray.gif","img/card_backs/set2/pink.gif","img/card_backs/set2/blue.gif","""event"",""trial"",""time""
""fullscreenenter"",""1"",""9943""
","
","
","""event"",""trial"",""time""
""fullscreenenter"",""1"",""9943""
","
","","710.7000000029802","","","","real_trial","2021-08-31 02:37:41.705","img/card_backs/set1/red.gif","0","-60","1","",""
"casino-fixation","120","434037","0.0-25.0-0.25","1119","false","img/card_backs/set1/purple.gif","img/card_backs/set1/green.gif","img/card_backs/set1/red.gif","img/card_backs/set1/yellow.gif","img/card_backs/set2/orange.gif","img/card_backs/set2/gray.gif","img/card_backs/set2/pink.gif","img/card_backs/set2/blue.gif","""event"",""trial"",""time""
""fullscreenenter"",""1"",""9943""
","
","
","""event"",""trial"",""time""
""fullscreenenter"",""1"",""9943""
","
","","null","","null","","fixation","2021-08-31 02:37:42.210","","","","","",""
"card-selection-trial","121","437873","0.0-25.0-1.25","1119","false","img/card_backs/set1/purple.gif","img/card_backs/set1/green.gif","img/card_backs/set1/red.gif","img/card_backs/set1/yellow.gif","img/card_backs/set2/orange.gif","img/card_backs/set2/gray.gif","img/card_backs/set2/pink.gif","img/card_backs/set2/blue.gif","""event"",""trial"",""time""
""fullscreenenter"",""1"",""9943""
","
","
","""event"",""trial"",""time""
""fullscreenenter"",""1"",""9943""
","
","","1827.5","","","","real_trial","2021-08-31 02:37:46.047","img/card_backs/set1/green.gif","2","-250","1","",""
"casino-fixation","122","438377","0.0-25.0-0.26","1119","false","img/card_backs/set1/purple.gif","img/card_backs/set1/green.gif","img/card_backs/set1/red.gif","img/card_backs/set1/yellow.gif","img/card_backs/set2/orange.gif","img/card_backs/set2/gray.gif","img/card_backs/set2/pink.gif","img/card_backs/set2/blue.gif","""event"",""trial"",""time""
""fullscreenenter"",""1"",""9943""
","
","
","""event"",""trial"",""time""
""fullscreenenter"",""1"",""9943""
","
","","null","","null","","fixation","2021-08-31 02:37:46.550","","","","","",""
"card-selection-trial","123","440852","0.0-25.0-1.26","1119","false","img/card_backs/set1/purple.gif","img/card_backs/set1/green.gif","img/card_backs/set1/red.gif","img/card_backs/set1/yellow.gif","img/card_backs/set2/orange.gif","img/card_backs/set2/gray.gif","img/card_backs/set2/pink.gif","img/card_backs/set2/blue.gif","""event"",""trial"",""time""
""fullscreenenter"",""1"",""9943""
","
","
","""event"",""trial"",""time""
""fullscreenenter"",""1"",""9943""
","
","","469.19999999925494","","","","real_trial","2021-08-31 02:37:49.025","img/card_backs/set1/purple.gif","3","-250","1","",""
"casino-fixation","124","441356","0.0-25.0-0.27","1119","false","img/card_backs/set1/purple.gif","img/card_backs/set1/green.gif","img/card_backs/set1/red.gif","img/card_backs/set1/yellow.gif","img/card_backs/set2/orange.gif","img/card_backs/set2/gray.gif","img/card_backs/set2/pink.gif","img/card_backs/set2/blue.gif","""event"",""trial"",""time""
""fullscreenenter"",""1"",""9943""
","
","
","""event"",""trial"",""time""
""fullscreenenter"",""1"",""9943""
","
","","null","","null","","fixation","2021-08-31 02:37:49.529","","","","","",""
"card-selection-trial","125","443715","0.0-25.0-1.27","1119","false","img/card_backs/set1/purple.gif","img/card_backs/set1/green.gif","img/card_backs/set1/red.gif","img/card_backs/set1/yellow.gif","img/card_backs/set2/orange.gif","img/card_backs/set2/gray.gif","img/card_backs/set2/pink.gif","img/card_backs/set2/blue.gif","""event"",""trial"",""time""
""fullscreenenter"",""1"",""9943""
","
","
","""event"",""trial"",""time""
""fullscreenenter"",""1"",""9943""
","
","","351.3999999985099","","","","real_trial","2021-08-31 02:37:51.888","img/card_backs/set1/red.gif","1","-70","1","",""
"casino-fixation","126","444218","0.0-25.0-0.28","1119","false","img/card_backs/set1/purple.gif","img/card_backs/set1/green.gif","img/card_backs/set1/red.gif","img/card_backs/set1/yellow.gif","img/card_backs/set2/orange.gif","img/card_backs/set2/gray.gif","img/card_backs/set2/pink.gif","img/card_backs/set2/blue.gif","""event"",""trial"",""time""
""fullscreenenter"",""1"",""9943""
","
","
","""event"",""trial"",""time""
""fullscreenenter"",""1"",""9943""
","
","","null","","null","","fixation","2021-08-31 02:37:52.391","","","","","",""
"card-selection-trial","127","446880","0.0-25.0-1.28","1119","false","img/card_backs/set1/purple.gif","img/card_backs/set1/green.gif","img/card_backs/set1/red.gif","img/card_backs/set1/yellow.gif","img/card_backs/set2/orange.gif","img/card_backs/set2/gray.gif","img/card_backs/set2/pink.gif","img/card_backs/set2/blue.gif","""event"",""trial"",""time""
""fullscreenenter"",""1"",""9943""
","
","
","""event"",""trial"",""time""
""fullscreenenter"",""1"",""9943""
","
","","653.5","","","","real_trial","2021-08-31 02:37:55.053","img/card_backs/set1/yellow.gif","0","-70","1","",""
"casino-fixation","128","447382","0.0-25.0-0.29","1119","false","img/card_backs/set1/purple.gif","img/card_backs/set1/green.gif","img/card_backs/set1/red.gif","img/card_backs/set1/yellow.gif","img/card_backs/set2/orange.gif","img/card_backs/set2/gray.gif","img/card_backs/set2/pink.gif","img/card_backs/set2/blue.gif","""event"",""trial"",""time""
""fullscreenenter"",""1"",""9943""
","
","
","""event"",""trial"",""time""
""fullscreenenter"",""1"",""9943""
","
","","null","","null","","fixation","2021-08-31 02:37:55.555","","","","","",""
"card-selection-trial","129","449896","0.0-25.0-1.29","1119","false","img/card_backs/set1/purple.gif","img/card_backs/set1/green.gif","img/card_backs/set1/red.gif","img/card_backs/set1/yellow.gif","img/card_backs/set2/orange.gif","img/card_backs/set2/gray.gif","img/card_backs/set2/pink.gif","img/card_backs/set2/blue.gif","""event"",""trial"",""time""
""fullscreenenter"",""1"",""9943""
","
","
","""event"",""trial"",""time""
""fullscreenenter"",""1"",""9943""
","
","","508.19999999925494","","","","real_trial","2021-08-31 02:37:58.069","img/card_backs/set1/yellow.gif","1","100","1","",""
"casino-fixation","130","450401","0.0-25.0-0.30","1119","false","img/card_backs/set1/purple.gif","img/card_backs/set1/green.gif","img/card_backs/set1/red.gif","img/card_backs/set1/yellow.gif","img/card_backs/set2/orange.gif","img/card_backs/set2/gray.gif","img/card_backs/set2/pink.gif","img/card_backs/set2/blue.gif","""event"",""trial"",""time""
""fullscreenenter"",""1"",""9943""
","
","
","""event"",""trial"",""time""
""fullscreenenter"",""1"",""9943""
","
","","null","","null","","fixation","2021-08-31 02:37:58.574","","","","","",""
"card-selection-trial","131","453408","0.0-25.0-1.30","1119","false","img/card_backs/set1/purple.gif","img/card_backs/set1/green.gif","img/card_backs/set1/red.gif","img/card_backs/set1/yellow.gif","img/card_backs/set2/orange.gif","img/card_backs/set2/gray.gif","img/card_backs/set2/pink.gif","img/card_backs/set2/blue.gif","""event"",""trial"",""time""
""fullscreenenter"",""1"",""9943""
","
","
","""event"",""trial"",""time""
""fullscreenenter"",""1"",""9943""
","
","","998.6999999992549","","","","real_trial","2021-08-31 02:38:01.581","img/card_backs/set1/yellow.gif","3","-60","1","",""
"casino-fixation","132","453909","0.0-25.0-0.31","1119","false","img/card_backs/set1/purple.gif","img/card_backs/set1/green.gif","img/card_backs/set1/red.gif","img/card_backs/set1/yellow.gif","img/card_backs/set2/orange.gif","img/card_backs/set2/gray.gif","img/card_backs/set2/pink.gif","img/card_backs/set2/blue.gif","""event"",""trial"",""time""
""fullscreenenter"",""1"",""9943""
","
","
","""event"",""trial"",""time""
""fullscreenenter"",""1"",""9943""
","
","","null","","null","","fixation","2021-08-31 02:38:02.082","","","","","",""
"card-selection-trial","133","456345","0.0-25.0-1.31","1119","false","img/card_backs/set1/purple.gif","img/card_backs/set1/green.gif","img/card_backs/set1/red.gif","img/card_backs/set1/yellow.gif","img/card_backs/set2/orange.gif","img/card_backs/set2/gray.gif","img/card_backs/set2/pink.gif","img/card_backs/set2/blue.gif","""event"",""trial"",""time""
""fullscreenenter"",""1"",""9943""
","
","
","""event"",""trial"",""time""
""fullscreenenter"",""1"",""9943""
","
","","430","","","","real_trial","2021-08-31 02:38:04.518","img/card_backs/set1/yellow.gif","1","110","1","",""
"casino-fixation","134","456850","0.0-25.0-0.32","1119","false","img/card_backs/set1/purple.gif","img/card_backs/set1/green.gif","img/card_backs/set1/red.gif","img/card_backs/set1/yellow.gif","img/card_backs/set2/orange.gif","img/card_backs/set2/gray.gif","img/card_backs/set2/pink.gif","img/card_backs/set2/blue.gif","""event"",""trial"",""time""
""fullscreenenter"",""1"",""9943""
","
","
","""event"",""trial"",""time""
""fullscreenenter"",""1"",""9943""
","
","","null","","null","","fixation","2021-08-31 02:38:05.023","","","","","",""
"card-selection-trial","135","459363","0.0-25.0-1.32","1119","false","img/card_backs/set1/purple.gif","img/card_backs/set1/green.gif","img/card_backs/set1/red.gif","img/card_backs/set1/yellow.gif","img/card_backs/set2/orange.gif","img/card_backs/set2/gray.gif","img/card_backs/set2/pink.gif","img/card_backs/set2/blue.gif","""event"",""trial"",""time""
""fullscreenenter"",""1"",""9943""
","
","
","""event"",""trial"",""time""
""fullscreenenter"",""1"",""9943""
","
","","508.79999999701977","","","","real_trial","2021-08-31 02:38:07.536","img/card_backs/set1/purple.gif","1","-250","1","",""
"casino-fixation","136","459868","0.0-25.0-0.33","1119","false","img/card_backs/set1/purple.gif","img/card_backs/set1/green.gif","img/card_backs/set1/red.gif","img/card_backs/set1/yellow.gif","img/card_backs/set2/orange.gif","img/card_backs/set2/gray.gif","img/card_backs/set2/pink.gif","img/card_backs/set2/blue.gif","""event"",""trial"",""time""
""fullscreenenter"",""1"",""9943""
","
","
","""event"",""trial"",""time""
""fullscreenenter"",""1"",""9943""
","
","","null","","null","","fixation","2021-08-31 02:38:08.041","","","","","",""
"card-selection-trial","137","462237","0.0-25.0-1.33","1119","false","img/card_backs/set1/purple.gif","img/card_backs/set1/green.gif","img/card_backs/set1/red.gif","img/card_backs/set1/yellow.gif","img/card_backs/set2/orange.gif","img/card_backs/set2/gray.gif","img/card_backs/set2/pink.gif","img/card_backs/set2/blue.gif","""event"",""trial"",""time""
""fullscreenenter"",""1"",""9943""
","
","
","""event"",""trial"",""time""
""fullscreenenter"",""1"",""9943""
","
","","364.5999999977648","","","","real_trial","2021-08-31 02:38:10.410","img/card_backs/set1/purple.gif","2","-230","1","",""
"casino-fixation","138","462741","0.0-25.0-0.34","1119","false","img/card_backs/set1/purple.gif","img/card_backs/set1/green.gif","img/card_backs/set1/red.gif","img/card_backs/set1/yellow.gif","img/card_backs/set2/orange.gif","img/card_backs/set2/gray.gif","img/card_backs/set2/pink.gif","img/card_backs/set2/blue.gif","""event"",""trial"",""time""
""fullscreenenter"",""1"",""9943""
","
","
","""event"",""trial"",""time""
""fullscreenenter"",""1"",""9943""
","
","","null","","null","","fixation","2021-08-31 02:38:10.915","","","","","",""
"card-selection-trial","139","465139","0.0-25.0-1.34","1119","false","img/card_backs/set1/purple.gif","img/card_backs/set1/green.gif","img/card_backs/set1/red.gif","img/card_backs/set1/yellow.gif","img/card_backs/set2/orange.gif","img/card_backs/set2/gray.gif","img/card_backs/set2/pink.gif","img/card_backs/set2/blue.gif","""event"",""trial"",""time""
""fullscreenenter"",""1"",""9943""
","
","
","""event"",""trial"",""time""
""fullscreenenter"",""1"",""9943""
","
","","392.3999999985099","","","","real_trial","2021-08-31 02:38:13.312","img/card_backs/set1/yellow.gif","0","-60","1","",""
"casino-fixation","140","465644","0.0-25.0-0.35","1119","false","img/card_backs/set1/purple.gif","img/card_backs/set1/green.gif","img/card_backs/set1/red.gif","img/card_backs/set1/yellow.gif","img/card_backs/set2/orange.gif","img/card_backs/set2/gray.gif","img/card_backs/set2/pink.gif","img/card_backs/set2/blue.gif","""event"",""trial"",""time""
""fullscreenenter"",""1"",""9943""
","
","
","""event"",""trial"",""time""
""fullscreenenter"",""1"",""9943""
","
","","null","","null","","fixation","2021-08-31 02:38:13.817","","","","","",""
"card-selection-trial","141","467716","0.0-25.0-1.35","1119","false","img/card_backs/set1/purple.gif","img/card_backs/set1/green.gif","img/card_backs/set1/red.gif","img/card_backs/set1/yellow.gif","img/card_backs/set2/orange.gif","img/card_backs/set2/gray.gif","img/card_backs/set2/pink.gif","img/card_backs/set2/blue.gif","""event"",""trial"",""time""
""fullscreenenter"",""1"",""9943""
","
","
","""event"",""trial"",""time""
""fullscreenenter"",""1"",""9943""
","
","","64.5","","","","real_trial","2021-08-31 02:38:15.889","img/card_backs/set1/yellow.gif","0","110","1","",""
"casino-fixation","142","468221","0.0-25.0-0.36","1119","false","img/card_backs/set1/purple.gif","img/card_backs/set1/green.gif","img/card_backs/set1/red.gif","img/card_backs/set1/yellow.gif","img/card_backs/set2/orange.gif","img/card_backs/set2/gray.gif","img/card_backs/set2/pink.gif","img/card_backs/set2/blue.gif","""event"",""trial"",""time""
""fullscreenenter"",""1"",""9943""
","
","
","""event"",""trial"",""time""
""fullscreenenter"",""1"",""9943""
","
","","null","","null","","fixation","2021-08-31 02:38:16.394","","","","","",""
"card-selection-trial","143","471402","0.0-25.0-1.36","1119","false","img/card_backs/set1/purple.gif","img/card_backs/set1/green.gif","img/card_backs/set1/red.gif","img/card_backs/set1/yellow.gif","img/card_backs/set2/orange.gif","img/card_backs/set2/gray.gif","img/card_backs/set2/pink.gif","img/card_backs/set2/blue.gif","""event"",""trial"",""time""
""fullscreenenter"",""1"",""9943""
","
","
","""event"",""trial"",""time""
""fullscreenenter"",""1"",""9943""
","
","","1172.6000000014901","","","","real_trial","2021-08-31 02:38:19.575","img/card_backs/set1/yellow.gif","0","-70","1","",""
"casino-fixation","144","471907","0.0-25.0-0.37","1119","false","img/card_backs/set1/purple.gif","img/card_backs/set1/green.gif","img/card_backs/set1/red.gif","img/card_backs/set1/yellow.gif","img/card_backs/set2/orange.gif","img/card_backs/set2/gray.gif","img/card_backs/set2/pink.gif","img/card_backs/set2/blue.gif","""event"",""trial"",""time""
""fullscreenenter"",""1"",""9943""
","
","
","""event"",""trial"",""time""
""fullscreenenter"",""1"",""9943""
","
","","null","","null","","fixation","2021-08-31 02:38:20.080","","","","","",""
"card-selection-trial","145","474200","0.0-25.0-1.37","1119","false","img/card_backs/set1/purple.gif","img/card_backs/set1/green.gif","img/card_backs/set1/red.gif","img/card_backs/set1/yellow.gif","img/card_backs/set2/orange.gif","img/card_backs/set2/gray.gif","img/card_backs/set2/pink.gif","img/card_backs/set2/blue.gif","""event"",""trial"",""time""
""fullscreenenter"",""1"",""9943""
","
","
","""event"",""trial"",""time""
""fullscreenenter"",""1"",""9943""
","
","","284.1000000014901","","","","real_trial","2021-08-31 02:38:22.373","img/card_backs/set1/yellow.gif","3","-70","1","",""
"casino-fixation","146","474705","0.0-25.0-0.38","1119","false","img/card_backs/set1/purple.gif","img/card_backs/set1/green.gif","img/card_backs/set1/red.gif","img/card_backs/set1/yellow.gif","img/card_backs/set2/orange.gif","img/card_backs/set2/gray.gif","img/card_backs/set2/pink.gif","img/card_backs/set2/blue.gif","""event"",""trial"",""time""
""fullscreenenter"",""1"",""9943""
","
","
","""event"",""trial"",""time""
""fullscreenenter"",""1"",""9943""
","
","","null","","null","","fixation","2021-08-31 02:38:22.878","","","","","",""
"card-selection-trial","147","477004","0.0-25.0-1.38","1119","false","img/card_backs/set1/purple.gif","img/card_backs/set1/green.gif","img/card_backs/set1/red.gif","img/card_backs/set1/yellow.gif","img/card_backs/set2/orange.gif","img/card_backs/set2/gray.gif","img/card_backs/set2/pink.gif","img/card_backs/set2/blue.gif","""event"",""trial"",""time""
""fullscreenenter"",""1"",""9943""
","
","
","""event"",""trial"",""time""
""fullscreenenter"",""1"",""9943""
","
","","291.8999999985099","","","","real_trial","2021-08-31 02:38:25.177","img/card_backs/set1/red.gif","2","-60","1","",""
"casino-fixation","148","477508","0.0-25.0-0.39","1119","false","img/card_backs/set1/purple.gif","img/card_backs/set1/green.gif","img/card_backs/set1/red.gif","img/card_backs/set1/yellow.gif","img/card_backs/set2/orange.gif","img/card_backs/set2/gray.gif","img/card_backs/set2/pink.gif","img/card_backs/set2/blue.gif","""event"",""trial"",""time""
""fullscreenenter"",""1"",""9943""
","
","
","""event"",""trial"",""time""
""fullscreenenter"",""1"",""9943""
","
","","null","","null","","fixation","2021-08-31 02:38:25.681","","","","","",""
"card-selection-trial","149","479715","0.0-25.0-1.39","1119","false","img/card_backs/set1/purple.gif","img/card_backs/set1/green.gif","img/card_backs/set1/red.gif","img/card_backs/set1/yellow.gif","img/card_backs/set2/orange.gif","img/card_backs/set2/gray.gif","img/card_backs/set2/pink.gif","img/card_backs/set2/blue.gif","""event"",""trial"",""time""
""fullscreenenter"",""1"",""9943""
","
","
","""event"",""trial"",""time""
""fullscreenenter"",""1"",""9943""
","
","","200.40000000223517","","","","real_trial","2021-08-31 02:38:27.888","img/card_backs/set1/purple.gif","1","-240","1","",""
"casino-fixation","150","480217","0.0-25.0-0.40","1119","false","img/card_backs/set1/purple.gif","img/card_backs/set1/green.gif","img/card_backs/set1/red.gif","img/card_backs/set1/yellow.gif","img/card_backs/set2/orange.gif","img/card_backs/set2/gray.gif","img/card_backs/set2/pink.gif","img/card_backs/set2/blue.gif","""event"",""trial"",""time""
""fullscreenenter"",""1"",""9943""
","
","
","""event"",""trial"",""time""
""fullscreenenter"",""1"",""9943""
","
","","null","","null","","fixation","2021-08-31 02:38:28.391","","","","","",""
"card-selection-trial","151","482512","0.0-25.0-1.40","1119","false","img/card_backs/set1/purple.gif","img/card_backs/set1/green.gif","img/card_backs/set1/red.gif","img/card_backs/set1/yellow.gif","img/card_backs/set2/orange.gif","img/card_backs/set2/gray.gif","img/card_backs/set2/pink.gif","img/card_backs/set2/blue.gif","""event"",""trial"",""time""
""fullscreenenter"",""1"",""9943""
","
","
","""event"",""trial"",""time""
""fullscreenenter"",""1"",""9943""
","
","","286","","","","real_trial","2021-08-31 02:38:30.685","img/card_backs/set1/green.gif","0","200","1","",""
"casino-fixation","152","483018","0.0-25.0-0.41","1119","false","img/card_backs/set1/purple.gif","img/card_backs/set1/green.gif","img/card_backs/set1/red.gif","img/card_backs/set1/yellow.gif","img/card_backs/set2/orange.gif","img/card_backs/set2/gray.gif","img/card_backs/set2/pink.gif","img/card_backs/set2/blue.gif","""event"",""trial"",""time""
""fullscreenenter"",""1"",""9943""
","
","
","""event"",""trial"",""time""
""fullscreenenter"",""1"",""9943""
","
","","null","","null","","fixation","2021-08-31 02:38:31.191","","","","","",""
"card-selection-trial","153","485491","0.0-25.0-1.41","1119","false","img/card_backs/set1/purple.gif","img/card_backs/set1/green.gif","img/card_backs/set1/red.gif","img/card_backs/set1/yellow.gif","img/card_backs/set2/orange.gif","img/card_backs/set2/gray.gif","img/card_backs/set2/pink.gif","img/card_backs/set2/blue.gif","""event"",""trial"",""time""
""fullscreenenter"",""1"",""9943""
","
","
","""event"",""trial"",""time""
""fullscreenenter"",""1"",""9943""
","
","","463.69999999925494","","","","real_trial","2021-08-31 02:38:33.664","img/card_backs/set1/green.gif","0","200","1","",""
"casino-fixation","154","485994","0.0-25.0-0.42","1119","false","img/card_backs/set1/purple.gif","img/card_backs/set1/green.gif","img/card_backs/set1/red.gif","img/card_backs/set1/yellow.gif","img/card_backs/set2/orange.gif","img/card_backs/set2/gray.gif","img/card_backs/set2/pink.gif","img/card_backs/set2/blue.gif","""event"",""trial"",""time""
""fullscreenenter"",""1"",""9943""
","
","
","""event"",""trial"",""time""
""fullscreenenter"",""1"",""9943""
","
","","null","","null","","fixation","2021-08-31 02:38:34.168","","","","","",""
"card-selection-trial","155","488300","0.0-25.0-1.42","1119","false","img/card_backs/set1/purple.gif","img/card_backs/set1/green.gif","img/card_backs/set1/red.gif","img/card_backs/set1/yellow.gif","img/card_backs/set2/orange.gif","img/card_backs/set2/gray.gif","img/card_backs/set2/pink.gif","img/card_backs/set2/blue.gif","""event"",""trial"",""time""
""fullscreenenter"",""1"",""9943""
","
","
","""event"",""trial"",""time""
""fullscreenenter"",""1"",""9943""
","
","","300.3999999985099","","","","real_trial","2021-08-31 02:38:36.473","img/card_backs/set1/green.gif","0","190","1","",""
"casino-fixation","156","488805","0.0-25.0-0.43","1119","false","img/card_backs/set1/purple.gif","img/card_backs/set1/green.gif","img/card_backs/set1/red.gif","img/card_backs/set1/yellow.gif","img/card_backs/set2/orange.gif","img/card_backs/set2/gray.gif","img/card_backs/set2/pink.gif","img/card_backs/set2/blue.gif","""event"",""trial"",""time""
""fullscreenenter"",""1"",""9943""
","
","
","""event"",""trial"",""time""
""fullscreenenter"",""1"",""9943""
","
","","null","","null","","fixation","2021-08-31 02:38:36.978","","","","","",""
"card-selection-trial","157","491359","0.0-25.0-1.43","1119","false","img/card_backs/set1/purple.gif","img/card_backs/set1/green.gif","img/card_backs/set1/red.gif","img/card_backs/set1/yellow.gif","img/card_backs/set2/orange.gif","img/card_backs/set2/gray.gif","img/card_backs/set2/pink.gif","img/card_backs/set2/blue.gif","""event"",""trial"",""time""
""fullscreenenter"",""1"",""9943""
","
","
","""event"",""trial"",""time""
""fullscreenenter"",""1"",""9943""
","
","","547.9000000022352","","","","real_trial","2021-08-31 02:38:39.532","img/card_backs/set1/red.gif","0","120","1","",""
"casino-fixation","158","491864","0.0-25.0-0.44","1119","false","img/card_backs/set1/purple.gif","img/card_backs/set1/green.gif","img/card_backs/set1/red.gif","img/card_backs/set1/yellow.gif","img/card_backs/set2/orange.gif","img/card_backs/set2/gray.gif","img/card_backs/set2/pink.gif","img/card_backs/set2/blue.gif","""event"",""trial"",""time""
""fullscreenenter"",""1"",""9943""
","
","
","""event"",""trial"",""time""
""fullscreenenter"",""1"",""9943""
","
","","null","","null","","fixation","2021-08-31 02:38:40.037","","","","","",""
"card-selection-trial","159","494842","0.0-25.0-1.44","1119","false","img/card_backs/set1/purple.gif","img/card_backs/set1/green.gif","img/card_backs/set1/red.gif","img/card_backs/set1/yellow.gif","img/card_backs/set2/orange.gif","img/card_backs/set2/gray.gif","img/card_backs/set2/pink.gif","img/card_backs/set2/blue.gif","""event"",""trial"",""time""
""fullscreenenter"",""1"",""9943""
","
","
","""event"",""trial"",""time""
""fullscreenenter"",""1"",""9943""
","
","","972.5","","","","real_trial","2021-08-31 02:38:43.015","img/card_backs/set1/red.gif","2","100","1","",""
"casino-fixation","160","495347","0.0-25.0-0.45","1119","false","img/card_backs/set1/purple.gif","img/card_backs/set1/green.gif","img/card_backs/set1/red.gif","img/card_backs/set1/yellow.gif","img/card_backs/set2/orange.gif","img/card_backs/set2/gray.gif","img/card_backs/set2/pink.gif","img/card_backs/set2/blue.gif","""event"",""trial"",""time""
""fullscreenenter"",""1"",""9943""
","
","
","""event"",""trial"",""time""
""fullscreenenter"",""1"",""9943""
","
","","null","","null","","fixation","2021-08-31 02:38:43.520","","","","","",""
"card-selection-trial","161","499579","0.0-25.0-1.45","1119","false","img/card_backs/set1/purple.gif","img/card_backs/set1/green.gif","img/card_backs/set1/red.gif","img/card_backs/set1/yellow.gif","img/card_backs/set2/orange.gif","img/card_backs/set2/gray.gif","img/card_backs/set2/pink.gif","img/card_backs/set2/blue.gif","""event"",""trial"",""time""
""fullscreenenter"",""1"",""9943""
","
","
","""event"",""trial"",""time""
""fullscreenenter"",""1"",""9943""
","
","","2226.699999999255","","","","real_trial","2021-08-31 02:38:47.752","img/card_backs/set1/yellow.gif","3","100","1","",""
"casino-fixation","162","500084","0.0-25.0-0.46","1119","false","img/card_backs/set1/purple.gif","img/card_backs/set1/green.gif","img/card_backs/set1/red.gif","img/card_backs/set1/yellow.gif","img/card_backs/set2/orange.gif","img/card_backs/set2/gray.gif","img/card_backs/set2/pink.gif","img/card_backs/set2/blue.gif","""event"",""trial"",""time""
""fullscreenenter"",""1"",""9943""
","
","
","""event"",""trial"",""time""
""fullscreenenter"",""1"",""9943""
","
","","null","","null","","fixation","2021-08-31 02:38:48.257","","","","","",""
"card-selection-trial","163","502713","0.0-25.0-1.46","1119","false","img/card_backs/set1/purple.gif","img/card_backs/set1/green.gif","img/card_backs/set1/red.gif","img/card_backs/set1/yellow.gif","img/card_backs/set2/orange.gif","img/card_backs/set2/gray.gif","img/card_backs/set2/pink.gif","img/card_backs/set2/blue.gif","""event"",""trial"",""time""
""fullscreenenter"",""1"",""9943""
","
","
","""event"",""trial"",""time""
""fullscreenenter"",""1"",""9943""
","
","","622.0999999977648","","","","real_trial","2021-08-31 02:38:50.886","img/card_backs/set1/red.gif","3","120","1","",""
"casino-fixation","164","503218","0.0-25.0-0.47","1119","false","img/card_backs/set1/purple.gif","img/card_backs/set1/green.gif","img/card_backs/set1/red.gif","img/card_backs/set1/yellow.gif","img/card_backs/set2/orange.gif","img/card_backs/set2/gray.gif","img/card_backs/set2/pink.gif","img/card_backs/set2/blue.gif","""event"",""trial"",""time""
""fullscreenenter"",""1"",""9943""
","
","
","""event"",""trial"",""time""
""fullscreenenter"",""1"",""9943""
","
","","null","","null","","fixation","2021-08-31 02:38:51.391","","","","","",""
"card-selection-trial","165","506091","0.0-25.0-1.47","1119","false","img/card_backs/set1/purple.gif","img/card_backs/set1/green.gif","img/card_backs/set1/red.gif","img/card_backs/set1/yellow.gif","img/card_backs/set2/orange.gif","img/card_backs/set2/gray.gif","img/card_backs/set2/pink.gif","img/card_backs/set2/blue.gif","""event"",""trial"",""time""
""fullscreenenter"",""1"",""9943""
","
","
","""event"",""trial"",""time""
""fullscreenenter"",""1"",""9943""
","
","","863.9000000022352","","","","real_trial","2021-08-31 02:38:54.264","img/card_backs/set1/green.gif","1","-230","1","",""
"casino-fixation","166","506596","0.0-25.0-0.48","1119","false","img/card_backs/set1/purple.gif","img/card_backs/set1/green.gif","img/card_backs/set1/red.gif","img/card_backs/set1/yellow.gif","img/card_backs/set2/orange.gif","img/card_backs/set2/gray.gif","img/card_backs/set2/pink.gif","img/card_backs/set2/blue.gif","""event"",""trial"",""time""
""fullscreenenter"",""1"",""9943""
","
","
","""event"",""trial"",""time""
""fullscreenenter"",""1"",""9943""
","
","","null","","null","","fixation","2021-08-31 02:38:54.770","","","","","",""
"card-selection-trial","167","508805","0.0-25.0-1.48","1119","false","img/card_backs/set1/purple.gif","img/card_backs/set1/green.gif","img/card_backs/set1/red.gif","img/card_backs/set1/yellow.gif","img/card_backs/set2/orange.gif","img/card_backs/set2/gray.gif","img/card_backs/set2/pink.gif","img/card_backs/set2/blue.gif","""event"",""trial"",""time""
""fullscreenenter"",""1"",""9943""
","
","
