"trial_type","trial_index","time_elapsed","internal_node_id","sub_id","risk_good_first","block1_A","block1_B","block1_C","block1_D","block2_A","block2_B","block2_C","block2_D","interactions","blur_events","focus_events","fullscreenenter_events","fullscreenexit_events","success","rt","stimulus","key_press","button_pressed","task_part","timestamp","card_choice","choice_position","points_earned","block","correct","response"
"pavlovia","0","4","0.0-0.0","A428","true","img/card_backs/set1/yellow.gif","img/card_backs/set1/red.gif","img/card_backs/set1/green.gif","img/card_backs/set1/purple.gif","img/card_backs/set2/pink.gif","img/card_backs/set2/gray.gif","img/card_backs/set2/orange.gif","img/card_backs/set2/blue.gif","""event"",""trial"",""time""
""fullscreenenter"",""1"",""4946""
","
","
","""event"",""trial"",""time""
""fullscreenenter"",""1"",""4946""
","
","","","","","","","","","","","","",""
"fullscreen","1","5936","0.0-1.0","A428","true","img/card_backs/set1/yellow.gif","img/card_backs/set1/red.gif","img/card_backs/set1/green.gif","img/card_backs/set1/purple.gif","img/card_backs/set2/pink.gif","img/card_backs/set2/gray.gif","img/card_backs/set2/orange.gif","img/card_backs/set2/blue.gif","""event"",""trial"",""time""
""fullscreenenter"",""1"",""4946""
","
","
","""event"",""trial"",""time""
""fullscreenenter"",""1"",""4946""
","
","true","","","","","","","","","","","",""
"audio-keyboard-response","2","9295","0.0-2.0","A428","true","img/card_backs/set1/yellow.gif","img/card_backs/set1/red.gif","img/card_backs/set1/green.gif","img/card_backs/set1/purple.gif","img/card_backs/set2/pink.gif","img/card_backs/set2/gray.gif","img/card_backs/set2/orange.gif","img/card_backs/set2/blue.gif","""event"",""trial"",""time""
""fullscreenenter"",""1"",""4946""
","
","
","""event"",""trial"",""time""
""fullscreenenter"",""1"",""4946""
","
","","3280","audio/beep_loop.wav","32","","","","","","","","",""
"audio-button-response","3","11496","0.0-3.0","A428","true","img/card_backs/set1/yellow.gif","img/card_backs/set1/red.gif","img/card_backs/set1/green.gif","img/card_backs/set1/purple.gif","img/card_backs/set2/pink.gif","img/card_backs/set2/gray.gif","img/card_backs/set2/orange.gif","img/card_backs/set2/blue.gif","""event"",""trial"",""time""
""fullscreenenter"",""1"",""4946""
","
","
","""event"",""trial"",""time""
""fullscreenenter"",""1"",""4946""
","
","","NaN","audio/turtle.mp3","","3","","","","","","","",""
"audio-button-response","4","13926","0.0-4.0","A428","true","img/card_backs/set1/yellow.gif","img/card_backs/set1/red.gif","img/card_backs/set1/green.gif","img/card_backs/set1/purple.gif","img/card_backs/set2/pink.gif","img/card_backs/set2/gray.gif","img/card_backs/set2/orange.gif","img/card_backs/set2/blue.gif","""event"",""trial"",""time""
""fullscreenenter"",""1"",""4946""
","
","
","""event"",""trial"",""time""
""fullscreenenter"",""1"",""4946""
","
","","NaN","audio/shark.mp3","","2","","","","","","","",""
"fullscreen","5","17564","0.0-5.0","A428","true","img/card_backs/set1/yellow.gif","img/card_backs/set1/red.gif","img/card_backs/set1/green.gif","img/card_backs/set1/purple.gif","img/card_backs/set2/pink.gif","img/card_backs/set2/gray.gif","img/card_backs/set2/orange.gif","img/card_backs/set2/blue.gif","""event"",""trial"",""time""
""fullscreenenter"",""1"",""4946""
","
","
","""event"",""trial"",""time""
""fullscreenenter"",""1"",""4946""
","
","true","","","","","","","","","","","",""
"casino-keyboard-response","6","20668","0.0-6.0-0.0","A428","true","img/card_backs/set1/yellow.gif","img/card_backs/set1/red.gif","img/card_backs/set1/green.gif","img/card_backs/set1/purple.gif","img/card_backs/set2/pink.gif","img/card_backs/set2/gray.gif","img/card_backs/set2/orange.gif","img/card_backs/set2/blue.gif","""event"",""trial"",""time""
""fullscreenenter"",""1"",""4946""
","
","
","""event"",""trial"",""time""
""fullscreenenter"",""1"",""4946""
","
","","3100.190000001021","Welcome to the casino!","71","","instructions","2021-04-01 00:03:36.399","","","","","",""
"casino-keyboard-response","7","30552","0.0-6.0-0.1","A428","true","img/card_backs/set1/yellow.gif","img/card_backs/set1/red.gif","img/card_backs/set1/green.gif","img/card_backs/set1/purple.gif","img/card_backs/set2/pink.gif","img/card_backs/set2/gray.gif","img/card_backs/set2/orange.gif","img/card_backs/set2/blue.gif","""event"",""trial"",""time""
""fullscreenenter"",""1"",""4946""
","
","
","""event"",""trial"",""time""
""fullscreenenter"",""1"",""4946""
","
","","9881.890000000567","Today you will be playing a game to earn tokens. </br> At the end of the experiment, you will be paid a bonus based on how many tokens you win. ","69","","instructions","2021-04-01 00:03:46.282","","","","","",""
"casino-keyboard-response","8","38232","0.0-6.0-0.2","A428","true","img/card_backs/set1/yellow.gif","img/card_backs/set1/red.gif","img/card_backs/set1/green.gif","img/card_backs/set1/purple.gif","img/card_backs/set2/pink.gif","img/card_backs/set2/gray.gif","img/card_backs/set2/orange.gif","img/card_backs/set2/blue.gif","""event"",""trial"",""time""
""fullscreenenter"",""1"",""4946""
","
","
","""event"",""trial"",""time""
""fullscreenenter"",""1"",""4946""
","
","","7677.395000000615","On every turn, you will be shown four different decks of cards. </br> You need to select a card from one of the four decks.  ","75","","instructions","2021-04-01 00:03:53.962","","","","","",""
"casino-keyboard-response","9","43435","0.0-6.0-0.3","A428","true","img/card_backs/set1/yellow.gif","img/card_backs/set1/red.gif","img/card_backs/set1/green.gif","img/card_backs/set1/purple.gif","img/card_backs/set2/pink.gif","img/card_backs/set2/gray.gif","img/card_backs/set2/orange.gif","img/card_backs/set2/blue.gif","""event"",""trial"",""time""
""fullscreenenter"",""1"",""4946""
","
","
","""event"",""trial"",""time""
""fullscreenenter"",""1"",""4946""
","
","","5200.929999999062","On the next screen, you will see what the decks will look like. ","66","","instructions","2021-04-01 00:03:59.165","","","","","",""
"card-selection-trial","10","47466","0.0-7.0-0.0","A428","true","img/card_backs/set1/yellow.gif","img/card_backs/set1/red.gif","img/card_backs/set1/green.gif","img/card_backs/set1/purple.gif","img/card_backs/set2/pink.gif","img/card_backs/set2/gray.gif","img/card_backs/set2/orange.gif","img/card_backs/set2/blue.gif","""event"",""trial"",""time""
""fullscreenenter"",""1"",""4946""
","
","
","""event"",""trial"",""time""
""fullscreenenter"",""1"",""4946""
","
","","null","","","","practice","2021-04-01 00:04:03.197","null","null","null","0","",""
"casino-keyboard-response","11","55276","0.0-8.0-0.0","A428","true","img/card_backs/set1/yellow.gif","img/card_backs/set1/red.gif","img/card_backs/set1/green.gif","img/card_backs/set1/purple.gif","img/card_backs/set2/pink.gif","img/card_backs/set2/gray.gif","img/card_backs/set2/orange.gif","img/card_backs/set2/blue.gif","""event"",""trial"",""time""
""fullscreenenter"",""1"",""4946""
","
","
","""event"",""trial"",""time""
""fullscreenenter"",""1"",""4946""
","
","","7809.22499999906","You should pick a card from a deck using the '2', '4', '6', and '8' keys at the top of the keyboard.","85","","instructions","2021-04-01 00:04:11.007","","","","","",""
"casino-keyboard-response","12","60887","0.0-8.0-0.1","A428","true","img/card_backs/set1/yellow.gif","img/card_backs/set1/red.gif","img/card_backs/set1/green.gif","img/card_backs/set1/purple.gif","img/card_backs/set2/pink.gif","img/card_backs/set2/gray.gif","img/card_backs/set2/orange.gif","img/card_backs/set2/blue.gif","""event"",""trial"",""time""
""fullscreenenter"",""1"",""4946""
","
","
","""event"",""trial"",""time""
""fullscreenenter"",""1"",""4946""
","
","","5609.060000000682","Once you select a card, it will turn over and you will see how many tokens you earned.","83","","instructions","2021-04-01 00:04:16.618","","","","","",""
"casino-keyboard-response","13","75261","0.0-8.0-0.2","A428","true","img/card_backs/set1/yellow.gif","img/card_backs/set1/red.gif","img/card_backs/set1/green.gif","img/card_backs/set1/purple.gif","img/card_backs/set2/pink.gif","img/card_backs/set2/gray.gif","img/card_backs/set2/orange.gif","img/card_backs/set2/blue.gif","""event"",""trial"",""time""
""fullscreenenter"",""1"",""4946""
","
","
","""event"",""trial"",""time""
""fullscreenenter"",""1"",""4946""
","
","","14371.735000000626","Let's try practicing that! </br> First, try to put your fingers over the '2', '4', '6', and '8' keys. </br>  You can use whatever fingers are most comfortable for you. Try to find a comfortable position now. ","50","","instructions","2021-04-01 00:04:30.991","","","","","",""
"casino-keyboard-response","14","80932","0.0-8.0-0.3","A428","true","img/card_backs/set1/yellow.gif","img/card_backs/set1/red.gif","img/card_backs/set1/green.gif","img/card_backs/set1/purple.gif","img/card_backs/set2/pink.gif","img/card_backs/set2/gray.gif","img/card_backs/set2/orange.gif","img/card_backs/set2/blue.gif","""event"",""trial"",""time""
""fullscreenenter"",""1"",""4946""
","
","
","""event"",""trial"",""time""
""fullscreenenter"",""1"",""4946""
","
","","5668.43499999959","Okay ready? </br> On the next screen, press '2' to select the left deck. ","50","","instructions","2021-04-01 00:04:36.662","","","","","",""
"card-selection-trial","15","83797","0.0-9.0-0.0","A428","true","img/card_backs/set1/yellow.gif","img/card_backs/set1/red.gif","img/card_backs/set1/green.gif","img/card_backs/set1/purple.gif","img/card_backs/set2/pink.gif","img/card_backs/set2/gray.gif","img/card_backs/set2/orange.gif","img/card_backs/set2/blue.gif","""event"",""trial"",""time""
""fullscreenenter"",""1"",""4946""
","
","
","""event"",""trial"",""time""
""fullscreenenter"",""1"",""4946""
","
","","833.6149999995541","","","","practice_card_selection","2021-04-01 00:04:39.527","img/practice_cards/backs/brown.gif","0","100","","",""
"casino-keyboard-response","16","92395","0.0-10.0-0.0","A428","true","img/card_backs/set1/yellow.gif","img/card_backs/set1/red.gif","img/card_backs/set1/green.gif","img/card_backs/set1/purple.gif","img/card_backs/set2/pink.gif","img/card_backs/set2/gray.gif","img/card_backs/set2/orange.gif","img/card_backs/set2/blue.gif","""event"",""trial"",""time""
""fullscreenenter"",""1"",""4946""
","
","
","""event"",""trial"",""time""
""fullscreenenter"",""1"",""4946""
","
","","8596.449999999095","Great! Now on the next screen, try pressing '6' to select the third deck.","54","","instructions","2021-04-01 00:04:48.125","","","","","",""
"card-selection-trial","17","95757","0.0-11.0-0.0","A428","true","img/card_backs/set1/yellow.gif","img/card_backs/set1/red.gif","img/card_backs/set1/green.gif","img/card_backs/set1/purple.gif","img/card_backs/set2/pink.gif","img/card_backs/set2/gray.gif","img/card_backs/set2/orange.gif","img/card_backs/set2/blue.gif","""event"",""trial"",""time""
""fullscreenenter"",""1"",""4946""
","
","
","""event"",""trial"",""time""
""fullscreenenter"",""1"",""4946""
","
","","1343.430000000808","","","","practice_card_selection","2021-04-01 00:04:51.487","img/practice_cards/backs/dark_green.gif","2","-200","","",""
"casino-keyboard-response","18","101719","0.0-12.0-0.0","A428","true","img/card_backs/set1/yellow.gif","img/card_backs/set1/red.gif","img/card_backs/set1/green.gif","img/card_backs/set1/purple.gif","img/card_backs/set2/pink.gif","img/card_backs/set2/gray.gif","img/card_backs/set2/orange.gif","img/card_backs/set2/blue.gif","""event"",""trial"",""time""
""fullscreenenter"",""1"",""4946""
","
","
","""event"",""trial"",""time""
""fullscreenenter"",""1"",""4946""
","
","","5959.995000001072","Now on the next screen, try pressing '4' to select the second deck.","52","","instructions","2021-04-01 00:04:57.449","","","","","",""
"card-selection-trial","19","104457","0.0-13.0-0.0","A428","true","img/card_backs/set1/yellow.gif","img/card_backs/set1/red.gif","img/card_backs/set1/green.gif","img/card_backs/set1/purple.gif","img/card_backs/set2/pink.gif","img/card_backs/set2/gray.gif","img/card_backs/set2/orange.gif","img/card_backs/set2/blue.gif","""event"",""trial"",""time""
""fullscreenenter"",""1"",""4946""
","
","
","""event"",""trial"",""time""
""fullscreenenter"",""1"",""4946""
","
","","731.4399999995658","","","","practice_card_selection","2021-04-01 00:05:00.187","img/practice_cards/backs/black.gif","1","100","","",""
"casino-keyboard-response","20","109559","0.0-14.0-0.0","A428","true","img/card_backs/set1/yellow.gif","img/card_backs/set1/red.gif","img/card_backs/set1/green.gif","img/card_backs/set1/purple.gif","img/card_backs/set2/pink.gif","img/card_backs/set2/gray.gif","img/card_backs/set2/orange.gif","img/card_backs/set2/blue.gif","""event"",""trial"",""time""
""fullscreenenter"",""1"",""4946""
","
","
","""event"",""trial"",""time""
""fullscreenenter"",""1"",""4946""
","
","","5099.154999999882","Finally, try pressing '8' to select the deck all the way on the right.","56","","instructions","2021-04-01 00:05:05.289","","","","","",""
"card-selection-trial","21","113248","0.0-15.0-0.0","A428","true","img/card_backs/set1/yellow.gif","img/card_backs/set1/red.gif","img/card_backs/set1/green.gif","img/card_backs/set1/purple.gif","img/card_backs/set2/pink.gif","img/card_backs/set2/gray.gif","img/card_backs/set2/orange.gif","img/card_backs/set2/blue.gif","""event"",""trial"",""time""
""fullscreenenter"",""1"",""4946""
","
","
","""event"",""trial"",""time""
""fullscreenenter"",""1"",""4946""
","
","","1677.8699999995297","","","","practice_card_selection","2021-04-01 00:05:08.978","img/practice_cards/backs/black.gif","3","-100","","",""
"casino-keyboard-response","22","116590","0.0-16.0-0.0","A428","true","img/card_backs/set1/yellow.gif","img/card_backs/set1/red.gif","img/card_backs/set1/green.gif","img/card_backs/set1/purple.gif","img/card_backs/set2/pink.gif","img/card_backs/set2/gray.gif","img/card_backs/set2/orange.gif","img/card_backs/set2/blue.gif","""event"",""trial"",""time""
""fullscreenenter"",""1"",""4946""
","
","
","""event"",""trial"",""time""
""fullscreenenter"",""1"",""4946""
","
","","3340.425000000323","Great! It seems like you are getting the hang of this.","80","","instructions","2021-04-01 00:05:12.320","","","","","",""
"casino-keyboard-response","23","123844","0.0-16.0-0.1","A428","true","img/card_backs/set1/yellow.gif","img/card_backs/set1/red.gif","img/card_backs/set1/green.gif","img/card_backs/set1/purple.gif","img/card_backs/set2/pink.gif","img/card_backs/set2/gray.gif","img/card_backs/set2/orange.gif","img/card_backs/set2/blue.gif","""event"",""trial"",""time""
""fullscreenenter"",""1"",""4946""
","
","
","""event"",""trial"",""time""
""fullscreenenter"",""1"",""4946""
","
","","7251.330000000962","You may have noticed that some cards will cause you to <b> win </b> tokens while other cards will cause you to <b> lose </b>  tokens.","70","","instructions","2021-04-01 00:05:19.574","","","","","",""
"casino-keyboard-response","24","132125","0.0-16.0-0.2","A428","true","img/card_backs/set1/yellow.gif","img/card_backs/set1/red.gif","img/card_backs/set1/green.gif","img/card_backs/set1/purple.gif","img/card_backs/set2/pink.gif","img/card_backs/set2/gray.gif","img/card_backs/set2/orange.gif","img/card_backs/set2/blue.gif","""event"",""trial"",""time""
""fullscreenenter"",""1"",""4946""
","
","
","""event"",""trial"",""time""
""fullscreenenter"",""1"",""4946""
","
","","8279.125000000917","Each deck has a mix of cards that will cause you to win and lose tokens. </br> However, the cards in each colored deck are different.","73","","instructions","2021-04-01 00:05:27.855","","","","","",""
"casino-keyboard-response","25","140674","0.0-16.0-0.3","A428","true","img/card_backs/set1/yellow.gif","img/card_backs/set1/red.gif","img/card_backs/set1/green.gif","img/card_backs/set1/purple.gif","img/card_backs/set2/pink.gif","img/card_backs/set2/gray.gif","img/card_backs/set2/orange.gif","img/card_backs/set2/blue.gif","""event"",""trial"",""time""
""fullscreenenter"",""1"",""4946""
","
","
","""event"",""trial"",""time""
""fullscreenenter"",""1"",""4946""
","
","","8547.290000000416","Some colored decks are luckier than others. </br> If you choose the lucky decks, you will earn more tokens than if you choose the unlucky decks.","69","","instructions","2021-04-01 00:05:36.404","","","","","",""
"casino-keyboard-response","26","147986","0.0-16.0-0.4","A428","true","img/card_backs/set1/yellow.gif","img/card_backs/set1/red.gif","img/card_backs/set1/green.gif","img/card_backs/set1/purple.gif","img/card_backs/set2/pink.gif","img/card_backs/set2/gray.gif","img/card_backs/set2/orange.gif","img/card_backs/set2/blue.gif","""event"",""trial"",""time""
""fullscreenenter"",""1"",""4946""
","
","
","""event"",""trial"",""time""
""fullscreenenter"",""1"",""4946""
","
","","7310.199999999895","You should try to figure out which decks are lucky. </br> Then, try to choose the lucky decks so you can win the most tokens.","87","","instructions","2021-04-01 00:05:43.716","","","","","",""
"casino-keyboard-response","27","159189","0.0-16.0-0.5","A428","true","img/card_backs/set1/yellow.gif","img/card_backs/set1/red.gif","img/card_backs/set1/green.gif","img/card_backs/set1/purple.gif","img/card_backs/set2/pink.gif","img/card_backs/set2/gray.gif","img/card_backs/set2/orange.gif","img/card_backs/set2/blue.gif","""event"",""trial"",""time""
""fullscreenenter"",""1"",""4946""
","
","
","""event"",""trial"",""time""
""fullscreenenter"",""1"",""4946""
","
","","11200.984999999462","To make it trickier, the casino dealer will switch the locations of the decks on every turn. </br> The color of the deck determines how lucky it is. The location does not matter.","88","","instructions","2021-04-01 00:05:54.919","","","","","",""
"casino-keyboard-response","28","171335","0.0-16.0-0.6","A428","true","img/card_backs/set1/yellow.gif","img/card_backs/set1/red.gif","img/card_backs/set1/green.gif","img/card_backs/set1/purple.gif","img/card_backs/set2/pink.gif","img/card_backs/set2/gray.gif","img/card_backs/set2/orange.gif","img/card_backs/set2/blue.gif","""event"",""trial"",""time""
""fullscreenenter"",""1"",""4946""
","
","
","""event"",""trial"",""time""
""fullscreenenter"",""1"",""4946""
","
","","12143.43499999994","The mix of cards in each colored deck will stay the same throughout the game. </br> That means that a deck that is lucky early on will stay lucky.","79","","instructions","2021-04-01 00:06:07.065","","","","","",""
"casino-keyboard-response","29","180145","0.0-16.0-0.7","A428","true","img/card_backs/set1/yellow.gif","img/card_backs/set1/red.gif","img/card_backs/set1/green.gif","img/card_backs/set1/purple.gif","img/card_backs/set2/pink.gif","img/card_backs/set2/gray.gif","img/card_backs/set2/orange.gif","img/card_backs/set2/blue.gif","""event"",""trial"",""time""
""fullscreenenter"",""1"",""4946""
","
","
","""event"",""trial"",""time""
""fullscreenenter"",""1"",""4946""
","
","","8806.104999999661","Remember though, all the decks have a <b> mix </b> of both <b> good </b> and <b> bad </b> cards so it may take a couple of turns to figure out if a deck is lucky.","69","","instructions","2021-04-01 00:06:15.875","","","","","",""
"casino-keyboard-response","30","188931","0.0-16.0-0.8","A428","true","img/card_backs/set1/yellow.gif","img/card_backs/set1/red.gif","img/card_backs/set1/green.gif","img/card_backs/set1/purple.gif","img/card_backs/set2/pink.gif","img/card_backs/set2/gray.gif","img/card_backs/set2/orange.gif","img/card_backs/set2/blue.gif","""event"",""trial"",""time""
""fullscreenenter"",""1"",""4946""
","
","
","""event"",""trial"",""time""
""fullscreenenter"",""1"",""4946""
","
","","8784.220000001369","At the end of the game, you will be paid bonus money based on how many tokens you win. </br> If you win more tokens, you will earn more money!","72","","instructions","2021-04-01 00:06:24.661","","","","","",""
"casino-keyboard-response","31","199813","0.0-16.0-0.9","A428","true","img/card_backs/set1/yellow.gif","img/card_backs/set1/red.gif","img/card_backs/set1/green.gif","img/card_backs/set1/purple.gif","img/card_backs/set2/pink.gif","img/card_backs/set2/gray.gif","img/card_backs/set2/orange.gif","img/card_backs/set2/blue.gif","""event"",""trial"",""time""
""fullscreenenter"",""1"",""4946""
","
","
","""event"",""trial"",""time""
""fullscreenenter"",""1"",""4946""
","
","","10879.45500000022","You will never <b> lose </b> money. </br> If you end up with fewer than 0 tokens, you will earn $0 of bonus money, but you will still be paid for playing the game.","83","","instructions","2021-04-01 00:06:35.543","","","","","",""
"casino-keyboard-response","32","204648","0.0-16.0-0.10","A428","true","img/card_backs/set1/yellow.gif","img/card_backs/set1/red.gif","img/card_backs/set1/green.gif","img/card_backs/set1/purple.gif","img/card_backs/set2/pink.gif","img/card_backs/set2/gray.gif","img/card_backs/set2/orange.gif","img/card_backs/set2/blue.gif","""event"",""trial"",""time""
""fullscreenenter"",""1"",""4946""
","
","
","""event"",""trial"",""time""
""fullscreenenter"",""1"",""4946""
","
","","4831.330000000889","You will have 10 seconds to make each choice.","82","","instructions","2021-04-01 00:06:40.378","","","","","",""
"casino-keyboard-response","33","212757","0.0-16.0-0.11","A428","true","img/card_backs/set1/yellow.gif","img/card_backs/set1/red.gif","img/card_backs/set1/green.gif","img/card_backs/set1/purple.gif","img/card_backs/set2/pink.gif","img/card_backs/set2/gray.gif","img/card_backs/set2/orange.gif","img/card_backs/set2/blue.gif","""event"",""trial"",""time""
""fullscreenenter"",""1"",""4946""
","
","
","""event"",""trial"",""time""
""fullscreenenter"",""1"",""4946""
","
","","8107.0550000004005","Before you play the game for real, you will play with practice decks. </br> The tokens you earn during practice won't count toward your total.","86","","instructions","2021-04-01 00:06:48.487","","","","","",""
"casino-keyboard-response","34","222871","0.0-16.0-0.12","A428","true","img/card_backs/set1/yellow.gif","img/card_backs/set1/red.gif","img/card_backs/set1/green.gif","img/card_backs/set1/purple.gif","img/card_backs/set2/pink.gif","img/card_backs/set2/gray.gif","img/card_backs/set2/orange.gif","img/card_backs/set2/blue.gif","""event"",""trial"",""time""
""fullscreenenter"",""1"",""4946""
","
","
","""event"",""trial"",""time""
""fullscreenenter"",""1"",""4946""
","
","","10112.415000001434","Ready? Remember, use the '2', '4', '6', and '8' keys to select the decks. </br> Put your fingers on those keys now and then press '2' to begin.","50","","instructions","2021-04-01 00:06:58.601","","","","","",""
"casino-fixation","35","223384","0.0-17.0-0.0","A428","true","img/card_backs/set1/yellow.gif","img/card_backs/set1/red.gif","img/card_backs/set1/green.gif","img/card_backs/set1/purple.gif","img/card_backs/set2/pink.gif","img/card_backs/set2/gray.gif","img/card_backs/set2/orange.gif","img/card_backs/set2/blue.gif","""event"",""trial"",""time""
""fullscreenenter"",""1"",""4946""
","
","
","""event"",""trial"",""time""
""fullscreenenter"",""1"",""4946""
","
","","null","","null","","fixation","2021-04-01 00:06:59.114","","","","","",""
"card-selection-trial","36","227864","0.0-17.0-1.0","A428","true","img/card_backs/set1/yellow.gif","img/card_backs/set1/red.gif","img/card_backs/set1/green.gif","img/card_backs/set1/purple.gif","img/card_backs/set2/pink.gif","img/card_backs/set2/gray.gif","img/card_backs/set2/orange.gif","img/card_backs/set2/blue.gif","""event"",""trial"",""time""
""fullscreenenter"",""1"",""4946""
","
","
","""event"",""trial"",""time""
""fullscreenenter"",""1"",""4946""
","
","","2457.719999998517","","","","practice","2021-04-01 00:07:03.594","img/practice_cards/backs/brown.gif","1","100","0","",""
"casino-fixation","37","228384","0.0-17.0-0.1","A428","true","img/card_backs/set1/yellow.gif","img/card_backs/set1/red.gif","img/card_backs/set1/green.gif","img/card_backs/set1/purple.gif","img/card_backs/set2/pink.gif","img/card_backs/set2/gray.gif","img/card_backs/set2/orange.gif","img/card_backs/set2/blue.gif","""event"",""trial"",""time""
""fullscreenenter"",""1"",""4946""
","
","
","""event"",""trial"",""time""
""fullscreenenter"",""1"",""4946""
","
","","null","","null","","fixation","2021-04-01 00:07:04.114","","","","","",""
"card-selection-trial","38","232134","0.0-17.0-1.1","A428","true","img/card_backs/set1/yellow.gif","img/card_backs/set1/red.gif","img/card_backs/set1/green.gif","img/card_backs/set1/purple.gif","img/card_backs/set2/pink.gif","img/card_backs/set2/gray.gif","img/card_backs/set2/orange.gif","img/card_backs/set2/blue.gif","""event"",""trial"",""time""
""fullscreenenter"",""1"",""4946""
","
","
","""event"",""trial"",""time""
""fullscreenenter"",""1"",""4946""
","
","","1725.7449999997625","","","","practice","2021-04-01 00:07:07.864","img/practice_cards/backs/dark_green.gif","0","-200","0","",""
"casino-fixation","39","232644","0.0-17.0-0.2","A428","true","img/card_backs/set1/yellow.gif","img/card_backs/set1/red.gif","img/card_backs/set1/green.gif","img/card_backs/set1/purple.gif","img/card_backs/set2/pink.gif","img/card_backs/set2/gray.gif","img/card_backs/set2/orange.gif","img/card_backs/set2/blue.gif","""event"",""trial"",""time""
""fullscreenenter"",""1"",""4946""
","
","
","""event"",""trial"",""time""
""fullscreenenter"",""1"",""4946""
","
","","null","","null","","fixation","2021-04-01 00:07:08.374","","","","","",""
"card-selection-trial","40","235774","0.0-17.0-1.2","A428","true","img/card_backs/set1/yellow.gif","img/card_backs/set1/red.gif","img/card_backs/set1/green.gif","img/card_backs/set1/purple.gif","img/card_backs/set2/pink.gif","img/card_backs/set2/gray.gif","img/card_backs/set2/orange.gif","img/card_backs/set2/blue.gif","""event"",""trial"",""time""
""fullscreenenter"",""1"",""4946""
","
","
","""event"",""trial"",""time""
""fullscreenenter"",""1"",""4946""
","
","","1115.7200000016019","","","","practice","2021-04-01 00:07:11.505","img/practice_cards/backs/dark_blue.gif","0","200","0","",""
"casino-fixation","41","236284","0.0-17.0-0.3","A428","true","img/card_backs/set1/yellow.gif","img/card_backs/set1/red.gif","img/card_backs/set1/green.gif","img/card_backs/set1/purple.gif","img/card_backs/set2/pink.gif","img/card_backs/set2/gray.gif","img/card_backs/set2/orange.gif","img/card_backs/set2/blue.gif","""event"",""trial"",""time""
""fullscreenenter"",""1"",""4946""
","
","
","""event"",""trial"",""time""
""fullscreenenter"",""1"",""4946""
","
","","null","","null","","fixation","2021-04-01 00:07:12.014","","","","","",""
"card-selection-trial","42","239564","0.0-17.0-1.3","A428","true","img/card_backs/set1/yellow.gif","img/card_backs/set1/red.gif","img/card_backs/set1/green.gif","img/card_backs/set1/purple.gif","img/card_backs/set2/pink.gif","img/card_backs/set2/gray.gif","img/card_backs/set2/orange.gif","img/card_backs/set2/blue.gif","""event"",""trial"",""time""
""fullscreenenter"",""1"",""4946""
","
","
","""event"",""trial"",""time""
""fullscreenenter"",""1"",""4946""
","
","","1266.5050000014307","","","","practice","2021-04-01 00:07:15.294","img/practice_cards/backs/dark_blue.gif","1","200","0","",""
"casino-fixation","43","240083","0.0-17.0-0.4","A428","true","img/card_backs/set1/yellow.gif","img/card_backs/set1/red.gif","img/card_backs/set1/green.gif","img/card_backs/set1/purple.gif","img/card_backs/set2/pink.gif","img/card_backs/set2/gray.gif","img/card_backs/set2/orange.gif","img/card_backs/set2/blue.gif","""event"",""trial"",""time""
""fullscreenenter"",""1"",""4946""
","
","
","""event"",""trial"",""time""
""fullscreenenter"",""1"",""4946""
","
","","null","","null","","fixation","2021-04-01 00:07:15.814","","","","","",""
"card-selection-trial","44","243234","0.0-17.0-1.4","A428","true","img/card_backs/set1/yellow.gif","img/card_backs/set1/red.gif","img/card_backs/set1/green.gif","img/card_backs/set1/purple.gif","img/card_backs/set2/pink.gif","img/card_backs/set2/gray.gif","img/card_backs/set2/orange.gif","img/card_backs/set2/blue.gif","""event"",""trial"",""time""
""fullscreenenter"",""1"",""4946""
","
","
","""event"",""trial"",""time""
""fullscreenenter"",""1"",""4946""
","
","","1124.0400000006193","","","","practice","2021-04-01 00:07:18.964","img/practice_cards/backs/dark_blue.gif","0","-200","0","",""
"casino-fixation","45","243744","0.0-17.0-0.5","A428","true","img/card_backs/set1/yellow.gif","img/card_backs/set1/red.gif","img/card_backs/set1/green.gif","img/card_backs/set1/purple.gif","img/card_backs/set2/pink.gif","img/card_backs/set2/gray.gif","img/card_backs/set2/orange.gif","img/card_backs/set2/blue.gif","""event"",""trial"",""time""
""fullscreenenter"",""1"",""4946""
","
","
","""event"",""trial"",""time""
""fullscreenenter"",""1"",""4946""
","
","","null","","null","","fixation","2021-04-01 00:07:19.474","","","","","",""
"card-selection-trial","46","246864","0.0-17.0-1.5","A428","true","img/card_backs/set1/yellow.gif","img/card_backs/set1/red.gif","img/card_backs/set1/green.gif","img/card_backs/set1/purple.gif","img/card_backs/set2/pink.gif","img/card_backs/set2/gray.gif","img/card_backs/set2/orange.gif","img/card_backs/set2/blue.gif","""event"",""trial"",""time""
""fullscreenenter"",""1"",""4946""
","
","
","""event"",""trial"",""time""
""fullscreenenter"",""1"",""4946""
","
","","1111.6599999986938","","","","practice","2021-04-01 00:07:22.594","img/practice_cards/backs/black.gif","2","100","0","",""
"casino-fixation","47","247386","0.0-17.0-0.6","A428","true","img/card_backs/set1/yellow.gif","img/card_backs/set1/red.gif","img/card_backs/set1/green.gif","img/card_backs/set1/purple.gif","img/card_backs/set2/pink.gif","img/card_backs/set2/gray.gif","img/card_backs/set2/orange.gif","img/card_backs/set2/blue.gif","""event"",""trial"",""time""
""fullscreenenter"",""1"",""4946""
","
","
","""event"",""trial"",""time""
""fullscreenenter"",""1"",""4946""
","
","","null","","null","","fixation","2021-04-01 00:07:23.116","","","","","",""
"card-selection-trial","48","250444","0.0-17.0-1.6","A428","true","img/card_backs/set1/yellow.gif","img/card_backs/set1/red.gif","img/card_backs/set1/green.gif","img/card_backs/set1/purple.gif","img/card_backs/set2/pink.gif","img/card_backs/set2/gray.gif","img/card_backs/set2/orange.gif","img/card_backs/set2/blue.gif","""event"",""trial"",""time""
""fullscreenenter"",""1"",""4946""
","
","
","""event"",""trial"",""time""
""fullscreenenter"",""1"",""4946""
","
","","1044.5450000006822","","","","practice","2021-04-01 00:07:26.175","img/practice_cards/backs/dark_green.gif","2","200","0","",""
"casino-fixation","49","250954","0.0-17.0-0.7","A428","true","img/card_backs/set1/yellow.gif","img/card_backs/set1/red.gif","img/card_backs/set1/green.gif","img/card_backs/set1/purple.gif","img/card_backs/set2/pink.gif","img/card_backs/set2/gray.gif","img/card_backs/set2/orange.gif","img/card_backs/set2/blue.gif","""event"",""trial"",""time""
""fullscreenenter"",""1"",""4946""
","
","
","""event"",""trial"",""time""
""fullscreenenter"",""1"",""4946""
","
","","null","","null","","fixation","2021-04-01 00:07:26.684","","","","","",""
"card-selection-trial","50","253875","0.0-17.0-1.7","A428","true","img/card_backs/set1/yellow.gif","img/card_backs/set1/red.gif","img/card_backs/set1/green.gif","img/card_backs/set1/purple.gif","img/card_backs/set2/pink.gif","img/card_backs/set2/gray.gif","img/card_backs/set2/orange.gif","img/card_backs/set2/blue.gif","""event"",""trial"",""time""
""fullscreenenter"",""1"",""4946""
","
","
","""event"",""trial"",""time""
""fullscreenenter"",""1"",""4946""
","
","","908.170000000624","","","","practice","2021-04-01 00:07:29.606","img/practice_cards/backs/brown.gif","3","-100","0","",""
"casino-fixation","51","254386","0.0-17.0-0.8","A428","true","img/card_backs/set1/yellow.gif","img/card_backs/set1/red.gif","img/card_backs/set1/green.gif","img/card_backs/set1/purple.gif","img/card_backs/set2/pink.gif","img/card_backs/set2/gray.gif","img/card_backs/set2/orange.gif","img/card_backs/set2/blue.gif","""event"",""trial"",""time""
""fullscreenenter"",""1"",""4946""
","
","
","""event"",""trial"",""time""
""fullscreenenter"",""1"",""4946""
","
","","null","","null","","fixation","2021-04-01 00:07:30.116","","","","","",""
"card-selection-trial","52","257212","0.0-17.0-1.8","A428","true","img/card_backs/set1/yellow.gif","img/card_backs/set1/red.gif","img/card_backs/set1/green.gif","img/card_backs/set1/purple.gif","img/card_backs/set2/pink.gif","img/card_backs/set2/gray.gif","img/card_backs/set2/orange.gif","img/card_backs/set2/blue.gif","""event"",""trial"",""time""
""fullscreenenter"",""1"",""4946""
","
","
","""event"",""trial"",""time""
""fullscreenenter"",""1"",""4946""
","
","","820.2750000000524","","","","practice","2021-04-01 00:07:32.942","img/practice_cards/backs/dark_blue.gif","2","200","0","",""
"casino-fixation","53","257714","0.0-17.0-0.9","A428","true","img/card_backs/set1/yellow.gif","img/card_backs/set1/red.gif","img/card_backs/set1/green.gif","img/card_backs/set1/purple.gif","img/card_backs/set2/pink.gif","img/card_backs/set2/gray.gif","img/card_backs/set2/orange.gif","img/card_backs/set2/blue.gif","""event"",""trial"",""time""
""fullscreenenter"",""1"",""4946""
","
","
","""event"",""trial"",""time""
""fullscreenenter"",""1"",""4946""
","
","","null","","null","","fixation","2021-04-01 00:07:33.445","","","","","",""
"card-selection-trial","54","260253","0.0-17.0-1.9","A428","true","img/card_backs/set1/yellow.gif","img/card_backs/set1/red.gif","img/card_backs/set1/green.gif","img/card_backs/set1/purple.gif","img/card_backs/set2/pink.gif","img/card_backs/set2/gray.gif","img/card_backs/set2/orange.gif","img/card_backs/set2/blue.gif","""event"",""trial"",""time""
""fullscreenenter"",""1"",""4946""
","
","
","""event"",""trial"",""time""
""fullscreenenter"",""1"",""4946""
","
","","532.4500000005937","","","","practice","2021-04-01 00:07:35.983","img/practice_cards/backs/dark_green.gif","1","200","0","",""
"casino-keyboard-response","55","263603","0.0-18.0","A428","true","img/card_backs/set1/yellow.gif","img/card_backs/set1/red.gif","img/card_backs/set1/green.gif","img/card_backs/set1/purple.gif","img/card_backs/set2/pink.gif","img/card_backs/set2/gray.gif","img/card_backs/set2/orange.gif","img/card_backs/set2/blue.gif","""event"",""trial"",""time""
""fullscreenenter"",""1"",""4946""
","
","
","""event"",""trial"",""time""
""fullscreenenter"",""1"",""4946""
","
","","3348.0100000015227","You earned 700 tokens during the practice round!","75","","","2021-04-01 00:07:39.333","","","","","",""
"casino-keyboard-response","56","267830","0.0-19.0-0.0","A428","true","img/card_backs/set1/yellow.gif","img/card_backs/set1/red.gif","img/card_backs/set1/green.gif","img/card_backs/set1/purple.gif","img/card_backs/set2/pink.gif","img/card_backs/set2/gray.gif","img/card_backs/set2/orange.gif","img/card_backs/set2/blue.gif","""event"",""trial"",""time""
""fullscreenenter"",""1"",""4946""
","
","
","""event"",""trial"",""time""
""fullscreenenter"",""1"",""4946""
","
","","4225.204999998794","Nice job! You are almost ready to play the real game.","86","","instructions","2021-04-01 00:07:43.560","","","","","",""
"casino-keyboard-response","57","274331","0.0-19.0-0.1","A428","true","img/card_backs/set1/yellow.gif","img/card_backs/set1/red.gif","img/card_backs/set1/green.gif","img/card_backs/set1/purple.gif","img/card_backs/set2/pink.gif","img/card_backs/set2/gray.gif","img/card_backs/set2/orange.gif","img/card_backs/set2/blue.gif","""event"",""trial"",""time""
""fullscreenenter"",""1"",""4946""
","
","
","""event"",""trial"",""time""
""fullscreenenter"",""1"",""4946""
","
","","6498.78999999963","You will play two rounds of the real game. In each round, you will pick 100 cards in total.","73","","instructions","2021-04-01 00:07:50.061","","","","","",""
"casino-keyboard-response","58","278345","0.0-19.0-0.2","A428","true","img/card_backs/set1/yellow.gif","img/card_backs/set1/red.gif","img/card_backs/set1/green.gif","img/card_backs/set1/purple.gif","img/card_backs/set2/pink.gif","img/card_backs/set2/gray.gif","img/card_backs/set2/orange.gif","img/card_backs/set2/blue.gif","""event"",""trial"",""time""
""fullscreenenter"",""1"",""4946""
","
","
","""event"",""trial"",""time""
""fullscreenenter"",""1"",""4946""
","
","","4012.8600000007427","We are now going to ask you some questions about how the game works.","66","","instructions","2021-04-01 00:07:54.075","","","","","",""
"casino-keyboard-response","59","284525","0.0-19.0-0.3","A428","true","img/card_backs/set1/yellow.gif","img/card_backs/set1/red.gif","img/card_backs/set1/green.gif","img/card_backs/set1/purple.gif","img/card_backs/set2/pink.gif","img/card_backs/set2/gray.gif","img/card_backs/set2/orange.gif","img/card_backs/set2/blue.gif","""event"",""trial"",""time""
""fullscreenenter"",""1"",""4946""
","
","
","""event"",""trial"",""time""
""fullscreenenter"",""1"",""4946""
","
","","6178.229999999516","Answer carefully. You will not be able to begin the game until you answer them correctly.","67","","instructions","2021-04-01 00:08:00.256","","","","","",""
"casino-comp_q","60","291282","0.0-20.0-0.0","A428","true","img/card_backs/set1/yellow.gif","img/card_backs/set1/red.gif","img/card_backs/set1/green.gif","img/card_backs/set1/purple.gif","img/card_backs/set2/pink.gif","img/card_backs/set2/gray.gif","img/card_backs/set2/orange.gif","img/card_backs/set2/blue.gif","""event"",""trial"",""time""
""fullscreenenter"",""1"",""4946""
","
","
","""event"",""trial"",""time""
""fullscreenenter"",""1"",""4946""
","
","","6753.960000000021","True or False: All the decks have some cards that cause you to win tokens and some cards that cause you to lose tokens.","84","","","2021-04-01 00:08:07.013","","","","","",""
"casino-keyboard-response","61","293929","0.0-20.0-1.0","A428","true","img/card_backs/set1/yellow.gif","img/card_backs/set1/red.gif","img/card_backs/set1/green.gif","img/card_backs/set1/purple.gif","img/card_backs/set2/pink.gif","img/card_backs/set2/gray.gif","img/card_backs/set2/orange.gif","img/card_backs/set2/blue.gif","""event"",""trial"",""time""
""fullscreenenter"",""1"",""4946""
","
","
","""event"",""trial"",""time""
""fullscreenenter"",""1"",""4946""
","
","","2643.874999999767","True is correct! All the decks have a mix of winning and losing cards.","77","","","2021-04-01 00:08:09.659","","","","","true",""
"casino-comp_q","62","297518","0.0-21.0-0.0","A428","true","img/card_backs/set1/yellow.gif","img/card_backs/set1/red.gif","img/card_backs/set1/green.gif","img/card_backs/set1/purple.gif","img/card_backs/set2/pink.gif","img/card_backs/set2/gray.gif","img/card_backs/set2/orange.gif","img/card_backs/set2/blue.gif","""event"",""trial"",""time""
""fullscreenenter"",""1"",""4946""
","
","
","""event"",""trial"",""time""
""fullscreenenter"",""1"",""4946""
","
","","3586.4149999998044","True or False: You will have as much time as you want to make your response.","70","","","2021-04-01 00:08:13.248","","","","","",""
"casino-keyboard-response","63","300485","0.0-21.0-1.0","A428","true","img/card_backs/set1/yellow.gif","img/card_backs/set1/red.gif","img/card_backs/set1/green.gif","img/card_backs/set1/purple.gif","img/card_backs/set2/pink.gif","img/card_backs/set2/gray.gif","img/card_backs/set2/orange.gif","img/card_backs/set2/blue.gif","""event"",""trial"",""time""
""fullscreenenter"",""1"",""4946""
","
","
","""event"",""trial"",""time""
""fullscreenenter"",""1"",""4946""
","
","","2963.7650000004214","False is correct! You will only have 10 seconds to make each choice.","75","","","2021-04-01 00:08:16.215","","","","","true",""
"casino-comp_q","64","304485","0.0-22.0-0.0","A428","true","img/card_backs/set1/yellow.gif","img/card_backs/set1/red.gif","img/card_backs/set1/green.gif","img/card_backs/set1/purple.gif","img/card_backs/set2/pink.gif","img/card_backs/set2/gray.gif","img/card_backs/set2/orange.gif","img/card_backs/set2/blue.gif","""event"",""trial"",""time""
""fullscreenenter"",""1"",""4946""
","
","
","""event"",""trial"",""time""
""fullscreenenter"",""1"",""4946""
","
","","3999.030000000843","True or False: The location of the deck determines how lucky it is.","70","","","2021-04-01 00:08:20.216","","","","","",""
"casino-keyboard-response","65","307303","0.0-22.0-1.0","A428","true","img/card_backs/set1/yellow.gif","img/card_backs/set1/red.gif","img/card_backs/set1/green.gif","img/card_backs/set1/purple.gif","img/card_backs/set2/pink.gif","img/card_backs/set2/gray.gif","img/card_backs/set2/orange.gif","img/card_backs/set2/blue.gif","""event"",""trial"",""time""
""fullscreenenter"",""1"",""4946""
","
","
","""event"",""trial"",""time""
""fullscreenenter"",""1"",""4946""
","
","","2815.569999998843","False is correct! The <i>color</i>  of the deck determines how lucky or unlucky it is.","68","","","2021-04-01 00:08:23.033","","","","","true",""
"casino-keyboard-response","66","311663","0.0-23.0-0.0","A428","true","img/card_backs/set1/yellow.gif","img/card_backs/set1/red.gif","img/card_backs/set1/green.gif","img/card_backs/set1/purple.gif","img/card_backs/set2/pink.gif","img/card_backs/set2/gray.gif","img/card_backs/set2/orange.gif","img/card_backs/set2/blue.gif","""event"",""trial"",""time""
""fullscreenenter"",""1"",""4946""
","
","
","""event"",""trial"",""time""
""fullscreenenter"",""1"",""4946""
","
","","4358.2900000000955","Great job! Now it's time to start the real game.","82","","instructions","2021-04-01 00:08:27.393","","","","","",""
"casino-keyboard-response","67","316913","0.0-23.0-0.1","A428","true","img/card_backs/set1/yellow.gif","img/card_backs/set1/red.gif","img/card_backs/set1/green.gif","img/card_backs/set1/purple.gif","img/card_backs/set2/pink.gif","img/card_backs/set2/gray.gif","img/card_backs/set2/orange.gif","img/card_backs/set2/blue.gif","""event"",""trial"",""time""
""fullscreenenter"",""1"",""4946""
","
","
","""event"",""trial"",""time""
""fullscreenenter"",""1"",""4946""
","
","","5248.92999999976","Before we start, we're going to head into a new room of the casino.","86","","instructions","2021-04-01 00:08:32.644","","","","","",""
"casino-keyboard-response","68","323057","0.0-24.0-0.0","A428","true","img/card_backs/set1/yellow.gif","img/card_backs/set1/red.gif","img/card_backs/set1/green.gif","img/card_backs/set1/purple.gif","img/card_backs/set2/pink.gif","img/card_backs/set2/gray.gif","img/card_backs/set2/orange.gif","img/card_backs/set2/blue.gif","""event"",""trial"",""time""
""fullscreenenter"",""1"",""4946""
","
","
","""event"",""trial"",""time""
""fullscreenenter"",""1"",""4946""
","
","","6141.739999999059","Here we are! The real game will use different cards, but the rules will be the same.","71","","instructions","2021-04-01 00:08:38.787","","","","","",""
"casino-keyboard-response","69","326831","0.0-24.0-0.1","A428","true","img/card_backs/set1/yellow.gif","img/card_backs/set1/red.gif","img/card_backs/set1/green.gif","img/card_backs/set1/purple.gif","img/card_backs/set2/pink.gif","img/card_backs/set2/gray.gif","img/card_backs/set2/orange.gif","img/card_backs/set2/blue.gif","""event"",""trial"",""time""
""fullscreenenter"",""1"",""4946""
","
","
","""event"",""trial"",""time""
""fullscreenenter"",""1"",""4946""
","
","","3771.515000000363","Ready? Put your fingers over the '2', '4', 6', and '8' keys so you are ready to play the game. </br> Then press 2 to start.","50","","instructions","2021-04-01 00:08:42.561","","","","","",""
"casino-fixation","70","327344","0.0-25.0-0.0","A428","true","img/card_backs/set1/yellow.gif","img/card_backs/set1/red.gif","img/card_backs/set1/green.gif","img/card_backs/set1/purple.gif","img/card_backs/set2/pink.gif","img/card_backs/set2/gray.gif","img/card_backs/set2/orange.gif","img/card_backs/set2/blue.gif","""event"",""trial"",""time""
""fullscreenenter"",""1"",""4946""
","
","
","""event"",""trial"",""time""
""fullscreenenter"",""1"",""4946""
","
","","null","","null","","fixation","2021-04-01 00:08:43.074","","","","","",""
"card-selection-trial","71","330434","0.0-25.0-1.0","A428","true","img/card_backs/set1/yellow.gif","img/card_backs/set1/red.gif","img/card_backs/set1/green.gif","img/card_backs/set1/purple.gif","img/card_backs/set2/pink.gif","img/card_backs/set2/gray.gif","img/card_backs/set2/orange.gif","img/card_backs/set2/blue.gif","""event"",""trial"",""time""
""fullscreenenter"",""1"",""4946""
","
","
","""event"",""trial"",""time""
""fullscreenenter"",""1"",""4946""
","
","","1061.5550000002258","","","","real_trial","2021-04-01 00:08:46.164","img/card_backs/set1/purple.gif","0","-90","1","",""
"casino-fixation","72","330944","0.0-25.0-0.1","A428","true","img/card_backs/set1/yellow.gif","img/card_backs/set1/red.gif","img/card_backs/set1/green.gif","img/card_backs/set1/purple.gif","img/card_backs/set2/pink.gif","img/card_backs/set2/gray.gif","img/card_backs/set2/orange.gif","img/card_backs/set2/blue.gif","""event"",""trial"",""time""
""fullscreenenter"",""1"",""4946""
","
","
","""event"",""trial"",""time""
""fullscreenenter"",""1"",""4946""
","
","","null","","null","","fixation","2021-04-01 00:08:46.675","","","","","",""
"card-selection-trial","73","333954","0.0-25.0-1.1","A428","true","img/card_backs/set1/yellow.gif","img/card_backs/set1/red.gif","img/card_backs/set1/green.gif","img/card_backs/set1/purple.gif","img/card_backs/set2/pink.gif","img/card_backs/set2/gray.gif","img/card_backs/set2/orange.gif","img/card_backs/set2/blue.gif","""event"",""trial"",""time""
""fullscreenenter"",""1"",""4946""
","
","
","""event"",""trial"",""time""
""fullscreenenter"",""1"",""4946""
","
","","1003.0550000010408","","","","real_trial","2021-04-01 00:08:49.684","img/card_backs/set1/green.gif","1","50","1","",""
"casino-fixation","74","334464","0.0-25.0-0.2","A428","true","img/card_backs/set1/yellow.gif","img/card_backs/set1/red.gif","img/card_backs/set1/green.gif","img/card_backs/set1/purple.gif","img/card_backs/set2/pink.gif","img/card_backs/set2/gray.gif","img/card_backs/set2/orange.gif","img/card_backs/set2/blue.gif","""event"",""trial"",""time""
""fullscreenenter"",""1"",""4946""
","
","
","""event"",""trial"",""time""
""fullscreenenter"",""1"",""4946""
","
","","null","","null","","fixation","2021-04-01 00:08:50.194","","","","","",""
"card-selection-trial","75","337274","0.0-25.0-1.2","A428","true","img/card_backs/set1/yellow.gif","img/card_backs/set1/red.gif","img/card_backs/set1/green.gif","img/card_backs/set1/purple.gif","img/card_backs/set2/pink.gif","img/card_backs/set2/gray.gif","img/card_backs/set2/orange.gif","img/card_backs/set2/blue.gif","""event"",""trial"",""time""
""fullscreenenter"",""1"",""4946""
","
","
","""event"",""trial"",""time""
""fullscreenenter"",""1"",""4946""
","
","","794.7750000003143","","","","real_trial","2021-04-01 00:08:53.004","img/card_backs/set1/green.gif","0","60","1","",""
"casino-fixation","76","337794","0.0-25.0-0.3","A428","true","img/card_backs/set1/yellow.gif","img/card_backs/set1/red.gif","img/card_backs/set1/green.gif","img/card_backs/set1/purple.gif","img/card_backs/set2/pink.gif","img/card_backs/set2/gray.gif","img/card_backs/set2/orange.gif","img/card_backs/set2/blue.gif","""event"",""trial"",""time""
""fullscreenenter"",""1"",""4946""
","
","
","""event"",""trial"",""time""
""fullscreenenter"",""1"",""4946""
","
","","null","","null","","fixation","2021-04-01 00:08:53.524","","","","","",""
"card-selection-trial","77","340415","0.0-25.0-1.3","A428","true","img/card_backs/set1/yellow.gif","img/card_backs/set1/red.gif","img/card_backs/set1/green.gif","img/card_backs/set1/purple.gif","img/card_backs/set2/pink.gif","img/card_backs/set2/gray.gif","img/card_backs/set2/orange.gif","img/card_backs/set2/blue.gif","""event"",""trial"",""time""
""fullscreenenter"",""1"",""4946""
","
","
","""event"",""trial"",""time""
""fullscreenenter"",""1"",""4946""
","
","","613.0200000006589","","","","real_trial","2021-04-01 00:08:56.145","img/card_backs/set1/green.gif","3","-110","1","",""
"casino-fixation","78","340920","0.0-25.0-0.4","A428","true","img/card_backs/set1/yellow.gif","img/card_backs/set1/red.gif","img/card_backs/set1/green.gif","img/card_backs/set1/purple.gif","img/card_backs/set2/pink.gif","img/card_backs/set2/gray.gif","img/card_backs/set2/orange.gif","img/card_backs/set2/blue.gif","""event"",""trial"",""time""
""fullscreenenter"",""1"",""4946""
","
","
","""event"",""trial"",""time""
""fullscreenenter"",""1"",""4946""
","
","","null","","null","","fixation","2021-04-01 00:08:56.650","","","","","",""
"card-selection-trial","79","344005","0.0-25.0-1.4","A428","true","img/card_backs/set1/yellow.gif","img/card_backs/set1/red.gif","img/card_backs/set1/green.gif","img/card_backs/set1/purple.gif","img/card_backs/set2/pink.gif","img/card_backs/set2/gray.gif","img/card_backs/set2/orange.gif","img/card_backs/set2/blue.gif","""event"",""trial"",""time""
""fullscreenenter"",""1"",""4946""
","
","
","""event"",""trial"",""time""
""fullscreenenter"",""1"",""4946""
","
","","1070.4299999997602","","","","real_trial","2021-04-01 00:08:59.735","img/card_backs/set1/green.gif","2","-110","1","",""
"casino-fixation","80","344514","0.0-25.0-0.5","A428","true","img/card_backs/set1/yellow.gif","img/card_backs/set1/red.gif","img/card_backs/set1/green.gif","img/card_backs/set1/purple.gif","img/card_backs/set2/pink.gif","img/card_backs/set2/gray.gif","img/card_backs/set2/orange.gif","img/card_backs/set2/blue.gif","""event"",""trial"",""time""
""fullscreenenter"",""1"",""4946""
","
","
","""event"",""trial"",""time""
""fullscreenenter"",""1"",""4946""
","
","","null","","null","","fixation","2021-04-01 00:09:00.244","","","","","",""
"card-selection-trial","81","347365","0.0-25.0-1.5","A428","true","img/card_backs/set1/yellow.gif","img/card_backs/set1/red.gif","img/card_backs/set1/green.gif","img/card_backs/set1/purple.gif","img/card_backs/set2/pink.gif","img/card_backs/set2/gray.gif","img/card_backs/set2/orange.gif","img/card_backs/set2/blue.gif","""event"",""trial"",""time""
""fullscreenenter"",""1"",""4946""
","
","
","""event"",""trial"",""time""
""fullscreenenter"",""1"",""4946""
","
","","840.3600000001024","","","","real_trial","2021-04-01 00:09:03.095","img/card_backs/set1/purple.gif","3","50","1","",""
"casino-fixation","82","347875","0.0-25.0-0.6","A428","true","img/card_backs/set1/yellow.gif","img/card_backs/set1/red.gif","img/card_backs/set1/green.gif","img/card_backs/set1/purple.gif","img/card_backs/set2/pink.gif","img/card_backs/set2/gray.gif","img/card_backs/set2/orange.gif","img/card_backs/set2/blue.gif","""event"",""trial"",""time""
""fullscreenenter"",""1"",""4946""
","
","
","""event"",""trial"",""time""
""fullscreenenter"",""1"",""4946""
","
","","null","","null","","fixation","2021-04-01 00:09:03.605","","","","","",""
"card-selection-trial","83","350370","0.0-25.0-1.6","A428","true","img/card_backs/set1/yellow.gif","img/card_backs/set1/red.gif","img/card_backs/set1/green.gif","img/card_backs/set1/purple.gif","img/card_backs/set2/pink.gif","img/card_backs/set2/gray.gif","img/card_backs/set2/orange.gif","img/card_backs/set2/blue.gif","""event"",""trial"",""time""
""fullscreenenter"",""1"",""4946""
","
","
","""event"",""trial"",""time""
""fullscreenenter"",""1"",""4946""
","
","","475.6250000009313","","","","real_trial","2021-04-01 00:09:06.100","img/card_backs/set1/purple.gif","3","-110","1","",""
"casino-fixation","84","350874","0.0-25.0-0.7","A428","true","img/card_backs/set1/yellow.gif","img/card_backs/set1/red.gif","img/card_backs/set1/green.gif","img/card_backs/set1/purple.gif","img/card_backs/set2/pink.gif","img/card_backs/set2/gray.gif","img/card_backs/set2/orange.gif","img/card_backs/set2/blue.gif","""event"",""trial"",""time""
""fullscreenenter"",""1"",""4946""
","
","
","""event"",""trial"",""time""
""fullscreenenter"",""1"",""4946""
","
","","null","","null","","fixation","2021-04-01 00:09:06.605","","","","","",""
"card-selection-trial","85","354023","0.0-25.0-1.7","A428","true","img/card_backs/set1/yellow.gif","img/card_backs/set1/red.gif","img/card_backs/set1/green.gif","img/card_backs/set1/purple.gif","img/card_backs/set2/pink.gif","img/card_backs/set2/gray.gif","img/card_backs/set2/orange.gif","img/card_backs/set2/blue.gif","""event"",""trial"",""time""
""fullscreenenter"",""1"",""4946""
","
","
","""event"",""trial"",""time""
""fullscreenenter"",""1"",""4946""
","
","","1137.789999998873","","","","real_trial","2021-04-01 00:09:09.753","img/card_backs/set1/yellow.gif","1","260","1","",""
"casino-fixation","86","354545","0.0-25.0-0.8","A428","true","img/card_backs/set1/yellow.gif","img/card_backs/set1/red.gif","img/card_backs/set1/green.gif","img/card_backs/set1/purple.gif","img/card_backs/set2/pink.gif","img/card_backs/set2/gray.gif","img/card_backs/set2/orange.gif","img/card_backs/set2/blue.gif","""event"",""trial"",""time""
""fullscreenenter"",""1"",""4946""
","
","
","""event"",""trial"",""time""
""fullscreenenter"",""1"",""4946""
","
","","null","","null","","fixation","2021-04-01 00:09:10.275","","","","","",""
"card-selection-trial","87","357356","0.0-25.0-1.8","A428","true","img/card_backs/set1/yellow.gif","img/card_backs/set1/red.gif","img/card_backs/set1/green.gif","img/card_backs/set1/purple.gif","img/card_backs/set2/pink.gif","img/card_backs/set2/gray.gif","img/card_backs/set2/orange.gif","img/card_backs/set2/blue.gif","""event"",""trial"",""time""
""fullscreenenter"",""1"",""4946""
","
","
","""event"",""trial"",""time""
""fullscreenenter"",""1"",""4946""
","
","","804.8600000002189","","","","real_trial","2021-04-01 00:09:13.086","img/card_backs/set1/yellow.gif","3","260","1","",""
"casino-fixation","88","357858","0.0-25.0-0.9","A428","true","img/card_backs/set1/yellow.gif","img/card_backs/set1/red.gif","img/card_backs/set1/green.gif","img/card_backs/set1/purple.gif","img/card_backs/set2/pink.gif","img/card_backs/set2/gray.gif","img/card_backs/set2/orange.gif","img/card_backs/set2/blue.gif","""event"",""trial"",""time""
""fullscreenenter"",""1"",""4946""
","
","
","""event"",""trial"",""time""
""fullscreenenter"",""1"",""4946""
","
","","null","","null","","fixation","2021-04-01 00:09:13.588","","","","","",""
"card-selection-trial","89","360744","0.0-25.0-1.9","A428","true","img/card_backs/set1/yellow.gif","img/card_backs/set1/red.gif","img/card_backs/set1/green.gif","img/card_backs/set1/purple.gif","img/card_backs/set2/pink.gif","img/card_backs/set2/gray.gif","img/card_backs/set2/orange.gif","img/card_backs/set2/blue.gif","""event"",""trial"",""time""
""fullscreenenter"",""1"",""4946""
","
","
","""event"",""trial"",""time""
""fullscreenenter"",""1"",""4946""
","
","","881.1050000003888","","","","real_trial","2021-04-01 00:09:16.474","img/card_backs/set1/yellow.gif","1","250","1","",""
"casino-fixation","90","361245","0.0-25.0-0.10","A428","true","img/card_backs/set1/yellow.gif","img/card_backs/set1/red.gif","img/card_backs/set1/green.gif","img/card_backs/set1/purple.gif","img/card_backs/set2/pink.gif","img/card_backs/set2/gray.gif","img/card_backs/set2/orange.gif","img/card_backs/set2/blue.gif","""event"",""trial"",""time""
""fullscreenenter"",""1"",""4946""
","
","
","""event"",""trial"",""time""
""fullscreenenter"",""1"",""4946""
","
","","null","","null","","fixation","2021-04-01 00:09:16.975","","","","","",""
"card-selection-trial","91","364026","0.0-25.0-1.10","A428","true","img/card_backs/set1/yellow.gif","img/card_backs/set1/red.gif","img/card_backs/set1/green.gif","img/card_backs/set1/purple.gif","img/card_backs/set2/pink.gif","img/card_backs/set2/gray.gif","img/card_backs/set2/orange.gif","img/card_backs/set2/blue.gif","""event"",""trial"",""time""
""fullscreenenter"",""1"",""4946""
","
","
","""event"",""trial"",""time""
""fullscreenenter"",""1"",""4946""
","
","","773.9600000004284","","","","real_trial","2021-04-01 00:09:19.756","img/card_backs/set1/yellow.gif","2","240","1","",""
"casino-fixation","92","364528","0.0-25.0-0.11","A428","true","img/card_backs/set1/yellow.gif","img/card_backs/set1/red.gif","img/card_backs/set1/green.gif","img/card_backs/set1/purple.gif","img/card_backs/set2/pink.gif","img/card_backs/set2/gray.gif","img/card_backs/set2/orange.gif","img/card_backs/set2/blue.gif","""event"",""trial"",""time""
""fullscreenenter"",""1"",""4946""
","
","
","""event"",""trial"",""time""
""fullscreenenter"",""1"",""4946""
","
","","null","","null","","fixation","2021-04-01 00:09:20.258","","","","","",""
"card-selection-trial","93","366945","0.0-25.0-1.11","A428","true","img/card_backs/set1/yellow.gif","img/card_backs/set1/red.gif","img/card_backs/set1/green.gif","img/card_backs/set1/purple.gif","img/card_backs/set2/pink.gif","img/card_backs/set2/gray.gif","img/card_backs/set2/orange.gif","img/card_backs/set2/blue.gif","""event"",""trial"",""time""
""fullscreenenter"",""1"",""4946""
","
","
","""event"",""trial"",""time""
""fullscreenenter"",""1"",""4946""
","
","","410.5600000002305","","","","real_trial","2021-04-01 00:09:22.676","img/card_backs/set1/yellow.gif","3","250","1","",""
"casino-fixation","94","367447","0.0-25.0-0.12","A428","true","img/card_backs/set1/yellow.gif","img/card_backs/set1/red.gif","img/card_backs/set1/green.gif","img/card_backs/set1/purple.gif","img/card_backs/set2/pink.gif","img/card_backs/set2/gray.gif","img/card_backs/set2/orange.gif","img/card_backs/set2/blue.gif","""event"",""trial"",""time""
""fullscreenenter"",""1"",""4946""
","
","
","""event"",""trial"",""time""
""fullscreenenter"",""1"",""4946""
","
","","null","","null","","fixation","2021-04-01 00:09:23.177","","","","","",""
"card-selection-trial","95","370051","0.0-25.0-1.12","A428","true","img/card_backs/set1/yellow.gif","img/card_backs/set1/red.gif","img/card_backs/set1/green.gif","img/card_backs/set1/purple.gif","img/card_backs/set2/pink.gif","img/card_backs/set2/gray.gif","img/card_backs/set2/orange.gif","img/card_backs/set2/blue.gif","""event"",""trial"",""time""
""fullscreenenter"",""1"",""4946""
","
","
","""event"",""trial"",""time""
""fullscreenenter"",""1"",""4946""
","
","","600.3149999997113","","","","real_trial","2021-04-01 00:09:25.781","img/card_backs/set1/yellow.gif","1","250","1","",""
"casino-fixation","96","370553","0.0-25.0-0.13","A428","true","img/card_backs/set1/yellow.gif","img/card_backs/set1/red.gif","img/card_backs/set1/green.gif","img/card_backs/set1/purple.gif","img/card_backs/set2/pink.gif","img/card_backs/set2/gray.gif","img/card_backs/set2/orange.gif","img/card_backs/set2/blue.gif","""event"",""trial"",""time""
""fullscreenenter"",""1"",""4946""
","
","
","""event"",""trial"",""time""
""fullscreenenter"",""1"",""4946""
","
","","null","","null","","fixation","2021-04-01 00:09:26.283","","","","","",""
"card-selection-trial","97","372925","0.0-25.0-1.13","A428","true","img/card_backs/set1/yellow.gif","img/card_backs/set1/red.gif","img/card_backs/set1/green.gif","img/card_backs/set1/purple.gif","img/card_backs/set2/pink.gif","img/card_backs/set2/gray.gif","img/card_backs/set2/orange.gif","img/card_backs/set2/blue.gif","""event"",""trial"",""time""
""fullscreenenter"",""1"",""4946""
","
","
","""event"",""trial"",""time""
""fullscreenenter"",""1"",""4946""
","
","","366.15999999956694","","","","real_trial","2021-04-01 00:09:28.655","img/card_backs/set1/yellow.gif","1","-210","1","",""
"casino-fixation","98","373426","0.0-25.0-0.14","A428","true","img/card_backs/set1/yellow.gif","img/card_backs/set1/red.gif","img/card_backs/set1/green.gif","img/card_backs/set1/purple.gif","img/card_backs/set2/pink.gif","img/card_backs/set2/gray.gif","img/card_backs/set2/orange.gif","img/card_backs/set2/blue.gif","""event"",""trial"",""time""
""fullscreenenter"",""1"",""4946""
","
","
","""event"",""trial"",""time""
""fullscreenenter"",""1"",""4946""
","
","","null","","null","","fixation","2021-04-01 00:09:29.157","","","","","",""
"card-selection-trial","99","375892","0.0-25.0-1.14","A428","true","img/card_backs/set1/yellow.gif","img/card_backs/set1/red.gif","img/card_backs/set1/green.gif","img/card_backs/set1/purple.gif","img/card_backs/set2/pink.gif","img/card_backs/set2/gray.gif","img/card_backs/set2/orange.gif","img/card_backs/set2/blue.gif","""event"",""trial"",""time""
""fullscreenenter"",""1"",""4946""
","
","
","""event"",""trial"",""time""
""fullscreenenter"",""1"",""4946""
","
","","459.9500000004191","","","","real_trial","2021-04-01 00:09:31.622","img/card_backs/set1/yellow.gif","1","-190","1","",""
"casino-fixation","100","376394","0.0-25.0-0.15","A428","true","img/card_backs/set1/yellow.gif","img/card_backs/set1/red.gif","img/card_backs/set1/green.gif","img/card_backs/set1/purple.gif","img/card_backs/set2/pink.gif","img/card_backs/set2/gray.gif","img/card_backs/set2/orange.gif","img/card_backs/set2/blue.gif","""event"",""trial"",""time""
""fullscreenenter"",""1"",""4946""
","
","
","""event"",""trial"",""time""
""fullscreenenter"",""1"",""4946""
","
","","null","","null","","fixation","2021-04-01 00:09:32.124","","","","","",""
"card-selection-trial","101","379380","0.0-25.0-1.15","A428","true","img/card_backs/set1/yellow.gif","img/card_backs/set1/red.gif","img/card_backs/set1/green.gif","img/card_backs/set1/purple.gif","img/card_backs/set2/pink.gif","img/card_backs/set2/gray.gif","img/card_backs/set2/orange.gif","img/card_backs/set2/blue.gif","""event"",""trial"",""time""
""fullscreenenter"",""1"",""4946""
","
","
","""event"",""trial"",""time""
""fullscreenenter"",""1"",""4946""
","
","","979.5749999993714","","","","real_trial","2021-04-01 00:09:35.110","img/card_backs/set1/yellow.gif","1","240","1","",""
"casino-fixation","102","379882","0.0-25.0-0.16","A428","true","img/card_backs/set1/yellow.gif","img/card_backs/set1/red.gif","img/card_backs/set1/green.gif","img/card_backs/set1/purple.gif","img/card_backs/set2/pink.gif","img/card_backs/set2/gray.gif","img/card_backs/set2/orange.gif","img/card_backs/set2/blue.gif","""event"",""trial"",""time""
""fullscreenenter"",""1"",""4946""
","
","
","""event"",""trial"",""time""
""fullscreenenter"",""1"",""4946""
","
","","null","","null","","fixation","2021-04-01 00:09:35.612","","","","","",""
"card-selection-trial","103","382556","0.0-25.0-1.16","A428","true","img/card_backs/set1/yellow.gif","img/card_backs/set1/red.gif","img/card_backs/set1/green.gif","img/card_backs/set1/purple.gif","img/card_backs/set2/pink.gif","img/card_backs/set2/gray.gif","img/card_backs/set2/orange.gif","img/card_backs/set2/blue.gif","""event"",""trial"",""time""
""fullscreenenter"",""1"",""4946""
","
","
","""event"",""trial"",""time""
""fullscreenenter"",""1"",""4946""
","
","","666.750000000291","","","","real_trial","2021-04-01 00:09:38.286","img/card_backs/set1/yellow.gif","2","-200","1","",""
"casino-fixation","104","383058","0.0-25.0-0.17","A428","true","img/card_backs/set1/yellow.gif","img/card_backs/set1/red.gif","img/card_backs/set1/green.gif","img/card_backs/set1/purple.gif","img/card_backs/set2/pink.gif","img/card_backs/set2/gray.gif","img/card_backs/set2/orange.gif","img/card_backs/set2/blue.gif","""event"",""trial"",""time""
""fullscreenenter"",""1"",""4946""
","
","
","""event"",""trial"",""time""
""fullscreenenter"",""1"",""4946""
","
","","null","","null","","fixation","2021-04-01 00:09:38.788","","","","","",""
"card-selection-trial","105","385734","0.0-25.0-1.17","A428","true","img/card_backs/set1/yellow.gif","img/card_backs/set1/red.gif","img/card_backs/set1/green.gif","img/card_backs/set1/purple.gif","img/card_backs/set2/pink.gif","img/card_backs/set2/gray.gif","img/card_backs/set2/orange.gif","img/card_backs/set2/blue.gif","""event"",""trial"",""time""
""fullscreenenter"",""1"",""4946""
","
","
","""event"",""trial"",""time""
""fullscreenenter"",""1"",""4946""
","
","","669.470000000787","","","","real_trial","2021-04-01 00:09:41.464","img/card_backs/set1/yellow.gif","1","250","1","",""
"casino-fixation","106","386235","0.0-25.0-0.18","A428","true","img/card_backs/set1/yellow.gif","img/card_backs/set1/red.gif","img/card_backs/set1/green.gif","img/card_backs/set1/purple.gif","img/card_backs/set2/pink.gif","img/card_backs/set2/gray.gif","img/card_backs/set2/orange.gif","img/card_backs/set2/blue.gif","""event"",""trial"",""time""
""fullscreenenter"",""1"",""4946""
","
","
","""event"",""trial"",""time""
""fullscreenenter"",""1"",""4946""
","
","","null","","null","","fixation","2021-04-01 00:09:41.966","","","","","",""
"card-selection-trial","107","389048","0.0-25.0-1.18","A428","true","img/card_backs/set1/yellow.gif","img/card_backs/set1/red.gif","img/card_backs/set1/green.gif","img/card_backs/set1/purple.gif","img/card_backs/set2/pink.gif","img/card_backs/set2/gray.gif","img/card_backs/set2/orange.gif","img/card_backs/set2/blue.gif","""event"",""trial"",""time""
""fullscreenenter"",""1"",""4946""
","
","
","""event"",""trial"",""time""
""fullscreenenter"",""1"",""4946""
","
","","806.7250000003842","","","","real_trial","2021-04-01 00:09:44.779","img/card_backs/set1/yellow.gif","0","-190","1","",""
"casino-fixation","108","389550","0.0-25.0-0.19","A428","true","img/card_backs/set1/yellow.gif","img/card_backs/set1/red.gif","img/card_backs/set1/green.gif","img/card_backs/set1/purple.gif","img/card_backs/set2/pink.gif","img/card_backs/set2/gray.gif","img/card_backs/set2/orange.gif","img/card_backs/set2/blue.gif","""event"",""trial"",""time""
""fullscreenenter"",""1"",""4946""
","
","
","""event"",""trial"",""time""
""fullscreenenter"",""1"",""4946""
","
","","null","","null","","fixation","2021-04-01 00:09:45.280","","","","","",""
"card-selection-trial","109","392428","0.0-25.0-1.19","A428","true","img/card_backs/set1/yellow.gif","img/card_backs/set1/red.gif","img/card_backs/set1/green.gif","img/card_backs/set1/purple.gif","img/card_backs/set2/pink.gif","img/card_backs/set2/gray.gif","img/card_backs/set2/orange.gif","img/card_backs/set2/blue.gif","""event"",""trial"",""time""
""fullscreenenter"",""1"",""4946""
","
","
","""event"",""trial"",""time""
""fullscreenenter"",""1"",""4946""
","
","","871.939999999071","","","","real_trial","2021-04-01 00:09:48.159","img/card_backs/set1/green.gif","0","40","1","",""
"casino-fixation","110","392931","0.0-25.0-0.20","A428","true","img/card_backs/set1/yellow.gif","img/card_backs/set1/red.gif","img/card_backs/set1/green.gif","img/card_backs/set1/purple.gif","img/card_backs/set2/pink.gif","img/card_backs/set2/gray.gif","img/card_backs/set2/orange.gif","img/card_backs/set2/blue.gif","""event"",""trial"",""time""
""fullscreenenter"",""1"",""4946""
","
","
","""event"",""trial"",""time""
""fullscreenenter"",""1"",""4946""
","
","","null","","null","","fixation","2021-04-01 00:09:48.661","","","","","",""
"card-selection-trial","111","395917","0.0-25.0-1.20","A428","true","img/card_backs/set1/yellow.gif","img/card_backs/set1/red.gif","img/card_backs/set1/green.gif","img/card_backs/set1/purple.gif","img/card_backs/set2/pink.gif","img/card_backs/set2/gray.gif","img/card_backs/set2/orange.gif","img/card_backs/set2/blue.gif","""event"",""trial"",""time""
""fullscreenenter"",""1"",""4946""
","
","
","""event"",""trial"",""time""
""fullscreenenter"",""1"",""4946""
","
","","979.5950000007288","","","","real_trial","2021-04-01 00:09:51.647","img/card_backs/set1/yellow.gif","3","250","1","",""
"casino-fixation","112","396420","0.0-25.0-0.21","A428","true","img/card_backs/set1/yellow.gif","img/card_backs/set1/red.gif","img/card_backs/set1/green.gif","img/card_backs/set1/purple.gif","img/card_backs/set2/pink.gif","img/card_backs/set2/gray.gif","img/card_backs/set2/orange.gif","img/card_backs/set2/blue.gif","""event"",""trial"",""time""
""fullscreenenter"",""1"",""4946""
","
","
","""event"",""trial"",""time""
""fullscreenenter"",""1"",""4946""
","
","","null","","null","","fixation","2021-04-01 00:09:52.150","","","","","",""
"card-selection-trial","113","399217","0.0-25.0-1.21","A428","true","img/card_backs/set1/yellow.gif","img/card_backs/set1/red.gif","img/card_backs/set1/green.gif","img/card_backs/set1/purple.gif","img/card_backs/set2/pink.gif","img/card_backs/set2/gray.gif","img/card_backs/set2/orange.gif","img/card_backs/set2/blue.gif","""event"",""trial"",""time""
""fullscreenenter"",""1"",""4946""
","
","
","""event"",""trial"",""time""
""fullscreenenter"",""1"",""4946""
","
","","791.655000000901","","","","real_trial","2021-04-01 00:09:54.947","img/card_backs/set1/yellow.gif","1","250","1","",""
"casino-fixation","114","399719","0.0-25.0-0.22","A428","true","img/card_backs/set1/yellow.gif","img/card_backs/set1/red.gif","img/card_backs/set1/green.gif","img/card_backs/set1/purple.gif","img/card_backs/set2/pink.gif","img/card_backs/set2/gray.gif","img/card_backs/set2/orange.gif","img/card_backs/set2/blue.gif","""event"",""trial"",""time""
""fullscreenenter"",""1"",""4946""
","
","
","""event"",""trial"",""time""
""fullscreenenter"",""1"",""4946""
","
","","null","","null","","fixation","2021-04-01 00:09:55.449","","","","","",""
"card-selection-trial","115","403394","0.0-25.0-1.22","A428","true","img/card_backs/set1/yellow.gif","img/card_backs/set1/red.gif","img/card_backs/set1/green.gif","img/card_backs/set1/purple.gif","img/card_backs/set2/pink.gif","img/card_backs/set2/gray.gif","img/card_backs/set2/orange.gif","img/card_backs/set2/blue.gif","""event"",""trial"",""time""
""fullscreenenter"",""1"",""4946""
","
","
","""event"",""trial"",""time""
""fullscreenenter"",""1"",""4946""
","
","","1667.7449999988312","","","","real_trial","2021-04-01 00:09:59.124","img/card_backs/set1/yellow.gif","1","240","1","",""
"casino-fixation","116","403896","0.0-25.0-0.23","A428","true","img/card_backs/set1/yellow.gif","img/card_backs/set1/red.gif","img/card_backs/set1/green.gif","img/card_backs/set1/purple.gif","img/card_backs/set2/pink.gif","img/card_backs/set2/gray.gif","img/card_backs/set2/orange.gif","img/card_backs/set2/blue.gif","""event"",""trial"",""time""
""fullscreenenter"",""1"",""4946""
","
","
","""event"",""trial"",""time""
""fullscreenenter"",""1"",""4946""
","
","","null","","null","","fixation","2021-04-01 00:09:59.626","","","","","",""
"card-selection-trial","117","406518","0.0-25.0-1.23","A428","true","img/card_backs/set1/yellow.gif","img/card_backs/set1/red.gif","img/card_backs/set1/green.gif","img/card_backs/set1/purple.gif","img/card_backs/set2/pink.gif","img/card_backs/set2/gray.gif","img/card_backs/set2/orange.gif","img/card_backs/set2/blue.gif","""event"",""trial"",""time""
""fullscreenenter"",""1"",""4946""
","
","
","""event"",""trial"",""time""
""fullscreenenter"",""1"",""4946""
","
","","615.8500000001513","","","","real_trial","2021-04-01 00:10:02.248","img/card_backs/set1/yellow.gif","1","260","1","",""
"casino-fixation","118","407020","0.0-25.0-0.24","A428","true","img/card_backs/set1/yellow.gif","img/card_backs/set1/red.gif","img/card_backs/set1/green.gif","img/card_backs/set1/purple.gif","img/card_backs/set2/pink.gif","img/card_backs/set2/gray.gif","img/card_backs/set2/orange.gif","img/card_backs/set2/blue.gif","""event"",""trial"",""time""
""fullscreenenter"",""1"",""4946""
","
","
","""event"",""trial"",""time""
""fullscreenenter"",""1"",""4946""
","
","","null","","null","","fixation","2021-04-01 00:10:02.750","","","","","",""
"card-selection-trial","119","409869","0.0-25.0-1.24","A428","true","img/card_backs/set1/yellow.gif","img/card_backs/set1/red.gif","img/card_backs/set1/green.gif","img/card_backs/set1/purple.gif","img/card_backs/set2/pink.gif","img/card_backs/set2/gray.gif","img/card_backs/set2/orange.gif","img/card_backs/set2/blue.gif","""event"",""trial"",""time""
""fullscreenenter"",""1"",""4946""
","
","
","""event"",""trial"",""time""
""fullscreenenter"",""1"",""4946""
","
","","843.5199999985052","","","","real_trial","2021-04-01 00:10:05.599","img/card_backs/set1/yellow.gif","2","-210","1","",""
"casino-fixation","120","410371","0.0-25.0-0.25","A428","true","img/card_backs/set1/yellow.gif","img/card_backs/set1/red.gif","img/card_backs/set1/green.gif","img/card_backs/set1/purple.gif","img/card_backs/set2/pink.gif","img/card_backs/set2/gray.gif","img/card_backs/set2/orange.gif","img/card_backs/set2/blue.gif","""event"",""trial"",""time""
""fullscreenenter"",""1"",""4946""
","
","
","""event"",""trial"",""time""
""fullscreenenter"",""1"",""4946""
","
","","null","","null","","fixation","2021-04-01 00:10:06.101","","","","","",""
"card-selection-trial","121","412784","0.0-25.0-1.25","A428","true","img/card_backs/set1/yellow.gif","img/card_backs/set1/red.gif","img/card_backs/set1/green.gif","img/card_backs/set1/purple.gif","img/card_backs/set2/pink.gif","img/card_backs/set2/gray.gif","img/card_backs/set2/orange.gif","img/card_backs/set2/blue.gif","""event"",""trial"",""time""
""fullscreenenter"",""1"",""4946""
","
","
","""event"",""trial"",""time""
""fullscreenenter"",""1"",""4946""
","
","","407.2050000013551","","","","real_trial","2021-04-01 00:10:08.514","img/card_backs/set1/yellow.gif","1","-210","1","",""
"casino-fixation","122","413286","0.0-25.0-0.26","A428","true","img/card_backs/set1/yellow.gif","img/card_backs/set1/red.gif","img/card_backs/set1/green.gif","img/card_backs/set1/purple.gif","img/card_backs/set2/pink.gif","img/card_backs/set2/gray.gif","img/card_backs/set2/orange.gif","img/card_backs/set2/blue.gif","""event"",""trial"",""time""
""fullscreenenter"",""1"",""4946""
","
","
","""event"",""trial"",""time""
""fullscreenenter"",""1"",""4946""
","
","","null","","null","","fixation","2021-04-01 00:10:09.016","","","","","",""
"card-selection-trial","123","417043","0.0-25.0-1.26","A428","true","img/card_backs/set1/yellow.gif","img/card_backs/set1/red.gif","img/card_backs/set1/green.gif","img/card_backs/set1/purple.gif","img/card_backs/set2/pink.gif","img/card_backs/set2/gray.gif","img/card_backs/set2/orange.gif","img/card_backs/set2/blue.gif","""event"",""trial"",""time""
""fullscreenenter"",""1"",""4946""
","
","
","""event"",""trial"",""time""
""fullscreenenter"",""1"",""4946""
","
","","1750.8950000010082","","","","real_trial","2021-04-01 00:10:12.774","img/card_backs/set1/yellow.gif","3","240","1","",""
"casino-fixation","124","417546","0.0-25.0-0.27","A428","true","img/card_backs/set1/yellow.gif","img/card_backs/set1/red.gif","img/card_backs/set1/green.gif","img/card_backs/set1/purple.gif","img/card_backs/set2/pink.gif","img/card_backs/set2/gray.gif","img/card_backs/set2/orange.gif","img/card_backs/set2/blue.gif","""event"",""trial"",""time""
""fullscreenenter"",""1"",""4946""
","
","
","""event"",""trial"",""time""
""fullscreenenter"",""1"",""4946""
","
","","null","","null","","fixation","2021-04-01 00:10:13.276","","","","","",""
"card-selection-trial","125","419930","0.0-25.0-1.27","A428","true","img/card_backs/set1/yellow.gif","img/card_backs/set1/red.gif","img/card_backs/set1/green.gif","img/card_backs/set1/purple.gif","img/card_backs/set2/pink.gif","img/card_backs/set2/gray.gif","img/card_backs/set2/orange.gif","img/card_backs/set2/blue.gif","""event"",""trial"",""time""
""fullscreenenter"",""1"",""4946""
","
","
","""event"",""trial"",""time""
""fullscreenenter"",""1"",""4946""
","
","","377.76499999925727","","","","real_trial","2021-04-01 00:10:15.660","img/card_backs/set1/yellow.gif","3","-200","1","",""
"casino-fixation","126","420432","0.0-25.0-0.28","A428","true","img/card_backs/set1/yellow.gif","img/card_backs/set1/red.gif","img/card_backs/set1/green.gif","img/card_backs/set1/purple.gif","img/card_backs/set2/pink.gif","img/card_backs/set2/gray.gif","img/card_backs/set2/orange.gif","img/card_backs/set2/blue.gif","""event"",""trial"",""time""
""fullscreenenter"",""1"",""4946""
","
","
","""event"",""trial"",""time""
""fullscreenenter"",""1"",""4946""
","
","","null","","null","","fixation","2021-04-01 00:10:16.162","","","","","",""
"card-selection-trial","127","423345","0.0-25.0-1.28","A428","true","img/card_backs/set1/yellow.gif","img/card_backs/set1/red.gif","img/card_backs/set1/green.gif","img/card_backs/set1/purple.gif","img/card_backs/set2/pink.gif","img/card_backs/set2/gray.gif","img/card_backs/set2/orange.gif","img/card_backs/set2/blue.gif","""event"",""trial"",""time""
""fullscreenenter"",""1"",""4946""
","
","
","""event"",""trial"",""time""
""fullscreenenter"",""1"",""4946""
","
","","907.3749999988358","","","","real_trial","2021-04-01 00:10:19.075","img/card_backs/set1/yellow.gif","2","-210","1","",""
"casino-fixation","128","423848","0.0-25.0-0.29","A428","true","img/card_backs/set1/yellow.gif","img/card_backs/set1/red.gif","img/card_backs/set1/green.gif","img/card_backs/set1/purple.gif","img/card_backs/set2/pink.gif","img/card_backs/set2/gray.gif","img/card_backs/set2/orange.gif","img/card_backs/set2/blue.gif","""event"",""trial"",""time""
""fullscreenenter"",""1"",""4946""
","
","
","""event"",""trial"",""time""
""fullscreenenter"",""1"",""4946""
","
","","null","","null","","fixation","2021-04-01 00:10:19.578","","","","","",""
"card-selection-trial","129","426532","0.0-25.0-1.29","A428","true","img/card_backs/set1/yellow.gif","img/card_backs/set1/red.gif","img/card_backs/set1/green.gif","img/card_backs/set1/purple.gif","img/card_backs/set2/pink.gif","img/card_backs/set2/gray.gif","img/card_backs/set2/orange.gif","img/card_backs/set2/blue.gif","""event"",""trial"",""time""
""fullscreenenter"",""1"",""4946""
","
","
","""event"",""trial"",""time""
""fullscreenenter"",""1"",""4946""
","
","","677.9750000005006","","","","real_trial","2021-04-01 00:10:22.262","img/card_backs/set1/purple.gif","2","-110","1","",""
"casino-fixation","130","427034","0.0-25.0-0.30","A428","true","img/card_backs/set1/yellow.gif","img/card_backs/set1/red.gif","img/card_backs/set1/green.gif","img/card_backs/set1/purple.gif","img/card_backs/set2/pink.gif","img/card_backs/set2/gray.gif","img/card_backs/set2/orange.gif","img/card_backs/set2/blue.gif","""event"",""trial"",""time""
""fullscreenenter"",""1"",""4946""
","
","
","""event"",""trial"",""time""
""fullscreenenter"",""1"",""4946""
","
","","null","","null","","fixation","2021-04-01 00:10:22.764","","","","","",""
"card-selection-trial","131","429957","0.0-25.0-1.30","A428","true","img/card_backs/set1/yellow.gif","img/card_backs/set1/red.gif","img/card_backs/set1/green.gif","img/card_backs/set1/purple.gif","img/card_backs/set2/pink.gif","img/card_backs/set2/gray.gif","img/card_backs/set2/orange.gif","img/card_backs/set2/blue.gif","""event"",""trial"",""time""
""fullscreenenter"",""1"",""4946""
","
","
","""event"",""trial"",""time""
""fullscreenenter"",""1"",""4946""
","
","","916.385000000475","","","","real_trial","2021-04-01 00:10:25.687","img/card_backs/set1/yellow.gif","1","-210","1","",""
"casino-fixation","132","430459","0.0-25.0-0.31","A428","true","img/card_backs/set1/yellow.gif","img/card_backs/set1/red.gif","img/card_backs/set1/green.gif","img/card_backs/set1/purple.gif","img/card_backs/set2/pink.gif","img/card_backs/set2/gray.gif","img/card_backs/set2/orange.gif","img/card_backs/set2/blue.gif","""event"",""trial"",""time""
""fullscreenenter"",""1"",""4946""
","
","
","""event"",""trial"",""time""
""fullscreenenter"",""1"",""4946""
","
","","null","","null","","fixation","2021-04-01 00:10:26.190","","","","","",""
"card-selection-trial","133","433480","0.0-25.0-1.31","A428","true","img/card_backs/set1/yellow.gif","img/card_backs/set1/red.gif","img/card_backs/set1/green.gif","img/card_backs/set1/purple.gif","img/card_backs/set2/pink.gif","img/card_backs/set2/gray.gif","img/card_backs/set2/orange.gif","img/card_backs/set2/blue.gif","""event"",""trial"",""time""
""fullscreenenter"",""1"",""4946""
","
","
","""event"",""trial"",""time""
""fullscreenenter"",""1"",""4946""
","
","","1014.5249999986845","","","","real_trial","2021-04-01 00:10:29.210","img/card_backs/set1/yellow.gif","3","-210","1","",""
"casino-fixation","134","433982","0.0-25.0-0.32","A428","true","img/card_backs/set1/yellow.gif","img/card_backs/set1/red.gif","img/card_backs/set1/green.gif","img/card_backs/set1/purple.gif","img/card_backs/set2/pink.gif","img/card_backs/set2/gray.gif","img/card_backs/set2/orange.gif","img/card_backs/set2/blue.gif","""event"",""trial"",""time""
""fullscreenenter"",""1"",""4946""
","
","
","""event"",""trial"",""time""
""fullscreenenter"",""1"",""4946""
","
","","null","","null","","fixation","2021-04-01 00:10:29.713","","","","","",""
"card-selection-trial","135","437722","0.0-25.0-1.32","A428","true","img/card_backs/set1/yellow.gif","img/card_backs/set1/red.gif","img/card_backs/set1/green.gif","img/card_backs/set1/purple.gif","img/card_backs/set2/pink.gif","img/card_backs/set2/gray.gif","img/card_backs/set2/orange.gif","img/card_backs/set2/blue.gif","""event"",""trial"",""time""
""fullscreenenter"",""1"",""4946""
","
","
","""event"",""trial"",""time""
""fullscreenenter"",""1"",""4946""
","
","","1732.9000000008964","","","","real_trial","2021-04-01 00:10:33.452","img/card_backs/set1/green.gif","3","50","1","",""
"casino-fixation","136","438224","0.0-25.0-0.33","A428","true","img/card_backs/set1/yellow.gif","img/card_backs/set1/red.gif","img/card_backs/set1/green.gif","img/card_backs/set1/purple.gif","img/card_backs/set2/pink.gif","img/card_backs/set2/gray.gif","img/card_backs/set2/orange.gif","img/card_backs/set2/blue.gif","""event"",""trial"",""time""
""fullscreenenter"",""1"",""4946""
","
","
","""event"",""trial"",""time""
""fullscreenenter"",""1"",""4946""
","
","","null","","null","","fixation","2021-04-01 00:10:33.954","","","","","",""
"card-selection-trial","137","441510","0.0-25.0-1.33","A428","true","img/card_backs/set1/yellow.gif","img/card_backs/set1/red.gif","img/card_backs/set1/green.gif","img/card_backs/set1/purple.gif","img/card_backs/set2/pink.gif","img/card_backs/set2/gray.gif","img/card_backs/set2/orange.gif","img/card_backs/set2/blue.gif","""event"",""trial"",""time""
""fullscreenenter"",""1"",""4946""
","
","
","""event"",""trial"",""time""
""fullscreenenter"",""1"",""4946""
","
","","1278.8849999997183","","","","real_trial","2021-04-01 00:10:37.240","img/card_backs/set1/green.gif","1","-90","1","",""
"casino-fixation","138","442012","0.0-25.0-0.34","A428","true","img/card_backs/set1/yellow.gif","img/card_backs/set1/red.gif","img/card_backs/set1/green.gif","img/card_backs/set1/purple.gif","img/card_backs/set2/pink.gif","img/card_backs/set2/gray.gif","img/card_backs/set2/orange.gif","img/card_backs/set2/blue.gif","""event"",""trial"",""time""
""fullscreenenter"",""1"",""4946""
","
","
","""event"",""trial"",""time""
""fullscreenenter"",""1"",""4946""
","
","","null","","null","","fixation","2021-04-01 00:10:37.742","","","","","",""
"card-selection-trial","139","445408","0.0-25.0-1.34","A428","true","img/card_backs/set1/yellow.gif","img/card_backs/set1/red.gif","img/card_backs/set1/green.gif","img/card_backs/set1/purple.gif","img/card_backs/set2/pink.gif","img/card_backs/set2/gray.gif","img/card_backs/set2/orange.gif","img/card_backs/set2/blue.gif","""event"",""trial"",""time""
""fullscreenenter"",""1"",""4946""
","
","
","""event"",""trial"",""time""
""fullscreenenter"",""1"",""4946""
","
","","1388.7600000016391","","","","real_trial","2021-04-01 00:10:41.138","img/card_backs/set1/red.gif","2","-190","1","",""
"casino-fixation","140","445910","0.0-25.0-0.35","A428","true","img/card_backs/set1/yellow.gif","img/card_backs/set1/red.gif","img/card_backs/set1/green.gif","img/card_backs/set1/purple.gif","img/card_backs/set2/pink.gif","img/card_backs/set2/gray.gif","img/card_backs/set2/orange.gif","img/card_backs/set2/blue.gif","""event"",""trial"",""time""
""fullscreenenter"",""1"",""4946""
","
","
","""event"",""trial"",""time""
""fullscreenenter"",""1"",""4946""
","
","","null","","null","","fixation","2021-04-01 00:10:41.640","","","","","",""
"card-selection-trial","141","448506","0.0-25.0-1.35","A428","true","img/card_backs/set1/yellow.gif","img/card_backs/set1/red.gif","img/card_backs/set1/green.gif","img/card_backs/set1/purple.gif","img/card_backs/set2/pink.gif","img/card_backs/set2/gray.gif","img/card_backs/set2/orange.gif","img/card_backs/set2/blue.gif","""event"",""trial"",""time""
""fullscreenenter"",""1"",""4946""
","
","
","""event"",""trial"",""time""
""fullscreenenter"",""1"",""4946""
","
","","589.4449999995995","","","","real_trial","2021-04-01 00:10:44.236","img/card_backs/set1/yellow.gif","2","240","1","",""
"casino-fixation","142","449008","0.0-25.0-0.36","A428","true","img/card_backs/set1/yellow.gif","img/card_backs/set1/red.gif","img/card_backs/set1/green.gif","img/card_backs/set1/purple.gif","img/card_backs/set2/pink.gif","img/card_backs/set2/gray.gif","img/card_backs/set2/orange.gif","img/card_backs/set2/blue.gif","""event"",""trial"",""time""
""fullscreenenter"",""1"",""4946""
","
","
","""event"",""trial"",""time""
""fullscreenenter"",""1"",""4946""
","
","","null","","null","","fixation","2021-04-01 00:10:44.738","","","","","",""
"card-selection-trial","143","451880","0.0-25.0-1.36","A428","true","img/card_backs/set1/yellow.gif","img/card_backs/set1/red.gif","img/card_backs/set1/green.gif","img/card_backs/set1/purple.gif","img/card_backs/set2/pink.gif","img/card_backs/set2/gray.gif","img/card_backs/set2/orange.gif","img/card_backs/set2/blue.gif","""event"",""trial"",""time""
""fullscreenenter"",""1"",""4946""
","
","
","""event"",""trial"",""time""
""fullscreenenter"",""1"",""4946""
","
","","865.6950000004144","","","","real_trial","2021-04-01 00:10:47.610","img/card_backs/set1/yellow.gif","1","250","1","",""
"casino-fixation","144","452382","0.0-25.0-0.37","A428","true","img/card_backs/set1/yellow.gif","img/card_backs/set1/red.gif","img/card_backs/set1/green.gif","img/card_backs/set1/purple.gif","img/card_backs/set2/pink.gif","img/card_backs/set2/gray.gif","img/card_backs/set2/orange.gif","img/card_backs/set2/blue.gif","""event"",""trial"",""time""
""fullscreenenter"",""1"",""4946""
","
","
","""event"",""trial"",""time""
""fullscreenenter"",""1"",""4946""
","
","","null","","null","","fixation","2021-04-01 00:10:48.112","","","","","",""
"card-selection-trial","145","455155","0.0-25.0-1.37","A428","true","img/card_backs/set1/yellow.gif","img/card_backs/set1/red.gif","img/card_backs/set1/green.gif","img/card_backs/set1/purple.gif","img/card_backs/set2/pink.gif","img/card_backs/set2/gray.gif","img/card_backs/set2/orange.gif","img/card_backs/set2/blue.gif","""event"",""trial"",""time""
""fullscreenenter"",""1"",""4946""
","
","
","""event"",""trial"",""time""
""fullscreenenter"",""1"",""4946""
","
","","765.9749999984051","","","","real_trial","2021-04-01 00:10:50.885","img/card_backs/set1/yellow.gif","3","240","1","",""
"casino-fixation","146","455658","0.0-25.0-0.38","A428","true","img/card_backs/set1/yellow.gif","img/card_backs/set1/red.gif","img/card_backs/set1/green.gif","img/card_backs/set1/purple.gif","img/card_backs/set2/pink.gif","img/card_backs/set2/gray.gif","img/card_backs/set2/orange.gif","img/card_backs/set2/blue.gif","""event"",""trial"",""time""
""fullscreenenter"",""1"",""4946""
","
","
","""event"",""trial"",""time""
""fullscreenenter"",""1"",""4946""
","
","","null","","null","","fixation","2021-04-01 00:10:51.388","","","","","",""
"card-selection-trial","147","458172","0.0-25.0-1.38","A428","true","img/card_backs/set1/yellow.gif","img/card_backs/set1/red.gif","img/card_backs/set1/green.gif","img/card_backs/set1/purple.gif","img/card_backs/set2/pink.gif","img/card_backs/set2/gray.gif","img/card_backs/set2/orange.gif","img/card_backs/set2/blue.gif","""event"",""trial"",""time""
""fullscreenenter"",""1"",""4946""
","
","
","""event"",""trial"",""time""
""fullscreenenter"",""1"",""4946""
","
","","508.03000000090105","","","","real_trial","2021-04-01 00:10:53.902","img/card_backs/set1/yellow.gif","3","-200","1","",""
"casino-fixation","148","458674","0.0-25.0-0.39","A428","true","img/card_backs/set1/yellow.gif","img/card_backs/set1/red.gif","img/card_backs/set1/green.gif","img/card_backs/set1/purple.gif","img/card_backs/set2/pink.gif","img/card_backs/set2/gray.gif","img/card_backs/set2/orange.gif","img/card_backs/set2/blue.gif","""event"",""trial"",""time""
""fullscreenenter"",""1"",""4946""
","
","
","""event"",""trial"",""time""
""fullscreenenter"",""1"",""4946""
","
","","null","","null","","fixation","2021-04-01 00:10:54.404","","","","","",""
"card-selection-trial","149","461510","0.0-25.0-1.39","A428","true","img/card_backs/set1/yellow.gif","img/card_backs/set1/red.gif","img/card_backs/set1/green.gif","img/card_backs/set1/purple.gif","img/card_backs/set2/pink.gif","img/card_backs/set2/gray.gif","img/card_backs/set2/orange.gif","img/card_backs/set2/blue.gif","""event"",""trial"",""time""
""fullscreenenter"",""1"",""4946""
","
","
","""event"",""trial"",""time""
""fullscreenenter"",""1"",""4946""
","
","","829.8950000007753","","","","real_trial","2021-04-01 00:10:57.240","img/card_backs/set1/purple.gif","3","-100","1","",""
"casino-fixation","150","462012","0.0-25.0-0.40","A428","true","img/card_backs/set1/yellow.gif","img/card_backs/set1/red.gif","img/card_backs/set1/green.gif","img/card_backs/set1/purple.gif","img/card_backs/set2/pink.gif","img/card_backs/set2/gray.gif","img/card_backs/set2/orange.gif","img/card_backs/set2/blue.gif","""event"",""trial"",""time""
""fullscreenenter"",""1"",""4946""
","
","
","""event"",""trial"",""time""
""fullscreenenter"",""1"",""4946""
","
","","null","","null","","fixation","2021-04-01 00:10:57.742","","","","","",""
"card-selection-trial","151","464860","0.0-25.0-1.40","A428","true","img/card_backs/set1/yellow.gif","img/card_backs/set1/red.gif","img/card_backs/set1/green.gif","img/card_backs/set1/purple.gif","img/card_backs/set2/pink.gif","img/card_backs/set2/gray.gif","img/card_backs/set2/orange.gif","img/card_backs/set2/blue.gif","""event"",""trial"",""time""
""fullscreenenter"",""1"",""4946""
","
","
","""event"",""trial"",""time""
""fullscreenenter"",""1"",""4946""
","
","","842.1550000002608","","","","real_trial","2021-04-01 00:11:00.590","img/card_backs/set1/yellow.gif","2","260","1","",""
"casino-fixation","152","465361","0.0-25.0-0.41","A428","true","img/card_backs/set1/yellow.gif","img/card_backs/set1/red.gif","img/card_backs/set1/green.gif","img/card_backs/set1/purple.gif","img/card_backs/set2/pink.gif","img/card_backs/set2/gray.gif","img/card_backs/set2/orange.gif","img/card_backs/set2/blue.gif","""event"",""trial"",""time""
""fullscreenenter"",""1"",""4946""
","
","
","""event"",""trial"",""time""
""fullscreenenter"",""1"",""4946""
","
","","null","","null","","fixation","2021-04-01 00:11:01.091","","","","","",""
"card-selection-trial","153","467971","0.0-25.0-1.41","A428","true","img/card_backs/set1/yellow.gif","img/card_backs/set1/red.gif","img/card_backs/set1/green.gif","img/card_backs/set1/purple.gif","img/card_backs/set2/pink.gif","img/card_backs/set2/gray.gif","img/card_backs/set2/orange.gif","img/card_backs/set2/blue.gif","""event"",""trial"",""time""
""fullscreenenter"",""1"",""4946""
","
","
","""event"",""trial"",""time""
""fullscreenenter"",""1"",""4946""
","
","","602.7950000006822","","","","real_trial","2021-04-01 00:11:03.701","img/card_backs/set1/yellow.gif","2","-210","1","",""
"casino-fixation","154","468473","0.0-25.0-0.42","A428","true","img/card_backs/set1/yellow.gif","img/card_backs/set1/red.gif","img/card_backs/set1/green.gif","img/card_backs/set1/purple.gif","img/card_backs/set2/pink.gif","img/card_backs/set2/gray.gif","img/card_backs/set2/orange.gif","img/card_backs/set2/blue.gif","""event"",""trial"",""time""
""fullscreenenter"",""1"",""4946""
","
","
","""event"",""trial"",""time""
""fullscreenenter"",""1"",""4946""
","
","","null","","null","","fixation","2021-04-01 00:11:04.203","","","","","",""
"card-selection-trial","155","471584","0.0-25.0-1.42","A428","true","img/card_backs/set1/yellow.gif","img/card_backs/set1/red.gif","img/card_backs/set1/green.gif","img/card_backs/set1/purple.gif","img/card_backs/set2/pink.gif","img/card_backs/set2/gray.gif","img/card_backs/set2/orange.gif","img/card_backs/set2/blue.gif","""event"",""trial"",""time""
""fullscreenenter"",""1"",""4946""
","
","
","""event"",""trial"",""time""
""fullscreenenter"",""1"",""4946""
","
","","1105.065000001574","","","","real_trial","2021-04-01 00:11:07.314","img/card_backs/set1/purple.gif","3","40","1","",""
"casino-fixation","156","472097","0.0-25.0-0.43","A428","true","img/card_backs/set1/yellow.gif","img/card_backs/set1/red.gif","img/card_backs/set1/green.gif","img/card_backs/set1/purple.gif","img/card_backs/set2/pink.gif","img/card_backs/set2/gray.gif","img/card_backs/set2/orange.gif","img/card_backs/set2/blue.gif","""event"",""trial"",""time""
""fullscreenenter"",""1"",""4946""
","
","
","""event"",""trial"",""time""
""fullscreenenter"",""1"",""4946""
","
","","null","","null","","fixation","2021-04-01 00:11:07.827","","","","","",""
"card-selection-trial","157","475063","0.0-25.0-1.43","A428","true","img/card_backs/set1/yellow.gif","img/card_backs/set1/red.gif","img/card_backs/set1/green.gif","img/card_backs/set1/purple.gif","img/card_backs/set2/pink.gif","img/card_backs/set2/gray.gif","img/card_backs/set2/orange.gif","img/card_backs/set2/blue.gif","""event"",""trial"",""time""
""fullscreenenter"",""1"",""4946""
","
","
","""event"",""trial"",""time""
""fullscreenenter"",""1"",""4946""
","
","","958.679999999702","","","","real_trial","2021-04-01 00:11:10.793","img/card_backs/set1/yellow.gif","1","250","1","",""
"casino-fixation","158","475565","0.0-25.0-0.44","A428","true","img/card_backs/set1/yellow.gif","img/card_backs/set1/red.gif","img/card_backs/set1/green.gif","img/card_backs/set1/purple.gif","img/card_backs/set2/pink.gif","img/card_backs/set2/gray.gif","img/card_backs/set2/orange.gif","img/card_backs/set2/blue.gif","""event"",""trial"",""time""
""fullscreenenter"",""1"",""4946""
","
","
","""event"",""trial"",""time""
""fullscreenenter"",""1"",""4946""
","
","","null","","null","","fixation","2021-04-01 00:11:11.295","","","","","",""
"card-selection-trial","159","478400","0.0-25.0-1.44","A428","true","img/card_backs/set1/yellow.gif","img/card_backs/set1/red.gif","img/card_backs/set1/green.gif","img/card_backs/set1/purple.gif","img/card_backs/set2/pink.gif","img/card_backs/set2/gray.gif","img/card_backs/set2/orange.gif","img/card_backs/set2/blue.gif","""event"",""trial"",""time""
""fullscreenenter"",""1"",""4946""
","
","
","""event"",""trial"",""time""
""fullscreenenter"",""1"",""4946""
","
","","828.2850000014296","","","","real_trial","2021-04-01 00:11:14.130","img/card_backs/set1/yellow.gif","3","240","1","",""
"casino-fixation","160","478902","0.0-25.0-0.45","A428","true","img/card_backs/set1/yellow.gif","img/card_backs/set1/red.gif","img/card_backs/set1/green.gif","img/card_backs/set1/purple.gif","img/card_backs/set2/pink.gif","img/card_backs/set2/gray.gif","img/card_backs/set2/orange.gif","img/card_backs/set2/blue.gif","""event"",""trial"",""time""
""fullscreenenter"",""1"",""4946""
","
","
","""event"",""trial"",""time""
""fullscreenenter"",""1"",""4946""
","
","","null","","null","","fixation","2021-04-01 00:11:14.632","","","","","",""
"card-selection-trial","161","481854","0.0-25.0-1.45","A428","true","img/card_backs/set1/yellow.gif","img/card_backs/set1/red.gif","img/card_backs/set1/green.gif","img/card_backs/set1/purple.gif","img/card_backs/set2/pink.gif","img/card_backs/set2/gray.gif","img/card_backs/set2/orange.gif","img/card_backs/set2/blue.gif","""event"",""trial"",""time""
""fullscreenenter"",""1"",""4946""
","
","
","""event"",""trial"",""time""
""fullscreenenter"",""1"",""4946""
","
","","947.2549999991315","","","","real_trial","2021-04-01 00:11:17.584","img/card_backs/set1/purple.gif","1","-90","1","",""
"casino-fixation","162","482357","0.0-25.0-0.46","A428","true","img/card_backs/set1/yellow.gif","img/card_backs/set1/red.gif","img/card_backs/set1/green.gif","img/card_backs/set1/purple.gif","img/card_backs/set2/pink.gif","img/card_backs/set2/gray.gif","img/card_backs/set2/orange.gif","img/card_backs/set2/blue.gif","""event"",""trial"",""time""
""fullscreenenter"",""1"",""4946""
","
","
","""event"",""trial"",""time""
""fullscreenenter"",""1"",""4946""
","
","","null","","null","","fixation","2021-04-01 00:11:18.087","","","","","",""
"card-selection-trial","163","486027","0.0-25.0-1.46","A428","true","img/card_backs/set1/yellow.gif","img/card_backs/set1/red.gif","img/card_backs/set1/green.gif","img/card_backs/set1/purple.gif","img/card_backs/set2/pink.gif","img/card_backs/set2/gray.gif","img/card_backs/set2/orange.gif","img/card_backs/set2/blue.gif","""event"",""trial"",""time""
""fullscreenenter"",""1"",""4946""
","
","
","""event"",""trial"",""time""
""fullscreenenter"",""1"",""4946""
","
","","1663.2400000016205","","","","real_trial","2021-04-01 00:11:21.757","img/card_backs/set1/yellow.gif","0","-190","1","",""
"casino-fixation","164","486529","0.0-25.0-0.47","A428","true","img/card_backs/set1/yellow.gif","img/card_backs/set1/red.gif","img/card_backs/set1/green.gif","img/card_backs/set1/purple.gif","img/card_backs/set2/pink.gif","img/card_backs/set2/gray.gif","img/card_backs/set2/orange.gif","img/card_backs/set2/blue.gif","""event"",""trial"",""time""
""fullscreenenter"",""1"",""4946""
","
","
","""event"",""trial"",""time""
""fullscreenenter"",""1"",""4946""
","
","","null","","null","","fixation","2021-04-01 00:11:22.259","","","","","",""
"card-selection-trial","165","489078","0.0-25.0-1.47","A428","true","img/card_backs/set1/yellow.gif","img/card_backs/set1/red.gif","img/card_backs/set1/green.gif","img/card_backs/set1/purple.gif","img/card_backs/set2/pink.gif","img/card_backs/set2/gray.gif","img/card_backs/set2/orange.gif","img/card_backs/set2/blue.gif","""event"",""trial"",""time""
""fullscreenenter"",""1"",""4946""
","
","
","""event"",""trial"",""time""
""fullscreenenter"",""1"",""4946""
","
","","541.9199999996345","","","","real_trial","2021-04-01 00:11:24.808","img/card_backs/set1/yellow.gif","3","250","1","",""
"casino-fixation","166","489579","0.0-25.0-0.48","A428","true","img/card_backs/set1/yellow.gif","img/card_backs/set1/red.gif","img/card_backs/set1/green.gif","img/card_backs/set1/purple.gif","img/card_backs/set2/pink.gif","img/card_backs/set2/gray.gif","img/card_backs/set2/orange.gif","img/card_backs/set2/blue.gif","""event"",""trial"",""time""
""fullscreenenter"",""1"",""4946""
","
","
","""event"",""trial"",""time""
""fullscreenenter"",""1"",""4946""
","
","","null","","null","","fixation","2021-04-01 00:11:25.309","","","","","",""
