"trial_type","trial_index","time_elapsed","internal_node_id","sub_id","risk_good_first","block1_A","block1_B","block1_C","block1_D","block2_A","block2_B","block2_C","block2_D","interactions","blur_events","focus_events","fullscreenenter_events","fullscreenexit_events","success","rt","stimulus","key_press","button_pressed","task_part","timestamp","card_choice","choice_position","points_earned","block","correct","response"
"pavlovia","0","6","0.0-0.0","197","true","img/card_backs/set1/purple.gif","img/card_backs/set1/red.gif","img/card_backs/set1/green.gif","img/card_backs/set1/yellow.gif","img/card_backs/set2/gray.gif","img/card_backs/set2/pink.gif","img/card_backs/set2/blue.gif","img/card_backs/set2/orange.gif","""event"",""trial"",""time""
""fullscreenenter"",""1"",""2085""
","
","
","""event"",""trial"",""time""
""fullscreenenter"",""1"",""2085""
","
","","","","","","","","","","","","",""
"fullscreen","1","3085","0.0-1.0","197","true","img/card_backs/set1/purple.gif","img/card_backs/set1/red.gif","img/card_backs/set1/green.gif","img/card_backs/set1/yellow.gif","img/card_backs/set2/gray.gif","img/card_backs/set2/pink.gif","img/card_backs/set2/blue.gif","img/card_backs/set2/orange.gif","""event"",""trial"",""time""
""fullscreenenter"",""1"",""2085""
","
","
","""event"",""trial"",""time""
""fullscreenenter"",""1"",""2085""
","
","true","","","","","","","","","","","",""
"audio-keyboard-response","2","4512","0.0-2.0","197","true","img/card_backs/set1/purple.gif","img/card_backs/set1/red.gif","img/card_backs/set1/green.gif","img/card_backs/set1/yellow.gif","img/card_backs/set2/gray.gif","img/card_backs/set2/pink.gif","img/card_backs/set2/blue.gif","img/card_backs/set2/orange.gif","""event"",""trial"",""time""
""fullscreenenter"",""1"",""2085""
","
","
","""event"",""trial"",""time""
""fullscreenenter"",""1"",""2085""
","
","","1408","audio/beep_loop.wav","32","","","","","","","","",""
"audio-button-response","3","7363","0.0-3.0","197","true","img/card_backs/set1/purple.gif","img/card_backs/set1/red.gif","img/card_backs/set1/green.gif","img/card_backs/set1/yellow.gif","img/card_backs/set2/gray.gif","img/card_backs/set2/pink.gif","img/card_backs/set2/blue.gif","img/card_backs/set2/orange.gif","""event"",""trial"",""time""
""fullscreenenter"",""1"",""2085""
","
","
","""event"",""trial"",""time""
""fullscreenenter"",""1"",""2085""
","
","","NaN","audio/turtle.mp3","","3","","","","","","","",""
"audio-button-response","4","10268","0.0-4.0","197","true","img/card_backs/set1/purple.gif","img/card_backs/set1/red.gif","img/card_backs/set1/green.gif","img/card_backs/set1/yellow.gif","img/card_backs/set2/gray.gif","img/card_backs/set2/pink.gif","img/card_backs/set2/blue.gif","img/card_backs/set2/orange.gif","""event"",""trial"",""time""
""fullscreenenter"",""1"",""2085""
","
","
","""event"",""trial"",""time""
""fullscreenenter"",""1"",""2085""
","
","","NaN","audio/shark.mp3","","2","","","","","","","",""
"fullscreen","5","13049","0.0-5.0","197","true","img/card_backs/set1/purple.gif","img/card_backs/set1/red.gif","img/card_backs/set1/green.gif","img/card_backs/set1/yellow.gif","img/card_backs/set2/gray.gif","img/card_backs/set2/pink.gif","img/card_backs/set2/blue.gif","img/card_backs/set2/orange.gif","""event"",""trial"",""time""
""fullscreenenter"",""1"",""2085""
","
","
","""event"",""trial"",""time""
""fullscreenenter"",""1"",""2085""
","
","true","","","","","","","","","","","",""
"casino-keyboard-response","6","16183","0.0-6.0-0.0","197","true","img/card_backs/set1/purple.gif","img/card_backs/set1/red.gif","img/card_backs/set1/green.gif","img/card_backs/set1/yellow.gif","img/card_backs/set2/gray.gif","img/card_backs/set2/pink.gif","img/card_backs/set2/blue.gif","img/card_backs/set2/orange.gif","""event"",""trial"",""time""
""fullscreenenter"",""1"",""2085""
""fullscreenexit"",""7"",""19440""
""blur"",""7"",""20863""
""focus"",""7"",""24791""
","""event"",""trial"",""time""
""blur"",""7"",""20863""
","""event"",""trial"",""time""
""focus"",""7"",""24791""
","""event"",""trial"",""time""
""fullscreenenter"",""1"",""2085""
","""event"",""trial"",""time""
""fullscreenexit"",""7"",""19440""
","","3130.910000007134","Welcome to the casino!","71","","instructions","2021-04-11 15:31:20.895","","","","","",""
"casino-keyboard-response","7","26920","0.0-6.0-0.1","197","true","img/card_backs/set1/purple.gif","img/card_backs/set1/red.gif","img/card_backs/set1/green.gif","img/card_backs/set1/yellow.gif","img/card_backs/set2/gray.gif","img/card_backs/set2/pink.gif","img/card_backs/set2/blue.gif","img/card_backs/set2/orange.gif","""event"",""trial"",""time""
""fullscreenenter"",""1"",""2085""
""fullscreenexit"",""7"",""19440""
""blur"",""7"",""20863""
""focus"",""7"",""24791""
","""event"",""trial"",""time""
""blur"",""7"",""20863""
","""event"",""trial"",""time""
""focus"",""7"",""24791""
","""event"",""trial"",""time""
""fullscreenenter"",""1"",""2085""
","""event"",""trial"",""time""
""fullscreenexit"",""7"",""19440""
","","10735.74499998358","Today you will be playing a game to earn tokens. </br> At the end of the experiment, you will be paid a bonus based on how many tokens you win. ","69","","instructions","2021-04-11 15:31:31.632","","","","","",""
"casino-keyboard-response","8","34346","0.0-6.0-0.2","197","true","img/card_backs/set1/purple.gif","img/card_backs/set1/red.gif","img/card_backs/set1/green.gif","img/card_backs/set1/yellow.gif","img/card_backs/set2/gray.gif","img/card_backs/set2/pink.gif","img/card_backs/set2/blue.gif","img/card_backs/set2/orange.gif","""event"",""trial"",""time""
""fullscreenenter"",""1"",""2085""
""fullscreenexit"",""7"",""19440""
""blur"",""7"",""20863""
""focus"",""7"",""24791""
","""event"",""trial"",""time""
""blur"",""7"",""20863""
","""event"",""trial"",""time""
""focus"",""7"",""24791""
","""event"",""trial"",""time""
""fullscreenenter"",""1"",""2085""
","""event"",""trial"",""time""
""fullscreenexit"",""7"",""19440""
","","7424.755000014557","On every turn, you will be shown four different decks of cards. </br> You need to select a card from one of the four decks.  ","75","","instructions","2021-04-11 15:31:39.058","","","","","",""
"casino-keyboard-response","9","39194","0.0-6.0-0.3","197","true","img/card_backs/set1/purple.gif","img/card_backs/set1/red.gif","img/card_backs/set1/green.gif","img/card_backs/set1/yellow.gif","img/card_backs/set2/gray.gif","img/card_backs/set2/pink.gif","img/card_backs/set2/blue.gif","img/card_backs/set2/orange.gif","""event"",""trial"",""time""
""fullscreenenter"",""1"",""2085""
""fullscreenexit"",""7"",""19440""
""blur"",""7"",""20863""
""focus"",""7"",""24791""
","""event"",""trial"",""time""
""blur"",""7"",""20863""
","""event"",""trial"",""time""
""focus"",""7"",""24791""
","""event"",""trial"",""time""
""fullscreenenter"",""1"",""2085""
","""event"",""trial"",""time""
""fullscreenexit"",""7"",""19440""
","","4846.099999995204","On the next screen, you will see what the decks will look like. ","66","","instructions","2021-04-11 15:31:43.906","","","","","",""
"card-selection-trial","10","43205","0.0-7.0-0.0","197","true","img/card_backs/set1/purple.gif","img/card_backs/set1/red.gif","img/card_backs/set1/green.gif","img/card_backs/set1/yellow.gif","img/card_backs/set2/gray.gif","img/card_backs/set2/pink.gif","img/card_backs/set2/blue.gif","img/card_backs/set2/orange.gif","""event"",""trial"",""time""
""fullscreenenter"",""1"",""2085""
""fullscreenexit"",""7"",""19440""
""blur"",""7"",""20863""
""focus"",""7"",""24791""
","""event"",""trial"",""time""
""blur"",""7"",""20863""
","""event"",""trial"",""time""
""focus"",""7"",""24791""
","""event"",""trial"",""time""
""fullscreenenter"",""1"",""2085""
","""event"",""trial"",""time""
""fullscreenexit"",""7"",""19440""
","","null","","","","practice","2021-04-11 15:31:47.917","null","null","null","0","",""
"casino-keyboard-response","11","51183","0.0-8.0-0.0","197","true","img/card_backs/set1/purple.gif","img/card_backs/set1/red.gif","img/card_backs/set1/green.gif","img/card_backs/set1/yellow.gif","img/card_backs/set2/gray.gif","img/card_backs/set2/pink.gif","img/card_backs/set2/blue.gif","img/card_backs/set2/orange.gif","""event"",""trial"",""time""
""fullscreenenter"",""1"",""2085""
""fullscreenexit"",""7"",""19440""
""blur"",""7"",""20863""
""focus"",""7"",""24791""
","""event"",""trial"",""time""
""blur"",""7"",""20863""
","""event"",""trial"",""time""
""focus"",""7"",""24791""
","""event"",""trial"",""time""
""fullscreenenter"",""1"",""2085""
","""event"",""trial"",""time""
""fullscreenexit"",""7"",""19440""
","","7976.864999975078","You should pick a card from a deck using the '2', '4', '6', and '8' keys at the top of the keyboard.","85","","instructions","2021-04-11 15:31:55.895","","","","","",""
"casino-keyboard-response","12","56710","0.0-8.0-0.1","197","true","img/card_backs/set1/purple.gif","img/card_backs/set1/red.gif","img/card_backs/set1/green.gif","img/card_backs/set1/yellow.gif","img/card_backs/set2/gray.gif","img/card_backs/set2/pink.gif","img/card_backs/set2/blue.gif","img/card_backs/set2/orange.gif","""event"",""trial"",""time""
""fullscreenenter"",""1"",""2085""
""fullscreenexit"",""7"",""19440""
""blur"",""7"",""20863""
""focus"",""7"",""24791""
","""event"",""trial"",""time""
""blur"",""7"",""20863""
","""event"",""trial"",""time""
""focus"",""7"",""24791""
","""event"",""trial"",""time""
""fullscreenenter"",""1"",""2085""
","""event"",""trial"",""time""
""fullscreenexit"",""7"",""19440""
","","5534.370000008494","Once you select a card, it will turn over and you will see how many tokens you earned.","83","","instructions","2021-04-11 15:32:01.422","","","","","",""
"casino-keyboard-response","13","71707","0.0-8.0-0.2","197","true","img/card_backs/set1/purple.gif","img/card_backs/set1/red.gif","img/card_backs/set1/green.gif","img/card_backs/set1/yellow.gif","img/card_backs/set2/gray.gif","img/card_backs/set2/pink.gif","img/card_backs/set2/blue.gif","img/card_backs/set2/orange.gif","""event"",""trial"",""time""
""fullscreenenter"",""1"",""2085""
""fullscreenexit"",""7"",""19440""
""blur"",""7"",""20863""
""focus"",""7"",""24791""
","""event"",""trial"",""time""
""blur"",""7"",""20863""
","""event"",""trial"",""time""
""focus"",""7"",""24791""
","""event"",""trial"",""time""
""fullscreenenter"",""1"",""2085""
","""event"",""trial"",""time""
""fullscreenexit"",""7"",""19440""
","","14994.854999997187","Let's try practicing that! </br> First, try to put your fingers over the '2', '4', '6', and '8' keys. </br>  You can use whatever fingers are most comfortable for you. Try to find a comfortable position now. ","50","","instructions","2021-04-11 15:32:16.419","","","","","",""
"casino-keyboard-response","14","77315","0.0-8.0-0.3","197","true","img/card_backs/set1/purple.gif","img/card_backs/set1/red.gif","img/card_backs/set1/green.gif","img/card_backs/set1/yellow.gif","img/card_backs/set2/gray.gif","img/card_backs/set2/pink.gif","img/card_backs/set2/blue.gif","img/card_backs/set2/orange.gif","""event"",""trial"",""time""
""fullscreenenter"",""1"",""2085""
""fullscreenexit"",""7"",""19440""
""blur"",""7"",""20863""
""focus"",""7"",""24791""
","""event"",""trial"",""time""
""blur"",""7"",""20863""
","""event"",""trial"",""time""
""focus"",""7"",""24791""
","""event"",""trial"",""time""
""fullscreenenter"",""1"",""2085""
","""event"",""trial"",""time""
""fullscreenexit"",""7"",""19440""
","","5606.180000002496","Okay ready? </br> On the next screen, press '2' to select the left deck. ","50","","instructions","2021-04-11 15:32:22.027","","","","","",""
"card-selection-trial","15","80140","0.0-9.0-0.0","197","true","img/card_backs/set1/purple.gif","img/card_backs/set1/red.gif","img/card_backs/set1/green.gif","img/card_backs/set1/yellow.gif","img/card_backs/set2/gray.gif","img/card_backs/set2/pink.gif","img/card_backs/set2/blue.gif","img/card_backs/set2/orange.gif","""event"",""trial"",""time""
""fullscreenenter"",""1"",""2085""
""fullscreenexit"",""7"",""19440""
""blur"",""7"",""20863""
""focus"",""7"",""24791""
","""event"",""trial"",""time""
""blur"",""7"",""20863""
","""event"",""trial"",""time""
""focus"",""7"",""24791""
","""event"",""trial"",""time""
""fullscreenenter"",""1"",""2085""
","""event"",""trial"",""time""
""fullscreenexit"",""7"",""19440""
","","811.0300000116695","","","","practice_card_selection","2021-04-11 15:32:24.852","img/practice_cards/backs/black.gif","0","100","","",""
"casino-keyboard-response","16","85754","0.0-10.0-0.0","197","true","img/card_backs/set1/purple.gif","img/card_backs/set1/red.gif","img/card_backs/set1/green.gif","img/card_backs/set1/yellow.gif","img/card_backs/set2/gray.gif","img/card_backs/set2/pink.gif","img/card_backs/set2/blue.gif","img/card_backs/set2/orange.gif","""event"",""trial"",""time""
""fullscreenenter"",""1"",""2085""
""fullscreenexit"",""7"",""19440""
""blur"",""7"",""20863""
""focus"",""7"",""24791""
","""event"",""trial"",""time""
""blur"",""7"",""20863""
","""event"",""trial"",""time""
""focus"",""7"",""24791""
","""event"",""trial"",""time""
""fullscreenenter"",""1"",""2085""
","""event"",""trial"",""time""
""fullscreenexit"",""7"",""19440""
","","5613.024999998743","Great! Now on the next screen, try pressing '6' to select the third deck.","54","","instructions","2021-04-11 15:32:30.466","","","","","",""
"card-selection-trial","17","88243","0.0-11.0-0.0","197","true","img/card_backs/set1/purple.gif","img/card_backs/set1/red.gif","img/card_backs/set1/green.gif","img/card_backs/set1/yellow.gif","img/card_backs/set2/gray.gif","img/card_backs/set2/pink.gif","img/card_backs/set2/blue.gif","img/card_backs/set2/orange.gif","""event"",""trial"",""time""
""fullscreenenter"",""1"",""2085""
""fullscreenexit"",""7"",""19440""
""blur"",""7"",""20863""
""focus"",""7"",""24791""
","""event"",""trial"",""time""
""blur"",""7"",""20863""
","""event"",""trial"",""time""
""focus"",""7"",""24791""
","""event"",""trial"",""time""
""fullscreenenter"",""1"",""2085""
","""event"",""trial"",""time""
""fullscreenexit"",""7"",""19440""
","","467.16500000911765","","","","practice_card_selection","2021-04-11 15:32:32.955","img/practice_cards/backs/brown.gif","2","100","","",""
"casino-keyboard-response","18","92784","0.0-12.0-0.0","197","true","img/card_backs/set1/purple.gif","img/card_backs/set1/red.gif","img/card_backs/set1/green.gif","img/card_backs/set1/yellow.gif","img/card_backs/set2/gray.gif","img/card_backs/set2/pink.gif","img/card_backs/set2/blue.gif","img/card_backs/set2/orange.gif","""event"",""trial"",""time""
""fullscreenenter"",""1"",""2085""
""fullscreenexit"",""7"",""19440""
""blur"",""7"",""20863""
""focus"",""7"",""24791""
","""event"",""trial"",""time""
""blur"",""7"",""20863""
","""event"",""trial"",""time""
""focus"",""7"",""24791""
","""event"",""trial"",""time""
""fullscreenenter"",""1"",""2085""
","""event"",""trial"",""time""
""fullscreenexit"",""7"",""19440""
","","4539.580000011483","Now on the next screen, try pressing '4' to select the second deck.","52","","instructions","2021-04-11 15:32:37.496","","","","","",""
"card-selection-trial","19","95389","0.0-13.0-0.0","197","true","img/card_backs/set1/purple.gif","img/card_backs/set1/red.gif","img/card_backs/set1/green.gif","img/card_backs/set1/yellow.gif","img/card_backs/set2/gray.gif","img/card_backs/set2/pink.gif","img/card_backs/set2/blue.gif","img/card_backs/set2/orange.gif","""event"",""trial"",""time""
""fullscreenenter"",""1"",""2085""
""fullscreenexit"",""7"",""19440""
""blur"",""7"",""20863""
""focus"",""7"",""24791""
","""event"",""trial"",""time""
""blur"",""7"",""20863""
","""event"",""trial"",""time""
""focus"",""7"",""24791""
","""event"",""trial"",""time""
""fullscreenenter"",""1"",""2085""
","""event"",""trial"",""time""
""fullscreenexit"",""7"",""19440""
","","594.0100000007078","","","","practice_card_selection","2021-04-11 15:32:40.101","img/practice_cards/backs/black.gif","1","100","","",""
"casino-keyboard-response","20","99682","0.0-14.0-0.0","197","true","img/card_backs/set1/purple.gif","img/card_backs/set1/red.gif","img/card_backs/set1/green.gif","img/card_backs/set1/yellow.gif","img/card_backs/set2/gray.gif","img/card_backs/set2/pink.gif","img/card_backs/set2/blue.gif","img/card_backs/set2/orange.gif","""event"",""trial"",""time""
""fullscreenenter"",""1"",""2085""
""fullscreenexit"",""7"",""19440""
""blur"",""7"",""20863""
""focus"",""7"",""24791""
","""event"",""trial"",""time""
""blur"",""7"",""20863""
","""event"",""trial"",""time""
""focus"",""7"",""24791""
","""event"",""trial"",""time""
""fullscreenenter"",""1"",""2085""
","""event"",""trial"",""time""
""fullscreenexit"",""7"",""19440""
","","4291.714999999385","Finally, try pressing '8' to select the deck all the way on the right.","56","","instructions","2021-04-11 15:32:44.394","","","","","",""
"card-selection-trial","21","102104","0.0-15.0-0.0","197","true","img/card_backs/set1/purple.gif","img/card_backs/set1/red.gif","img/card_backs/set1/green.gif","img/card_backs/set1/yellow.gif","img/card_backs/set2/gray.gif","img/card_backs/set2/pink.gif","img/card_backs/set2/blue.gif","img/card_backs/set2/orange.gif","""event"",""trial"",""time""
""fullscreenenter"",""1"",""2085""
""fullscreenexit"",""7"",""19440""
""blur"",""7"",""20863""
""focus"",""7"",""24791""
","""event"",""trial"",""time""
""blur"",""7"",""20863""
","""event"",""trial"",""time""
""focus"",""7"",""24791""
","""event"",""trial"",""time""
""fullscreenenter"",""1"",""2085""
","""event"",""trial"",""time""
""fullscreenexit"",""7"",""19440""
","","402.18500001356006","","","","practice_card_selection","2021-04-11 15:32:46.816","img/practice_cards/backs/black.gif","3","100","","",""
"casino-keyboard-response","22","110614","0.0-16.0-0.0","197","true","img/card_backs/set1/purple.gif","img/card_backs/set1/red.gif","img/card_backs/set1/green.gif","img/card_backs/set1/yellow.gif","img/card_backs/set2/gray.gif","img/card_backs/set2/pink.gif","img/card_backs/set2/blue.gif","img/card_backs/set2/orange.gif","""event"",""trial"",""time""
""fullscreenenter"",""1"",""2085""
""fullscreenexit"",""7"",""19440""
""blur"",""7"",""20863""
""focus"",""7"",""24791""
","""event"",""trial"",""time""
""blur"",""7"",""20863""
","""event"",""trial"",""time""
""focus"",""7"",""24791""
","""event"",""trial"",""time""
""fullscreenenter"",""1"",""2085""
","""event"",""trial"",""time""
""fullscreenexit"",""7"",""19440""
","","8508.82499999716","Great! It seems like you are getting the hang of this.","80","","instructions","2021-04-11 15:32:55.326","","","","","",""
"casino-keyboard-response","23","118872","0.0-16.0-0.1","197","true","img/card_backs/set1/purple.gif","img/card_backs/set1/red.gif","img/card_backs/set1/green.gif","img/card_backs/set1/yellow.gif","img/card_backs/set2/gray.gif","img/card_backs/set2/pink.gif","img/card_backs/set2/blue.gif","img/card_backs/set2/orange.gif","""event"",""trial"",""time""
""fullscreenenter"",""1"",""2085""
""fullscreenexit"",""7"",""19440""
""blur"",""7"",""20863""
""focus"",""7"",""24791""
""blur"",""24"",""127811""
""focus"",""24"",""130952""
","""event"",""trial"",""time""
""blur"",""7"",""20863""
""blur"",""24"",""127811""
","""event"",""trial"",""time""
""focus"",""7"",""24791""
""focus"",""24"",""130952""
","""event"",""trial"",""time""
""fullscreenenter"",""1"",""2085""
","""event"",""trial"",""time""
""fullscreenexit"",""7"",""19440""
","","8247.570000006817","You may have noticed that some cards will cause you to <b> win </b> tokens while other cards will cause you to <b> lose </b>  tokens.","70","","instructions","2021-04-11 15:33:03.584","","","","","",""
"casino-keyboard-response","24","131521","0.0-16.0-0.2","197","true","img/card_backs/set1/purple.gif","img/card_backs/set1/red.gif","img/card_backs/set1/green.gif","img/card_backs/set1/yellow.gif","img/card_backs/set2/gray.gif","img/card_backs/set2/pink.gif","img/card_backs/set2/blue.gif","img/card_backs/set2/orange.gif","""event"",""trial"",""time""
""fullscreenenter"",""1"",""2085""
""fullscreenexit"",""7"",""19440""
""blur"",""7"",""20863""
""focus"",""7"",""24791""
""blur"",""24"",""127811""
""focus"",""24"",""130952""
""blur"",""25"",""132887""
""focus"",""25"",""135921""
","""event"",""trial"",""time""
""blur"",""7"",""20863""
""blur"",""24"",""127811""
""blur"",""25"",""132887""
","""event"",""trial"",""time""
""focus"",""7"",""24791""
""focus"",""24"",""130952""
""focus"",""25"",""135921""
","""event"",""trial"",""time""
""fullscreenenter"",""1"",""2085""
","""event"",""trial"",""time""
""fullscreenexit"",""7"",""19440""
","","12647.3700000206","Each deck has a mix of cards that will cause you to win and lose tokens. </br> However, the cards in each colored deck are different.","73","","instructions","2021-04-11 15:33:16.233","","","","","",""
"casino-keyboard-response","25","139983","0.0-16.0-0.3","197","true","img/card_backs/set1/purple.gif","img/card_backs/set1/red.gif","img/card_backs/set1/green.gif","img/card_backs/set1/yellow.gif","img/card_backs/set2/gray.gif","img/card_backs/set2/pink.gif","img/card_backs/set2/blue.gif","img/card_backs/set2/orange.gif","""event"",""trial"",""time""
""fullscreenenter"",""1"",""2085""
""fullscreenexit"",""7"",""19440""
""blur"",""7"",""20863""
""focus"",""7"",""24791""
""blur"",""24"",""127811""
""focus"",""24"",""130952""
""blur"",""25"",""132887""
""focus"",""25"",""135921""
","""event"",""trial"",""time""
""blur"",""7"",""20863""
""blur"",""24"",""127811""
""blur"",""25"",""132887""
","""event"",""trial"",""time""
""focus"",""7"",""24791""
""focus"",""24"",""130952""
""focus"",""25"",""135921""
","""event"",""trial"",""time""
""fullscreenenter"",""1"",""2085""
","""event"",""trial"",""time""
""fullscreenexit"",""7"",""19440""
","","8459.219999989728","Some colored decks are luckier than others. </br> If you choose the lucky decks, you will earn more tokens than if you choose the unlucky decks.","69","","instructions","2021-04-11 15:33:24.695","","","","","",""
"casino-keyboard-response","26","147031","0.0-16.0-0.4","197","true","img/card_backs/set1/purple.gif","img/card_backs/set1/red.gif","img/card_backs/set1/green.gif","img/card_backs/set1/yellow.gif","img/card_backs/set2/gray.gif","img/card_backs/set2/pink.gif","img/card_backs/set2/blue.gif","img/card_backs/set2/orange.gif","""event"",""trial"",""time""
""fullscreenenter"",""1"",""2085""
""fullscreenexit"",""7"",""19440""
""blur"",""7"",""20863""
""focus"",""7"",""24791""
""blur"",""24"",""127811""
""focus"",""24"",""130952""
""blur"",""25"",""132887""
""focus"",""25"",""135921""
""blur"",""27"",""148235""
""focus"",""27"",""151043""
""blur"",""27"",""155213""
""focus"",""27"",""157845""
","""event"",""trial"",""time""
""blur"",""7"",""20863""
""blur"",""24"",""127811""
""blur"",""25"",""132887""
""blur"",""27"",""148235""
""blur"",""27"",""155213""
","""event"",""trial"",""time""
""focus"",""7"",""24791""
""focus"",""24"",""130952""
""focus"",""25"",""135921""
""focus"",""27"",""151043""
""focus"",""27"",""157845""
","""event"",""trial"",""time""
""fullscreenenter"",""1"",""2085""
","""event"",""trial"",""time""
""fullscreenexit"",""7"",""19440""
","","7046.305000025313","You should try to figure out which decks are lucky. </br> Then, try to choose the lucky decks so you can win the most tokens.","87","","instructions","2021-04-11 15:33:31.743","","","","","",""
"casino-keyboard-response","27","160310","0.0-16.0-0.5","197","true","img/card_backs/set1/purple.gif","img/card_backs/set1/red.gif","img/card_backs/set1/green.gif","img/card_backs/set1/yellow.gif","img/card_backs/set2/gray.gif","img/card_backs/set2/pink.gif","img/card_backs/set2/blue.gif","img/card_backs/set2/orange.gif","""event"",""trial"",""time""
""fullscreenenter"",""1"",""2085""
""fullscreenexit"",""7"",""19440""
""blur"",""7"",""20863""
""focus"",""7"",""24791""
""blur"",""24"",""127811""
""focus"",""24"",""130952""
""blur"",""25"",""132887""
""focus"",""25"",""135921""
""blur"",""27"",""148235""
""focus"",""27"",""151043""
""blur"",""27"",""155213""
""focus"",""27"",""157845""
""blur"",""28"",""161121""
""focus"",""28"",""166019""
","""event"",""trial"",""time""
""blur"",""7"",""20863""
""blur"",""24"",""127811""
""blur"",""25"",""132887""
""blur"",""27"",""148235""
""blur"",""27"",""155213""
""blur"",""28"",""161121""
","""event"",""trial"",""time""
""focus"",""7"",""24791""
""focus"",""24"",""130952""
""focus"",""25"",""135921""
""focus"",""27"",""151043""
""focus"",""27"",""157845""
""focus"",""28"",""166019""
","""event"",""trial"",""time""
""fullscreenenter"",""1"",""2085""
","""event"",""trial"",""time""
""fullscreenexit"",""7"",""19440""
","","13276.855000003707","To make it trickier, the casino dealer will switch the locations of the decks on every turn. </br> The color of the deck determines how lucky it is. The location does not matter.","88","","instructions","2021-04-11 15:33:45.022","","","","","",""
"casino-keyboard-response","28","172498","0.0-16.0-0.6","197","true","img/card_backs/set1/purple.gif","img/card_backs/set1/red.gif","img/card_backs/set1/green.gif","img/card_backs/set1/yellow.gif","img/card_backs/set2/gray.gif","img/card_backs/set2/pink.gif","img/card_backs/set2/blue.gif","img/card_backs/set2/orange.gif","""event"",""trial"",""time""
""fullscreenenter"",""1"",""2085""
""fullscreenexit"",""7"",""19440""
""blur"",""7"",""20863""
""focus"",""7"",""24791""
""blur"",""24"",""127811""
""focus"",""24"",""130952""
""blur"",""25"",""132887""
""focus"",""25"",""135921""
""blur"",""27"",""148235""
""focus"",""27"",""151043""
""blur"",""27"",""155213""
""focus"",""27"",""157845""
""blur"",""28"",""161121""
""focus"",""28"",""166019""
""blur"",""29"",""175067""
""focus"",""29"",""179335""
","""event"",""trial"",""time""
""blur"",""7"",""20863""
""blur"",""24"",""127811""
""blur"",""25"",""132887""
""blur"",""27"",""148235""
""blur"",""27"",""155213""
""blur"",""28"",""161121""
""blur"",""29"",""175067""
","""event"",""trial"",""time""
""focus"",""7"",""24791""
""focus"",""24"",""130952""
""focus"",""25"",""135921""
""focus"",""27"",""151043""
""focus"",""27"",""157845""
""focus"",""28"",""166019""
""focus"",""29"",""179335""
","""event"",""trial"",""time""
""fullscreenenter"",""1"",""2085""
","""event"",""trial"",""time""
""fullscreenexit"",""7"",""19440""
","","12186.194999987492","The mix of cards in each colored deck will stay the same throughout the game. </br> That means that a deck that is lucky early on will stay lucky.","79","","instructions","2021-04-11 15:33:57.210","","","","","",""
"casino-keyboard-response","29","180892","0.0-16.0-0.7","197","true","img/card_backs/set1/purple.gif","img/card_backs/set1/red.gif","img/card_backs/set1/green.gif","img/card_backs/set1/yellow.gif","img/card_backs/set2/gray.gif","img/card_backs/set2/pink.gif","img/card_backs/set2/blue.gif","img/card_backs/set2/orange.gif","""event"",""trial"",""time""
""fullscreenenter"",""1"",""2085""
""fullscreenexit"",""7"",""19440""
""blur"",""7"",""20863""
""focus"",""7"",""24791""
""blur"",""24"",""127811""
""focus"",""24"",""130952""
""blur"",""25"",""132887""
""focus"",""25"",""135921""
""blur"",""27"",""148235""
""focus"",""27"",""151043""
""blur"",""27"",""155213""
""focus"",""27"",""157845""
""blur"",""28"",""161121""
""focus"",""28"",""166019""
""blur"",""29"",""175067""
""focus"",""29"",""179335""
""blur"",""30"",""181921""
""focus"",""30"",""188312""
","""event"",""trial"",""time""
""blur"",""7"",""20863""
""blur"",""24"",""127811""
""blur"",""25"",""132887""
""blur"",""27"",""148235""
""blur"",""27"",""155213""
""blur"",""28"",""161121""
""blur"",""29"",""175067""
""blur"",""30"",""181921""
","""event"",""trial"",""time""
""focus"",""7"",""24791""
""focus"",""24"",""130952""
""focus"",""25"",""135921""
""focus"",""27"",""151043""
""focus"",""27"",""157845""
""focus"",""28"",""166019""
""focus"",""29"",""179335""
""focus"",""30"",""188312""
","""event"",""trial"",""time""
""fullscreenenter"",""1"",""2085""
","""event"",""trial"",""time""
""fullscreenexit"",""7"",""19440""
","","8391.520000004675","Remember though, all the decks have a <b> mix </b> of both <b> good </b> and <b> bad </b> cards so it may take a couple of turns to figure out if a deck is lucky.","69","","instructions","2021-04-11 15:34:05.604","","","","","",""
"casino-keyboard-response","30","189574","0.0-16.0-0.8","197","true","img/card_backs/set1/purple.gif","img/card_backs/set1/red.gif","img/card_backs/set1/green.gif","img/card_backs/set1/yellow.gif","img/card_backs/set2/gray.gif","img/card_backs/set2/pink.gif","img/card_backs/set2/blue.gif","img/card_backs/set2/orange.gif","""event"",""trial"",""time""
""fullscreenenter"",""1"",""2085""
""fullscreenexit"",""7"",""19440""
""blur"",""7"",""20863""
""focus"",""7"",""24791""
""blur"",""24"",""127811""
""focus"",""24"",""130952""
""blur"",""25"",""132887""
""focus"",""25"",""135921""
""blur"",""27"",""148235""
""focus"",""27"",""151043""
""blur"",""27"",""155213""
""focus"",""27"",""157845""
""blur"",""28"",""161121""
""focus"",""28"",""166019""
""blur"",""29"",""175067""
""focus"",""29"",""179335""
""blur"",""30"",""181921""
""focus"",""30"",""188312""
","""event"",""trial"",""time""
""blur"",""7"",""20863""
""blur"",""24"",""127811""
""blur"",""25"",""132887""
""blur"",""27"",""148235""
""blur"",""27"",""155213""
""blur"",""28"",""161121""
""blur"",""29"",""175067""
""blur"",""30"",""181921""
","""event"",""trial"",""time""
""focus"",""7"",""24791""
""focus"",""24"",""130952""
""focus"",""25"",""135921""
""focus"",""27"",""151043""
""focus"",""27"",""157845""
""focus"",""28"",""166019""
""focus"",""29"",""179335""
""focus"",""30"",""188312""
","""event"",""trial"",""time""
""fullscreenenter"",""1"",""2085""
","""event"",""trial"",""time""
""fullscreenexit"",""7"",""19440""
","","8680.405000020983","At the end of the game, you will be paid bonus money based on how many tokens you win. </br> If you win more tokens, you will earn more money!","72","","instructions","2021-04-11 15:34:14.286","","","","","",""
"casino-keyboard-response","31","201224","0.0-16.0-0.9","197","true","img/card_backs/set1/purple.gif","img/card_backs/set1/red.gif","img/card_backs/set1/green.gif","img/card_backs/set1/yellow.gif","img/card_backs/set2/gray.gif","img/card_backs/set2/pink.gif","img/card_backs/set2/blue.gif","img/card_backs/set2/orange.gif","""event"",""trial"",""time""
""fullscreenenter"",""1"",""2085""
""fullscreenexit"",""7"",""19440""
""blur"",""7"",""20863""
""focus"",""7"",""24791""
""blur"",""24"",""127811""
""focus"",""24"",""130952""
""blur"",""25"",""132887""
""focus"",""25"",""135921""
""blur"",""27"",""148235""
""focus"",""27"",""151043""
""blur"",""27"",""155213""
""focus"",""27"",""157845""
""blur"",""28"",""161121""
""focus"",""28"",""166019""
""blur"",""29"",""175067""
""focus"",""29"",""179335""
""blur"",""30"",""181921""
""focus"",""30"",""188312""
","""event"",""trial"",""time""
""blur"",""7"",""20863""
""blur"",""24"",""127811""
""blur"",""25"",""132887""
""blur"",""27"",""148235""
""blur"",""27"",""155213""
""blur"",""28"",""161121""
""blur"",""29"",""175067""
""blur"",""30"",""181921""
","""event"",""trial"",""time""
""focus"",""7"",""24791""
""focus"",""24"",""130952""
""focus"",""25"",""135921""
""focus"",""27"",""151043""
""focus"",""27"",""157845""
""focus"",""28"",""166019""
""focus"",""29"",""179335""
""focus"",""30"",""188312""
","""event"",""trial"",""time""
""fullscreenenter"",""1"",""2085""
","""event"",""trial"",""time""
""fullscreenexit"",""7"",""19440""
","","11647.555000003194","You will never <b> lose </b> money. </br> If you end up with fewer than 0 tokens, you will earn $0 of bonus money, but you will still be paid for playing the game.","83","","instructions","2021-04-11 15:34:25.936","","","","","",""
"casino-keyboard-response","32","205484","0.0-16.0-0.10","197","true","img/card_backs/set1/purple.gif","img/card_backs/set1/red.gif","img/card_backs/set1/green.gif","img/card_backs/set1/yellow.gif","img/card_backs/set2/gray.gif","img/card_backs/set2/pink.gif","img/card_backs/set2/blue.gif","img/card_backs/set2/orange.gif","""event"",""trial"",""time""
""fullscreenenter"",""1"",""2085""
""fullscreenexit"",""7"",""19440""
""blur"",""7"",""20863""
""focus"",""7"",""24791""
""blur"",""24"",""127811""
""focus"",""24"",""130952""
""blur"",""25"",""132887""
""focus"",""25"",""135921""
""blur"",""27"",""148235""
""focus"",""27"",""151043""
""blur"",""27"",""155213""
""focus"",""27"",""157845""
""blur"",""28"",""161121""
""focus"",""28"",""166019""
""blur"",""29"",""175067""
""focus"",""29"",""179335""
""blur"",""30"",""181921""
""focus"",""30"",""188312""
","""event"",""trial"",""time""
""blur"",""7"",""20863""
""blur"",""24"",""127811""
""blur"",""25"",""132887""
""blur"",""27"",""148235""
""blur"",""27"",""155213""
""blur"",""28"",""161121""
""blur"",""29"",""175067""
""blur"",""30"",""181921""
","""event"",""trial"",""time""
""focus"",""7"",""24791""
""focus"",""24"",""130952""
""focus"",""25"",""135921""
""focus"",""27"",""151043""
""focus"",""27"",""157845""
""focus"",""28"",""166019""
""focus"",""29"",""179335""
""focus"",""30"",""188312""
","""event"",""trial"",""time""
""fullscreenenter"",""1"",""2085""
","""event"",""trial"",""time""
""fullscreenexit"",""7"",""19440""
","","4258.0200000084005","You will have 10 seconds to make each choice.","82","","instructions","2021-04-11 15:34:30.196","","","","","",""
"casino-keyboard-response","33","215347","0.0-16.0-0.11","197","true","img/card_backs/set1/purple.gif","img/card_backs/set1/red.gif","img/card_backs/set1/green.gif","img/card_backs/set1/yellow.gif","img/card_backs/set2/gray.gif","img/card_backs/set2/pink.gif","img/card_backs/set2/blue.gif","img/card_backs/set2/orange.gif","""event"",""trial"",""time""
""fullscreenenter"",""1"",""2085""
""fullscreenexit"",""7"",""19440""
""blur"",""7"",""20863""
""focus"",""7"",""24791""
""blur"",""24"",""127811""
""focus"",""24"",""130952""
""blur"",""25"",""132887""
""focus"",""25"",""135921""
""blur"",""27"",""148235""
""focus"",""27"",""151043""
""blur"",""27"",""155213""
""focus"",""27"",""157845""
""blur"",""28"",""161121""
""focus"",""28"",""166019""
""blur"",""29"",""175067""
""focus"",""29"",""179335""
""blur"",""30"",""181921""
""focus"",""30"",""188312""
","""event"",""trial"",""time""
""blur"",""7"",""20863""
""blur"",""24"",""127811""
""blur"",""25"",""132887""
""blur"",""27"",""148235""
""blur"",""27"",""155213""
""blur"",""28"",""161121""
""blur"",""29"",""175067""
""blur"",""30"",""181921""
","""event"",""trial"",""time""
""focus"",""7"",""24791""
""focus"",""24"",""130952""
""focus"",""25"",""135921""
""focus"",""27"",""151043""
""focus"",""27"",""157845""
""focus"",""28"",""166019""
""focus"",""29"",""179335""
""focus"",""30"",""188312""
","""event"",""trial"",""time""
""fullscreenenter"",""1"",""2085""
","""event"",""trial"",""time""
""fullscreenexit"",""7"",""19440""
","","9861.280000011902","Before you play the game for real, you will play with practice decks. </br> The tokens you earn during practice won't count toward your total.","86","","instructions","2021-04-11 15:34:40.059","","","","","",""
"casino-keyboard-response","34","219583","0.0-16.0-0.12","197","true","img/card_backs/set1/purple.gif","img/card_backs/set1/red.gif","img/card_backs/set1/green.gif","img/card_backs/set1/yellow.gif","img/card_backs/set2/gray.gif","img/card_backs/set2/pink.gif","img/card_backs/set2/blue.gif","img/card_backs/set2/orange.gif","""event"",""trial"",""time""
""fullscreenenter"",""1"",""2085""
""fullscreenexit"",""7"",""19440""
""blur"",""7"",""20863""
""focus"",""7"",""24791""
""blur"",""24"",""127811""
""focus"",""24"",""130952""
""blur"",""25"",""132887""
""focus"",""25"",""135921""
""blur"",""27"",""148235""
""focus"",""27"",""151043""
""blur"",""27"",""155213""
""focus"",""27"",""157845""
""blur"",""28"",""161121""
""focus"",""28"",""166019""
""blur"",""29"",""175067""
""focus"",""29"",""179335""
""blur"",""30"",""181921""
""focus"",""30"",""188312""
","""event"",""trial"",""time""
""blur"",""7"",""20863""
""blur"",""24"",""127811""
""blur"",""25"",""132887""
""blur"",""27"",""148235""
""blur"",""27"",""155213""
""blur"",""28"",""161121""
""blur"",""29"",""175067""
""blur"",""30"",""181921""
","""event"",""trial"",""time""
""focus"",""7"",""24791""
""focus"",""24"",""130952""
""focus"",""25"",""135921""
""focus"",""27"",""151043""
""focus"",""27"",""157845""
""focus"",""28"",""166019""
""focus"",""29"",""179335""
""focus"",""30"",""188312""
","""event"",""trial"",""time""
""fullscreenenter"",""1"",""2085""
","""event"",""trial"",""time""
""fullscreenexit"",""7"",""19440""
","","4234.179999999469","Ready? Remember, use the '2', '4', '6', and '8' keys to select the decks. </br> Put your fingers on those keys now and then press '2' to begin.","50","","instructions","2021-04-11 15:34:44.296","","","","","",""
"casino-fixation","35","220097","0.0-17.0-0.0","197","true","img/card_backs/set1/purple.gif","img/card_backs/set1/red.gif","img/card_backs/set1/green.gif","img/card_backs/set1/yellow.gif","img/card_backs/set2/gray.gif","img/card_backs/set2/pink.gif","img/card_backs/set2/blue.gif","img/card_backs/set2/orange.gif","""event"",""trial"",""time""
""fullscreenenter"",""1"",""2085""
""fullscreenexit"",""7"",""19440""
""blur"",""7"",""20863""
""focus"",""7"",""24791""
""blur"",""24"",""127811""
""focus"",""24"",""130952""
""blur"",""25"",""132887""
""focus"",""25"",""135921""
""blur"",""27"",""148235""
""focus"",""27"",""151043""
""blur"",""27"",""155213""
""focus"",""27"",""157845""
""blur"",""28"",""161121""
""focus"",""28"",""166019""
""blur"",""29"",""175067""
""focus"",""29"",""179335""
""blur"",""30"",""181921""
""focus"",""30"",""188312""
","""event"",""trial"",""time""
""blur"",""7"",""20863""
""blur"",""24"",""127811""
""blur"",""25"",""132887""
""blur"",""27"",""148235""
""blur"",""27"",""155213""
""blur"",""28"",""161121""
""blur"",""29"",""175067""
""blur"",""30"",""181921""
","""event"",""trial"",""time""
""focus"",""7"",""24791""
""focus"",""24"",""130952""
""focus"",""25"",""135921""
""focus"",""27"",""151043""
""focus"",""27"",""157845""
""focus"",""28"",""166019""
""focus"",""29"",""179335""
""focus"",""30"",""188312""
","""event"",""trial"",""time""
""fullscreenenter"",""1"",""2085""
","""event"",""trial"",""time""
""fullscreenexit"",""7"",""19440""
","","null","","null","","fixation","2021-04-11 15:34:44.810","","","","","",""
"card-selection-trial","36","222998","0.0-17.0-1.0","197","true","img/card_backs/set1/purple.gif","img/card_backs/set1/red.gif","img/card_backs/set1/green.gif","img/card_backs/set1/yellow.gif","img/card_backs/set2/gray.gif","img/card_backs/set2/pink.gif","img/card_backs/set2/blue.gif","img/card_backs/set2/orange.gif","""event"",""trial"",""time""
""fullscreenenter"",""1"",""2085""
""fullscreenexit"",""7"",""19440""
""blur"",""7"",""20863""
""focus"",""7"",""24791""
""blur"",""24"",""127811""
""focus"",""24"",""130952""
""blur"",""25"",""132887""
""focus"",""25"",""135921""
""blur"",""27"",""148235""
""focus"",""27"",""151043""
""blur"",""27"",""155213""
""focus"",""27"",""157845""
""blur"",""28"",""161121""
""focus"",""28"",""166019""
""blur"",""29"",""175067""
""focus"",""29"",""179335""
""blur"",""30"",""181921""
""focus"",""30"",""188312""
","""event"",""trial"",""time""
""blur"",""7"",""20863""
""blur"",""24"",""127811""
""blur"",""25"",""132887""
""blur"",""27"",""148235""
""blur"",""27"",""155213""
""blur"",""28"",""161121""
""blur"",""29"",""175067""
""blur"",""30"",""181921""
","""event"",""trial"",""time""
""focus"",""7"",""24791""
""focus"",""24"",""130952""
""focus"",""25"",""135921""
""focus"",""27"",""151043""
""focus"",""27"",""157845""
""focus"",""28"",""166019""
""focus"",""29"",""179335""
""focus"",""30"",""188312""
","""event"",""trial"",""time""
""fullscreenenter"",""1"",""2085""
","""event"",""trial"",""time""
""fullscreenexit"",""7"",""19440""
","","878.5349999961909","","","","practice","2021-04-11 15:34:47.710","img/practice_cards/backs/brown.gif","0","-100","0","",""
"casino-fixation","37","223508","0.0-17.0-0.1","197","true","img/card_backs/set1/purple.gif","img/card_backs/set1/red.gif","img/card_backs/set1/green.gif","img/card_backs/set1/yellow.gif","img/card_backs/set2/gray.gif","img/card_backs/set2/pink.gif","img/card_backs/set2/blue.gif","img/card_backs/set2/orange.gif","""event"",""trial"",""time""
""fullscreenenter"",""1"",""2085""
""fullscreenexit"",""7"",""19440""
""blur"",""7"",""20863""
""focus"",""7"",""24791""
""blur"",""24"",""127811""
""focus"",""24"",""130952""
""blur"",""25"",""132887""
""focus"",""25"",""135921""
""blur"",""27"",""148235""
""focus"",""27"",""151043""
""blur"",""27"",""155213""
""focus"",""27"",""157845""
""blur"",""28"",""161121""
""focus"",""28"",""166019""
""blur"",""29"",""175067""
""focus"",""29"",""179335""
""blur"",""30"",""181921""
""focus"",""30"",""188312""
","""event"",""trial"",""time""
""blur"",""7"",""20863""
""blur"",""24"",""127811""
""blur"",""25"",""132887""
""blur"",""27"",""148235""
""blur"",""27"",""155213""
""blur"",""28"",""161121""
""blur"",""29"",""175067""
""blur"",""30"",""181921""
","""event"",""trial"",""time""
""focus"",""7"",""24791""
""focus"",""24"",""130952""
""focus"",""25"",""135921""
""focus"",""27"",""151043""
""focus"",""27"",""157845""
""focus"",""28"",""166019""
""focus"",""29"",""179335""
""focus"",""30"",""188312""
","""event"",""trial"",""time""
""fullscreenenter"",""1"",""2085""
","""event"",""trial"",""time""
""fullscreenexit"",""7"",""19440""
","","null","","null","","fixation","2021-04-11 15:34:48.220","","","","","",""
"card-selection-trial","38","227793","0.0-17.0-1.1","197","true","img/card_backs/set1/purple.gif","img/card_backs/set1/red.gif","img/card_backs/set1/green.gif","img/card_backs/set1/yellow.gif","img/card_backs/set2/gray.gif","img/card_backs/set2/pink.gif","img/card_backs/set2/blue.gif","img/card_backs/set2/orange.gif","""event"",""trial"",""time""
""fullscreenenter"",""1"",""2085""
""fullscreenexit"",""7"",""19440""
""blur"",""7"",""20863""
""focus"",""7"",""24791""
""blur"",""24"",""127811""
""focus"",""24"",""130952""
""blur"",""25"",""132887""
""focus"",""25"",""135921""
""blur"",""27"",""148235""
""focus"",""27"",""151043""
""blur"",""27"",""155213""
""focus"",""27"",""157845""
""blur"",""28"",""161121""
""focus"",""28"",""166019""
""blur"",""29"",""175067""
""focus"",""29"",""179335""
""blur"",""30"",""181921""
""focus"",""30"",""188312""
","""event"",""trial"",""time""
""blur"",""7"",""20863""
""blur"",""24"",""127811""
""blur"",""25"",""132887""
""blur"",""27"",""148235""
""blur"",""27"",""155213""
""blur"",""28"",""161121""
""blur"",""29"",""175067""
""blur"",""30"",""181921""
","""event"",""trial"",""time""
""focus"",""7"",""24791""
""focus"",""24"",""130952""
""focus"",""25"",""135921""
""focus"",""27"",""151043""
""focus"",""27"",""157845""
""focus"",""28"",""166019""
""focus"",""29"",""179335""
""focus"",""30"",""188312""
","""event"",""trial"",""time""
""fullscreenenter"",""1"",""2085""
","""event"",""trial"",""time""
""fullscreenexit"",""7"",""19440""
","","2268.945000017993","","","","practice","2021-04-11 15:34:52.505","img/practice_cards/backs/black.gif","1","-100","0","",""
"casino-fixation","39","228305","0.0-17.0-0.2","197","true","img/card_backs/set1/purple.gif","img/card_backs/set1/red.gif","img/card_backs/set1/green.gif","img/card_backs/set1/yellow.gif","img/card_backs/set2/gray.gif","img/card_backs/set2/pink.gif","img/card_backs/set2/blue.gif","img/card_backs/set2/orange.gif","""event"",""trial"",""time""
""fullscreenenter"",""1"",""2085""
""fullscreenexit"",""7"",""19440""
""blur"",""7"",""20863""
""focus"",""7"",""24791""
""blur"",""24"",""127811""
""focus"",""24"",""130952""
""blur"",""25"",""132887""
""focus"",""25"",""135921""
""blur"",""27"",""148235""
""focus"",""27"",""151043""
""blur"",""27"",""155213""
""focus"",""27"",""157845""
""blur"",""28"",""161121""
""focus"",""28"",""166019""
""blur"",""29"",""175067""
""focus"",""29"",""179335""
""blur"",""30"",""181921""
""focus"",""30"",""188312""
","""event"",""trial"",""time""
""blur"",""7"",""20863""
""blur"",""24"",""127811""
""blur"",""25"",""132887""
""blur"",""27"",""148235""
""blur"",""27"",""155213""
""blur"",""28"",""161121""
""blur"",""29"",""175067""
""blur"",""30"",""181921""
","""event"",""trial"",""time""
""focus"",""7"",""24791""
""focus"",""24"",""130952""
""focus"",""25"",""135921""
""focus"",""27"",""151043""
""focus"",""27"",""157845""
""focus"",""28"",""166019""
""focus"",""29"",""179335""
""focus"",""30"",""188312""
","""event"",""trial"",""time""
""fullscreenenter"",""1"",""2085""
","""event"",""trial"",""time""
""fullscreenexit"",""7"",""19440""
","","null","","null","","fixation","2021-04-11 15:34:53.017","","","","","",""
"card-selection-trial","40","230760","0.0-17.0-1.2","197","true","img/card_backs/set1/purple.gif","img/card_backs/set1/red.gif","img/card_backs/set1/green.gif","img/card_backs/set1/yellow.gif","img/card_backs/set2/gray.gif","img/card_backs/set2/pink.gif","img/card_backs/set2/blue.gif","img/card_backs/set2/orange.gif","""event"",""trial"",""time""
""fullscreenenter"",""1"",""2085""
""fullscreenexit"",""7"",""19440""
""blur"",""7"",""20863""
""focus"",""7"",""24791""
""blur"",""24"",""127811""
""focus"",""24"",""130952""
""blur"",""25"",""132887""
""focus"",""25"",""135921""
""blur"",""27"",""148235""
""focus"",""27"",""151043""
""blur"",""27"",""155213""
""focus"",""27"",""157845""
""blur"",""28"",""161121""
""focus"",""28"",""166019""
""blur"",""29"",""175067""
""focus"",""29"",""179335""
""blur"",""30"",""181921""
""focus"",""30"",""188312""
","""event"",""trial"",""time""
""blur"",""7"",""20863""
""blur"",""24"",""127811""
""blur"",""25"",""132887""
""blur"",""27"",""148235""
""blur"",""27"",""155213""
""blur"",""28"",""161121""
""blur"",""29"",""175067""
""blur"",""30"",""181921""
","""event"",""trial"",""time""
""focus"",""7"",""24791""
""focus"",""24"",""130952""
""focus"",""25"",""135921""
""focus"",""27"",""151043""
""focus"",""27"",""157845""
""focus"",""28"",""166019""
""focus"",""29"",""179335""
""focus"",""30"",""188312""
","""event"",""trial"",""time""
""fullscreenenter"",""1"",""2085""
","""event"",""trial"",""time""
""fullscreenexit"",""7"",""19440""
","","442.28000001749024","","","","practice","2021-04-11 15:34:55.472","img/practice_cards/backs/dark_blue.gif","3","-200","0","",""
"casino-fixation","41","231269","0.0-17.0-0.3","197","true","img/card_backs/set1/purple.gif","img/card_backs/set1/red.gif","img/card_backs/set1/green.gif","img/card_backs/set1/yellow.gif","img/card_backs/set2/gray.gif","img/card_backs/set2/pink.gif","img/card_backs/set2/blue.gif","img/card_backs/set2/orange.gif","""event"",""trial"",""time""
""fullscreenenter"",""1"",""2085""
""fullscreenexit"",""7"",""19440""
""blur"",""7"",""20863""
""focus"",""7"",""24791""
""blur"",""24"",""127811""
""focus"",""24"",""130952""
""blur"",""25"",""132887""
""focus"",""25"",""135921""
""blur"",""27"",""148235""
""focus"",""27"",""151043""
""blur"",""27"",""155213""
""focus"",""27"",""157845""
""blur"",""28"",""161121""
""focus"",""28"",""166019""
""blur"",""29"",""175067""
""focus"",""29"",""179335""
""blur"",""30"",""181921""
""focus"",""30"",""188312""
","""event"",""trial"",""time""
""blur"",""7"",""20863""
""blur"",""24"",""127811""
""blur"",""25"",""132887""
""blur"",""27"",""148235""
""blur"",""27"",""155213""
""blur"",""28"",""161121""
""blur"",""29"",""175067""
""blur"",""30"",""181921""
","""event"",""trial"",""time""
""focus"",""7"",""24791""
""focus"",""24"",""130952""
""focus"",""25"",""135921""
""focus"",""27"",""151043""
""focus"",""27"",""157845""
""focus"",""28"",""166019""
""focus"",""29"",""179335""
""focus"",""30"",""188312""
","""event"",""trial"",""time""
""fullscreenenter"",""1"",""2085""
","""event"",""trial"",""time""
""fullscreenexit"",""7"",""19440""
","","null","","null","","fixation","2021-04-11 15:34:55.981","","","","","",""
"card-selection-trial","42","234376","0.0-17.0-1.3","197","true","img/card_backs/set1/purple.gif","img/card_backs/set1/red.gif","img/card_backs/set1/green.gif","img/card_backs/set1/yellow.gif","img/card_backs/set2/gray.gif","img/card_backs/set2/pink.gif","img/card_backs/set2/blue.gif","img/card_backs/set2/orange.gif","""event"",""trial"",""time""
""fullscreenenter"",""1"",""2085""
""fullscreenexit"",""7"",""19440""
""blur"",""7"",""20863""
""focus"",""7"",""24791""
""blur"",""24"",""127811""
""focus"",""24"",""130952""
""blur"",""25"",""132887""
""focus"",""25"",""135921""
""blur"",""27"",""148235""
""focus"",""27"",""151043""
""blur"",""27"",""155213""
""focus"",""27"",""157845""
""blur"",""28"",""161121""
""focus"",""28"",""166019""
""blur"",""29"",""175067""
""focus"",""29"",""179335""
""blur"",""30"",""181921""
""focus"",""30"",""188312""
","""event"",""trial"",""time""
""blur"",""7"",""20863""
""blur"",""24"",""127811""
""blur"",""25"",""132887""
""blur"",""27"",""148235""
""blur"",""27"",""155213""
""blur"",""28"",""161121""
""blur"",""29"",""175067""
""blur"",""30"",""181921""
","""event"",""trial"",""time""
""focus"",""7"",""24791""
""focus"",""24"",""130952""
""focus"",""25"",""135921""
""focus"",""27"",""151043""
""focus"",""27"",""157845""
""focus"",""28"",""166019""
""focus"",""29"",""179335""
""focus"",""30"",""188312""
","""event"",""trial"",""time""
""fullscreenenter"",""1"",""2085""
","""event"",""trial"",""time""
""fullscreenexit"",""7"",""19440""
","","1085.255000012694","","","","practice","2021-04-11 15:34:59.088","img/practice_cards/backs/dark_green.gif","2","-200","0","",""
"casino-fixation","43","234885","0.0-17.0-0.4","197","true","img/card_backs/set1/purple.gif","img/card_backs/set1/red.gif","img/card_backs/set1/green.gif","img/card_backs/set1/yellow.gif","img/card_backs/set2/gray.gif","img/card_backs/set2/pink.gif","img/card_backs/set2/blue.gif","img/card_backs/set2/orange.gif","""event"",""trial"",""time""
""fullscreenenter"",""1"",""2085""
""fullscreenexit"",""7"",""19440""
""blur"",""7"",""20863""
""focus"",""7"",""24791""
""blur"",""24"",""127811""
""focus"",""24"",""130952""
""blur"",""25"",""132887""
""focus"",""25"",""135921""
""blur"",""27"",""148235""
""focus"",""27"",""151043""
""blur"",""27"",""155213""
""focus"",""27"",""157845""
""blur"",""28"",""161121""
""focus"",""28"",""166019""
""blur"",""29"",""175067""
""focus"",""29"",""179335""
""blur"",""30"",""181921""
""focus"",""30"",""188312""
","""event"",""trial"",""time""
""blur"",""7"",""20863""
""blur"",""24"",""127811""
""blur"",""25"",""132887""
""blur"",""27"",""148235""
""blur"",""27"",""155213""
""blur"",""28"",""161121""
""blur"",""29"",""175067""
""blur"",""30"",""181921""
","""event"",""trial"",""time""
""focus"",""7"",""24791""
""focus"",""24"",""130952""
""focus"",""25"",""135921""
""focus"",""27"",""151043""
""focus"",""27"",""157845""
""focus"",""28"",""166019""
""focus"",""29"",""179335""
""focus"",""30"",""188312""
","""event"",""trial"",""time""
""fullscreenenter"",""1"",""2085""
","""event"",""trial"",""time""
""fullscreenexit"",""7"",""19440""
","","null","","null","","fixation","2021-04-11 15:34:59.597","","","","","",""
"card-selection-trial","44","238255","0.0-17.0-1.4","197","true","img/card_backs/set1/purple.gif","img/card_backs/set1/red.gif","img/card_backs/set1/green.gif","img/card_backs/set1/yellow.gif","img/card_backs/set2/gray.gif","img/card_backs/set2/pink.gif","img/card_backs/set2/blue.gif","img/card_backs/set2/orange.gif","""event"",""trial"",""time""
""fullscreenenter"",""1"",""2085""
""fullscreenexit"",""7"",""19440""
""blur"",""7"",""20863""
""focus"",""7"",""24791""
""blur"",""24"",""127811""
""focus"",""24"",""130952""
""blur"",""25"",""132887""
""focus"",""25"",""135921""
""blur"",""27"",""148235""
""focus"",""27"",""151043""
""blur"",""27"",""155213""
""focus"",""27"",""157845""
""blur"",""28"",""161121""
""focus"",""28"",""166019""
""blur"",""29"",""175067""
""focus"",""29"",""179335""
""blur"",""30"",""181921""
""focus"",""30"",""188312""
","""event"",""trial"",""time""
""blur"",""7"",""20863""
""blur"",""24"",""127811""
""blur"",""25"",""132887""
""blur"",""27"",""148235""
""blur"",""27"",""155213""
""blur"",""28"",""161121""
""blur"",""29"",""175067""
""blur"",""30"",""181921""
","""event"",""trial"",""time""
""focus"",""7"",""24791""
""focus"",""24"",""130952""
""focus"",""25"",""135921""
""focus"",""27"",""151043""
""focus"",""27"",""157845""
""focus"",""28"",""166019""
""focus"",""29"",""179335""
""focus"",""30"",""188312""
","""event"",""trial"",""time""
""fullscreenenter"",""1"",""2085""
","""event"",""trial"",""time""
""fullscreenexit"",""7"",""19440""
","","1361.0749999934342","","","","practice","2021-04-11 15:35:02.967","img/practice_cards/backs/black.gif","3","100","0","",""
"casino-fixation","45","238766","0.0-17.0-0.5","197","true","img/card_backs/set1/purple.gif","img/card_backs/set1/red.gif","img/card_backs/set1/green.gif","img/card_backs/set1/yellow.gif","img/card_backs/set2/gray.gif","img/card_backs/set2/pink.gif","img/card_backs/set2/blue.gif","img/card_backs/set2/orange.gif","""event"",""trial"",""time""
""fullscreenenter"",""1"",""2085""
""fullscreenexit"",""7"",""19440""
""blur"",""7"",""20863""
""focus"",""7"",""24791""
""blur"",""24"",""127811""
""focus"",""24"",""130952""
""blur"",""25"",""132887""
""focus"",""25"",""135921""
""blur"",""27"",""148235""
""focus"",""27"",""151043""
""blur"",""27"",""155213""
""focus"",""27"",""157845""
""blur"",""28"",""161121""
""focus"",""28"",""166019""
""blur"",""29"",""175067""
""focus"",""29"",""179335""
""blur"",""30"",""181921""
""focus"",""30"",""188312""
","""event"",""trial"",""time""
""blur"",""7"",""20863""
""blur"",""24"",""127811""
""blur"",""25"",""132887""
""blur"",""27"",""148235""
""blur"",""27"",""155213""
""blur"",""28"",""161121""
""blur"",""29"",""175067""
""blur"",""30"",""181921""
","""event"",""trial"",""time""
""focus"",""7"",""24791""
""focus"",""24"",""130952""
""focus"",""25"",""135921""
""focus"",""27"",""151043""
""focus"",""27"",""157845""
""focus"",""28"",""166019""
""focus"",""29"",""179335""
""focus"",""30"",""188312""
","""event"",""trial"",""time""
""fullscreenenter"",""1"",""2085""
","""event"",""trial"",""time""
""fullscreenexit"",""7"",""19440""
","","null","","null","","fixation","2021-04-11 15:35:03.478","","","","","",""
"card-selection-trial","46","241731","0.0-17.0-1.5","197","true","img/card_backs/set1/purple.gif","img/card_backs/set1/red.gif","img/card_backs/set1/green.gif","img/card_backs/set1/yellow.gif","img/card_backs/set2/gray.gif","img/card_backs/set2/pink.gif","img/card_backs/set2/blue.gif","img/card_backs/set2/orange.gif","""event"",""trial"",""time""
""fullscreenenter"",""1"",""2085""
""fullscreenexit"",""7"",""19440""
""blur"",""7"",""20863""
""focus"",""7"",""24791""
""blur"",""24"",""127811""
""focus"",""24"",""130952""
""blur"",""25"",""132887""
""focus"",""25"",""135921""
""blur"",""27"",""148235""
""focus"",""27"",""151043""
""blur"",""27"",""155213""
""focus"",""27"",""157845""
""blur"",""28"",""161121""
""focus"",""28"",""166019""
""blur"",""29"",""175067""
""focus"",""29"",""179335""
""blur"",""30"",""181921""
""focus"",""30"",""188312""
","""event"",""trial"",""time""
""blur"",""7"",""20863""
""blur"",""24"",""127811""
""blur"",""25"",""132887""
""blur"",""27"",""148235""
""blur"",""27"",""155213""
""blur"",""28"",""161121""
""blur"",""29"",""175067""
""blur"",""30"",""181921""
","""event"",""trial"",""time""
""focus"",""7"",""24791""
""focus"",""24"",""130952""
""focus"",""25"",""135921""
""focus"",""27"",""151043""
""focus"",""27"",""157845""
""focus"",""28"",""166019""
""focus"",""29"",""179335""
""focus"",""30"",""188312""
","""event"",""trial"",""time""
""fullscreenenter"",""1"",""2085""
","""event"",""trial"",""time""
""fullscreenexit"",""7"",""19440""
","","951.7150000028778","","","","practice","2021-04-11 15:35:06.443","img/practice_cards/backs/brown.gif","3","-100","0","",""
"casino-fixation","47","242242","0.0-17.0-0.6","197","true","img/card_backs/set1/purple.gif","img/card_backs/set1/red.gif","img/card_backs/set1/green.gif","img/card_backs/set1/yellow.gif","img/card_backs/set2/gray.gif","img/card_backs/set2/pink.gif","img/card_backs/set2/blue.gif","img/card_backs/set2/orange.gif","""event"",""trial"",""time""
""fullscreenenter"",""1"",""2085""
""fullscreenexit"",""7"",""19440""
""blur"",""7"",""20863""
""focus"",""7"",""24791""
""blur"",""24"",""127811""
""focus"",""24"",""130952""
""blur"",""25"",""132887""
""focus"",""25"",""135921""
""blur"",""27"",""148235""
""focus"",""27"",""151043""
""blur"",""27"",""155213""
""focus"",""27"",""157845""
""blur"",""28"",""161121""
""focus"",""28"",""166019""
""blur"",""29"",""175067""
""focus"",""29"",""179335""
""blur"",""30"",""181921""
""focus"",""30"",""188312""
","""event"",""trial"",""time""
""blur"",""7"",""20863""
""blur"",""24"",""127811""
""blur"",""25"",""132887""
""blur"",""27"",""148235""
""blur"",""27"",""155213""
""blur"",""28"",""161121""
""blur"",""29"",""175067""
""blur"",""30"",""181921""
","""event"",""trial"",""time""
""focus"",""7"",""24791""
""focus"",""24"",""130952""
""focus"",""25"",""135921""
""focus"",""27"",""151043""
""focus"",""27"",""157845""
""focus"",""28"",""166019""
""focus"",""29"",""179335""
""focus"",""30"",""188312""
","""event"",""trial"",""time""
""fullscreenenter"",""1"",""2085""
","""event"",""trial"",""time""
""fullscreenexit"",""7"",""19440""
","","null","","null","","fixation","2021-04-11 15:35:06.955","","","","","",""
"card-selection-trial","48","244620","0.0-17.0-1.6","197","true","img/card_backs/set1/purple.gif","img/card_backs/set1/red.gif","img/card_backs/set1/green.gif","img/card_backs/set1/yellow.gif","img/card_backs/set2/gray.gif","img/card_backs/set2/pink.gif","img/card_backs/set2/blue.gif","img/card_backs/set2/orange.gif","""event"",""trial"",""time""
""fullscreenenter"",""1"",""2085""
""fullscreenexit"",""7"",""19440""
""blur"",""7"",""20863""
""focus"",""7"",""24791""
""blur"",""24"",""127811""
""focus"",""24"",""130952""
""blur"",""25"",""132887""
""focus"",""25"",""135921""
""blur"",""27"",""148235""
""focus"",""27"",""151043""
""blur"",""27"",""155213""
""focus"",""27"",""157845""
""blur"",""28"",""161121""
""focus"",""28"",""166019""
""blur"",""29"",""175067""
""focus"",""29"",""179335""
""blur"",""30"",""181921""
""focus"",""30"",""188312""
","""event"",""trial"",""time""
""blur"",""7"",""20863""
""blur"",""24"",""127811""
""blur"",""25"",""132887""
""blur"",""27"",""148235""
""blur"",""27"",""155213""
""blur"",""28"",""161121""
""blur"",""29"",""175067""
""blur"",""30"",""181921""
","""event"",""trial"",""time""
""focus"",""7"",""24791""
""focus"",""24"",""130952""
""focus"",""25"",""135921""
""focus"",""27"",""151043""
""focus"",""27"",""157845""
""focus"",""28"",""166019""
""focus"",""29"",""179335""
""focus"",""30"",""188312""
","""event"",""trial"",""time""
""fullscreenenter"",""1"",""2085""
","""event"",""trial"",""time""
""fullscreenexit"",""7"",""19440""
","","363.6549999937415","","","","practice","2021-04-11 15:35:09.332","img/practice_cards/backs/dark_blue.gif","0","200","0","",""
"casino-fixation","49","245133","0.0-17.0-0.7","197","true","img/card_backs/set1/purple.gif","img/card_backs/set1/red.gif","img/card_backs/set1/green.gif","img/card_backs/set1/yellow.gif","img/card_backs/set2/gray.gif","img/card_backs/set2/pink.gif","img/card_backs/set2/blue.gif","img/card_backs/set2/orange.gif","""event"",""trial"",""time""
""fullscreenenter"",""1"",""2085""
""fullscreenexit"",""7"",""19440""
""blur"",""7"",""20863""
""focus"",""7"",""24791""
""blur"",""24"",""127811""
""focus"",""24"",""130952""
""blur"",""25"",""132887""
""focus"",""25"",""135921""
""blur"",""27"",""148235""
""focus"",""27"",""151043""
""blur"",""27"",""155213""
""focus"",""27"",""157845""
""blur"",""28"",""161121""
""focus"",""28"",""166019""
""blur"",""29"",""175067""
""focus"",""29"",""179335""
""blur"",""30"",""181921""
""focus"",""30"",""188312""
","""event"",""trial"",""time""
""blur"",""7"",""20863""
""blur"",""24"",""127811""
""blur"",""25"",""132887""
""blur"",""27"",""148235""
""blur"",""27"",""155213""
""blur"",""28"",""161121""
""blur"",""29"",""175067""
""blur"",""30"",""181921""
","""event"",""trial"",""time""
""focus"",""7"",""24791""
""focus"",""24"",""130952""
""focus"",""25"",""135921""
""focus"",""27"",""151043""
""focus"",""27"",""157845""
""focus"",""28"",""166019""
""focus"",""29"",""179335""
""focus"",""30"",""188312""
","""event"",""trial"",""time""
""fullscreenenter"",""1"",""2085""
","""event"",""trial"",""time""
""fullscreenexit"",""7"",""19440""
","","null","","null","","fixation","2021-04-11 15:35:09.845","","","","","",""
"card-selection-trial","50","248061","0.0-17.0-1.7","197","true","img/card_backs/set1/purple.gif","img/card_backs/set1/red.gif","img/card_backs/set1/green.gif","img/card_backs/set1/yellow.gif","img/card_backs/set2/gray.gif","img/card_backs/set2/pink.gif","img/card_backs/set2/blue.gif","img/card_backs/set2/orange.gif","""event"",""trial"",""time""
""fullscreenenter"",""1"",""2085""
""fullscreenexit"",""7"",""19440""
""blur"",""7"",""20863""
""focus"",""7"",""24791""
""blur"",""24"",""127811""
""focus"",""24"",""130952""
""blur"",""25"",""132887""
""focus"",""25"",""135921""
""blur"",""27"",""148235""
""focus"",""27"",""151043""
""blur"",""27"",""155213""
""focus"",""27"",""157845""
""blur"",""28"",""161121""
""focus"",""28"",""166019""
""blur"",""29"",""175067""
""focus"",""29"",""179335""
""blur"",""30"",""181921""
""focus"",""30"",""188312""
","""event"",""trial"",""time""
""blur"",""7"",""20863""
""blur"",""24"",""127811""
""blur"",""25"",""132887""
""blur"",""27"",""148235""
""blur"",""27"",""155213""
""blur"",""28"",""161121""
""blur"",""29"",""175067""
""blur"",""30"",""181921""
","""event"",""trial"",""time""
""focus"",""7"",""24791""
""focus"",""24"",""130952""
""focus"",""25"",""135921""
""focus"",""27"",""151043""
""focus"",""27"",""157845""
""focus"",""28"",""166019""
""focus"",""29"",""179335""
""focus"",""30"",""188312""
","""event"",""trial"",""time""
""fullscreenenter"",""1"",""2085""
","""event"",""trial"",""time""
""fullscreenexit"",""7"",""19440""
","","920.2550000045449","","","","practice","2021-04-11 15:35:12.773","img/practice_cards/backs/dark_green.gif","1","-200","0","",""
"casino-fixation","51","248572","0.0-17.0-0.8","197","true","img/card_backs/set1/purple.gif","img/card_backs/set1/red.gif","img/card_backs/set1/green.gif","img/card_backs/set1/yellow.gif","img/card_backs/set2/gray.gif","img/card_backs/set2/pink.gif","img/card_backs/set2/blue.gif","img/card_backs/set2/orange.gif","""event"",""trial"",""time""
""fullscreenenter"",""1"",""2085""
""fullscreenexit"",""7"",""19440""
""blur"",""7"",""20863""
""focus"",""7"",""24791""
""blur"",""24"",""127811""
""focus"",""24"",""130952""
""blur"",""25"",""132887""
""focus"",""25"",""135921""
""blur"",""27"",""148235""
""focus"",""27"",""151043""
""blur"",""27"",""155213""
""focus"",""27"",""157845""
""blur"",""28"",""161121""
""focus"",""28"",""166019""
""blur"",""29"",""175067""
""focus"",""29"",""179335""
""blur"",""30"",""181921""
""focus"",""30"",""188312""
","""event"",""trial"",""time""
""blur"",""7"",""20863""
""blur"",""24"",""127811""
""blur"",""25"",""132887""
""blur"",""27"",""148235""
""blur"",""27"",""155213""
""blur"",""28"",""161121""
""blur"",""29"",""175067""
""blur"",""30"",""181921""
","""event"",""trial"",""time""
""focus"",""7"",""24791""
""focus"",""24"",""130952""
""focus"",""25"",""135921""
""focus"",""27"",""151043""
""focus"",""27"",""157845""
""focus"",""28"",""166019""
""focus"",""29"",""179335""
""focus"",""30"",""188312""
","""event"",""trial"",""time""
""fullscreenenter"",""1"",""2085""
","""event"",""trial"",""time""
""fullscreenexit"",""7"",""19440""
","","null","","null","","fixation","2021-04-11 15:35:13.284","","","","","",""
"card-selection-trial","52","251080","0.0-17.0-1.8","197","true","img/card_backs/set1/purple.gif","img/card_backs/set1/red.gif","img/card_backs/set1/green.gif","img/card_backs/set1/yellow.gif","img/card_backs/set2/gray.gif","img/card_backs/set2/pink.gif","img/card_backs/set2/blue.gif","img/card_backs/set2/orange.gif","""event"",""trial"",""time""
""fullscreenenter"",""1"",""2085""
""fullscreenexit"",""7"",""19440""
""blur"",""7"",""20863""
""focus"",""7"",""24791""
""blur"",""24"",""127811""
""focus"",""24"",""130952""
""blur"",""25"",""132887""
""focus"",""25"",""135921""
""blur"",""27"",""148235""
""focus"",""27"",""151043""
""blur"",""27"",""155213""
""focus"",""27"",""157845""
""blur"",""28"",""161121""
""focus"",""28"",""166019""
""blur"",""29"",""175067""
""focus"",""29"",""179335""
""blur"",""30"",""181921""
""focus"",""30"",""188312""
","""event"",""trial"",""time""
""blur"",""7"",""20863""
""blur"",""24"",""127811""
""blur"",""25"",""132887""
""blur"",""27"",""148235""
""blur"",""27"",""155213""
""blur"",""28"",""161121""
""blur"",""29"",""175067""
""blur"",""30"",""181921""
","""event"",""trial"",""time""
""focus"",""7"",""24791""
""focus"",""24"",""130952""
""focus"",""25"",""135921""
""focus"",""27"",""151043""
""focus"",""27"",""157845""
""focus"",""28"",""166019""
""focus"",""29"",""179335""
""focus"",""30"",""188312""
","""event"",""trial"",""time""
""fullscreenenter"",""1"",""2085""
","""event"",""trial"",""time""
""fullscreenexit"",""7"",""19440""
","","502.6450000004843","","","","practice","2021-04-11 15:35:15.792","img/practice_cards/backs/brown.gif","0","-100","0","",""
"casino-fixation","53","251582","0.0-17.0-0.9","197","true","img/card_backs/set1/purple.gif","img/card_backs/set1/red.gif","img/card_backs/set1/green.gif","img/card_backs/set1/yellow.gif","img/card_backs/set2/gray.gif","img/card_backs/set2/pink.gif","img/card_backs/set2/blue.gif","img/card_backs/set2/orange.gif","""event"",""trial"",""time""
""fullscreenenter"",""1"",""2085""
""fullscreenexit"",""7"",""19440""
""blur"",""7"",""20863""
""focus"",""7"",""24791""
""blur"",""24"",""127811""
""focus"",""24"",""130952""
""blur"",""25"",""132887""
""focus"",""25"",""135921""
""blur"",""27"",""148235""
""focus"",""27"",""151043""
""blur"",""27"",""155213""
""focus"",""27"",""157845""
""blur"",""28"",""161121""
""focus"",""28"",""166019""
""blur"",""29"",""175067""
""focus"",""29"",""179335""
""blur"",""30"",""181921""
""focus"",""30"",""188312""
","""event"",""trial"",""time""
""blur"",""7"",""20863""
""blur"",""24"",""127811""
""blur"",""25"",""132887""
""blur"",""27"",""148235""
""blur"",""27"",""155213""
""blur"",""28"",""161121""
""blur"",""29"",""175067""
""blur"",""30"",""181921""
","""event"",""trial"",""time""
""focus"",""7"",""24791""
""focus"",""24"",""130952""
""focus"",""25"",""135921""
""focus"",""27"",""151043""
""focus"",""27"",""157845""
""focus"",""28"",""166019""
""focus"",""29"",""179335""
""focus"",""30"",""188312""
","""event"",""trial"",""time""
""fullscreenenter"",""1"",""2085""
","""event"",""trial"",""time""
""fullscreenexit"",""7"",""19440""
","","null","","null","","fixation","2021-04-11 15:35:16.294","","","","","",""
"card-selection-trial","54","253988","0.0-17.0-1.9","197","true","img/card_backs/set1/purple.gif","img/card_backs/set1/red.gif","img/card_backs/set1/green.gif","img/card_backs/set1/yellow.gif","img/card_backs/set2/gray.gif","img/card_backs/set2/pink.gif","img/card_backs/set2/blue.gif","img/card_backs/set2/orange.gif","""event"",""trial"",""time""
""fullscreenenter"",""1"",""2085""
""fullscreenexit"",""7"",""19440""
""blur"",""7"",""20863""
""focus"",""7"",""24791""
""blur"",""24"",""127811""
""focus"",""24"",""130952""
""blur"",""25"",""132887""
""focus"",""25"",""135921""
""blur"",""27"",""148235""
""focus"",""27"",""151043""
""blur"",""27"",""155213""
""focus"",""27"",""157845""
""blur"",""28"",""161121""
""focus"",""28"",""166019""
""blur"",""29"",""175067""
""focus"",""29"",""179335""
""blur"",""30"",""181921""
""focus"",""30"",""188312""
","""event"",""trial"",""time""
""blur"",""7"",""20863""
""blur"",""24"",""127811""
""blur"",""25"",""132887""
""blur"",""27"",""148235""
""blur"",""27"",""155213""
""blur"",""28"",""161121""
""blur"",""29"",""175067""
""blur"",""30"",""181921""
","""event"",""trial"",""time""
""focus"",""7"",""24791""
""focus"",""24"",""130952""
""focus"",""25"",""135921""
""focus"",""27"",""151043""
""focus"",""27"",""157845""
""focus"",""28"",""166019""
""focus"",""29"",""179335""
""focus"",""30"",""188312""
","""event"",""trial"",""time""
""fullscreenenter"",""1"",""2085""
","""event"",""trial"",""time""
""fullscreenexit"",""7"",""19440""
","","399.24500000779517","","","","practice","2021-04-11 15:35:18.700","img/practice_cards/backs/brown.gif","0","100","0","",""
"casino-keyboard-response","55","256952","0.0-18.0","197","true","img/card_backs/set1/purple.gif","img/card_backs/set1/red.gif","img/card_backs/set1/green.gif","img/card_backs/set1/yellow.gif","img/card_backs/set2/gray.gif","img/card_backs/set2/pink.gif","img/card_backs/set2/blue.gif","img/card_backs/set2/orange.gif","""event"",""trial"",""time""
""fullscreenenter"",""1"",""2085""
""fullscreenexit"",""7"",""19440""
""blur"",""7"",""20863""
""focus"",""7"",""24791""
""blur"",""24"",""127811""
""focus"",""24"",""130952""
""blur"",""25"",""132887""
""focus"",""25"",""135921""
""blur"",""27"",""148235""
""focus"",""27"",""151043""
""blur"",""27"",""155213""
""focus"",""27"",""157845""
""blur"",""28"",""161121""
""focus"",""28"",""166019""
""blur"",""29"",""175067""
""focus"",""29"",""179335""
""blur"",""30"",""181921""
""focus"",""30"",""188312""
","""event"",""trial"",""time""
""blur"",""7"",""20863""
""blur"",""24"",""127811""
""blur"",""25"",""132887""
""blur"",""27"",""148235""
""blur"",""27"",""155213""
""blur"",""28"",""161121""
""blur"",""29"",""175067""
""blur"",""30"",""181921""
","""event"",""trial"",""time""
""focus"",""7"",""24791""
""focus"",""24"",""130952""
""focus"",""25"",""135921""
""focus"",""27"",""151043""
""focus"",""27"",""157845""
""focus"",""28"",""166019""
""focus"",""29"",""179335""
""focus"",""30"",""188312""
","""event"",""trial"",""time""
""fullscreenenter"",""1"",""2085""
","""event"",""trial"",""time""
""fullscreenexit"",""7"",""19440""
","","2962.47499997844","You earned -600 tokens during the practice round!","82","","","2021-04-11 15:35:21.664","","","","","",""
"casino-keyboard-response","56","261722","0.0-19.0-0.0","197","true","img/card_backs/set1/purple.gif","img/card_backs/set1/red.gif","img/card_backs/set1/green.gif","img/card_backs/set1/yellow.gif","img/card_backs/set2/gray.gif","img/card_backs/set2/pink.gif","img/card_backs/set2/blue.gif","img/card_backs/set2/orange.gif","""event"",""trial"",""time""
""fullscreenenter"",""1"",""2085""
""fullscreenexit"",""7"",""19440""
""blur"",""7"",""20863""
""focus"",""7"",""24791""
""blur"",""24"",""127811""
""focus"",""24"",""130952""
""blur"",""25"",""132887""
""focus"",""25"",""135921""
""blur"",""27"",""148235""
""focus"",""27"",""151043""
""blur"",""27"",""155213""
""focus"",""27"",""157845""
""blur"",""28"",""161121""
""focus"",""28"",""166019""
""blur"",""29"",""175067""
""focus"",""29"",""179335""
""blur"",""30"",""181921""
""focus"",""30"",""188312""
","""event"",""trial"",""time""
""blur"",""7"",""20863""
""blur"",""24"",""127811""
""blur"",""25"",""132887""
""blur"",""27"",""148235""
""blur"",""27"",""155213""
""blur"",""28"",""161121""
""blur"",""29"",""175067""
""blur"",""30"",""181921""
","""event"",""trial"",""time""
""focus"",""7"",""24791""
""focus"",""24"",""130952""
""focus"",""25"",""135921""
""focus"",""27"",""151043""
""focus"",""27"",""157845""
""focus"",""28"",""166019""
""focus"",""29"",""179335""
""focus"",""30"",""188312""
","""event"",""trial"",""time""
""fullscreenenter"",""1"",""2085""
","""event"",""trial"",""time""
""fullscreenexit"",""7"",""19440""
","","4768.949999997858","Nice job! You are almost ready to play the real game.","86","","instructions","2021-04-11 15:35:26.434","","","","","",""
"casino-keyboard-response","57","267940","0.0-19.0-0.1","197","true","img/card_backs/set1/purple.gif","img/card_backs/set1/red.gif","img/card_backs/set1/green.gif","img/card_backs/set1/yellow.gif","img/card_backs/set2/gray.gif","img/card_backs/set2/pink.gif","img/card_backs/set2/blue.gif","img/card_backs/set2/orange.gif","""event"",""trial"",""time""
""fullscreenenter"",""1"",""2085""
""fullscreenexit"",""7"",""19440""
""blur"",""7"",""20863""
""focus"",""7"",""24791""
""blur"",""24"",""127811""
""focus"",""24"",""130952""
""blur"",""25"",""132887""
""focus"",""25"",""135921""
""blur"",""27"",""148235""
""focus"",""27"",""151043""
""blur"",""27"",""155213""
""focus"",""27"",""157845""
""blur"",""28"",""161121""
""focus"",""28"",""166019""
""blur"",""29"",""175067""
""focus"",""29"",""179335""
""blur"",""30"",""181921""
""focus"",""30"",""188312""
","""event"",""trial"",""time""
""blur"",""7"",""20863""
""blur"",""24"",""127811""
""blur"",""25"",""132887""
""blur"",""27"",""148235""
""blur"",""27"",""155213""
""blur"",""28"",""161121""
""blur"",""29"",""175067""
""blur"",""30"",""181921""
","""event"",""trial"",""time""
""focus"",""7"",""24791""
""focus"",""24"",""130952""
""focus"",""25"",""135921""
""focus"",""27"",""151043""
""focus"",""27"",""157845""
""focus"",""28"",""166019""
""focus"",""29"",""179335""
""focus"",""30"",""188312""
","""event"",""trial"",""time""
""fullscreenenter"",""1"",""2085""
","""event"",""trial"",""time""
""fullscreenexit"",""7"",""19440""
","","6216.519999987213","You will play two rounds of the real game. In each round, you will pick 100 cards in total.","73","","instructions","2021-04-11 15:35:32.652","","","","","",""
"casino-keyboard-response","58","272318","0.0-19.0-0.2","197","true","img/card_backs/set1/purple.gif","img/card_backs/set1/red.gif","img/card_backs/set1/green.gif","img/card_backs/set1/yellow.gif","img/card_backs/set2/gray.gif","img/card_backs/set2/pink.gif","img/card_backs/set2/blue.gif","img/card_backs/set2/orange.gif","""event"",""trial"",""time""
""fullscreenenter"",""1"",""2085""
""fullscreenexit"",""7"",""19440""
""blur"",""7"",""20863""
""focus"",""7"",""24791""
""blur"",""24"",""127811""
""focus"",""24"",""130952""
""blur"",""25"",""132887""
""focus"",""25"",""135921""
""blur"",""27"",""148235""
""focus"",""27"",""151043""
""blur"",""27"",""155213""
""focus"",""27"",""157845""
""blur"",""28"",""161121""
""focus"",""28"",""166019""
""blur"",""29"",""175067""
""focus"",""29"",""179335""
""blur"",""30"",""181921""
""focus"",""30"",""188312""
","""event"",""trial"",""time""
""blur"",""7"",""20863""
""blur"",""24"",""127811""
""blur"",""25"",""132887""
""blur"",""27"",""148235""
""blur"",""27"",""155213""
""blur"",""28"",""161121""
""blur"",""29"",""175067""
""blur"",""30"",""181921""
","""event"",""trial"",""time""
""focus"",""7"",""24791""
""focus"",""24"",""130952""
""focus"",""25"",""135921""
""focus"",""27"",""151043""
""focus"",""27"",""157845""
""focus"",""28"",""166019""
""focus"",""29"",""179335""
""focus"",""30"",""188312""
","""event"",""trial"",""time""
""fullscreenenter"",""1"",""2085""
","""event"",""trial"",""time""
""fullscreenexit"",""7"",""19440""
","","4376.695000013569","We are now going to ask you some questions about how the game works.","66","","instructions","2021-04-11 15:35:37.030","","","","","",""
"casino-keyboard-response","59","278896","0.0-19.0-0.3","197","true","img/card_backs/set1/purple.gif","img/card_backs/set1/red.gif","img/card_backs/set1/green.gif","img/card_backs/set1/yellow.gif","img/card_backs/set2/gray.gif","img/card_backs/set2/pink.gif","img/card_backs/set2/blue.gif","img/card_backs/set2/orange.gif","""event"",""trial"",""time""
""fullscreenenter"",""1"",""2085""
""fullscreenexit"",""7"",""19440""
""blur"",""7"",""20863""
""focus"",""7"",""24791""
""blur"",""24"",""127811""
""focus"",""24"",""130952""
""blur"",""25"",""132887""
""focus"",""25"",""135921""
""blur"",""27"",""148235""
""focus"",""27"",""151043""
""blur"",""27"",""155213""
""focus"",""27"",""157845""
""blur"",""28"",""161121""
""focus"",""28"",""166019""
""blur"",""29"",""175067""
""focus"",""29"",""179335""
""blur"",""30"",""181921""
""focus"",""30"",""188312""
","""event"",""trial"",""time""
""blur"",""7"",""20863""
""blur"",""24"",""127811""
""blur"",""25"",""132887""
""blur"",""27"",""148235""
""blur"",""27"",""155213""
""blur"",""28"",""161121""
""blur"",""29"",""175067""
""blur"",""30"",""181921""
","""event"",""trial"",""time""
""focus"",""7"",""24791""
""focus"",""24"",""130952""
""focus"",""25"",""135921""
""focus"",""27"",""151043""
""focus"",""27"",""157845""
""focus"",""28"",""166019""
""focus"",""29"",""179335""
""focus"",""30"",""188312""
","""event"",""trial"",""time""
""fullscreenenter"",""1"",""2085""
","""event"",""trial"",""time""
""fullscreenexit"",""7"",""19440""
","","6575.970000005327","Answer carefully. You will not be able to begin the game until you answer them correctly.","67","","instructions","2021-04-11 15:35:43.608","","","","","",""
"casino-comp_q","60","285290","0.0-20.0-0.0","197","true","img/card_backs/set1/purple.gif","img/card_backs/set1/red.gif","img/card_backs/set1/green.gif","img/card_backs/set1/yellow.gif","img/card_backs/set2/gray.gif","img/card_backs/set2/pink.gif","img/card_backs/set2/blue.gif","img/card_backs/set2/orange.gif","""event"",""trial"",""time""
""fullscreenenter"",""1"",""2085""
""fullscreenexit"",""7"",""19440""
""blur"",""7"",""20863""
""focus"",""7"",""24791""
""blur"",""24"",""127811""
""focus"",""24"",""130952""
""blur"",""25"",""132887""
""focus"",""25"",""135921""
""blur"",""27"",""148235""
""focus"",""27"",""151043""
""blur"",""27"",""155213""
""focus"",""27"",""157845""
""blur"",""28"",""161121""
""focus"",""28"",""166019""
""blur"",""29"",""175067""
""focus"",""29"",""179335""
""blur"",""30"",""181921""
""focus"",""30"",""188312""
","""event"",""trial"",""time""
""blur"",""7"",""20863""
""blur"",""24"",""127811""
""blur"",""25"",""132887""
""blur"",""27"",""148235""
""blur"",""27"",""155213""
""blur"",""28"",""161121""
""blur"",""29"",""175067""
""blur"",""30"",""181921""
","""event"",""trial"",""time""
""focus"",""7"",""24791""
""focus"",""24"",""130952""
""focus"",""25"",""135921""
""focus"",""27"",""151043""
""focus"",""27"",""157845""
""focus"",""28"",""166019""
""focus"",""29"",""179335""
""focus"",""30"",""188312""
","""event"",""trial"",""time""
""fullscreenenter"",""1"",""2085""
","""event"",""trial"",""time""
""fullscreenexit"",""7"",""19440""
","","6391.94500001031","True or False: All the decks have some cards that cause you to win tokens and some cards that cause you to lose tokens.","84","","","2021-04-11 15:35:50.002","","","","","",""
"casino-keyboard-response","61","288439","0.0-20.0-1.0","197","true","img/card_backs/set1/purple.gif","img/card_backs/set1/red.gif","img/card_backs/set1/green.gif","img/card_backs/set1/yellow.gif","img/card_backs/set2/gray.gif","img/card_backs/set2/pink.gif","img/card_backs/set2/blue.gif","img/card_backs/set2/orange.gif","""event"",""trial"",""time""
""fullscreenenter"",""1"",""2085""
""fullscreenexit"",""7"",""19440""
""blur"",""7"",""20863""
""focus"",""7"",""24791""
""blur"",""24"",""127811""
""focus"",""24"",""130952""
""blur"",""25"",""132887""
""focus"",""25"",""135921""
""blur"",""27"",""148235""
""focus"",""27"",""151043""
""blur"",""27"",""155213""
""focus"",""27"",""157845""
""blur"",""28"",""161121""
""focus"",""28"",""166019""
""blur"",""29"",""175067""
""focus"",""29"",""179335""
""blur"",""30"",""181921""
""focus"",""30"",""188312""
","""event"",""trial"",""time""
""blur"",""7"",""20863""
""blur"",""24"",""127811""
""blur"",""25"",""132887""
""blur"",""27"",""148235""
""blur"",""27"",""155213""
""blur"",""28"",""161121""
""blur"",""29"",""175067""
""blur"",""30"",""181921""
","""event"",""trial"",""time""
""focus"",""7"",""24791""
""focus"",""24"",""130952""
""focus"",""25"",""135921""
""focus"",""27"",""151043""
""focus"",""27"",""157845""
""focus"",""28"",""166019""
""focus"",""29"",""179335""
""focus"",""30"",""188312""
","""event"",""trial"",""time""
""fullscreenenter"",""1"",""2085""
","""event"",""trial"",""time""
""fullscreenexit"",""7"",""19440""
","","3147.30499999132","True is correct! All the decks have a mix of winning and losing cards.","77","","","2021-04-11 15:35:53.151","","","","","true",""
"casino-comp_q","62","291766","0.0-21.0-0.0","197","true","img/card_backs/set1/purple.gif","img/card_backs/set1/red.gif","img/card_backs/set1/green.gif","img/card_backs/set1/yellow.gif","img/card_backs/set2/gray.gif","img/card_backs/set2/pink.gif","img/card_backs/set2/blue.gif","img/card_backs/set2/orange.gif","""event"",""trial"",""time""
""fullscreenenter"",""1"",""2085""
""fullscreenexit"",""7"",""19440""
""blur"",""7"",""20863""
""focus"",""7"",""24791""
""blur"",""24"",""127811""
""focus"",""24"",""130952""
""blur"",""25"",""132887""
""focus"",""25"",""135921""
""blur"",""27"",""148235""
""focus"",""27"",""151043""
""blur"",""27"",""155213""
""focus"",""27"",""157845""
""blur"",""28"",""161121""
""focus"",""28"",""166019""
""blur"",""29"",""175067""
""focus"",""29"",""179335""
""blur"",""30"",""181921""
""focus"",""30"",""188312""
","""event"",""trial"",""time""
""blur"",""7"",""20863""
""blur"",""24"",""127811""
""blur"",""25"",""132887""
""blur"",""27"",""148235""
""blur"",""27"",""155213""
""blur"",""28"",""161121""
""blur"",""29"",""175067""
""blur"",""30"",""181921""
","""event"",""trial"",""time""
""focus"",""7"",""24791""
""focus"",""24"",""130952""
""focus"",""25"",""135921""
""focus"",""27"",""151043""
""focus"",""27"",""157845""
""focus"",""28"",""166019""
""focus"",""29"",""179335""
""focus"",""30"",""188312""
","""event"",""trial"",""time""
""fullscreenenter"",""1"",""2085""
","""event"",""trial"",""time""
""fullscreenexit"",""7"",""19440""
","","3324.350000009872","True or False: You will have as much time as you want to make your response.","70","","","2021-04-11 15:35:56.478","","","","","",""
"casino-keyboard-response","63","295332","0.0-21.0-1.0","197","true","img/card_backs/set1/purple.gif","img/card_backs/set1/red.gif","img/card_backs/set1/green.gif","img/card_backs/set1/yellow.gif","img/card_backs/set2/gray.gif","img/card_backs/set2/pink.gif","img/card_backs/set2/blue.gif","img/card_backs/set2/orange.gif","""event"",""trial"",""time""
""fullscreenenter"",""1"",""2085""
""fullscreenexit"",""7"",""19440""
""blur"",""7"",""20863""
""focus"",""7"",""24791""
""blur"",""24"",""127811""
""focus"",""24"",""130952""
""blur"",""25"",""132887""
""focus"",""25"",""135921""
""blur"",""27"",""148235""
""focus"",""27"",""151043""
""blur"",""27"",""155213""
""focus"",""27"",""157845""
""blur"",""28"",""161121""
""focus"",""28"",""166019""
""blur"",""29"",""175067""
""focus"",""29"",""179335""
""blur"",""30"",""181921""
""focus"",""30"",""188312""
","""event"",""trial"",""time""
""blur"",""7"",""20863""
""blur"",""24"",""127811""
""blur"",""25"",""132887""
""blur"",""27"",""148235""
""blur"",""27"",""155213""
""blur"",""28"",""161121""
""blur"",""29"",""175067""
""blur"",""30"",""181921""
","""event"",""trial"",""time""
""focus"",""7"",""24791""
""focus"",""24"",""130952""
""focus"",""25"",""135921""
""focus"",""27"",""151043""
""focus"",""27"",""157845""
""focus"",""28"",""166019""
""focus"",""29"",""179335""
""focus"",""30"",""188312""
","""event"",""trial"",""time""
""fullscreenenter"",""1"",""2085""
","""event"",""trial"",""time""
""fullscreenexit"",""7"",""19440""
","","3564.7850000241306","False is correct! You will only have 10 seconds to make each choice.","75","","","2021-04-11 15:36:00.044","","","","","true",""
"casino-comp_q","64","298607","0.0-22.0-0.0","197","true","img/card_backs/set1/purple.gif","img/card_backs/set1/red.gif","img/card_backs/set1/green.gif","img/card_backs/set1/yellow.gif","img/card_backs/set2/gray.gif","img/card_backs/set2/pink.gif","img/card_backs/set2/blue.gif","img/card_backs/set2/orange.gif","""event"",""trial"",""time""
""fullscreenenter"",""1"",""2085""
""fullscreenexit"",""7"",""19440""
""blur"",""7"",""20863""
""focus"",""7"",""24791""
""blur"",""24"",""127811""
""focus"",""24"",""130952""
""blur"",""25"",""132887""
""focus"",""25"",""135921""
""blur"",""27"",""148235""
""focus"",""27"",""151043""
""blur"",""27"",""155213""
""focus"",""27"",""157845""
""blur"",""28"",""161121""
""focus"",""28"",""166019""
""blur"",""29"",""175067""
""focus"",""29"",""179335""
""blur"",""30"",""181921""
""focus"",""30"",""188312""
","""event"",""trial"",""time""
""blur"",""7"",""20863""
""blur"",""24"",""127811""
""blur"",""25"",""132887""
""blur"",""27"",""148235""
""blur"",""27"",""155213""
""blur"",""28"",""161121""
""blur"",""29"",""175067""
""blur"",""30"",""181921""
","""event"",""trial"",""time""
""focus"",""7"",""24791""
""focus"",""24"",""130952""
""focus"",""25"",""135921""
""focus"",""27"",""151043""
""focus"",""27"",""157845""
""focus"",""28"",""166019""
""focus"",""29"",""179335""
""focus"",""30"",""188312""
","""event"",""trial"",""time""
""fullscreenenter"",""1"",""2085""
","""event"",""trial"",""time""
""fullscreenexit"",""7"",""19440""
","","3273.285000002943","True or False: The location of the deck determines how lucky it is.","70","","","2021-04-11 15:36:03.319","","","","","",""
"casino-keyboard-response","65","301456","0.0-22.0-1.0","197","true","img/card_backs/set1/purple.gif","img/card_backs/set1/red.gif","img/card_backs/set1/green.gif","img/card_backs/set1/yellow.gif","img/card_backs/set2/gray.gif","img/card_backs/set2/pink.gif","img/card_backs/set2/blue.gif","img/card_backs/set2/orange.gif","""event"",""trial"",""time""
""fullscreenenter"",""1"",""2085""
""fullscreenexit"",""7"",""19440""
""blur"",""7"",""20863""
""focus"",""7"",""24791""
""blur"",""24"",""127811""
""focus"",""24"",""130952""
""blur"",""25"",""132887""
""focus"",""25"",""135921""
""blur"",""27"",""148235""
""focus"",""27"",""151043""
""blur"",""27"",""155213""
""focus"",""27"",""157845""
""blur"",""28"",""161121""
""focus"",""28"",""166019""
""blur"",""29"",""175067""
""focus"",""29"",""179335""
""blur"",""30"",""181921""
""focus"",""30"",""188312""
","""event"",""trial"",""time""
""blur"",""7"",""20863""
""blur"",""24"",""127811""
""blur"",""25"",""132887""
""blur"",""27"",""148235""
""blur"",""27"",""155213""
""blur"",""28"",""161121""
""blur"",""29"",""175067""
""blur"",""30"",""181921""
","""event"",""trial"",""time""
""focus"",""7"",""24791""
""focus"",""24"",""130952""
""focus"",""25"",""135921""
""focus"",""27"",""151043""
""focus"",""27"",""157845""
""focus"",""28"",""166019""
""focus"",""29"",""179335""
""focus"",""30"",""188312""
","""event"",""trial"",""time""
""fullscreenenter"",""1"",""2085""
","""event"",""trial"",""time""
""fullscreenexit"",""7"",""19440""
","","2847.0000000088476","False is correct! The <i>color</i>  of the deck determines how lucky or unlucky it is.","68","","","2021-04-11 15:36:06.168","","","","","true",""
"casino-keyboard-response","66","305826","0.0-23.0-0.0","197","true","img/card_backs/set1/purple.gif","img/card_backs/set1/red.gif","img/card_backs/set1/green.gif","img/card_backs/set1/yellow.gif","img/card_backs/set2/gray.gif","img/card_backs/set2/pink.gif","img/card_backs/set2/blue.gif","img/card_backs/set2/orange.gif","""event"",""trial"",""time""
""fullscreenenter"",""1"",""2085""
""fullscreenexit"",""7"",""19440""
""blur"",""7"",""20863""
""focus"",""7"",""24791""
""blur"",""24"",""127811""
""focus"",""24"",""130952""
""blur"",""25"",""132887""
""focus"",""25"",""135921""
""blur"",""27"",""148235""
""focus"",""27"",""151043""
""blur"",""27"",""155213""
""focus"",""27"",""157845""
""blur"",""28"",""161121""
""focus"",""28"",""166019""
""blur"",""29"",""175067""
""focus"",""29"",""179335""
""blur"",""30"",""181921""
""focus"",""30"",""188312""
","""event"",""trial"",""time""
""blur"",""7"",""20863""
""blur"",""24"",""127811""
""blur"",""25"",""132887""
""blur"",""27"",""148235""
""blur"",""27"",""155213""
""blur"",""28"",""161121""
""blur"",""29"",""175067""
""blur"",""30"",""181921""
","""event"",""trial"",""time""
""focus"",""7"",""24791""
""focus"",""24"",""130952""
""focus"",""25"",""135921""
""focus"",""27"",""151043""
""focus"",""27"",""157845""
""focus"",""28"",""166019""
""focus"",""29"",""179335""
""focus"",""30"",""188312""
","""event"",""trial"",""time""
""fullscreenenter"",""1"",""2085""
","""event"",""trial"",""time""
""fullscreenexit"",""7"",""19440""
","","4367.250000010245","Great job! Now it's time to start the real game.","82","","instructions","2021-04-11 15:36:10.538","","","","","",""
"casino-keyboard-response","67","311206","0.0-23.0-0.1","197","true","img/card_backs/set1/purple.gif","img/card_backs/set1/red.gif","img/card_backs/set1/green.gif","img/card_backs/set1/yellow.gif","img/card_backs/set2/gray.gif","img/card_backs/set2/pink.gif","img/card_backs/set2/blue.gif","img/card_backs/set2/orange.gif","""event"",""trial"",""time""
""fullscreenenter"",""1"",""2085""
""fullscreenexit"",""7"",""19440""
""blur"",""7"",""20863""
""focus"",""7"",""24791""
""blur"",""24"",""127811""
""focus"",""24"",""130952""
""blur"",""25"",""132887""
""focus"",""25"",""135921""
""blur"",""27"",""148235""
""focus"",""27"",""151043""
""blur"",""27"",""155213""
""focus"",""27"",""157845""
""blur"",""28"",""161121""
""focus"",""28"",""166019""
""blur"",""29"",""175067""
""focus"",""29"",""179335""
""blur"",""30"",""181921""
""focus"",""30"",""188312""
","""event"",""trial"",""time""
""blur"",""7"",""20863""
""blur"",""24"",""127811""
""blur"",""25"",""132887""
""blur"",""27"",""148235""
""blur"",""27"",""155213""
""blur"",""28"",""161121""
""blur"",""29"",""175067""
""blur"",""30"",""181921""
","""event"",""trial"",""time""
""focus"",""7"",""24791""
""focus"",""24"",""130952""
""focus"",""25"",""135921""
""focus"",""27"",""151043""
""focus"",""27"",""157845""
""focus"",""28"",""166019""
""focus"",""29"",""179335""
""focus"",""30"",""188312""
","""event"",""trial"",""time""
""fullscreenenter"",""1"",""2085""
","""event"",""trial"",""time""
""fullscreenexit"",""7"",""19440""
","","5378.435000020545","Before we start, we're going to head into a new room of the casino.","86","","instructions","2021-04-11 15:36:15.918","","","","","",""
"casino-keyboard-response","68","317267","0.0-24.0-0.0","197","true","img/card_backs/set1/purple.gif","img/card_backs/set1/red.gif","img/card_backs/set1/green.gif","img/card_backs/set1/yellow.gif","img/card_backs/set2/gray.gif","img/card_backs/set2/pink.gif","img/card_backs/set2/blue.gif","img/card_backs/set2/orange.gif","""event"",""trial"",""time""
""fullscreenenter"",""1"",""2085""
""fullscreenexit"",""7"",""19440""
""blur"",""7"",""20863""
""focus"",""7"",""24791""
""blur"",""24"",""127811""
""focus"",""24"",""130952""
""blur"",""25"",""132887""
""focus"",""25"",""135921""
""blur"",""27"",""148235""
""focus"",""27"",""151043""
""blur"",""27"",""155213""
""focus"",""27"",""157845""
""blur"",""28"",""161121""
""focus"",""28"",""166019""
""blur"",""29"",""175067""
""focus"",""29"",""179335""
""blur"",""30"",""181921""
""focus"",""30"",""188312""
","""event"",""trial"",""time""
""blur"",""7"",""20863""
""blur"",""24"",""127811""
""blur"",""25"",""132887""
""blur"",""27"",""148235""
""blur"",""27"",""155213""
""blur"",""28"",""161121""
""blur"",""29"",""175067""
""blur"",""30"",""181921""
","""event"",""trial"",""time""
""focus"",""7"",""24791""
""focus"",""24"",""130952""
""focus"",""25"",""135921""
""focus"",""27"",""151043""
""focus"",""27"",""157845""
""focus"",""28"",""166019""
""focus"",""29"",""179335""
""focus"",""30"",""188312""
","""event"",""trial"",""time""
""fullscreenenter"",""1"",""2085""
","""event"",""trial"",""time""
""fullscreenexit"",""7"",""19440""
","","6059.05999999959","Here we are! The real game will use different cards, but the rules will be the same.","71","","instructions","2021-04-11 15:36:21.979","","","","","",""
"casino-keyboard-response","69","323507","0.0-24.0-0.1","197","true","img/card_backs/set1/purple.gif","img/card_backs/set1/red.gif","img/card_backs/set1/green.gif","img/card_backs/set1/yellow.gif","img/card_backs/set2/gray.gif","img/card_backs/set2/pink.gif","img/card_backs/set2/blue.gif","img/card_backs/set2/orange.gif","""event"",""trial"",""time""
""fullscreenenter"",""1"",""2085""
""fullscreenexit"",""7"",""19440""
""blur"",""7"",""20863""
""focus"",""7"",""24791""
""blur"",""24"",""127811""
""focus"",""24"",""130952""
""blur"",""25"",""132887""
""focus"",""25"",""135921""
""blur"",""27"",""148235""
""focus"",""27"",""151043""
""blur"",""27"",""155213""
""focus"",""27"",""157845""
""blur"",""28"",""161121""
""focus"",""28"",""166019""
""blur"",""29"",""175067""
""focus"",""29"",""179335""
""blur"",""30"",""181921""
""focus"",""30"",""188312""
","""event"",""trial"",""time""
""blur"",""7"",""20863""
""blur"",""24"",""127811""
""blur"",""25"",""132887""
""blur"",""27"",""148235""
""blur"",""27"",""155213""
""blur"",""28"",""161121""
""blur"",""29"",""175067""
""blur"",""30"",""181921""
","""event"",""trial"",""time""
""focus"",""7"",""24791""
""focus"",""24"",""130952""
""focus"",""25"",""135921""
""focus"",""27"",""151043""
""focus"",""27"",""157845""
""focus"",""28"",""166019""
""focus"",""29"",""179335""
""focus"",""30"",""188312""
","""event"",""trial"",""time""
""fullscreenenter"",""1"",""2085""
","""event"",""trial"",""time""
""fullscreenexit"",""7"",""19440""
","","6238.305000006221","Ready? Put your fingers over the '2', '4', 6', and '8' keys so you are ready to play the game. </br> Then press 2 to start.","50","","instructions","2021-04-11 15:36:28.219","","","","","",""
"casino-fixation","70","324011","0.0-25.0-0.0","197","true","img/card_backs/set1/purple.gif","img/card_backs/set1/red.gif","img/card_backs/set1/green.gif","img/card_backs/set1/yellow.gif","img/card_backs/set2/gray.gif","img/card_backs/set2/pink.gif","img/card_backs/set2/blue.gif","img/card_backs/set2/orange.gif","""event"",""trial"",""time""
""fullscreenenter"",""1"",""2085""
""fullscreenexit"",""7"",""19440""
""blur"",""7"",""20863""
""focus"",""7"",""24791""
""blur"",""24"",""127811""
""focus"",""24"",""130952""
""blur"",""25"",""132887""
""focus"",""25"",""135921""
""blur"",""27"",""148235""
""focus"",""27"",""151043""
""blur"",""27"",""155213""
""focus"",""27"",""157845""
""blur"",""28"",""161121""
""focus"",""28"",""166019""
""blur"",""29"",""175067""
""focus"",""29"",""179335""
""blur"",""30"",""181921""
""focus"",""30"",""188312""
","""event"",""trial"",""time""
""blur"",""7"",""20863""
""blur"",""24"",""127811""
""blur"",""25"",""132887""
""blur"",""27"",""148235""
""blur"",""27"",""155213""
""blur"",""28"",""161121""
""blur"",""29"",""175067""
""blur"",""30"",""181921""
","""event"",""trial"",""time""
""focus"",""7"",""24791""
""focus"",""24"",""130952""
""focus"",""25"",""135921""
""focus"",""27"",""151043""
""focus"",""27"",""157845""
""focus"",""28"",""166019""
""focus"",""29"",""179335""
""focus"",""30"",""188312""
","""event"",""trial"",""time""
""fullscreenenter"",""1"",""2085""
","""event"",""trial"",""time""
""fullscreenexit"",""7"",""19440""
","","null","","null","","fixation","2021-04-11 15:36:28.724","","","","","",""
"card-selection-trial","71","327534","0.0-25.0-1.0","197","true","img/card_backs/set1/purple.gif","img/card_backs/set1/red.gif","img/card_backs/set1/green.gif","img/card_backs/set1/yellow.gif","img/card_backs/set2/gray.gif","img/card_backs/set2/pink.gif","img/card_backs/set2/blue.gif","img/card_backs/set2/orange.gif","""event"",""trial"",""time""
""fullscreenenter"",""1"",""2085""
""fullscreenexit"",""7"",""19440""
""blur"",""7"",""20863""
""focus"",""7"",""24791""
""blur"",""24"",""127811""
""focus"",""24"",""130952""
""blur"",""25"",""132887""
""focus"",""25"",""135921""
""blur"",""27"",""148235""
""focus"",""27"",""151043""
""blur"",""27"",""155213""
""focus"",""27"",""157845""
""blur"",""28"",""161121""
""focus"",""28"",""166019""
""blur"",""29"",""175067""
""focus"",""29"",""179335""
""blur"",""30"",""181921""
""focus"",""30"",""188312""
","""event"",""trial"",""time""
""blur"",""7"",""20863""
""blur"",""24"",""127811""
""blur"",""25"",""132887""
""blur"",""27"",""148235""
""blur"",""27"",""155213""
""blur"",""28"",""161121""
""blur"",""29"",""175067""
""blur"",""30"",""181921""
","""event"",""trial"",""time""
""focus"",""7"",""24791""
""focus"",""24"",""130952""
""focus"",""25"",""135921""
""focus"",""27"",""151043""
""focus"",""27"",""157845""
""focus"",""28"",""166019""
""focus"",""29"",""179335""
""focus"",""30"",""188312""
","""event"",""trial"",""time""
""fullscreenenter"",""1"",""2085""
","""event"",""trial"",""time""
""fullscreenexit"",""7"",""19440""
","","1506.454999995185","","","","real_trial","2021-04-11 15:36:32.246","img/card_backs/set1/yellow.gif","1","60","1","",""
"casino-fixation","72","328048","0.0-25.0-0.1","197","true","img/card_backs/set1/purple.gif","img/card_backs/set1/red.gif","img/card_backs/set1/green.gif","img/card_backs/set1/yellow.gif","img/card_backs/set2/gray.gif","img/card_backs/set2/pink.gif","img/card_backs/set2/blue.gif","img/card_backs/set2/orange.gif","""event"",""trial"",""time""
""fullscreenenter"",""1"",""2085""
""fullscreenexit"",""7"",""19440""
""blur"",""7"",""20863""
""focus"",""7"",""24791""
""blur"",""24"",""127811""
""focus"",""24"",""130952""
""blur"",""25"",""132887""
""focus"",""25"",""135921""
""blur"",""27"",""148235""
""focus"",""27"",""151043""
""blur"",""27"",""155213""
""focus"",""27"",""157845""
""blur"",""28"",""161121""
""focus"",""28"",""166019""
""blur"",""29"",""175067""
""focus"",""29"",""179335""
""blur"",""30"",""181921""
""focus"",""30"",""188312""
","""event"",""trial"",""time""
""blur"",""7"",""20863""
""blur"",""24"",""127811""
""blur"",""25"",""132887""
