"trial_type","trial_index","time_elapsed","internal_node_id","sub_id","risk_good_first","block1_A","block1_B","block1_C","block1_D","block2_A","block2_B","block2_C","block2_D","interactions","blur_events","focus_events","fullscreenenter_events","fullscreenexit_events","success","rt","stimulus","key_press","button_pressed","task_part","timestamp","card_choice","choice_position","points_earned","block","correct","response"
"pavlovia","0","3","0.0-0.0","250","true","img/card_backs/set1/purple.gif","img/card_backs/set1/red.gif","img/card_backs/set1/yellow.gif","img/card_backs/set1/green.gif","img/card_backs/set2/pink.gif","img/card_backs/set2/gray.gif","img/card_backs/set2/orange.gif","img/card_backs/set2/blue.gif","""event"",""trial"",""time""
""fullscreenenter"",""1"",""1373""
","
","
","""event"",""trial"",""time""
""fullscreenenter"",""1"",""1373""
","
","","","","","","","","","","","","",""
"fullscreen","1","2334","0.0-1.0","250","true","img/card_backs/set1/purple.gif","img/card_backs/set1/red.gif","img/card_backs/set1/yellow.gif","img/card_backs/set1/green.gif","img/card_backs/set2/pink.gif","img/card_backs/set2/gray.gif","img/card_backs/set2/orange.gif","img/card_backs/set2/blue.gif","""event"",""trial"",""time""
""fullscreenenter"",""1"",""1373""
","
","
","""event"",""trial"",""time""
""fullscreenenter"",""1"",""1373""
","
","true","","","","","","","","","","","",""
"audio-keyboard-response","2","4448","0.0-2.0","250","true","img/card_backs/set1/purple.gif","img/card_backs/set1/red.gif","img/card_backs/set1/yellow.gif","img/card_backs/set1/green.gif","img/card_backs/set2/pink.gif","img/card_backs/set2/gray.gif","img/card_backs/set2/orange.gif","img/card_backs/set2/blue.gif","""event"",""trial"",""time""
""fullscreenenter"",""1"",""1373""
","
","
","""event"",""trial"",""time""
""fullscreenenter"",""1"",""1373""
","
","","1945","audio/beep_loop.wav","32","","","","","","","","",""
"audio-button-response","3","6312","0.0-3.0","250","true","img/card_backs/set1/purple.gif","img/card_backs/set1/red.gif","img/card_backs/set1/yellow.gif","img/card_backs/set1/green.gif","img/card_backs/set2/pink.gif","img/card_backs/set2/gray.gif","img/card_backs/set2/orange.gif","img/card_backs/set2/blue.gif","""event"",""trial"",""time""
""fullscreenenter"",""1"",""1373""
","
","
","""event"",""trial"",""time""
""fullscreenenter"",""1"",""1373""
","
","","NaN","audio/turtle.mp3","","3","","","","","","","",""
"audio-button-response","4","14315","0.0-4.0","250","true","img/card_backs/set1/purple.gif","img/card_backs/set1/red.gif","img/card_backs/set1/yellow.gif","img/card_backs/set1/green.gif","img/card_backs/set2/pink.gif","img/card_backs/set2/gray.gif","img/card_backs/set2/orange.gif","img/card_backs/set2/blue.gif","""event"",""trial"",""time""
""fullscreenenter"",""1"",""1373""
","
","
","""event"",""trial"",""time""
""fullscreenenter"",""1"",""1373""
","
","","NaN","audio/shark.mp3","","2","","","","","","","",""
"fullscreen","5","17222","0.0-5.0","250","true","img/card_backs/set1/purple.gif","img/card_backs/set1/red.gif","img/card_backs/set1/yellow.gif","img/card_backs/set1/green.gif","img/card_backs/set2/pink.gif","img/card_backs/set2/gray.gif","img/card_backs/set2/orange.gif","img/card_backs/set2/blue.gif","""event"",""trial"",""time""
""fullscreenenter"",""1"",""1373""
","
","
","""event"",""trial"",""time""
""fullscreenenter"",""1"",""1373""
","
","true","","","","","","","","","","","",""
"casino-keyboard-response","6","20099","0.0-6.0-0.0","250","true","img/card_backs/set1/purple.gif","img/card_backs/set1/red.gif","img/card_backs/set1/yellow.gif","img/card_backs/set1/green.gif","img/card_backs/set2/pink.gif","img/card_backs/set2/gray.gif","img/card_backs/set2/orange.gif","img/card_backs/set2/blue.gif","""event"",""trial"",""time""
""fullscreenenter"",""1"",""1373""
","
","
","""event"",""trial"",""time""
""fullscreenenter"",""1"",""1373""
","
","","2875.319999991916","Welcome to the casino!","71","","instructions","2021-06-01 16:31:25.768","","","","","",""
"casino-keyboard-response","7","29463","0.0-6.0-0.1","250","true","img/card_backs/set1/purple.gif","img/card_backs/set1/red.gif","img/card_backs/set1/yellow.gif","img/card_backs/set1/green.gif","img/card_backs/set2/pink.gif","img/card_backs/set2/gray.gif","img/card_backs/set2/orange.gif","img/card_backs/set2/blue.gif","""event"",""trial"",""time""
""fullscreenenter"",""1"",""1373""
","
","
","""event"",""trial"",""time""
""fullscreenenter"",""1"",""1373""
","
","","9362.039999978151","Today you will be playing a game to earn tokens. </br> At the end of the experiment, you will be paid a bonus based on how many tokens you win. ","69","","instructions","2021-06-01 16:31:35.131","","","","","",""
"casino-keyboard-response","8","36651","0.0-6.0-0.2","250","true","img/card_backs/set1/purple.gif","img/card_backs/set1/red.gif","img/card_backs/set1/yellow.gif","img/card_backs/set1/green.gif","img/card_backs/set2/pink.gif","img/card_backs/set2/gray.gif","img/card_backs/set2/orange.gif","img/card_backs/set2/blue.gif","""event"",""trial"",""time""
""fullscreenenter"",""1"",""1373""
","
","
","""event"",""trial"",""time""
""fullscreenenter"",""1"",""1373""
","
","","7187.615000002552","On every turn, you will be shown four different decks of cards. </br> You need to select a card from one of the four decks.  ","75","","instructions","2021-06-01 16:31:42.319","","","","","",""
"casino-keyboard-response","9","41070","0.0-6.0-0.3","250","true","img/card_backs/set1/purple.gif","img/card_backs/set1/red.gif","img/card_backs/set1/yellow.gif","img/card_backs/set1/green.gif","img/card_backs/set2/pink.gif","img/card_backs/set2/gray.gif","img/card_backs/set2/orange.gif","img/card_backs/set2/blue.gif","""event"",""trial"",""time""
""fullscreenenter"",""1"",""1373""
","
","
","""event"",""trial"",""time""
""fullscreenenter"",""1"",""1373""
","
","","4417.574999999488","On the next screen, you will see what the decks will look like. ","66","","instructions","2021-06-01 16:31:46.738","","","","","",""
"card-selection-trial","10","45075","0.0-7.0-0.0","250","true","img/card_backs/set1/purple.gif","img/card_backs/set1/red.gif","img/card_backs/set1/yellow.gif","img/card_backs/set1/green.gif","img/card_backs/set2/pink.gif","img/card_backs/set2/gray.gif","img/card_backs/set2/orange.gif","img/card_backs/set2/blue.gif","""event"",""trial"",""time""
""fullscreenenter"",""1"",""1373""
","
","
","""event"",""trial"",""time""
""fullscreenenter"",""1"",""1373""
","
","","null","","","","practice","2021-06-01 16:31:50.743","null","null","null","0","",""
"casino-keyboard-response","11","52567","0.0-8.0-0.0","250","true","img/card_backs/set1/purple.gif","img/card_backs/set1/red.gif","img/card_backs/set1/yellow.gif","img/card_backs/set1/green.gif","img/card_backs/set2/pink.gif","img/card_backs/set2/gray.gif","img/card_backs/set2/orange.gif","img/card_backs/set2/blue.gif","""event"",""trial"",""time""
""fullscreenenter"",""1"",""1373""
","
","
","""event"",""trial"",""time""
""fullscreenenter"",""1"",""1373""
","
","","7490.709999983665","You should pick a card from a deck using the '2', '4', '6', and '8' keys at the top of the keyboard.","85","","instructions","2021-06-01 16:31:58.235","","","","","",""
"casino-keyboard-response","12","57957","0.0-8.0-0.1","250","true","img/card_backs/set1/purple.gif","img/card_backs/set1/red.gif","img/card_backs/set1/yellow.gif","img/card_backs/set1/green.gif","img/card_backs/set2/pink.gif","img/card_backs/set2/gray.gif","img/card_backs/set2/orange.gif","img/card_backs/set2/blue.gif","""event"",""trial"",""time""
""fullscreenenter"",""1"",""1373""
","
","
","""event"",""trial"",""time""
""fullscreenenter"",""1"",""1373""
","
","","5389.324999996461","Once you select a card, it will turn over and you will see how many tokens you earned.","83","","instructions","2021-06-01 16:32:03.625","","","","","",""
"casino-keyboard-response","13","72693","0.0-8.0-0.2","250","true","img/card_backs/set1/purple.gif","img/card_backs/set1/red.gif","img/card_backs/set1/yellow.gif","img/card_backs/set1/green.gif","img/card_backs/set2/pink.gif","img/card_backs/set2/gray.gif","img/card_backs/set2/orange.gif","img/card_backs/set2/blue.gif","""event"",""trial"",""time""
""fullscreenenter"",""1"",""1373""
","
","
","""event"",""trial"",""time""
""fullscreenenter"",""1"",""1373""
","
","","14735.11999999755","Let's try practicing that! </br> First, try to put your fingers over the '2', '4', '6', and '8' keys. </br>  You can use whatever fingers are most comfortable for you. Try to find a comfortable position now. ","50","","instructions","2021-06-01 16:32:18.361","","","","","",""
"casino-keyboard-response","14","78384","0.0-8.0-0.3","250","true","img/card_backs/set1/purple.gif","img/card_backs/set1/red.gif","img/card_backs/set1/yellow.gif","img/card_backs/set1/green.gif","img/card_backs/set2/pink.gif","img/card_backs/set2/gray.gif","img/card_backs/set2/orange.gif","img/card_backs/set2/blue.gif","""event"",""trial"",""time""
""fullscreenenter"",""1"",""1373""
","
","
","""event"",""trial"",""time""
""fullscreenenter"",""1"",""1373""
","
","","5690.024999988964","Okay ready? </br> On the next screen, press '2' to select the left deck. ","50","","instructions","2021-06-01 16:32:24.052","","","","","",""
"card-selection-trial","15","81197","0.0-9.0-0.0","250","true","img/card_backs/set1/purple.gif","img/card_backs/set1/red.gif","img/card_backs/set1/yellow.gif","img/card_backs/set1/green.gif","img/card_backs/set2/pink.gif","img/card_backs/set2/gray.gif","img/card_backs/set2/orange.gif","img/card_backs/set2/blue.gif","""event"",""trial"",""time""
""fullscreenenter"",""1"",""1373""
","
","
","""event"",""trial"",""time""
""fullscreenenter"",""1"",""1373""
","
","","802.5799999886658","","","","practice_card_selection","2021-06-01 16:32:26.865","img/practice_cards/backs/brown.gif","0","100","","",""
"casino-keyboard-response","16","86622","0.0-10.0-0.0","250","true","img/card_backs/set1/purple.gif","img/card_backs/set1/red.gif","img/card_backs/set1/yellow.gif","img/card_backs/set1/green.gif","img/card_backs/set2/pink.gif","img/card_backs/set2/gray.gif","img/card_backs/set2/orange.gif","img/card_backs/set2/blue.gif","""event"",""trial"",""time""
""fullscreenenter"",""1"",""1373""
","
","
","""event"",""trial"",""time""
""fullscreenenter"",""1"",""1373""
","
","","5424.254999990808","Great! Now on the next screen, try pressing '6' to select the third deck.","54","","instructions","2021-06-01 16:32:32.290","","","","","",""
"card-selection-trial","17","89925","0.0-11.0-0.0","250","true","img/card_backs/set1/purple.gif","img/card_backs/set1/red.gif","img/card_backs/set1/yellow.gif","img/card_backs/set1/green.gif","img/card_backs/set2/pink.gif","img/card_backs/set2/gray.gif","img/card_backs/set2/orange.gif","img/card_backs/set2/blue.gif","""event"",""trial"",""time""
""fullscreenenter"",""1"",""1373""
","
","
","""event"",""trial"",""time""
""fullscreenenter"",""1"",""1373""
","
","","1299.7150000010151","","","","practice_card_selection","2021-06-01 16:32:35.593","img/practice_cards/backs/dark_green.gif","2","-200","","",""
"casino-keyboard-response","18","94266","0.0-12.0-0.0","250","true","img/card_backs/set1/purple.gif","img/card_backs/set1/red.gif","img/card_backs/set1/yellow.gif","img/card_backs/set1/green.gif","img/card_backs/set2/pink.gif","img/card_backs/set2/gray.gif","img/card_backs/set2/orange.gif","img/card_backs/set2/blue.gif","""event"",""trial"",""time""
""fullscreenenter"",""1"",""1373""
","
","
","""event"",""trial"",""time""
""fullscreenenter"",""1"",""1373""
","
","","4340.360000001965","Now on the next screen, try pressing '4' to select the second deck.","52","","instructions","2021-06-01 16:32:39.934","","","","","",""
"card-selection-trial","19","98464","0.0-13.0-0.0","250","true","img/card_backs/set1/purple.gif","img/card_backs/set1/red.gif","img/card_backs/set1/yellow.gif","img/card_backs/set1/green.gif","img/card_backs/set2/pink.gif","img/card_backs/set2/gray.gif","img/card_backs/set2/orange.gif","img/card_backs/set2/blue.gif","""event"",""trial"",""time""
""fullscreenenter"",""1"",""1373""
","
","
","""event"",""trial"",""time""
""fullscreenenter"",""1"",""1373""
","
","","2193.4349999937695","","","","practice_card_selection","2021-06-01 16:32:44.132","img/practice_cards/backs/black.gif","1","100","","",""
"casino-keyboard-response","20","102007","0.0-14.0-0.0","250","true","img/card_backs/set1/purple.gif","img/card_backs/set1/red.gif","img/card_backs/set1/yellow.gif","img/card_backs/set1/green.gif","img/card_backs/set2/pink.gif","img/card_backs/set2/gray.gif","img/card_backs/set2/orange.gif","img/card_backs/set2/blue.gif","""event"",""trial"",""time""
""fullscreenenter"",""1"",""1373""
","
","
","""event"",""trial"",""time""
""fullscreenenter"",""1"",""1373""
","
","","3541.8550000176765","Finally, try pressing '8' to select the deck all the way on the right.","56","","instructions","2021-06-01 16:32:47.675","","","","","",""
"card-selection-trial","21","104205","0.0-15.0-0.0","250","true","img/card_backs/set1/purple.gif","img/card_backs/set1/red.gif","img/card_backs/set1/yellow.gif","img/card_backs/set1/green.gif","img/card_backs/set2/pink.gif","img/card_backs/set2/gray.gif","img/card_backs/set2/orange.gif","img/card_backs/set2/blue.gif","""event"",""trial"",""time""
""fullscreenenter"",""1"",""1373""
","
","
","""event"",""trial"",""time""
""fullscreenenter"",""1"",""1373""
","
","","194.8349999729544","","","","practice_card_selection","2021-06-01 16:32:49.873","img/practice_cards/backs/dark_blue.gif","3","200","","",""
"casino-keyboard-response","22","107727","0.0-16.0-0.0","250","true","img/card_backs/set1/purple.gif","img/card_backs/set1/red.gif","img/card_backs/set1/yellow.gif","img/card_backs/set1/green.gif","img/card_backs/set2/pink.gif","img/card_backs/set2/gray.gif","img/card_backs/set2/orange.gif","img/card_backs/set2/blue.gif","""event"",""trial"",""time""
""fullscreenenter"",""1"",""1373""
","
","
","""event"",""trial"",""time""
""fullscreenenter"",""1"",""1373""
","
","","3520.844999991823","Great! It seems like you are getting the hang of this.","80","","instructions","2021-06-01 16:32:53.395","","","","","",""
"casino-keyboard-response","23","114952","0.0-16.0-0.1","250","true","img/card_backs/set1/purple.gif","img/card_backs/set1/red.gif","img/card_backs/set1/yellow.gif","img/card_backs/set1/green.gif","img/card_backs/set2/pink.gif","img/card_backs/set2/gray.gif","img/card_backs/set2/orange.gif","img/card_backs/set2/blue.gif","""event"",""trial"",""time""
""fullscreenenter"",""1"",""1373""
","
","
","""event"",""trial"",""time""
""fullscreenenter"",""1"",""1373""
","
","","7223.579999990761","You may have noticed that some cards will cause you to <b> win </b> tokens while other cards will cause you to <b> lose </b>  tokens.","70","","instructions","2021-06-01 16:33:00.620","","","","","",""
"casino-keyboard-response","24","123362","0.0-16.0-0.2","250","true","img/card_backs/set1/purple.gif","img/card_backs/set1/red.gif","img/card_backs/set1/yellow.gif","img/card_backs/set1/green.gif","img/card_backs/set2/pink.gif","img/card_backs/set2/gray.gif","img/card_backs/set2/orange.gif","img/card_backs/set2/blue.gif","""event"",""trial"",""time""
""fullscreenenter"",""1"",""1373""
","
","
","""event"",""trial"",""time""
""fullscreenenter"",""1"",""1373""
","
","","8409.609999973327","Each deck has a mix of cards that will cause you to win and lose tokens. </br> However, the cards in each colored deck are different.","73","","instructions","2021-06-01 16:33:09.030","","","","","",""
"casino-keyboard-response","25","131379","0.0-16.0-0.3","250","true","img/card_backs/set1/purple.gif","img/card_backs/set1/red.gif","img/card_backs/set1/yellow.gif","img/card_backs/set1/green.gif","img/card_backs/set2/pink.gif","img/card_backs/set2/gray.gif","img/card_backs/set2/orange.gif","img/card_backs/set2/blue.gif","""event"",""trial"",""time""
""fullscreenenter"",""1"",""1373""
","
","
","""event"",""trial"",""time""
""fullscreenenter"",""1"",""1373""
","
","","8015.0850000209175","Some colored decks are luckier than others. </br> If you choose the lucky decks, you will earn more tokens than if you choose the unlucky decks.","69","","instructions","2021-06-01 16:33:17.047","","","","","",""
"casino-keyboard-response","26","138487","0.0-16.0-0.4","250","true","img/card_backs/set1/purple.gif","img/card_backs/set1/red.gif","img/card_backs/set1/yellow.gif","img/card_backs/set1/green.gif","img/card_backs/set2/pink.gif","img/card_backs/set2/gray.gif","img/card_backs/set2/orange.gif","img/card_backs/set2/blue.gif","""event"",""trial"",""time""
""fullscreenenter"",""1"",""1373""
","
","
","""event"",""trial"",""time""
""fullscreenenter"",""1"",""1373""
","
","","7107.790000009118","You should try to figure out which decks are lucky. </br> Then, try to choose the lucky decks so you can win the most tokens.","87","","instructions","2021-06-01 16:33:24.155","","","","","",""
"casino-keyboard-response","27","149596","0.0-16.0-0.5","250","true","img/card_backs/set1/purple.gif","img/card_backs/set1/red.gif","img/card_backs/set1/yellow.gif","img/card_backs/set1/green.gif","img/card_backs/set2/pink.gif","img/card_backs/set2/gray.gif","img/card_backs/set2/orange.gif","img/card_backs/set2/blue.gif","""event"",""trial"",""time""
""fullscreenenter"",""1"",""1373""
","
","
","""event"",""trial"",""time""
""fullscreenenter"",""1"",""1373""
","
","","11107.394999999087","To make it trickier, the casino dealer will switch the locations of the decks on every turn. </br> The color of the deck determines how lucky it is. The location does not matter.","88","","instructions","2021-06-01 16:33:35.264","","","","","",""
"casino-keyboard-response","28","158875","0.0-16.0-0.6","250","true","img/card_backs/set1/purple.gif","img/card_backs/set1/red.gif","img/card_backs/set1/yellow.gif","img/card_backs/set1/green.gif","img/card_backs/set2/pink.gif","img/card_backs/set2/gray.gif","img/card_backs/set2/orange.gif","img/card_backs/set2/blue.gif","""event"",""trial"",""time""
""fullscreenenter"",""1"",""1373""
","
","
","""event"",""trial"",""time""
""fullscreenenter"",""1"",""1373""
","
","","9277.549999998882","The mix of cards in each colored deck will stay the same throughout the game. </br> That means that a deck that is lucky early on will stay lucky.","79","","instructions","2021-06-01 16:33:44.543","","","","","",""
"casino-keyboard-response","29","166705","0.0-16.0-0.7","250","true","img/card_backs/set1/purple.gif","img/card_backs/set1/red.gif","img/card_backs/set1/yellow.gif","img/card_backs/set1/green.gif","img/card_backs/set2/pink.gif","img/card_backs/set2/gray.gif","img/card_backs/set2/orange.gif","img/card_backs/set2/blue.gif","""event"",""trial"",""time""
""fullscreenenter"",""1"",""1373""
","
","
","""event"",""trial"",""time""
""fullscreenenter"",""1"",""1373""
","
","","7829.295000003185","Remember though, all the decks have a <b> mix </b> of both <b> good </b> and <b> bad </b> cards so it may take a couple of turns to figure out if a deck is lucky.","69","","instructions","2021-06-01 16:33:52.373","","","","","",""
"casino-keyboard-response","30","174603","0.0-16.0-0.8","250","true","img/card_backs/set1/purple.gif","img/card_backs/set1/red.gif","img/card_backs/set1/yellow.gif","img/card_backs/set1/green.gif","img/card_backs/set2/pink.gif","img/card_backs/set2/gray.gif","img/card_backs/set2/orange.gif","img/card_backs/set2/blue.gif","""event"",""trial"",""time""
""fullscreenenter"",""1"",""1373""
","
","
","""event"",""trial"",""time""
""fullscreenenter"",""1"",""1373""
","
","","7896.575000020675","At the end of the game, you will be paid bonus money based on how many tokens you win. </br> If you win more tokens, you will earn more money!","72","","instructions","2021-06-01 16:34:00.271","","","","","",""
"casino-keyboard-response","31","184490","0.0-16.0-0.9","250","true","img/card_backs/set1/purple.gif","img/card_backs/set1/red.gif","img/card_backs/set1/yellow.gif","img/card_backs/set1/green.gif","img/card_backs/set2/pink.gif","img/card_backs/set2/gray.gif","img/card_backs/set2/orange.gif","img/card_backs/set2/blue.gif","""event"",""trial"",""time""
""fullscreenenter"",""1"",""1373""
","
","
","""event"",""trial"",""time""
""fullscreenenter"",""1"",""1373""
","
","","9886.379999981727","You will never <b> lose </b> money. </br> If you end up with fewer than 0 tokens, you will earn $0 of bonus money, but you will still be paid for playing the game.","83","","instructions","2021-06-01 16:34:10.158","","","","","",""
"casino-keyboard-response","32","188561","0.0-16.0-0.10","250","true","img/card_backs/set1/purple.gif","img/card_backs/set1/red.gif","img/card_backs/set1/yellow.gif","img/card_backs/set1/green.gif","img/card_backs/set2/pink.gif","img/card_backs/set2/gray.gif","img/card_backs/set2/orange.gif","img/card_backs/set2/blue.gif","""event"",""trial"",""time""
""fullscreenenter"",""1"",""1373""
","
","
","""event"",""trial"",""time""
""fullscreenenter"",""1"",""1373""
","
","","4069.27999999607","You will have 10 seconds to make each choice.","82","","instructions","2021-06-01 16:34:14.229","","","","","",""
"casino-keyboard-response","33","197816","0.0-16.0-0.11","250","true","img/card_backs/set1/purple.gif","img/card_backs/set1/red.gif","img/card_backs/set1/yellow.gif","img/card_backs/set1/green.gif","img/card_backs/set2/pink.gif","img/card_backs/set2/gray.gif","img/card_backs/set2/orange.gif","img/card_backs/set2/blue.gif","""event"",""trial"",""time""
""fullscreenenter"",""1"",""1373""
","
","
","""event"",""trial"",""time""
""fullscreenenter"",""1"",""1373""
","
","","9252.83500002115","Before you play the game for real, you will play with practice decks. </br> The tokens you earn during practice won't count toward your total.","86","","instructions","2021-06-01 16:34:23.484","","","","","",""
"casino-keyboard-response","34","199835","0.0-16.0-0.12","250","true","img/card_backs/set1/purple.gif","img/card_backs/set1/red.gif","img/card_backs/set1/yellow.gif","img/card_backs/set1/green.gif","img/card_backs/set2/pink.gif","img/card_backs/set2/gray.gif","img/card_backs/set2/orange.gif","img/card_backs/set2/blue.gif","""event"",""trial"",""time""
""fullscreenenter"",""1"",""1373""
","
","
","""event"",""trial"",""time""
""fullscreenenter"",""1"",""1373""
","
","","2018.1650000158697","Ready? Remember, use the '2', '4', '6', and '8' keys to select the decks. </br> Put your fingers on those keys now and then press '2' to begin.","50","","instructions","2021-06-01 16:34:25.503","","","","","",""
"casino-fixation","35","200337","0.0-17.0-0.0","250","true","img/card_backs/set1/purple.gif","img/card_backs/set1/red.gif","img/card_backs/set1/yellow.gif","img/card_backs/set1/green.gif","img/card_backs/set2/pink.gif","img/card_backs/set2/gray.gif","img/card_backs/set2/orange.gif","img/card_backs/set2/blue.gif","""event"",""trial"",""time""
""fullscreenenter"",""1"",""1373""
","
","
","""event"",""trial"",""time""
""fullscreenenter"",""1"",""1373""
","
","","null","","null","","fixation","2021-06-01 16:34:26.005","","","","","",""
"card-selection-trial","36","203094","0.0-17.0-1.0","250","true","img/card_backs/set1/purple.gif","img/card_backs/set1/red.gif","img/card_backs/set1/yellow.gif","img/card_backs/set1/green.gif","img/card_backs/set2/pink.gif","img/card_backs/set2/gray.gif","img/card_backs/set2/orange.gif","img/card_backs/set2/blue.gif","""event"",""trial"",""time""
""fullscreenenter"",""1"",""1373""
","
","
","""event"",""trial"",""time""
""fullscreenenter"",""1"",""1373""
","
","","754.2300000204705","","","","practice","2021-06-01 16:34:28.763","img/practice_cards/backs/black.gif","0","-100","0","",""
"casino-fixation","37","203596","0.0-17.0-0.1","250","true","img/card_backs/set1/purple.gif","img/card_backs/set1/red.gif","img/card_backs/set1/yellow.gif","img/card_backs/set1/green.gif","img/card_backs/set2/pink.gif","img/card_backs/set2/gray.gif","img/card_backs/set2/orange.gif","img/card_backs/set2/blue.gif","""event"",""trial"",""time""
""fullscreenenter"",""1"",""1373""
","
","
","""event"",""trial"",""time""
""fullscreenenter"",""1"",""1373""
","
","","null","","null","","fixation","2021-06-01 16:34:29.264","","","","","",""
"card-selection-trial","38","206884","0.0-17.0-1.1","250","true","img/card_backs/set1/purple.gif","img/card_backs/set1/red.gif","img/card_backs/set1/yellow.gif","img/card_backs/set1/green.gif","img/card_backs/set2/pink.gif","img/card_backs/set2/gray.gif","img/card_backs/set2/orange.gif","img/card_backs/set2/blue.gif","""event"",""trial"",""time""
""fullscreenenter"",""1"",""1373""
","
","
","""event"",""trial"",""time""
""fullscreenenter"",""1"",""1373""
","
","","1282.9950000159442","","","","practice","2021-06-01 16:34:32.552","img/practice_cards/backs/dark_blue.gif","1","-200","0","",""
"casino-fixation","39","207386","0.0-17.0-0.2","250","true","img/card_backs/set1/purple.gif","img/card_backs/set1/red.gif","img/card_backs/set1/yellow.gif","img/card_backs/set1/green.gif","img/card_backs/set2/pink.gif","img/card_backs/set2/gray.gif","img/card_backs/set2/orange.gif","img/card_backs/set2/blue.gif","""event"",""trial"",""time""
""fullscreenenter"",""1"",""1373""
","
","
","""event"",""trial"",""time""
""fullscreenenter"",""1"",""1373""
","
","","null","","null","","fixation","2021-06-01 16:34:33.054","","","","","",""
"card-selection-trial","40","209799","0.0-17.0-1.2","250","true","img/card_backs/set1/purple.gif","img/card_backs/set1/red.gif","img/card_backs/set1/yellow.gif","img/card_backs/set1/green.gif","img/card_backs/set2/pink.gif","img/card_backs/set2/gray.gif","img/card_backs/set2/orange.gif","img/card_backs/set2/blue.gif","""event"",""trial"",""time""
""fullscreenenter"",""1"",""1373""
","
","
","""event"",""trial"",""time""
""fullscreenenter"",""1"",""1373""
","
","","407.0650000066962","","","","practice","2021-06-01 16:34:35.467","img/practice_cards/backs/brown.gif","2","100","0","",""
"casino-fixation","41","210304","0.0-17.0-0.3","250","true","img/card_backs/set1/purple.gif","img/card_backs/set1/red.gif","img/card_backs/set1/yellow.gif","img/card_backs/set1/green.gif","img/card_backs/set2/pink.gif","img/card_backs/set2/gray.gif","img/card_backs/set2/orange.gif","img/card_backs/set2/blue.gif","""event"",""trial"",""time""
""fullscreenenter"",""1"",""1373""
","
","
","""event"",""trial"",""time""
""fullscreenenter"",""1"",""1373""
","
","","null","","null","","fixation","2021-06-01 16:34:35.972","","","","","",""
"card-selection-trial","42","212581","0.0-17.0-1.3","250","true","img/card_backs/set1/purple.gif","img/card_backs/set1/red.gif","img/card_backs/set1/yellow.gif","img/card_backs/set1/green.gif","img/card_backs/set2/pink.gif","img/card_backs/set2/gray.gif","img/card_backs/set2/orange.gif","img/card_backs/set2/blue.gif","""event"",""trial"",""time""
""fullscreenenter"",""1"",""1373""
","
","
","""event"",""trial"",""time""
""fullscreenenter"",""1"",""1373""
","
","","272.739999985788","","","","practice","2021-06-01 16:34:38.249","img/practice_cards/backs/dark_green.gif","3","-200","0","",""
"casino-fixation","43","213082","0.0-17.0-0.4","250","true","img/card_backs/set1/purple.gif","img/card_backs/set1/red.gif","img/card_backs/set1/yellow.gif","img/card_backs/set1/green.gif","img/card_backs/set2/pink.gif","img/card_backs/set2/gray.gif","img/card_backs/set2/orange.gif","img/card_backs/set2/blue.gif","""event"",""trial"",""time""
""fullscreenenter"",""1"",""1373""
","
","
","""event"",""trial"",""time""
""fullscreenenter"",""1"",""1373""
","
","","null","","null","","fixation","2021-06-01 16:34:38.750","","","","","",""
"card-selection-trial","44","215398","0.0-17.0-1.4","250","true","img/card_backs/set1/purple.gif","img/card_backs/set1/red.gif","img/card_backs/set1/yellow.gif","img/card_backs/set1/green.gif","img/card_backs/set2/pink.gif","img/card_backs/set2/gray.gif","img/card_backs/set2/orange.gif","img/card_backs/set2/blue.gif","""event"",""trial"",""time""
""fullscreenenter"",""1"",""1373""
","
","
","""event"",""trial"",""time""
""fullscreenenter"",""1"",""1373""
","
","","311.69500001124106","","","","practice","2021-06-01 16:34:41.066","img/practice_cards/backs/black.gif","3","100","0","",""
"casino-fixation","45","215899","0.0-17.0-0.5","250","true","img/card_backs/set1/purple.gif","img/card_backs/set1/red.gif","img/card_backs/set1/yellow.gif","img/card_backs/set1/green.gif","img/card_backs/set2/pink.gif","img/card_backs/set2/gray.gif","img/card_backs/set2/orange.gif","img/card_backs/set2/blue.gif","""event"",""trial"",""time""
""fullscreenenter"",""1"",""1373""
","
","
","""event"",""trial"",""time""
""fullscreenenter"",""1"",""1373""
","
","","null","","null","","fixation","2021-06-01 16:34:41.567","","","","","",""
"card-selection-trial","46","218188","0.0-17.0-1.5","250","true","img/card_backs/set1/purple.gif","img/card_backs/set1/red.gif","img/card_backs/set1/yellow.gif","img/card_backs/set1/green.gif","img/card_backs/set2/pink.gif","img/card_backs/set2/gray.gif","img/card_backs/set2/orange.gif","img/card_backs/set2/blue.gif","""event"",""trial"",""time""
""fullscreenenter"",""1"",""1373""
","
","
","""event"",""trial"",""time""
""fullscreenenter"",""1"",""1373""
","
","","284.029999980703","","","","practice","2021-06-01 16:34:43.856","img/practice_cards/backs/dark_blue.gif","3","200","0","",""
"casino-fixation","47","218693","0.0-17.0-0.6","250","true","img/card_backs/set1/purple.gif","img/card_backs/set1/red.gif","img/card_backs/set1/yellow.gif","img/card_backs/set1/green.gif","img/card_backs/set2/pink.gif","img/card_backs/set2/gray.gif","img/card_backs/set2/orange.gif","img/card_backs/set2/blue.gif","""event"",""trial"",""time""
""fullscreenenter"",""1"",""1373""
","
","
","""event"",""trial"",""time""
""fullscreenenter"",""1"",""1373""
","
","","null","","null","","fixation","2021-06-01 16:34:44.361","","","","","",""
"card-selection-trial","48","221055","0.0-17.0-1.6","250","true","img/card_backs/set1/purple.gif","img/card_backs/set1/red.gif","img/card_backs/set1/yellow.gif","img/card_backs/set1/green.gif","img/card_backs/set2/pink.gif","img/card_backs/set2/gray.gif","img/card_backs/set2/orange.gif","img/card_backs/set2/blue.gif","""event"",""trial"",""time""
""fullscreenenter"",""1"",""1373""
","
","
","""event"",""trial"",""time""
""fullscreenenter"",""1"",""1373""
","
","","356.9900000002235","","","","practice","2021-06-01 16:34:46.723","img/practice_cards/backs/brown.gif","3","-100","0","",""
"casino-fixation","49","221557","0.0-17.0-0.7","250","true","img/card_backs/set1/purple.gif","img/card_backs/set1/red.gif","img/card_backs/set1/yellow.gif","img/card_backs/set1/green.gif","img/card_backs/set2/pink.gif","img/card_backs/set2/gray.gif","img/card_backs/set2/orange.gif","img/card_backs/set2/blue.gif","""event"",""trial"",""time""
""fullscreenenter"",""1"",""1373""
","
","
","""event"",""trial"",""time""
""fullscreenenter"",""1"",""1373""
","
","","null","","null","","fixation","2021-06-01 16:34:47.225","","","","","",""
"card-selection-trial","50","223950","0.0-17.0-1.7","250","true","img/card_backs/set1/purple.gif","img/card_backs/set1/red.gif","img/card_backs/set1/yellow.gif","img/card_backs/set1/green.gif","img/card_backs/set2/pink.gif","img/card_backs/set2/gray.gif","img/card_backs/set2/orange.gif","img/card_backs/set2/blue.gif","""event"",""trial"",""time""
""fullscreenenter"",""1"",""1373""
","
","
","""event"",""trial"",""time""
""fullscreenenter"",""1"",""1373""
","
","","389.8899999912828","","","","practice","2021-06-01 16:34:49.618","img/practice_cards/backs/brown.gif","3","100","0","",""
"casino-fixation","51","224451","0.0-17.0-0.8","250","true","img/card_backs/set1/purple.gif","img/card_backs/set1/red.gif","img/card_backs/set1/yellow.gif","img/card_backs/set1/green.gif","img/card_backs/set2/pink.gif","img/card_backs/set2/gray.gif","img/card_backs/set2/orange.gif","img/card_backs/set2/blue.gif","""event"",""trial"",""time""
""fullscreenenter"",""1"",""1373""
","
","
","""event"",""trial"",""time""
""fullscreenenter"",""1"",""1373""
","
","","null","","null","","fixation","2021-06-01 16:34:50.119","","","","","",""
"card-selection-trial","52","226698","0.0-17.0-1.8","250","true","img/card_backs/set1/purple.gif","img/card_backs/set1/red.gif","img/card_backs/set1/yellow.gif","img/card_backs/set1/green.gif","img/card_backs/set2/pink.gif","img/card_backs/set2/gray.gif","img/card_backs/set2/orange.gif","img/card_backs/set2/blue.gif","""event"",""trial"",""time""
""fullscreenenter"",""1"",""1373""
","
","
","""event"",""trial"",""time""
""fullscreenenter"",""1"",""1373""
","
","","241.05499999132007","","","","practice","2021-06-01 16:34:52.366","img/practice_cards/backs/brown.gif","3","-100","0","",""
"casino-fixation","53","227200","0.0-17.0-0.9","250","true","img/card_backs/set1/purple.gif","img/card_backs/set1/red.gif","img/card_backs/set1/yellow.gif","img/card_backs/set1/green.gif","img/card_backs/set2/pink.gif","img/card_backs/set2/gray.gif","img/card_backs/set2/orange.gif","img/card_backs/set2/blue.gif","""event"",""trial"",""time""
""fullscreenenter"",""1"",""1373""
","
","
","""event"",""trial"",""time""
""fullscreenenter"",""1"",""1373""
","
","","null","","null","","fixation","2021-06-01 16:34:52.868","","","","","",""
"card-selection-trial","54","229380","0.0-17.0-1.9","250","true","img/card_backs/set1/purple.gif","img/card_backs/set1/red.gif","img/card_backs/set1/yellow.gif","img/card_backs/set1/green.gif","img/card_backs/set2/pink.gif","img/card_backs/set2/gray.gif","img/card_backs/set2/orange.gif","img/card_backs/set2/blue.gif","""event"",""trial"",""time""
""fullscreenenter"",""1"",""1373""
","
","
","""event"",""trial"",""time""
""fullscreenenter"",""1"",""1373""
","
","","172.5399999995716","","","","practice","2021-06-01 16:34:55.048","img/practice_cards/backs/dark_green.gif","3","-200","0","",""
"casino-keyboard-response","55","232641","0.0-18.0","250","true","img/card_backs/set1/purple.gif","img/card_backs/set1/red.gif","img/card_backs/set1/yellow.gif","img/card_backs/set1/green.gif","img/card_backs/set2/pink.gif","img/card_backs/set2/gray.gif","img/card_backs/set2/orange.gif","img/card_backs/set2/blue.gif","""event"",""trial"",""time""
""fullscreenenter"",""1"",""1373""
","
","
","""event"",""trial"",""time""
""fullscreenenter"",""1"",""1373""
","
","","3260.039999993751","You earned -400 tokens during the practice round!","82","","","2021-06-01 16:34:58.309","","","","","",""
"casino-keyboard-response","56","236752","0.0-19.0-0.0","250","true","img/card_backs/set1/purple.gif","img/card_backs/set1/red.gif","img/card_backs/set1/yellow.gif","img/card_backs/set1/green.gif","img/card_backs/set2/pink.gif","img/card_backs/set2/gray.gif","img/card_backs/set2/orange.gif","img/card_backs/set2/blue.gif","""event"",""trial"",""time""
""fullscreenenter"",""1"",""1373""
","
","
","""event"",""trial"",""time""
""fullscreenenter"",""1"",""1373""
","
","","4110.049999988405","Nice job! You are almost ready to play the real game.","86","","instructions","2021-06-01 16:35:02.420","","","","","",""
"casino-keyboard-response","57","245366","0.0-19.0-0.1","250","true","img/card_backs/set1/purple.gif","img/card_backs/set1/red.gif","img/card_backs/set1/yellow.gif","img/card_backs/set1/green.gif","img/card_backs/set2/pink.gif","img/card_backs/set2/gray.gif","img/card_backs/set2/orange.gif","img/card_backs/set2/blue.gif","""event"",""trial"",""time""
""fullscreenenter"",""1"",""1373""
","
","
","""event"",""trial"",""time""
""fullscreenenter"",""1"",""1373""
","
","","8612.73500000243","You will play two rounds of the real game. In each round, you will pick 100 cards in total.","73","","instructions","2021-06-01 16:35:11.034","","","","","",""
"casino-keyboard-response","58","249557","0.0-19.0-0.2","250","true","img/card_backs/set1/purple.gif","img/card_backs/set1/red.gif","img/card_backs/set1/yellow.gif","img/card_backs/set1/green.gif","img/card_backs/set2/pink.gif","img/card_backs/set2/gray.gif","img/card_backs/set2/orange.gif","img/card_backs/set2/blue.gif","""event"",""trial"",""time""
""fullscreenenter"",""1"",""1373""
","
","
","""event"",""trial"",""time""
""fullscreenenter"",""1"",""1373""
","
","","4189.8849999997765","We are now going to ask you some questions about how the game works.","66","","instructions","2021-06-01 16:35:15.225","","","","","",""
"casino-keyboard-response","59","255578","0.0-19.0-0.3","250","true","img/card_backs/set1/purple.gif","img/card_backs/set1/red.gif","img/card_backs/set1/yellow.gif","img/card_backs/set1/green.gif","img/card_backs/set2/pink.gif","img/card_backs/set2/gray.gif","img/card_backs/set2/orange.gif","img/card_backs/set2/blue.gif","""event"",""trial"",""time""
""fullscreenenter"",""1"",""1373""
","
","
","""event"",""trial"",""time""
""fullscreenenter"",""1"",""1373""
","
","","6020.445000001928","Answer carefully. You will not be able to begin the game until you answer them correctly.","67","","instructions","2021-06-01 16:35:21.246","","","","","",""
"casino-comp_q","60","261691","0.0-20.0-0.0","250","true","img/card_backs/set1/purple.gif","img/card_backs/set1/red.gif","img/card_backs/set1/yellow.gif","img/card_backs/set1/green.gif","img/card_backs/set2/pink.gif","img/card_backs/set2/gray.gif","img/card_backs/set2/orange.gif","img/card_backs/set2/blue.gif","""event"",""trial"",""time""
""fullscreenenter"",""1"",""1373""
","
","
","""event"",""trial"",""time""
""fullscreenenter"",""1"",""1373""
","
","","6111.934999993537","True or False: All the decks have some cards that cause you to win tokens and some cards that cause you to lose tokens.","84","","","2021-06-01 16:35:27.359","","","","","",""
"casino-keyboard-response","61","268006","0.0-20.0-1.0","250","true","img/card_backs/set1/purple.gif","img/card_backs/set1/red.gif","img/card_backs/set1/yellow.gif","img/card_backs/set1/green.gif","img/card_backs/set2/pink.gif","img/card_backs/set2/gray.gif","img/card_backs/set2/orange.gif","img/card_backs/set2/blue.gif","""event"",""trial"",""time""
""fullscreenenter"",""1"",""1373""
","
","
","""event"",""trial"",""time""
""fullscreenenter"",""1"",""1373""
","
","","6313.44500000705","True is correct! All the decks have a mix of winning and losing cards.","77","","","2021-06-01 16:35:33.674","","","","","true",""
"casino-comp_q","62","271100","0.0-21.0-0.0","250","true","img/card_backs/set1/purple.gif","img/card_backs/set1/red.gif","img/card_backs/set1/yellow.gif","img/card_backs/set1/green.gif","img/card_backs/set2/pink.gif","img/card_backs/set2/gray.gif","img/card_backs/set2/orange.gif","img/card_backs/set2/blue.gif","""event"",""trial"",""time""
""fullscreenenter"",""1"",""1373""
","
","
","""event"",""trial"",""time""
""fullscreenenter"",""1"",""1373""
","
","","3092.4750000122003","True or False: You will have as much time as you want to make your response.","70","","","2021-06-01 16:35:36.768","","","","","",""
"casino-keyboard-response","63","276556","0.0-21.0-1.0","250","true","img/card_backs/set1/purple.gif","img/card_backs/set1/red.gif","img/card_backs/set1/yellow.gif","img/card_backs/set1/green.gif","img/card_backs/set2/pink.gif","img/card_backs/set2/gray.gif","img/card_backs/set2/orange.gif","img/card_backs/set2/blue.gif","""event"",""trial"",""time""
""fullscreenenter"",""1"",""1373""
","
","
","""event"",""trial"",""time""
""fullscreenenter"",""1"",""1373""
","
","","5454.629999992903","False is correct! You will only have 10 seconds to make each choice.","75","","","2021-06-01 16:35:42.224","","","","","true",""
"casino-comp_q","64","281944","0.0-22.0-0.0","250","true","img/card_backs/set1/purple.gif","img/card_backs/set1/red.gif","img/card_backs/set1/yellow.gif","img/card_backs/set1/green.gif","img/card_backs/set2/pink.gif","img/card_backs/set2/gray.gif","img/card_backs/set2/orange.gif","img/card_backs/set2/blue.gif","""event"",""trial"",""time""
""fullscreenenter"",""1"",""1373""
","
","
","""event"",""trial"",""time""
""fullscreenenter"",""1"",""1373""
","
","","5386.605000006966","True or False: The location of the deck determines how lucky it is.","70","","","2021-06-01 16:35:47.612","","","","","",""
"casino-keyboard-response","65","284788","0.0-22.0-1.0","250","true","img/card_backs/set1/purple.gif","img/card_backs/set1/red.gif","img/card_backs/set1/yellow.gif","img/card_backs/set1/green.gif","img/card_backs/set2/pink.gif","img/card_backs/set2/gray.gif","img/card_backs/set2/orange.gif","img/card_backs/set2/blue.gif","""event"",""trial"",""time""
""fullscreenenter"",""1"",""1373""
","
","
","""event"",""trial"",""time""
""fullscreenenter"",""1"",""1373""
","
","","2842.2049999935552","False is correct! The <i>color</i>  of the deck determines how lucky or unlucky it is.","68","","","2021-06-01 16:35:50.456","","","","","true",""
"casino-keyboard-response","66","288933","0.0-23.0-0.0","250","true","img/card_backs/set1/purple.gif","img/card_backs/set1/red.gif","img/card_backs/set1/yellow.gif","img/card_backs/set1/green.gif","img/card_backs/set2/pink.gif","img/card_backs/set2/gray.gif","img/card_backs/set2/orange.gif","img/card_backs/set2/blue.gif","""event"",""trial"",""time""
""fullscreenenter"",""1"",""1373""
","
","
","""event"",""trial"",""time""
""fullscreenenter"",""1"",""1373""
","
","","4143.784999992931","Great job! Now it's time to start the real game.","82","","instructions","2021-06-01 16:35:54.601","","","","","",""
"casino-keyboard-response","67","293685","0.0-23.0-0.1","250","true","img/card_backs/set1/purple.gif","img/card_backs/set1/red.gif","img/card_backs/set1/yellow.gif","img/card_backs/set1/green.gif","img/card_backs/set2/pink.gif","img/card_backs/set2/gray.gif","img/card_backs/set2/orange.gif","img/card_backs/set2/blue.gif","""event"",""trial"",""time""
""fullscreenenter"",""1"",""1373""
","
","
","""event"",""trial"",""time""
""fullscreenenter"",""1"",""1373""
","
","","4751.7900000093505","Before we start, we're going to head into a new room of the casino.","86","","instructions","2021-06-01 16:35:59.353","","","","","",""
"casino-keyboard-response","68","299552","0.0-24.0-0.0","250","true","img/card_backs/set1/purple.gif","img/card_backs/set1/red.gif","img/card_backs/set1/yellow.gif","img/card_backs/set1/green.gif","img/card_backs/set2/pink.gif","img/card_backs/set2/gray.gif","img/card_backs/set2/orange.gif","img/card_backs/set2/blue.gif","""event"",""trial"",""time""
""fullscreenenter"",""1"",""1373""
","
","
","""event"",""trial"",""time""
""fullscreenenter"",""1"",""1373""
","
","","5865.565000014612","Here we are! The real game will use different cards, but the rules will be the same.","71","","instructions","2021-06-01 16:36:05.220","","","","","",""
"casino-keyboard-response","69","302204","0.0-24.0-0.1","250","true","img/card_backs/set1/purple.gif","img/card_backs/set1/red.gif","img/card_backs/set1/yellow.gif","img/card_backs/set1/green.gif","img/card_backs/set2/pink.gif","img/card_backs/set2/gray.gif","img/card_backs/set2/orange.gif","img/card_backs/set2/blue.gif","""event"",""trial"",""time""
""fullscreenenter"",""1"",""1373""
","
","
","""event"",""trial"",""time""
""fullscreenenter"",""1"",""1373""
","
","","2650.869999983115","Ready? Put your fingers over the '2', '4', 6', and '8' keys so you are ready to play the game. </br> Then press 2 to start.","50","","instructions","2021-06-01 16:36:07.872","","","","","",""
"casino-fixation","70","302706","0.0-25.0-0.0","250","true","img/card_backs/set1/purple.gif","img/card_backs/set1/red.gif","img/card_backs/set1/yellow.gif","img/card_backs/set1/green.gif","img/card_backs/set2/pink.gif","img/card_backs/set2/gray.gif","img/card_backs/set2/orange.gif","img/card_backs/set2/blue.gif","""event"",""trial"",""time""
""fullscreenenter"",""1"",""1373""
","
","
","""event"",""trial"",""time""
""fullscreenenter"",""1"",""1373""
","
","","null","","null","","fixation","2021-06-01 16:36:08.374","","","","","",""
"card-selection-trial","71","305885","0.0-25.0-1.0","250","true","img/card_backs/set1/purple.gif","img/card_backs/set1/red.gif","img/card_backs/set1/yellow.gif","img/card_backs/set1/green.gif","img/card_backs/set2/pink.gif","img/card_backs/set2/gray.gif","img/card_backs/set2/orange.gif","img/card_backs/set2/blue.gif","""event"",""trial"",""time""
""fullscreenenter"",""1"",""1373""
","
","
","""event"",""trial"",""time""
""fullscreenenter"",""1"",""1373""
","
","","1173.5500000067987","","","","real_trial","2021-06-01 16:36:11.553","img/card_backs/set1/yellow.gif","0","-110","1","",""
"casino-fixation","72","306387","0.0-25.0-0.1","250","true","img/card_backs/set1/purple.gif","img/card_backs/set1/red.gif","img/card_backs/set1/yellow.gif","img/card_backs/set1/green.gif","img/card_backs/set2/pink.gif","img/card_backs/set2/gray.gif","img/card_backs/set2/orange.gif","img/card_backs/set2/blue.gif","""event"",""trial"",""time""
""fullscreenenter"",""1"",""1373""
","
","
","""event"",""trial"",""time""
""fullscreenenter"",""1"",""1373""
","
","","null","","null","","fixation","2021-06-01 16:36:12.055","","","","","",""
"card-selection-trial","73","308693","0.0-25.0-1.1","250","true","img/card_backs/set1/purple.gif","img/card_backs/set1/red.gif","img/card_backs/set1/yellow.gif","img/card_backs/set1/green.gif","img/card_backs/set2/pink.gif","img/card_backs/set2/gray.gif","img/card_backs/set2/orange.gif","img/card_backs/set2/blue.gif","""event"",""trial"",""time""
""fullscreenenter"",""1"",""1373""
","
","
","""event"",""trial"",""time""
""fullscreenenter"",""1"",""1373""
","
","","300.4400000208989","","","","real_trial","2021-06-01 16:36:14.361","img/card_backs/set1/green.gif","2","40","1","",""
"casino-fixation","74","309199","0.0-25.0-0.2","250","true","img/card_backs/set1/purple.gif","img/card_backs/set1/red.gif","img/card_backs/set1/yellow.gif","img/card_backs/set1/green.gif","img/card_backs/set2/pink.gif","img/card_backs/set2/gray.gif","img/card_backs/set2/orange.gif","img/card_backs/set2/blue.gif","""event"",""trial"",""time""
""fullscreenenter"",""1"",""1373""
","
","
","""event"",""trial"",""time""
""fullscreenenter"",""1"",""1373""
","
","","null","","null","","fixation","2021-06-01 16:36:14.867","","","","","",""
"card-selection-trial","75","312195","0.0-25.0-1.2","250","true","img/card_backs/set1/purple.gif","img/card_backs/set1/red.gif","img/card_backs/set1/yellow.gif","img/card_backs/set1/green.gif","img/card_backs/set2/pink.gif","img/card_backs/set2/gray.gif","img/card_backs/set2/orange.gif","img/card_backs/set2/blue.gif","""event"",""trial"",""time""
""fullscreenenter"",""1"",""1373""
","
","
","""event"",""trial"",""time""
""fullscreenenter"",""1"",""1373""
","
","","991.585000010673","","","","real_trial","2021-06-01 16:36:17.863","img/card_backs/set1/yellow.gif","2","-100","1","",""
"casino-fixation","76","312700","0.0-25.0-0.3","250","true","img/card_backs/set1/purple.gif","img/card_backs/set1/red.gif","img/card_backs/set1/yellow.gif","img/card_backs/set1/green.gif","img/card_backs/set2/pink.gif","img/card_backs/set2/gray.gif","img/card_backs/set2/orange.gif","img/card_backs/set2/blue.gif","""event"",""trial"",""time""
""fullscreenenter"",""1"",""1373""
","
","
","""event"",""trial"",""time""
""fullscreenenter"",""1"",""1373""
","
","","null","","null","","fixation","2021-06-01 16:36:18.368","","","","","",""
"card-selection-trial","77","315301","0.0-25.0-1.3","250","true","img/card_backs/set1/purple.gif","img/card_backs/set1/red.gif","img/card_backs/set1/yellow.gif","img/card_backs/set1/green.gif","img/card_backs/set2/pink.gif","img/card_backs/set2/gray.gif","img/card_backs/set2/orange.gif","img/card_backs/set2/blue.gif","""event"",""trial"",""time""
""fullscreenenter"",""1"",""1373""
","
","
","""event"",""trial"",""time""
""fullscreenenter"",""1"",""1373""
","
","","593.5649999883026","","","","real_trial","2021-06-01 16:36:20.969","img/card_backs/set1/yellow.gif","3","50","1","",""
"casino-fixation","78","315805","0.0-25.0-0.4","250","true","img/card_backs/set1/purple.gif","img/card_backs/set1/red.gif","img/card_backs/set1/yellow.gif","img/card_backs/set1/green.gif","img/card_backs/set2/pink.gif","img/card_backs/set2/gray.gif","img/card_backs/set2/orange.gif","img/card_backs/set2/blue.gif","""event"",""trial"",""time""
""fullscreenenter"",""1"",""1373""
","
","
","""event"",""trial"",""time""
""fullscreenenter"",""1"",""1373""
","
","","null","","null","","fixation","2021-06-01 16:36:21.473","","","","","",""
"card-selection-trial","79","318186","0.0-25.0-1.4","250","true","img/card_backs/set1/purple.gif","img/card_backs/set1/red.gif","img/card_backs/set1/yellow.gif","img/card_backs/set1/green.gif","img/card_backs/set2/pink.gif","img/card_backs/set2/gray.gif","img/card_backs/set2/orange.gif","img/card_backs/set2/blue.gif","""event"",""trial"",""time""
""fullscreenenter"",""1"",""1373""
","
","
","""event"",""trial"",""time""
""fullscreenenter"",""1"",""1373""
","
","","372.25000001490116","","","","real_trial","2021-06-01 16:36:23.854","img/card_backs/set1/red.gif","1","-200","1","",""
"casino-fixation","80","318691","0.0-25.0-0.5","250","true","img/card_backs/set1/purple.gif","img/card_backs/set1/red.gif","img/card_backs/set1/yellow.gif","img/card_backs/set1/green.gif","img/card_backs/set2/pink.gif","img/card_backs/set2/gray.gif","img/card_backs/set2/orange.gif","img/card_backs/set2/blue.gif","""event"",""trial"",""time""
""fullscreenenter"",""1"",""1373""
","
","
","""event"",""trial"",""time""
""fullscreenenter"",""1"",""1373""
","
","","null","","null","","fixation","2021-06-01 16:36:24.359","","","","","",""
"card-selection-trial","81","320937","0.0-25.0-1.5","250","true","img/card_backs/set1/purple.gif","img/card_backs/set1/red.gif","img/card_backs/set1/yellow.gif","img/card_backs/set1/green.gif","img/card_backs/set2/pink.gif","img/card_backs/set2/gray.gif","img/card_backs/set2/orange.gif","img/card_backs/set2/blue.gif","""event"",""trial"",""time""
""fullscreenenter"",""1"",""1373""
","
","
","""event"",""trial"",""time""
""fullscreenenter"",""1"",""1373""
","
","","239.93999999947846","","","","real_trial","2021-06-01 16:36:26.605","img/card_backs/set1/purple.gif","0","260","1","",""
"casino-fixation","82","321442","0.0-25.0-0.6","250","true","img/card_backs/set1/purple.gif","img/card_backs/set1/red.gif","img/card_backs/set1/yellow.gif","img/card_backs/set1/green.gif","img/card_backs/set2/pink.gif","img/card_backs/set2/gray.gif","img/card_backs/set2/orange.gif","img/card_backs/set2/blue.gif","""event"",""trial"",""time""
""fullscreenenter"",""1"",""1373""
","
","
","""event"",""trial"",""time""
""fullscreenenter"",""1"",""1373""
","
","","null","","null","","fixation","2021-06-01 16:36:27.110","","","","","",""
"card-selection-trial","83","323751","0.0-25.0-1.6","250","true","img/card_backs/set1/purple.gif","img/card_backs/set1/red.gif","img/card_backs/set1/yellow.gif","img/card_backs/set1/green.gif","img/card_backs/set2/pink.gif","img/card_backs/set2/gray.gif","img/card_backs/set2/orange.gif","img/card_backs/set2/blue.gif","""event"",""trial"",""time""
""fullscreenenter"",""1"",""1373""
","
","
","""event"",""trial"",""time""
""fullscreenenter"",""1"",""1373""
","
","","302.3950000060722","","","","real_trial","2021-06-01 16:36:29.419","img/card_backs/set1/green.gif","0","-110","1","",""
"casino-fixation","84","324252","0.0-25.0-0.7","250","true","img/card_backs/set1/purple.gif","img/card_backs/set1/red.gif","img/card_backs/set1/yellow.gif","img/card_backs/set1/green.gif","img/card_backs/set2/pink.gif","img/card_backs/set2/gray.gif","img/card_backs/set2/orange.gif","img/card_backs/set2/blue.gif","""event"",""trial"",""time""
""fullscreenenter"",""1"",""1373""
","
","
","""event"",""trial"",""time""
""fullscreenenter"",""1"",""1373""
","
","","null","","null","","fixation","2021-06-01 16:36:29.920","","","","","",""
"card-selection-trial","85","327125","0.0-25.0-1.7","250","true","img/card_backs/set1/purple.gif","img/card_backs/set1/red.gif","img/card_backs/set1/yellow.gif","img/card_backs/set1/green.gif","img/card_backs/set2/pink.gif","img/card_backs/set2/gray.gif","img/card_backs/set2/orange.gif","img/card_backs/set2/blue.gif","""event"",""trial"",""time""
""fullscreenenter"",""1"",""1373""
","
","
","""event"",""trial"",""time""
""fullscreenenter"",""1"",""1373""
","
","","866.5649999747984","","","","real_trial","2021-06-01 16:36:32.793","img/card_backs/set1/purple.gif","1","240","1","",""
"casino-fixation","86","327630","0.0-25.0-0.8","250","true","img/card_backs/set1/purple.gif","img/card_backs/set1/red.gif","img/card_backs/set1/yellow.gif","img/card_backs/set1/green.gif","img/card_backs/set2/pink.gif","img/card_backs/set2/gray.gif","img/card_backs/set2/orange.gif","img/card_backs/set2/blue.gif","""event"",""trial"",""time""
""fullscreenenter"",""1"",""1373""
","
","
","""event"",""trial"",""time""
""fullscreenenter"",""1"",""1373""
","
","","null","","null","","fixation","2021-06-01 16:36:33.298","","","","","",""
"card-selection-trial","87","330817","0.0-25.0-1.8","250","true","img/card_backs/set1/purple.gif","img/card_backs/set1/red.gif","img/card_backs/set1/yellow.gif","img/card_backs/set1/green.gif","img/card_backs/set2/pink.gif","img/card_backs/set2/gray.gif","img/card_backs/set2/orange.gif","img/card_backs/set2/blue.gif","""event"",""trial"",""time""
""fullscreenenter"",""1"",""1373""
","
","
","""event"",""trial"",""time""
""fullscreenenter"",""1"",""1373""
","
","","1182.184999983292","","","","real_trial","2021-06-01 16:36:36.485","img/card_backs/set1/purple.gif","2","250","1","",""
"casino-fixation","88","331318","0.0-25.0-0.9","250","true","img/card_backs/set1/purple.gif","img/card_backs/set1/red.gif","img/card_backs/set1/yellow.gif","img/card_backs/set1/green.gif","img/card_backs/set2/pink.gif","img/card_backs/set2/gray.gif","img/card_backs/set2/orange.gif","img/card_backs/set2/blue.gif","""event"",""trial"",""time""
""fullscreenenter"",""1"",""1373""
","
","
","""event"",""trial"",""time""
""fullscreenenter"",""1"",""1373""
","
","","null","","null","","fixation","2021-06-01 16:36:36.987","","","","","",""
"card-selection-trial","89","334286","0.0-25.0-1.9","250","true","img/card_backs/set1/purple.gif","img/card_backs/set1/red.gif","img/card_backs/set1/yellow.gif","img/card_backs/set1/green.gif","img/card_backs/set2/pink.gif","img/card_backs/set2/gray.gif","img/card_backs/set2/orange.gif","img/card_backs/set2/blue.gif","""event"",""trial"",""time""
""fullscreenenter"",""1"",""1373""
","
","
","""event"",""trial"",""time""
""fullscreenenter"",""1"",""1373""
","
","","960.5950000113808","","","","real_trial","2021-06-01 16:36:39.954","img/card_backs/set1/purple.gif","3","240","1","",""
"casino-fixation","90","334790","0.0-25.0-0.10","250","true","img/card_backs/set1/purple.gif","img/card_backs/set1/red.gif","img/card_backs/set1/yellow.gif","img/card_backs/set1/green.gif","img/card_backs/set2/pink.gif","img/card_backs/set2/gray.gif","img/card_backs/set2/orange.gif","img/card_backs/set2/blue.gif","""event"",""trial"",""time""
""fullscreenenter"",""1"",""1373""
","
","
","""event"",""trial"",""time""
""fullscreenenter"",""1"",""1373""
","
","","null","","null","","fixation","2021-06-01 16:36:40.458","","","","","",""
"card-selection-trial","91","337623","0.0-25.0-1.10","250","true","img/card_backs/set1/purple.gif","img/card_backs/set1/red.gif","img/card_backs/set1/yellow.gif","img/card_backs/set1/green.gif","img/card_backs/set2/pink.gif","img/card_backs/set2/gray.gif","img/card_backs/set2/orange.gif","img/card_backs/set2/blue.gif","""event"",""trial"",""time""
""fullscreenenter"",""1"",""1373""
","
","
","""event"",""trial"",""time""
""fullscreenenter"",""1"",""1373""
","
","","824.2550000140909","","","","real_trial","2021-06-01 16:36:43.291","img/card_backs/set1/purple.gif","3","260","1","",""
"casino-fixation","92","338129","0.0-25.0-0.11","250","true","img/card_backs/set1/purple.gif","img/card_backs/set1/red.gif","img/card_backs/set1/yellow.gif","img/card_backs/set1/green.gif","img/card_backs/set2/pink.gif","img/card_backs/set2/gray.gif","img/card_backs/set2/orange.gif","img/card_backs/set2/blue.gif","""event"",""trial"",""time""
""fullscreenenter"",""1"",""1373""
","
","
","""event"",""trial"",""time""
""fullscreenenter"",""1"",""1373""
","
","","null","","null","","fixation","2021-06-01 16:36:43.797","","","","","",""
"card-selection-trial","93","341461","0.0-25.0-1.11","250","true","img/card_backs/set1/purple.gif","img/card_backs/set1/red.gif","img/card_backs/set1/yellow.gif","img/card_backs/set1/green.gif","img/card_backs/set2/pink.gif","img/card_backs/set2/gray.gif","img/card_backs/set2/orange.gif","img/card_backs/set2/blue.gif","""event"",""trial"",""time""
""fullscreenenter"",""1"",""1373""
","
","
","""event"",""trial"",""time""
""fullscreenenter"",""1"",""1373""
","
","","1328.4700000076555","","","","real_trial","2021-06-01 16:36:47.129","img/card_backs/set1/purple.gif","1","250","1","",""
"casino-fixation","94","341966","0.0-25.0-0.12","250","true","img/card_backs/set1/purple.gif","img/card_backs/set1/red.gif","img/card_backs/set1/yellow.gif","img/card_backs/set1/green.gif","img/card_backs/set2/pink.gif","img/card_backs/set2/gray.gif","img/card_backs/set2/orange.gif","img/card_backs/set2/blue.gif","""event"",""trial"",""time""
""fullscreenenter"",""1"",""1373""
","
","
","""event"",""trial"",""time""
""fullscreenenter"",""1"",""1373""
","
","","null","","null","","fixation","2021-06-01 16:36:47.634","","","","","",""
"card-selection-trial","95","345165","0.0-25.0-1.12","250","true","img/card_backs/set1/purple.gif","img/card_backs/set1/red.gif","img/card_backs/set1/yellow.gif","img/card_backs/set1/green.gif","img/card_backs/set2/pink.gif","img/card_backs/set2/gray.gif","img/card_backs/set2/orange.gif","img/card_backs/set2/blue.gif","""event"",""trial"",""time""
""fullscreenenter"",""1"",""1373""
","
","
","""event"",""trial"",""time""
""fullscreenenter"",""1"",""1373""
","
","","1193.780000001425","","","","real_trial","2021-06-01 16:36:50.833","img/card_backs/set1/purple.gif","1","250","1","",""
"casino-fixation","96","345670","0.0-25.0-0.13","250","true","img/card_backs/set1/purple.gif","img/card_backs/set1/red.gif","img/card_backs/set1/yellow.gif","img/card_backs/set1/green.gif","img/card_backs/set2/pink.gif","img/card_backs/set2/gray.gif","img/card_backs/set2/orange.gif","img/card_backs/set2/blue.gif","""event"",""trial"",""time""
""fullscreenenter"",""1"",""1373""
","
","
","""event"",""trial"",""time""
""fullscreenenter"",""1"",""1373""
","
","","null","","null","","fixation","2021-06-01 16:36:51.338","","","","","",""
"card-selection-trial","97","348201","0.0-25.0-1.13","250","true","img/card_backs/set1/purple.gif","img/card_backs/set1/red.gif","img/card_backs/set1/yellow.gif","img/card_backs/set1/green.gif","img/card_backs/set2/pink.gif","img/card_backs/set2/gray.gif","img/card_backs/set2/orange.gif","img/card_backs/set2/blue.gif","""event"",""trial"",""time""
""fullscreenenter"",""1"",""1373""
","
","
","""event"",""trial"",""time""
""fullscreenenter"",""1"",""1373""
","
","","525.4249999998137","","","","real_trial","2021-06-01 16:36:53.869","img/card_backs/set1/purple.gif","1","-190","1","",""
"casino-fixation","98","348703","0.0-25.0-0.14","250","true","img/card_backs/set1/purple.gif","img/card_backs/set1/red.gif","img/card_backs/set1/yellow.gif","img/card_backs/set1/green.gif","img/card_backs/set2/pink.gif","img/card_backs/set2/gray.gif","img/card_backs/set2/orange.gif","img/card_backs/set2/blue.gif","""event"",""trial"",""time""
""fullscreenenter"",""1"",""1373""
","
","
","""event"",""trial"",""time""
""fullscreenenter"",""1"",""1373""
","
","","null","","null","","fixation","2021-06-01 16:36:54.371","","","","","",""
"card-selection-trial","99","351620","0.0-25.0-1.14","250","true","img/card_backs/set1/purple.gif","img/card_backs/set1/red.gif","img/card_backs/set1/yellow.gif","img/card_backs/set1/green.gif","img/card_backs/set2/pink.gif","img/card_backs/set2/gray.gif","img/card_backs/set2/orange.gif","img/card_backs/set2/blue.gif","""event"",""trial"",""time""
""fullscreenenter"",""1"",""1373""
","
","
","""event"",""trial"",""time""
""fullscreenenter"",""1"",""1373""
","
","","909.7900000051595","","","","real_trial","2021-06-01 16:36:57.288","img/card_backs/set1/purple.gif","3","260","1","",""
"casino-fixation","100","352124","0.0-25.0-0.15","250","true","img/card_backs/set1/purple.gif","img/card_backs/set1/red.gif","img/card_backs/set1/yellow.gif","img/card_backs/set1/green.gif","img/card_backs/set2/pink.gif","img/card_backs/set2/gray.gif","img/card_backs/set2/orange.gif","img/card_backs/set2/blue.gif","""event"",""trial"",""time""
""fullscreenenter"",""1"",""1373""
","
","
","""event"",""trial"",""time""
""fullscreenenter"",""1"",""1373""
","
","","null","","null","","fixation","2021-06-01 16:36:57.792","","","","","",""
"card-selection-trial","101","355881","0.0-25.0-1.15","250","true","img/card_backs/set1/purple.gif","img/card_backs/set1/red.gif","img/card_backs/set1/yellow.gif","img/card_backs/set1/green.gif","img/card_backs/set2/pink.gif","img/card_backs/set2/gray.gif","img/card_backs/set2/orange.gif","img/card_backs/set2/blue.gif","""event"",""trial"",""time""
""fullscreenenter"",""1"",""1373""
","
","
","""event"",""trial"",""time""
""fullscreenenter"",""1"",""1373""
","
","","1749.2550000024494","","","","real_trial","2021-06-01 16:37:01.549","img/card_backs/set1/purple.gif","2","250","1","",""
"casino-fixation","102","356386","0.0-25.0-0.16","250","true","img/card_backs/set1/purple.gif","img/card_backs/set1/red.gif","img/card_backs/set1/yellow.gif","img/card_backs/set1/green.gif","img/card_backs/set2/pink.gif","img/card_backs/set2/gray.gif","img/card_backs/set2/orange.gif","img/card_backs/set2/blue.gif","""event"",""trial"",""time""
""fullscreenenter"",""1"",""1373""
","
","
","""event"",""trial"",""time""
""fullscreenenter"",""1"",""1373""
","
","","null","","null","","fixation","2021-06-01 16:37:02.054","","","","","",""
"card-selection-trial","103","359393","0.0-25.0-1.16","250","true","img/card_backs/set1/purple.gif","img/card_backs/set1/red.gif","img/card_backs/set1/yellow.gif","img/card_backs/set1/green.gif","img/card_backs/set2/pink.gif","img/card_backs/set2/gray.gif","img/card_backs/set2/orange.gif","img/card_backs/set2/blue.gif","""event"",""trial"",""time""
""fullscreenenter"",""1"",""1373""
","
","
","""event"",""trial"",""time""
""fullscreenenter"",""1"",""1373""
","
","","998.5300000116695","","","","real_trial","2021-06-01 16:37:05.061","img/card_backs/set1/purple.gif","0","-200","1","",""
"casino-fixation","104","359894","0.0-25.0-0.17","250","true","img/card_backs/set1/purple.gif","img/card_backs/set1/red.gif","img/card_backs/set1/yellow.gif","img/card_backs/set1/green.gif","img/card_backs/set2/pink.gif","img/card_backs/set2/gray.gif","img/card_backs/set2/orange.gif","img/card_backs/set2/blue.gif","""event"",""trial"",""time""
""fullscreenenter"",""1"",""1373""
","
","
","""event"",""trial"",""time""
""fullscreenenter"",""1"",""1373""
","
","","null","","null","","fixation","2021-06-01 16:37:05.562","","","","","",""
"card-selection-trial","105","362620","0.0-25.0-1.17","250","true","img/card_backs/set1/purple.gif","img/card_backs/set1/red.gif","img/card_backs/set1/yellow.gif","img/card_backs/set1/green.gif","img/card_backs/set2/pink.gif","img/card_backs/set2/gray.gif","img/card_backs/set2/orange.gif","img/card_backs/set2/blue.gif","""event"",""trial"",""time""
""fullscreenenter"",""1"",""1373""
","
","
","""event"",""trial"",""time""
""fullscreenenter"",""1"",""1373""
","
","","720.7300000009127","","","","real_trial","2021-06-01 16:37:08.288","img/card_backs/set1/purple.gif","0","250","1","",""
"casino-fixation","106","363125","0.0-25.0-0.18","250","true","img/card_backs/set1/purple.gif","img/card_backs/set1/red.gif","img/card_backs/set1/yellow.gif","img/card_backs/set1/green.gif","img/card_backs/set2/pink.gif","img/card_backs/set2/gray.gif","img/card_backs/set2/orange.gif","img/card_backs/set2/blue.gif","""event"",""trial"",""time""
""fullscreenenter"",""1"",""1373""
","
","
","""event"",""trial"",""time""
""fullscreenenter"",""1"",""1373""
","
","","null","","null","","fixation","2021-06-01 16:37:08.793","","","","","",""
"card-selection-trial","107","365604","0.0-25.0-1.18","250","true","img/card_backs/set1/purple.gif","img/card_backs/set1/red.gif","img/card_backs/set1/yellow.gif","img/card_backs/set1/green.gif","img/card_backs/set2/pink.gif","img/card_backs/set2/gray.gif","img/card_backs/set2/orange.gif","img/card_backs/set2/blue.gif","""event"",""trial"",""time""
""fullscreenenter"",""1"",""1373""
","
","
","""event"",""trial"",""time""
""fullscreenenter"",""1"",""1373""
","
","","473.96000000298955","","","","real_trial","2021-06-01 16:37:11.272","img/card_backs/set1/purple.gif","0","-210","1","",""
"casino-fixation","108","366109","0.0-25.0-0.19","250","true","img/card_backs/set1/purple.gif","img/card_backs/set1/red.gif","img/card_backs/set1/yellow.gif","img/card_backs/set1/green.gif","img/card_backs/set2/pink.gif","img/card_backs/set2/gray.gif","img/card_backs/set2/orange.gif","img/card_backs/set2/blue.gif","""event"",""trial"",""time""
""fullscreenenter"",""1"",""1373""
","
","
","""event"",""trial"",""time""
""fullscreenenter"",""1"",""1373""
","
","","null","","null","","fixation","2021-06-01 16:37:11.777","","","","","",""
"card-selection-trial","109","368904","0.0-25.0-1.19","250","true","img/card_backs/set1/purple.gif","img/card_backs/set1/red.gif","img/card_backs/set1/yellow.gif","img/card_backs/set1/green.gif","img/card_backs/set2/pink.gif","img/card_backs/set2/gray.gif","img/card_backs/set2/orange.gif","img/card_backs/set2/blue.gif","""event"",""trial"",""time""
""fullscreenenter"",""1"",""1373""
","
","
","""event"",""trial"",""time""
""fullscreenenter"",""1"",""1373""
","
","","789.840000012191","","","","real_trial","2021-06-01 16:37:14.572","img/card_backs/set1/purple.gif","3","240","1","",""
"casino-fixation","110","369407","0.0-25.0-0.20","250","true","img/card_backs/set1/purple.gif","img/card_backs/set1/red.gif","img/card_backs/set1/yellow.gif","img/card_backs/set1/green.gif","img/card_backs/set2/pink.gif","img/card_backs/set2/gray.gif","img/card_backs/set2/orange.gif","img/card_backs/set2/blue.gif","""event"",""trial"",""time""
""fullscreenenter"",""1"",""1373""
","
","
","""event"",""trial"",""time""
""fullscreenenter"",""1"",""1373""
","
","","null","","null","","fixation","2021-06-01 16:37:15.075","","","","","",""
"card-selection-trial","111","372431","0.0-25.0-1.20","250","true","img/card_backs/set1/purple.gif","img/card_backs/set1/red.gif","img/card_backs/set1/yellow.gif","img/card_backs/set1/green.gif","img/card_backs/set2/pink.gif","img/card_backs/set2/gray.gif","img/card_backs/set2/orange.gif","img/card_backs/set2/blue.gif","""event"",""trial"",""time""
""fullscreenenter"",""1"",""1373""
","
","
","""event"",""trial"",""time""
""fullscreenenter"",""1"",""1373""
","
","","1017.0199999993201","","","","real_trial","2021-06-01 16:37:18.099","img/card_backs/set1/purple.gif","2","-210","1","",""
"casino-fixation","112","372933","0.0-25.0-0.21","250","true","img/card_backs/set1/purple.gif","img/card_backs/set1/red.gif","img/card_backs/set1/yellow.gif","img/card_backs/set1/green.gif","img/card_backs/set2/pink.gif","img/card_backs/set2/gray.gif","img/card_backs/set2/orange.gif","img/card_backs/set2/blue.gif","""event"",""trial"",""time""
""fullscreenenter"",""1"",""1373""
","
","
","""event"",""trial"",""time""
""fullscreenenter"",""1"",""1373""
","
","","null","","null","","fixation","2021-06-01 16:37:18.601","","","","","",""
"card-selection-trial","113","375734","0.0-25.0-1.21","250","true","img/card_backs/set1/purple.gif","img/card_backs/set1/red.gif","img/card_backs/set1/yellow.gif","img/card_backs/set1/green.gif","img/card_backs/set2/pink.gif","img/card_backs/set2/gray.gif","img/card_backs/set2/orange.gif","img/card_backs/set2/blue.gif","""event"",""trial"",""time""
""fullscreenenter"",""1"",""1373""
","
","
","""event"",""trial"",""time""
""fullscreenenter"",""1"",""1373""
","
","","796.2399999960326","","","","real_trial","2021-06-01 16:37:21.402","img/card_backs/set1/purple.gif","1","-190","1","",""
"casino-fixation","114","376239","0.0-25.0-0.22","250","true","img/card_backs/set1/purple.gif","img/card_backs/set1/red.gif","img/card_backs/set1/yellow.gif","img/card_backs/set1/green.gif","img/card_backs/set2/pink.gif","img/card_backs/set2/gray.gif","img/card_backs/set2/orange.gif","img/card_backs/set2/blue.gif","""event"",""trial"",""time""
""fullscreenenter"",""1"",""1373""
","
","
","""event"",""trial"",""time""
""fullscreenenter"",""1"",""1373""
","
","","null","","null","","fixation","2021-06-01 16:37:21.907","","","","","",""
"card-selection-trial","115","378933","0.0-25.0-1.22","250","true","img/card_backs/set1/purple.gif","img/card_backs/set1/red.gif","img/card_backs/set1/yellow.gif","img/card_backs/set1/green.gif","img/card_backs/set2/pink.gif","img/card_backs/set2/gray.gif","img/card_backs/set2/orange.gif","img/card_backs/set2/blue.gif","""event"",""trial"",""time""
""fullscreenenter"",""1"",""1373""
","
","
","""event"",""trial"",""time""
""fullscreenenter"",""1"",""1373""
","
","","688.060000014957","","","","real_trial","2021-06-01 16:37:24.601","img/card_backs/set1/purple.gif","2","250","1","",""
"casino-fixation","116","379439","0.0-25.0-0.23","250","true","img/card_backs/set1/purple.gif","img/card_backs/set1/red.gif","img/card_backs/set1/yellow.gif","img/card_backs/set1/green.gif","img/card_backs/set2/pink.gif","img/card_backs/set2/gray.gif","img/card_backs/set2/orange.gif","img/card_backs/set2/blue.gif","""event"",""trial"",""time""
""fullscreenenter"",""1"",""1373""
","
","
","""event"",""trial"",""time""
""fullscreenenter"",""1"",""1373""
","
","","null","","null","","fixation","2021-06-01 16:37:25.107","","","","","",""
"card-selection-trial","117","382038","0.0-25.0-1.23","250","true","img/card_backs/set1/purple.gif","img/card_backs/set1/red.gif","img/card_backs/set1/yellow.gif","img/card_backs/set1/green.gif","img/card_backs/set2/pink.gif","img/card_backs/set2/gray.gif","img/card_backs/set2/orange.gif","img/card_backs/set2/blue.gif","""event"",""trial"",""time""
""fullscreenenter"",""1"",""1373""
","
","
","""event"",""trial"",""time""
""fullscreenenter"",""1"",""1373""
","
","","595.1700000150595","","","","real_trial","2021-06-01 16:37:27.706","img/card_backs/set1/purple.gif","3","260","1","",""
"casino-fixation","118","382543","0.0-25.0-0.24","250","true","img/card_backs/set1/purple.gif","img/card_backs/set1/red.gif","img/card_backs/set1/yellow.gif","img/card_backs/set1/green.gif","img/card_backs/set2/pink.gif","img/card_backs/set2/gray.gif","img/card_backs/set2/orange.gif","img/card_backs/set2/blue.gif","""event"",""trial"",""time""
""fullscreenenter"",""1"",""1373""
","
","
","""event"",""trial"",""time""
""fullscreenenter"",""1"",""1373""
","
","","null","","null","","fixation","2021-06-01 16:37:28.211","","","","","",""
"card-selection-trial","119","385405","0.0-25.0-1.24","250","true","img/card_backs/set1/purple.gif","img/card_backs/set1/red.gif","img/card_backs/set1/yellow.gif","img/card_backs/set1/green.gif","img/card_backs/set2/pink.gif","img/card_backs/set2/gray.gif","img/card_backs/set2/orange.gif","img/card_backs/set2/blue.gif","""event"",""trial"",""time""
""fullscreenenter"",""1"",""1373""
","
","
","""event"",""trial"",""time""
""fullscreenenter"",""1"",""1373""
","
","","854.3749999953434","","","","real_trial","2021-06-01 16:37:31.073","img/card_backs/set1/purple.gif","0","-190","1","",""
"casino-fixation","120","385910","0.0-25.0-0.25","250","true","img/card_backs/set1/purple.gif","img/card_backs/set1/red.gif","img/card_backs/set1/yellow.gif","img/card_backs/set1/green.gif","img/card_backs/set2/pink.gif","img/card_backs/set2/gray.gif","img/card_backs/set2/orange.gif","img/card_backs/set2/blue.gif","""event"",""trial"",""time""
""fullscreenenter"",""1"",""1373""
","
","
","""event"",""trial"",""time""
""fullscreenenter"",""1"",""1373""
","
","","null","","null","","fixation","2021-06-01 16:37:31.578","","","","","",""
"card-selection-trial","121","388731","0.0-25.0-1.25","250","true","img/card_backs/set1/purple.gif","img/card_backs/set1/red.gif","img/card_backs/set1/yellow.gif","img/card_backs/set1/green.gif","img/card_backs/set2/pink.gif","img/card_backs/set2/gray.gif","img/card_backs/set2/orange.gif","img/card_backs/set2/blue.gif","""event"",""trial"",""time""
""fullscreenenter"",""1"",""1373""
","
","
","""event"",""trial"",""time""
""fullscreenenter"",""1"",""1373""
","
","","815.7249999931082","","","","real_trial","2021-06-01 16:37:34.399","img/card_backs/set1/purple.gif","1","-210","1","",""
"casino-fixation","122","389236","0.0-25.0-0.26","250","true","img/card_backs/set1/purple.gif","img/card_backs/set1/red.gif","img/card_backs/set1/yellow.gif","img/card_backs/set1/green.gif","img/card_backs/set2/pink.gif","img/card_backs/set2/gray.gif","img/card_backs/set2/orange.gif","img/card_backs/set2/blue.gif","""event"",""trial"",""time""
""fullscreenenter"",""1"",""1373""
","
","
","""event"",""trial"",""time""
""fullscreenenter"",""1"",""1373""
","
","","null","","null","","fixation","2021-06-01 16:37:34.904","","","","","",""
"card-selection-trial","123","392511","0.0-25.0-1.26","250","true","img/card_backs/set1/purple.gif","img/card_backs/set1/red.gif","img/card_backs/set1/yellow.gif","img/card_backs/set1/green.gif","img/card_backs/set2/pink.gif","img/card_backs/set2/gray.gif","img/card_backs/set2/orange.gif","img/card_backs/set2/blue.gif","""event"",""trial"",""time""
""fullscreenenter"",""1"",""1373""
","
","
","""event"",""trial"",""time""
""fullscreenenter"",""1"",""1373""
","
","","1268.19499998237","","","","real_trial","2021-06-01 16:37:38.179","img/card_backs/set1/yellow.gif","0","40","1","",""
"casino-fixation","124","393015","0.0-25.0-0.27","250","true","img/card_backs/set1/purple.gif","img/card_backs/set1/red.gif","img/card_backs/set1/yellow.gif","img/card_backs/set1/green.gif","img/card_backs/set2/pink.gif","img/card_backs/set2/gray.gif","img/card_backs/set2/orange.gif","img/card_backs/set2/blue.gif","""event"",""trial"",""time""
""fullscreenenter"",""1"",""1373""
","
","
","""event"",""trial"",""time""
""fullscreenenter"",""1"",""1373""
","
","","null","","null","","fixation","2021-06-01 16:37:38.684","","","","","",""
"card-selection-trial","125","396156","0.0-25.0-1.27","250","true","img/card_backs/set1/purple.gif","img/card_backs/set1/red.gif","img/card_backs/set1/yellow.gif","img/card_backs/set1/green.gif","img/card_backs/set2/pink.gif","img/card_backs/set2/gray.gif","img/card_backs/set2/orange.gif","img/card_backs/set2/blue.gif","""event"",""trial"",""time""
""fullscreenenter"",""1"",""1373""
","
","
","""event"",""trial"",""time""
""fullscreenenter"",""1"",""1373""
","
","","1134.1249999823049","","","","real_trial","2021-06-01 16:37:41.824","img/card_backs/set1/green.gif","2","-110","1","",""
"casino-fixation","126","396661","0.0-25.0-0.28","250","true","img/card_backs/set1/purple.gif","img/card_backs/set1/red.gif","img/card_backs/set1/yellow.gif","img/card_backs/set1/green.gif","img/card_backs/set2/pink.gif","img/card_backs/set2/gray.gif","img/card_backs/set2/orange.gif","img/card_backs/set2/blue.gif","""event"",""trial"",""time""
""fullscreenenter"",""1"",""1373""
","
","
","""event"",""trial"",""time""
""fullscreenenter"",""1"",""1373""
","
","","null","","null","","fixation","2021-06-01 16:37:42.329","","","","","",""
"card-selection-trial","127","400278","0.0-25.0-1.28","250","true","img/card_backs/set1/purple.gif","img/card_backs/set1/red.gif","img/card_backs/set1/yellow.gif","img/card_backs/set1/green.gif","img/card_backs/set2/pink.gif","img/card_backs/set2/gray.gif","img/card_backs/set2/orange.gif","img/card_backs/set2/blue.gif","""event"",""trial"",""time""
""fullscreenenter"",""1"",""1373""
","
","
","""event"",""trial"",""time""
""fullscreenenter"",""1"",""1373""
","
","","1611.7950000043493","","","","real_trial","2021-06-01 16:37:45.946","img/card_backs/set1/yellow.gif","2","40","1","",""
"casino-fixation","128","400782","0.0-25.0-0.29","250","true","img/card_backs/set1/purple.gif","img/card_backs/set1/red.gif","img/card_backs/set1/yellow.gif","img/card_backs/set1/green.gif","img/card_backs/set2/pink.gif","img/card_backs/set2/gray.gif","img/card_backs/set2/orange.gif","img/card_backs/set2/blue.gif","""event"",""trial"",""time""
""fullscreenenter"",""1"",""1373""
","
","
","""event"",""trial"",""time""
""fullscreenenter"",""1"",""1373""
","
","","null","","null","","fixation","2021-06-01 16:37:46.450","","","","","",""
"card-selection-trial","129","403465","0.0-25.0-1.29","250","true","img/card_backs/set1/purple.gif","img/card_backs/set1/red.gif","img/card_backs/set1/yellow.gif","img/card_backs/set1/green.gif","img/card_backs/set2/pink.gif","img/card_backs/set2/gray.gif","img/card_backs/set2/orange.gif","img/card_backs/set2/blue.gif","""event"",""trial"",""time""
""fullscreenenter"",""1"",""1373""
","
","
","""event"",""trial"",""time""
""fullscreenenter"",""1"",""1373""
","
","","679.1699999885168","","","","real_trial","2021-06-01 16:37:49.133","img/card_backs/set1/green.gif","0","-90","1","",""
"casino-fixation","130","403970","0.0-25.0-0.30","250","true","img/card_backs/set1/purple.gif","img/card_backs/set1/red.gif","img/card_backs/set1/yellow.gif","img/card_backs/set1/green.gif","img/card_backs/set2/pink.gif","img/card_backs/set2/gray.gif","img/card_backs/set2/orange.gif","img/card_backs/set2/blue.gif","""event"",""trial"",""time""
""fullscreenenter"",""1"",""1373""
","
","
","""event"",""trial"",""time""
""fullscreenenter"",""1"",""1373""
","
","","null","","null","","fixation","2021-06-01 16:37:49.638","","","","","",""
"card-selection-trial","131","406948","0.0-25.0-1.30","250","true","img/card_backs/set1/purple.gif","img/card_backs/set1/red.gif","img/card_backs/set1/yellow.gif","img/card_backs/set1/green.gif","img/card_backs/set2/pink.gif","img/card_backs/set2/gray.gif","img/card_backs/set2/orange.gif","img/card_backs/set2/blue.gif","""event"",""trial"",""time""
""fullscreenenter"",""1"",""1373""
","
","
","""event"",""trial"",""time""
""fullscreenenter"",""1"",""1373""
","
","","971.2549999821931","","","","real_trial","2021-06-01 16:37:52.616","img/card_backs/set1/yellow.gif","1","40","1","",""
"casino-fixation","132","407453","0.0-25.0-0.31","250","true","img/card_backs/set1/purple.gif","img/card_backs/set1/red.gif","img/card_backs/set1/yellow.gif","img/card_backs/set1/green.gif","img/card_backs/set2/pink.gif","img/card_backs/set2/gray.gif","img/card_backs/set2/orange.gif","img/card_backs/set2/blue.gif","""event"",""trial"",""time""
""fullscreenenter"",""1"",""1373""
","
","
","""event"",""trial"",""time""
""fullscreenenter"",""1"",""1373""
","
","","null","","null","","fixation","2021-06-01 16:37:53.121","","","","","",""
"card-selection-trial","133","410027","0.0-25.0-1.31","250","true","img/card_backs/set1/purple.gif","img/card_backs/set1/red.gif","img/card_backs/set1/yellow.gif","img/card_backs/set1/green.gif","img/card_backs/set2/pink.gif","img/card_backs/set2/gray.gif","img/card_backs/set2/orange.gif","img/card_backs/set2/blue.gif","""event"",""trial"",""time""
""fullscreenenter"",""1"",""1373""
","
","
","""event"",""trial"",""time""
""fullscreenenter"",""1"",""1373""
","
","","567.2800000174902","","","","real_trial","2021-06-01 16:37:55.695","img/card_backs/set1/yellow.gif","0","-110","1","",""
"casino-fixation","134","410531","0.0-25.0-0.32","250","true","img/card_backs/set1/purple.gif","img/card_backs/set1/red.gif","img/card_backs/set1/yellow.gif","img/card_backs/set1/green.gif","img/card_backs/set2/pink.gif","img/card_backs/set2/gray.gif","img/card_backs/set2/orange.gif","img/card_backs/set2/blue.gif","""event"",""trial"",""time""
""fullscreenenter"",""1"",""1373""
","
","
","""event"",""trial"",""time""
""fullscreenenter"",""1"",""1373""
","
","","null","","null","","fixation","2021-06-01 16:37:56.199","","","","","",""
"card-selection-trial","135","413550","0.0-25.0-1.32","250","true","img/card_backs/set1/purple.gif","img/card_backs/set1/red.gif","img/card_backs/set1/yellow.gif","img/card_backs/set1/green.gif","img/card_backs/set2/pink.gif","img/card_backs/set2/gray.gif","img/card_backs/set2/orange.gif","img/card_backs/set2/blue.gif","""event"",""trial"",""time""
""fullscreenenter"",""1"",""1373""
","
","
","""event"",""trial"",""time""
""fullscreenenter"",""1"",""1373""
","
","","1014.4900000013877","","","","real_trial","2021-06-01 16:37:59.218","img/card_backs/set1/green.gif","2","40","1","",""
"casino-fixation","136","414054","0.0-25.0-0.33","250","true","img/card_backs/set1/purple.gif","img/card_backs/set1/red.gif","img/card_backs/set1/yellow.gif","img/card_backs/set1/green.gif","img/card_backs/set2/pink.gif","img/card_backs/set2/gray.gif","img/card_backs/set2/orange.gif","img/card_backs/set2/blue.gif","""event"",""trial"",""time""
""fullscreenenter"",""1"",""1373""
","
","
","""event"",""trial"",""time""
""fullscreenenter"",""1"",""1373""
","
","","null","","null","","fixation","2021-06-01 16:37:59.723","","","","","",""
"card-selection-trial","137","416824","0.0-25.0-1.33","250","true","img/card_backs/set1/purple.gif","img/card_backs/set1/red.gif","img/card_backs/set1/yellow.gif","img/card_backs/set1/green.gif","img/card_backs/set2/pink.gif","img/card_backs/set2/gray.gif","img/card_backs/set2/orange.gif","img/card_backs/set2/blue.gif","""event"",""trial"",""time""
""fullscreenenter"",""1"",""1373""
","
","
","""event"",""trial"",""time""
""fullscreenenter"",""1"",""1373""
","
","","763.6099999945145","","","","real_trial","2021-06-01 16:38:02.493","img/card_backs/set1/green.gif","0","-100","1","",""
"casino-fixation","138","417327","0.0-25.0-0.34","250","true","img/card_backs/set1/purple.gif","img/card_backs/set1/red.gif","img/card_backs/set1/yellow.gif","img/card_backs/set1/green.gif","img/card_backs/set2/pink.gif","img/card_backs/set2/gray.gif","img/card_backs/set2/orange.gif","img/card_backs/set2/blue.gif","""event"",""trial"",""time""
""fullscreenenter"",""1"",""1373""
","
","
","""event"",""trial"",""time""
""fullscreenenter"",""1"",""1373""
","
","","null","","null","","fixation","2021-06-01 16:38:02.995","","","","","",""
"card-selection-trial","139","420147","0.0-25.0-1.34","250","true","img/card_backs/set1/purple.gif","img/card_backs/set1/red.gif","img/card_backs/set1/yellow.gif","img/card_backs/set1/green.gif","img/card_backs/set2/pink.gif","img/card_backs/set2/gray.gif","img/card_backs/set2/orange.gif","img/card_backs/set2/blue.gif","""event"",""trial"",""time""
""fullscreenenter"",""1"",""1373""
","
","
","""event"",""trial"",""time""
""fullscreenenter"",""1"",""1373""
","
","","811.4150000037625","","","","real_trial","2021-06-01 16:38:05.815","img/card_backs/set1/purple.gif","2","-190","1","",""
"casino-fixation","140","420648","0.0-25.0-0.35","250","true","img/card_backs/set1/purple.gif","img/card_backs/set1/red.gif","img/card_backs/set1/yellow.gif","img/card_backs/set1/green.gif","img/card_backs/set2/pink.gif","img/card_backs/set2/gray.gif","img/card_backs/set2/orange.gif","img/card_backs/set2/blue.gif","""event"",""trial"",""time""
""fullscreenenter"",""1"",""1373""
","
","
","""event"",""trial"",""time""
""fullscreenenter"",""1"",""1373""
","
","","null","","null","","fixation","2021-06-01 16:38:06.316","","","","","",""
"card-selection-trial","141","423351","0.0-25.0-1.35","250","true","img/card_backs/set1/purple.gif","img/card_backs/set1/red.gif","img/card_backs/set1/yellow.gif","img/card_backs/set1/green.gif","img/card_backs/set2/pink.gif","img/card_backs/set2/gray.gif","img/card_backs/set2/orange.gif","img/card_backs/set2/blue.gif","""event"",""trial"",""time""
""fullscreenenter"",""1"",""1373""
","
","
","""event"",""trial"",""time""
""fullscreenenter"",""1"",""1373""
","
","","697.8700000036042","","","","real_trial","2021-06-01 16:38:09.019","img/card_backs/set1/purple.gif","1","-200","1","",""
"casino-fixation","142","423857","0.0-25.0-0.36","250","true","img/card_backs/set1/purple.gif","img/card_backs/set1/red.gif","img/card_backs/set1/yellow.gif","img/card_backs/set1/green.gif","img/card_backs/set2/pink.gif","img/card_backs/set2/gray.gif","img/card_backs/set2/orange.gif","img/card_backs/set2/blue.gif","""event"",""trial"",""time""
""fullscreenenter"",""1"",""1373""
","
","
","""event"",""trial"",""time""
""fullscreenenter"",""1"",""1373""
","
","","null","","null","","fixation","2021-06-01 16:38:09.525","","","","","",""
"card-selection-trial","143","426836","0.0-25.0-1.36","250","true","img/card_backs/set1/purple.gif","img/card_backs/set1/red.gif","img/card_backs/set1/yellow.gif","img/card_backs/set1/green.gif","img/card_backs/set2/pink.gif","img/card_backs/set2/gray.gif","img/card_backs/set2/orange.gif","img/card_backs/set2/blue.gif","""event"",""trial"",""time""
""fullscreenenter"",""1"",""1373""
","
","
","""event"",""trial"",""time""
""fullscreenenter"",""1"",""1373""
","
","","974.0299999830313","","","","real_trial","2021-06-01 16:38:12.504","img/card_backs/set1/green.gif","3","-100","1","",""
"casino-fixation","144","427341","0.0-25.0-0.37","250","true","img/card_backs/set1/purple.gif","img/card_backs/set1/red.gif","img/card_backs/set1/yellow.gif","img/card_backs/set1/green.gif","img/card_backs/set2/pink.gif","img/card_backs/set2/gray.gif","img/card_backs/set2/orange.gif","img/card_backs/set2/blue.gif","""event"",""trial"",""time""
""fullscreenenter"",""1"",""1373""
","
","
","""event"",""trial"",""time""
""fullscreenenter"",""1"",""1373""
","
","","null","","null","","fixation","2021-06-01 16:38:13.009","","","","","",""
"card-selection-trial","145","430772","0.0-25.0-1.37","250","true","img/card_backs/set1/purple.gif","img/card_backs/set1/red.gif","img/card_backs/set1/yellow.gif","img/card_backs/set1/green.gif","img/card_backs/set2/pink.gif","img/card_backs/set2/gray.gif","img/card_backs/set2/orange.gif","img/card_backs/set2/blue.gif","""event"",""trial"",""time""
""fullscreenenter"",""1"",""1373""
","
","
","""event"",""trial"",""time""
""fullscreenenter"",""1"",""1373""
","
","","1427.6200000022072","","","","real_trial","2021-06-01 16:38:16.440","img/card_backs/set1/yellow.gif","1","-110","1","",""
"casino-fixation","146","431277","0.0-25.0-0.38","250","true","img/card_backs/set1/purple.gif","img/card_backs/set1/red.gif","img/card_backs/set1/yellow.gif","img/card_backs/set1/green.gif","img/card_backs/set2/pink.gif","img/card_backs/set2/gray.gif","img/card_backs/set2/orange.gif","img/card_backs/set2/blue.gif","""event"",""trial"",""time""
""fullscreenenter"",""1"",""1373""
","
","
","""event"",""trial"",""time""
""fullscreenenter"",""1"",""1373""
","
","","null","","null","","fixation","2021-06-01 16:38:16.945","","","","","",""
"card-selection-trial","147","433825","0.0-25.0-1.38","250","true","img/card_backs/set1/purple.gif","img/card_backs/set1/red.gif","img/card_backs/set1/yellow.gif","img/card_backs/set1/green.gif","img/card_backs/set2/pink.gif","img/card_backs/set2/gray.gif","img/card_backs/set2/orange.gif","img/card_backs/set2/blue.gif","""event"",""trial"",""time""
""fullscreenenter"",""1"",""1373""
","
","
","""event"",""trial"",""time""
""fullscreenenter"",""1"",""1373""
","
","","544.7049999784213","","","","real_trial","2021-06-01 16:38:19.493","img/card_backs/set1/yellow.gif","2","50","1","",""
"casino-fixation","148","434330","0.0-25.0-0.39","250","true","img/card_backs/set1/purple.gif","img/card_backs/set1/red.gif","img/card_backs/set1/yellow.gif","img/card_backs/set1/green.gif","img/card_backs/set2/pink.gif","img/card_backs/set2/gray.gif","img/card_backs/set2/orange.gif","img/card_backs/set2/blue.gif","""event"",""trial"",""time""
""fullscreenenter"",""1"",""1373""
","
","
","""event"",""trial"",""time""
""fullscreenenter"",""1"",""1373""
","
","","null","","null","","fixation","2021-06-01 16:38:19.999","","","","","",""
"card-selection-trial","149","437040","0.0-25.0-1.39","250","true","img/card_backs/set1/purple.gif","img/card_backs/set1/red.gif","img/card_backs/set1/yellow.gif","img/card_backs/set1/green.gif","img/card_backs/set2/pink.gif","img/card_backs/set2/gray.gif","img/card_backs/set2/orange.gif","img/card_backs/set2/blue.gif","""event"",""trial"",""time""
""fullscreenenter"",""1"",""1373""
","
","
","""event"",""trial"",""time""
""fullscreenenter"",""1"",""1373""
","
","","700.4899999883492","","","","real_trial","2021-06-01 16:38:22.708","img/card_backs/set1/yellow.gif","1","40","1","",""
"casino-fixation","150","437546","0.0-25.0-0.40","250","true","img/card_backs/set1/purple.gif","img/card_backs/set1/red.gif","img/card_backs/set1/yellow.gif","img/card_backs/set1/green.gif","img/card_backs/set2/pink.gif","img/card_backs/set2/gray.gif","img/card_backs/set2/orange.gif","img/card_backs/set2/blue.gif","""event"",""trial"",""time""
""fullscreenenter"",""1"",""1373""
","
","
","""event"",""trial"",""time""
""fullscreenenter"",""1"",""1373""
","
","","null","","null","","fixation","2021-06-01 16:38:23.214","","","","","",""
"card-selection-trial","151","440054","0.0-25.0-1.40","250","true","img/card_backs/set1/purple.gif","img/card_backs/set1/red.gif","img/card_backs/set1/yellow.gif","img/card_backs/set1/green.gif","img/card_backs/set2/pink.gif","img/card_backs/set2/gray.gif","img/card_backs/set2/orange.gif","img/card_backs/set2/blue.gif","""event"",""trial"",""time""
""fullscreenenter"",""1"",""1373""
","
","
","""event"",""trial"",""time""
""fullscreenenter"",""1"",""1373""
","
","","500.9849999914877","","","","real_trial","2021-06-01 16:38:25.722","img/card_backs/set1/yellow.gif","2","50","1","",""
"casino-fixation","152","440559","0.0-25.0-0.41","250","true","img/card_backs/set1/purple.gif","img/card_backs/set1/red.gif","img/card_backs/set1/yellow.gif","img/card_backs/set1/green.gif","img/card_backs/set2/pink.gif","img/card_backs/set2/gray.gif","img/card_backs/set2/orange.gif","img/card_backs/set2/blue.gif","""event"",""trial"",""time""
""fullscreenenter"",""1"",""1373""
","
","
","""event"",""trial"",""time""
""fullscreenenter"",""1"",""1373""
","
","","null","","null","","fixation","2021-06-01 16:38:26.227","","","","","",""
"card-selection-trial","153","443369","0.0-25.0-1.41","250","true","img/card_backs/set1/purple.gif","img/card_backs/set1/red.gif","img/card_backs/set1/yellow.gif","img/card_backs/set1/green.gif","img/card_backs/set2/pink.gif","img/card_backs/set2/gray.gif","img/card_backs/set2/orange.gif","img/card_backs/set2/blue.gif","""event"",""trial"",""time""
""fullscreenenter"",""1"",""1373""
","
","
","""event"",""trial"",""time""
""fullscreenenter"",""1"",""1373""
","
","","806.4750000194181","","","","real_trial","2021-06-01 16:38:29.037","img/card_backs/set1/yellow.gif","1","-90","1","",""
"casino-fixation","154","443874","0.0-25.0-0.42","250","true","img/card_backs/set1/purple.gif","img/card_backs/set1/red.gif","img/card_backs/set1/yellow.gif","img/card_backs/set1/green.gif","img/card_backs/set2/pink.gif","img/card_backs/set2/gray.gif","img/card_backs/set2/orange.gif","img/card_backs/set2/blue.gif","""event"",""trial"",""time""
""fullscreenenter"",""1"",""1373""
","
","
","""event"",""trial"",""time""
""fullscreenenter"",""1"",""1373""
","
","","null","","null","","fixation","2021-06-01 16:38:29.542","","","","","",""
"card-selection-trial","155","448477","0.0-25.0-1.42","250","true","img/card_backs/set1/purple.gif","img/card_backs/set1/red.gif","img/card_backs/set1/yellow.gif","img/card_backs/set1/green.gif","img/card_backs/set2/pink.gif","img/card_backs/set2/gray.gif","img/card_backs/set2/orange.gif","img/card_backs/set2/blue.gif","""event"",""trial"",""time""
""fullscreenenter"",""1"",""1373""
","
","
","""event"",""trial"",""time""
""fullscreenenter"",""1"",""1373""
","
","","2597.9799999913666","","","","real_trial","2021-06-01 16:38:34.145","img/card_backs/set1/purple.gif","2","250","1","",""
"casino-fixation","156","448982","0.0-25.0-0.43","250","true","img/card_backs/set1/purple.gif","img/card_backs/set1/red.gif","img/card_backs/set1/yellow.gif","img/card_backs/set1/green.gif","img/card_backs/set2/pink.gif","img/card_backs/set2/gray.gif","img/card_backs/set2/orange.gif","img/card_backs/set2/blue.gif","""event"",""trial"",""time""
""fullscreenenter"",""1"",""1373""
","
","
","""event"",""trial"",""time""
""fullscreenenter"",""1"",""1373""
","
","","null","","null","","fixation","2021-06-01 16:38:34.650","","","","","",""
"card-selection-trial","157","451885","0.0-25.0-1.43","250","true","img/card_backs/set1/purple.gif","img/card_backs/set1/red.gif","img/card_backs/set1/yellow.gif","img/card_backs/set1/green.gif","img/card_backs/set2/pink.gif","img/card_backs/set2/gray.gif","img/card_backs/set2/orange.gif","img/card_backs/set2/blue.gif","""event"",""trial"",""time""
""fullscreenenter"",""1"",""1373""
","
","
","""event"",""trial"",""time""
""fullscreenenter"",""1"",""1373""
","
","","897.9450000042561","","","","real_trial","2021-06-01 16:38:37.553","img/card_backs/set1/purple.gif","0","240","1","",""
"casino-fixation","158","452390","0.0-25.0-0.44","250","true","img/card_backs/set1/purple.gif","img/card_backs/set1/red.gif","img/card_backs/set1/yellow.gif","img/card_backs/set1/green.gif","img/card_backs/set2/pink.gif","img/card_backs/set2/gray.gif","img/card_backs/set2/orange.gif","img/card_backs/set2/blue.gif","""event"",""trial"",""time""
""fullscreenenter"",""1"",""1373""
","
","
","""event"",""trial"",""time""
""fullscreenenter"",""1"",""1373""
","
","","null","","null","","fixation","2021-06-01 16:38:38.058","","","","","",""
"card-selection-trial","159","455054","0.0-25.0-1.44","250","true","img/card_backs/set1/purple.gif","img/card_backs/set1/red.gif","img/card_backs/set1/yellow.gif","img/card_backs/set1/green.gif","img/card_backs/set2/pink.gif","img/card_backs/set2/gray.gif","img/card_backs/set2/orange.gif","img/card_backs/set2/blue.gif","""event"",""trial"",""time""
""fullscreenenter"",""1"",""1373""
","
","
","""event"",""trial"",""time""
""fullscreenenter"",""1"",""1373""
","
","","657.4300000211224","","","","real_trial","2021-06-01 16:38:40.723","img/card_backs/set1/purple.gif","2","-210","1","",""
"casino-fixation","160","455559","0.0-25.0-0.45","250","true","img/card_backs/set1/purple.gif","img/card_backs/set1/red.gif","img/card_backs/set1/yellow.gif","img/card_backs/set1/green.gif","img/card_backs/set2/pink.gif","img/card_backs/set2/gray.gif","img/card_backs/set2/orange.gif","img/card_backs/set2/blue.gif","""event"",""trial"",""time""
""fullscreenenter"",""1"",""1373""
","
","
","""event"",""trial"",""time""
""fullscreenenter"",""1"",""1373""
","
","","null","","null","","fixation","2021-06-01 16:38:41.227","","","","","",""
"card-selection-trial","161","458038","0.0-25.0-1.45","250","true","img/card_backs/set1/purple.gif","img/card_backs/set1/red.gif","img/card_backs/set1/yellow.gif","img/card_backs/set1/green.gif","img/card_backs/set2/pink.gif","img/card_backs/set2/gray.gif","img/card_backs/set2/orange.gif","img/card_backs/set2/blue.gif","""event"",""trial"",""time""
""fullscreenenter"",""1"",""1373""
","
","
","""event"",""trial"",""time""
""fullscreenenter"",""1"",""1373""
","
","","475.60999999404885","","","","real_trial","2021-06-01 16:38:43.706","img/card_backs/set1/yellow.gif","0","50","1","",""
"casino-fixation","162","458543","0.0-25.0-0.46","250","true","img/card_backs/set1/purple.gif","img/card_backs/set1/red.gif","img/card_backs/set1/yellow.gif","img/card_backs/set1/green.gif","img/card_backs/set2/pink.gif","img/card_backs/set2/gray.gif","img/card_backs/set2/orange.gif","img/card_backs/set2/blue.gif","""event"",""trial"",""time""
""fullscreenenter"",""1"",""1373""
","
","
","""event"",""trial"",""time""
""fullscreenenter"",""1"",""1373""
","
","","null","","null","","fixation","2021-06-01 16:38:44.211","","","","","",""
"card-selection-trial","163","461121","0.0-25.0-1.46","250","true","img/card_backs/set1/purple.gif","img/card_backs/set1/red.gif","img/card_backs/set1/yellow.gif","img/card_backs/set1/green.gif","img/card_backs/set2/pink.gif","img/card_backs/set2/gray.gif","img/card_backs/set2/orange.gif","img/card_backs/set2/blue.gif","""event"",""trial"",""time""
""fullscreenenter"",""1"",""1373""
","
","
","""event"",""trial"",""time""
""fullscreenenter"",""1"",""1373""
","
","","573.7650000082795","","","","real_trial","2021-06-01 16:38:46.789","img/card_backs/set1/purple.gif","1","260","1","",""
"casino-fixation","164","461626","0.0-25.0-0.47","250","true","img/card_backs/set1/purple.gif","img/card_backs/set1/red.gif","img/card_backs/set1/yellow.gif","img/card_backs/set1/green.gif","img/card_backs/set2/pink.gif","img/card_backs/set2/gray.gif","img/card_backs/set2/orange.gif","img/card_backs/set2/blue.gif","""event"",""trial"",""time""
""fullscreenenter"",""1"",""1373""
","
","
","""event"",""trial"",""time""
""fullscreenenter"",""1"",""1373""
","
","","null","","null","","fixation","2021-06-01 16:38:47.294","","","","","",""
"card-selection-trial","165","464199","0.0-25.0-1.47","250","true","img/card_backs/set1/purple.gif","img/card_backs/set1/red.gif","img/card_backs/set1/yellow.gif","img/card_backs/set1/green.gif","img/card_backs/set2/pink.gif","img/card_backs/set2/gray.gif","img/card_backs/set2/orange.gif","img/card_backs/set2/blue.gif","""event"",""trial"",""time""
""fullscreenenter"",""1"",""1373""
","
","
","""event"",""trial"",""time""
""fullscreenenter"",""1"",""1373""
","
","","569.2050000070594","","","","real_trial","2021-06-01 16:38:49.867","img/card_backs/set1/purple.gif","3","-210","1","",""
"casino-fixation","166","464702","0.0-25.0-0.48","250","true","img/card_backs/set1/purple.gif","img/card_backs/set1/red.gif","img/card_backs/set1/yellow.gif","img/card_backs/set1/green.gif","img/card_backs/set2/pink.gif","img/card_backs/set2/gray.gif","img/card_backs/set2/orange.gif","img/card_backs/set2/blue.gif","""event"",""trial"",""time""
""fullscreenenter"",""1"",""1373""
","
","
","""event"",""trial"",""time""
""fullscreenenter"",""1"",""1373""
","
","","null","","null","","fixation","2021-06-01 16:38:50.370","","","","","",""
"card-selection-trial","167","467425","0.0-25.0-1.48","250","true","img/card_backs/set1/purple.gif","img/card_backs/set1/red.gif","img/card_backs/set1/yellow.gif","img/card_backs/set1/green.gif","img/card_backs/set2/pink.gif","img/card_backs/set2/gray.gif","img/card_backs/set2/orange.gif","img/card_backs/set2/blue.gif","""event"",""trial"",""time""
""fullscreenenter"",""1"",""1373""
","
","
","""event"",""trial"",""time""
