"trial_type","trial_index","time_elapsed","internal_node_id","sub_id","risk_good_first","block1_A","block1_B","block1_C","block1_D","block2_A","block2_B","block2_C","block2_D","interactions","blur_events","focus_events","fullscreenenter_events","fullscreenexit_events","success","rt","stimulus","key_press","button_pressed","task_part","timestamp","card_choice","choice_position","points_earned","block","correct","response"
"pavlovia","0","3","0.0-0.0","228","true","img/card_backs/set1/purple.gif","img/card_backs/set1/yellow.gif","img/card_backs/set1/green.gif","img/card_backs/set1/red.gif","img/card_backs/set2/orange.gif","img/card_backs/set2/pink.gif","img/card_backs/set2/gray.gif","img/card_backs/set2/blue.gif","""event"",""trial"",""time""
""fullscreenenter"",""1"",""5591""
","
","
","""event"",""trial"",""time""
""fullscreenenter"",""1"",""5591""
","
","","","","","","","","","","","","",""
"fullscreen","1","6582","0.0-1.0","228","true","img/card_backs/set1/purple.gif","img/card_backs/set1/yellow.gif","img/card_backs/set1/green.gif","img/card_backs/set1/red.gif","img/card_backs/set2/orange.gif","img/card_backs/set2/pink.gif","img/card_backs/set2/gray.gif","img/card_backs/set2/blue.gif","""event"",""trial"",""time""
""fullscreenenter"",""1"",""5591""
","
","
","""event"",""trial"",""time""
""fullscreenenter"",""1"",""5591""
","
","true","","","","","","","","","","","",""
"audio-keyboard-response","2","8705","0.0-2.0","228","true","img/card_backs/set1/purple.gif","img/card_backs/set1/yellow.gif","img/card_backs/set1/green.gif","img/card_backs/set1/red.gif","img/card_backs/set2/orange.gif","img/card_backs/set2/pink.gif","img/card_backs/set2/gray.gif","img/card_backs/set2/blue.gif","""event"",""trial"",""time""
""fullscreenenter"",""1"",""5591""
","
","
","""event"",""trial"",""time""
""fullscreenenter"",""1"",""5591""
","
","","2123","audio/beep_loop.wav","32","","","","","","","","",""
"audio-button-response","3","15261","0.0-3.0","228","true","img/card_backs/set1/purple.gif","img/card_backs/set1/yellow.gif","img/card_backs/set1/green.gif","img/card_backs/set1/red.gif","img/card_backs/set2/orange.gif","img/card_backs/set2/pink.gif","img/card_backs/set2/gray.gif","img/card_backs/set2/blue.gif","""event"",""trial"",""time""
""fullscreenenter"",""1"",""5591""
","
","
","""event"",""trial"",""time""
""fullscreenenter"",""1"",""5591""
","
","","NaN","audio/turtle.mp3","","3","","","","","","","",""
"audio-button-response","4","18315","0.0-4.0","228","true","img/card_backs/set1/purple.gif","img/card_backs/set1/yellow.gif","img/card_backs/set1/green.gif","img/card_backs/set1/red.gif","img/card_backs/set2/orange.gif","img/card_backs/set2/pink.gif","img/card_backs/set2/gray.gif","img/card_backs/set2/blue.gif","""event"",""trial"",""time""
""fullscreenenter"",""1"",""5591""
","
","
","""event"",""trial"",""time""
""fullscreenenter"",""1"",""5591""
","
","","NaN","audio/shark.mp3","","2","","","","","","","",""
"fullscreen","5","21316","0.0-5.0","228","true","img/card_backs/set1/purple.gif","img/card_backs/set1/yellow.gif","img/card_backs/set1/green.gif","img/card_backs/set1/red.gif","img/card_backs/set2/orange.gif","img/card_backs/set2/pink.gif","img/card_backs/set2/gray.gif","img/card_backs/set2/blue.gif","""event"",""trial"",""time""
""fullscreenenter"",""1"",""5591""
","
","
","""event"",""trial"",""time""
""fullscreenenter"",""1"",""5591""
","
","true","","","","","","","","","","","",""
"casino-keyboard-response","6","26383","0.0-6.0-0.0","228","true","img/card_backs/set1/purple.gif","img/card_backs/set1/yellow.gif","img/card_backs/set1/green.gif","img/card_backs/set1/red.gif","img/card_backs/set2/orange.gif","img/card_backs/set2/pink.gif","img/card_backs/set2/gray.gif","img/card_backs/set2/blue.gif","""event"",""trial"",""time""
""fullscreenenter"",""1"",""5591""
","
","
","""event"",""trial"",""time""
""fullscreenenter"",""1"",""5591""
","
","","5060.700000047684","Welcome to the casino!","71","","instructions","2021-08-25 02:49:22.200","","","","","",""
"casino-keyboard-response","7","37156","0.0-6.0-0.1","228","true","img/card_backs/set1/purple.gif","img/card_backs/set1/yellow.gif","img/card_backs/set1/green.gif","img/card_backs/set1/red.gif","img/card_backs/set2/orange.gif","img/card_backs/set2/pink.gif","img/card_backs/set2/gray.gif","img/card_backs/set2/blue.gif","""event"",""trial"",""time""
""fullscreenenter"",""1"",""5591""
","
","
","""event"",""trial"",""time""
""fullscreenenter"",""1"",""5591""
","
","","10770.900000035763","Today you will be playing a game to earn tokens. </br> At the end of the experiment, you will be paid a bonus based on how many tokens you win. ","69","","instructions","2021-08-25 02:49:32.974","","","","","",""
"casino-keyboard-response","8","44407","0.0-6.0-0.2","228","true","img/card_backs/set1/purple.gif","img/card_backs/set1/yellow.gif","img/card_backs/set1/green.gif","img/card_backs/set1/red.gif","img/card_backs/set2/orange.gif","img/card_backs/set2/pink.gif","img/card_backs/set2/gray.gif","img/card_backs/set2/blue.gif","""event"",""trial"",""time""
""fullscreenenter"",""1"",""5591""
","
","
","""event"",""trial"",""time""
""fullscreenenter"",""1"",""5591""
","
","","7248.600000023842","On every turn, you will be shown four different decks of cards. </br> You need to select a card from one of the four decks.  ","75","","instructions","2021-08-25 02:49:40.225","","","","","",""
"casino-keyboard-response","9","49103","0.0-6.0-0.3","228","true","img/card_backs/set1/purple.gif","img/card_backs/set1/yellow.gif","img/card_backs/set1/green.gif","img/card_backs/set1/red.gif","img/card_backs/set2/orange.gif","img/card_backs/set2/pink.gif","img/card_backs/set2/gray.gif","img/card_backs/set2/blue.gif","""event"",""trial"",""time""
""fullscreenenter"",""1"",""5591""
""blur"",""10"",""52057""
","""event"",""trial"",""time""
""blur"",""10"",""52057""
","
","""event"",""trial"",""time""
""fullscreenenter"",""1"",""5591""
","
","","4693.5","On the next screen, you will see what the decks will look like. ","66","","instructions","2021-08-25 02:49:44.920","","","","","",""
"card-selection-trial","10","53112","0.0-7.0-0.0","228","true","img/card_backs/set1/purple.gif","img/card_backs/set1/yellow.gif","img/card_backs/set1/green.gif","img/card_backs/set1/red.gif","img/card_backs/set2/orange.gif","img/card_backs/set2/pink.gif","img/card_backs/set2/gray.gif","img/card_backs/set2/blue.gif","""event"",""trial"",""time""
""fullscreenenter"",""1"",""5591""
""blur"",""10"",""52057""
""focus"",""11"",""62432""
""blur"",""11"",""63549""
""focus"",""11"",""64231""
","""event"",""trial"",""time""
""blur"",""10"",""52057""
""blur"",""11"",""63549""
","""event"",""trial"",""time""
""focus"",""11"",""62432""
""focus"",""11"",""64231""
","""event"",""trial"",""time""
""fullscreenenter"",""1"",""5591""
","
","","null","","","","practice","2021-08-25 02:49:48.930","null","null","null","0","",""
"casino-keyboard-response","11","64846","0.0-8.0-0.0","228","true","img/card_backs/set1/purple.gif","img/card_backs/set1/yellow.gif","img/card_backs/set1/green.gif","img/card_backs/set1/red.gif","img/card_backs/set2/orange.gif","img/card_backs/set2/pink.gif","img/card_backs/set2/gray.gif","img/card_backs/set2/blue.gif","""event"",""trial"",""time""
""fullscreenenter"",""1"",""5591""
""blur"",""10"",""52057""
""focus"",""11"",""62432""
""blur"",""11"",""63549""
""focus"",""11"",""64231""
","""event"",""trial"",""time""
""blur"",""10"",""52057""
""blur"",""11"",""63549""
","""event"",""trial"",""time""
""focus"",""11"",""62432""
""focus"",""11"",""64231""
","""event"",""trial"",""time""
""fullscreenenter"",""1"",""5591""
","
","","11732.300000011921","You should pick a card from a deck using the '2', '4', '6', and '8' keys at the top of the keyboard.","85","","instructions","2021-08-25 02:50:00.663","","","","","",""
"casino-keyboard-response","12","70456","0.0-8.0-0.1","228","true","img/card_backs/set1/purple.gif","img/card_backs/set1/yellow.gif","img/card_backs/set1/green.gif","img/card_backs/set1/red.gif","img/card_backs/set2/orange.gif","img/card_backs/set2/pink.gif","img/card_backs/set2/gray.gif","img/card_backs/set2/blue.gif","""event"",""trial"",""time""
""fullscreenenter"",""1"",""5591""
""blur"",""10"",""52057""
""focus"",""11"",""62432""
""blur"",""11"",""63549""
""focus"",""11"",""64231""
","""event"",""trial"",""time""
""blur"",""10"",""52057""
""blur"",""11"",""63549""
","""event"",""trial"",""time""
""focus"",""11"",""62432""
""focus"",""11"",""64231""
","""event"",""trial"",""time""
""fullscreenenter"",""1"",""5591""
","
","","5609.400000035763","Once you select a card, it will turn over and you will see how many tokens you earned.","83","","instructions","2021-08-25 02:50:06.273","","","","","",""
"casino-keyboard-response","13","73272","0.0-8.0-0.2","228","true","img/card_backs/set1/purple.gif","img/card_backs/set1/yellow.gif","img/card_backs/set1/green.gif","img/card_backs/set1/red.gif","img/card_backs/set2/orange.gif","img/card_backs/set2/pink.gif","img/card_backs/set2/gray.gif","img/card_backs/set2/blue.gif","""event"",""trial"",""time""
""fullscreenenter"",""1"",""5591""
""blur"",""10"",""52057""
""focus"",""11"",""62432""
""blur"",""11"",""63549""
""focus"",""11"",""64231""
","""event"",""trial"",""time""
""blur"",""10"",""52057""
""blur"",""11"",""63549""
","""event"",""trial"",""time""
""focus"",""11"",""62432""
""focus"",""11"",""64231""
","""event"",""trial"",""time""
""fullscreenenter"",""1"",""5591""
","
","","2814.600000023842","Let's try practicing that! </br> First, try to put your fingers over the '2', '4', '6', and '8' keys. </br>  You can use whatever fingers are most comfortable for you. Try to find a comfortable position now. ","50","","instructions","2021-08-25 02:50:09.089","","","","","",""
"casino-keyboard-response","14","74857","0.0-8.0-0.3","228","true","img/card_backs/set1/purple.gif","img/card_backs/set1/yellow.gif","img/card_backs/set1/green.gif","img/card_backs/set1/red.gif","img/card_backs/set2/orange.gif","img/card_backs/set2/pink.gif","img/card_backs/set2/gray.gif","img/card_backs/set2/blue.gif","""event"",""trial"",""time""
""fullscreenenter"",""1"",""5591""
""blur"",""10"",""52057""
""focus"",""11"",""62432""
""blur"",""11"",""63549""
""focus"",""11"",""64231""
","""event"",""trial"",""time""
""blur"",""10"",""52057""
""blur"",""11"",""63549""
","""event"",""trial"",""time""
""focus"",""11"",""62432""
""focus"",""11"",""64231""
","""event"",""trial"",""time""
""fullscreenenter"",""1"",""5591""
","
","","1582.7000000476837","Okay ready? </br> On the next screen, press '2' to select the left deck. ","50","","instructions","2021-08-25 02:50:10.674","","","","","",""
"card-selection-trial","15","79532","0.0-9.0-0.0","228","true","img/card_backs/set1/purple.gif","img/card_backs/set1/yellow.gif","img/card_backs/set1/green.gif","img/card_backs/set1/red.gif","img/card_backs/set2/orange.gif","img/card_backs/set2/pink.gif","img/card_backs/set2/gray.gif","img/card_backs/set2/blue.gif","""event"",""trial"",""time""
""fullscreenenter"",""1"",""5591""
""blur"",""10"",""52057""
""focus"",""11"",""62432""
""blur"",""11"",""63549""
""focus"",""11"",""64231""
","""event"",""trial"",""time""
""blur"",""10"",""52057""
""blur"",""11"",""63549""
","""event"",""trial"",""time""
""focus"",""11"",""62432""
""focus"",""11"",""64231""
","""event"",""trial"",""time""
""fullscreenenter"",""1"",""5591""
","
","","2667.2999999523163","","","","practice_card_selection","2021-08-25 02:50:15.350","img/practice_cards/backs/black.gif","0","100","","",""
"casino-keyboard-response","16","81435","0.0-10.0-0.0","228","true","img/card_backs/set1/purple.gif","img/card_backs/set1/yellow.gif","img/card_backs/set1/green.gif","img/card_backs/set1/red.gif","img/card_backs/set2/orange.gif","img/card_backs/set2/pink.gif","img/card_backs/set2/gray.gif","img/card_backs/set2/blue.gif","""event"",""trial"",""time""
""fullscreenenter"",""1"",""5591""
""blur"",""10"",""52057""
""focus"",""11"",""62432""
""blur"",""11"",""63549""
""focus"",""11"",""64231""
","""event"",""trial"",""time""
""blur"",""10"",""52057""
""blur"",""11"",""63549""
","""event"",""trial"",""time""
""focus"",""11"",""62432""
""focus"",""11"",""64231""
","""event"",""trial"",""time""
""fullscreenenter"",""1"",""5591""
","
","","1900.3999999761581","Great! Now on the next screen, try pressing '6' to select the third deck.","54","","instructions","2021-08-25 02:50:17.252","","","","","",""
"card-selection-trial","17","83860","0.0-11.0-0.0","228","true","img/card_backs/set1/purple.gif","img/card_backs/set1/yellow.gif","img/card_backs/set1/green.gif","img/card_backs/set1/red.gif","img/card_backs/set2/orange.gif","img/card_backs/set2/pink.gif","img/card_backs/set2/gray.gif","img/card_backs/set2/blue.gif","""event"",""trial"",""time""
""fullscreenenter"",""1"",""5591""
""blur"",""10"",""52057""
""focus"",""11"",""62432""
""blur"",""11"",""63549""
""focus"",""11"",""64231""
","""event"",""trial"",""time""
""blur"",""10"",""52057""
""blur"",""11"",""63549""
","""event"",""trial"",""time""
""focus"",""11"",""62432""
""focus"",""11"",""64231""
","""event"",""trial"",""time""
""fullscreenenter"",""1"",""5591""
","
","","418.19999998807907","","","","practice_card_selection","2021-08-25 02:50:19.677","img/practice_cards/backs/dark_blue.gif","2","-200","","",""
"casino-keyboard-response","18","84989","0.0-12.0-0.0","228","true","img/card_backs/set1/purple.gif","img/card_backs/set1/yellow.gif","img/card_backs/set1/green.gif","img/card_backs/set1/red.gif","img/card_backs/set2/orange.gif","img/card_backs/set2/pink.gif","img/card_backs/set2/gray.gif","img/card_backs/set2/blue.gif","""event"",""trial"",""time""
""fullscreenenter"",""1"",""5591""
""blur"",""10"",""52057""
""focus"",""11"",""62432""
""blur"",""11"",""63549""
""focus"",""11"",""64231""
","""event"",""trial"",""time""
""blur"",""10"",""52057""
""blur"",""11"",""63549""
","""event"",""trial"",""time""
""focus"",""11"",""62432""
""focus"",""11"",""64231""
","""event"",""trial"",""time""
""fullscreenenter"",""1"",""5591""
","
","","1126.5","Now on the next screen, try pressing '4' to select the second deck.","52","","instructions","2021-08-25 02:50:20.806","","","","","",""
"card-selection-trial","19","87229","0.0-13.0-0.0","228","true","img/card_backs/set1/purple.gif","img/card_backs/set1/yellow.gif","img/card_backs/set1/green.gif","img/card_backs/set1/red.gif","img/card_backs/set2/orange.gif","img/card_backs/set2/pink.gif","img/card_backs/set2/gray.gif","img/card_backs/set2/blue.gif","""event"",""trial"",""time""
""fullscreenenter"",""1"",""5591""
""blur"",""10"",""52057""
""focus"",""11"",""62432""
""blur"",""11"",""63549""
""focus"",""11"",""64231""
","""event"",""trial"",""time""
""blur"",""10"",""52057""
""blur"",""11"",""63549""
","""event"",""trial"",""time""
""focus"",""11"",""62432""
""focus"",""11"",""64231""
","""event"",""trial"",""time""
""fullscreenenter"",""1"",""5591""
","
","","231.69999998807907","","","","practice_card_selection","2021-08-25 02:50:23.047","img/practice_cards/backs/dark_green.gif","1","-200","","",""
"casino-keyboard-response","20","88459","0.0-14.0-0.0","228","true","img/card_backs/set1/purple.gif","img/card_backs/set1/yellow.gif","img/card_backs/set1/green.gif","img/card_backs/set1/red.gif","img/card_backs/set2/orange.gif","img/card_backs/set2/pink.gif","img/card_backs/set2/gray.gif","img/card_backs/set2/blue.gif","""event"",""trial"",""time""
""fullscreenenter"",""1"",""5591""
""blur"",""10"",""52057""
""focus"",""11"",""62432""
""blur"",""11"",""63549""
""focus"",""11"",""64231""
","""event"",""trial"",""time""
""blur"",""10"",""52057""
""blur"",""11"",""63549""
","""event"",""trial"",""time""
""focus"",""11"",""62432""
""focus"",""11"",""64231""
","""event"",""trial"",""time""
""fullscreenenter"",""1"",""5591""
","
","","1226.199999988079","Finally, try pressing '8' to select the deck all the way on the right.","56","","instructions","2021-08-25 02:50:24.276","","","","","",""
"card-selection-trial","21","90670","0.0-15.0-0.0","228","true","img/card_backs/set1/purple.gif","img/card_backs/set1/yellow.gif","img/card_backs/set1/green.gif","img/card_backs/set1/red.gif","img/card_backs/set2/orange.gif","img/card_backs/set2/pink.gif","img/card_backs/set2/gray.gif","img/card_backs/set2/blue.gif","""event"",""trial"",""time""
""fullscreenenter"",""1"",""5591""
""blur"",""10"",""52057""
""focus"",""11"",""62432""
""blur"",""11"",""63549""
""focus"",""11"",""64231""
","""event"",""trial"",""time""
""blur"",""10"",""52057""
""blur"",""11"",""63549""
","""event"",""trial"",""time""
""focus"",""11"",""62432""
""focus"",""11"",""64231""
","""event"",""trial"",""time""
""fullscreenenter"",""1"",""5591""
","
","","200.39999997615814","","","","practice_card_selection","2021-08-25 02:50:26.487","img/practice_cards/backs/brown.gif","3","-100","","",""
"casino-keyboard-response","22","94238","0.0-16.0-0.0","228","true","img/card_backs/set1/purple.gif","img/card_backs/set1/yellow.gif","img/card_backs/set1/green.gif","img/card_backs/set1/red.gif","img/card_backs/set2/orange.gif","img/card_backs/set2/pink.gif","img/card_backs/set2/gray.gif","img/card_backs/set2/blue.gif","""event"",""trial"",""time""
""fullscreenenter"",""1"",""5591""
""blur"",""10"",""52057""
""focus"",""11"",""62432""
""blur"",""11"",""63549""
""focus"",""11"",""64231""
","""event"",""trial"",""time""
""blur"",""10"",""52057""
""blur"",""11"",""63549""
","""event"",""trial"",""time""
""focus"",""11"",""62432""
""focus"",""11"",""64231""
","""event"",""trial"",""time""
""fullscreenenter"",""1"",""5591""
","
","","3566.5","Great! It seems like you are getting the hang of this.","80","","instructions","2021-08-25 02:50:30.055","","","","","",""
"casino-keyboard-response","23","102111","0.0-16.0-0.1","228","true","img/card_backs/set1/purple.gif","img/card_backs/set1/yellow.gif","img/card_backs/set1/green.gif","img/card_backs/set1/red.gif","img/card_backs/set2/orange.gif","img/card_backs/set2/pink.gif","img/card_backs/set2/gray.gif","img/card_backs/set2/blue.gif","""event"",""trial"",""time""
""fullscreenenter"",""1"",""5591""
""blur"",""10"",""52057""
""focus"",""11"",""62432""
""blur"",""11"",""63549""
""focus"",""11"",""64231""
","""event"",""trial"",""time""
""blur"",""10"",""52057""
""blur"",""11"",""63549""
","""event"",""trial"",""time""
""focus"",""11"",""62432""
""focus"",""11"",""64231""
","""event"",""trial"",""time""
""fullscreenenter"",""1"",""5591""
","
","","7871.800000011921","You may have noticed that some cards will cause you to <b> win </b> tokens while other cards will cause you to <b> lose </b>  tokens.","70","","instructions","2021-08-25 02:50:37.928","","","","","",""
"casino-keyboard-response","24","110469","0.0-16.0-0.2","228","true","img/card_backs/set1/purple.gif","img/card_backs/set1/yellow.gif","img/card_backs/set1/green.gif","img/card_backs/set1/red.gif","img/card_backs/set2/orange.gif","img/card_backs/set2/pink.gif","img/card_backs/set2/gray.gif","img/card_backs/set2/blue.gif","""event"",""trial"",""time""
""fullscreenenter"",""1"",""5591""
""blur"",""10"",""52057""
""focus"",""11"",""62432""
""blur"",""11"",""63549""
""focus"",""11"",""64231""
","""event"",""trial"",""time""
""blur"",""10"",""52057""
""blur"",""11"",""63549""
","""event"",""trial"",""time""
""focus"",""11"",""62432""
""focus"",""11"",""64231""
","""event"",""trial"",""time""
""fullscreenenter"",""1"",""5591""
","
","","8355.599999964237","Each deck has a mix of cards that will cause you to win and lose tokens. </br> However, the cards in each colored deck are different.","73","","instructions","2021-08-25 02:50:46.286","","","","","",""
"casino-keyboard-response","25","120873","0.0-16.0-0.3","228","true","img/card_backs/set1/purple.gif","img/card_backs/set1/yellow.gif","img/card_backs/set1/green.gif","img/card_backs/set1/red.gif","img/card_backs/set2/orange.gif","img/card_backs/set2/pink.gif","img/card_backs/set2/gray.gif","img/card_backs/set2/blue.gif","""event"",""trial"",""time""
""fullscreenenter"",""1"",""5591""
""blur"",""10"",""52057""
""focus"",""11"",""62432""
""blur"",""11"",""63549""
""focus"",""11"",""64231""
","""event"",""trial"",""time""
""blur"",""10"",""52057""
""blur"",""11"",""63549""
","""event"",""trial"",""time""
""focus"",""11"",""62432""
""focus"",""11"",""64231""
","""event"",""trial"",""time""
""fullscreenenter"",""1"",""5591""
","
","","10402.899999976158","Some colored decks are luckier than others. </br> If you choose the lucky decks, you will earn more tokens than if you choose the unlucky decks.","69","","instructions","2021-08-25 02:50:56.690","","","","","",""
"casino-keyboard-response","26","130395","0.0-16.0-0.4","228","true","img/card_backs/set1/purple.gif","img/card_backs/set1/yellow.gif","img/card_backs/set1/green.gif","img/card_backs/set1/red.gif","img/card_backs/set2/orange.gif","img/card_backs/set2/pink.gif","img/card_backs/set2/gray.gif","img/card_backs/set2/blue.gif","""event"",""trial"",""time""
""fullscreenenter"",""1"",""5591""
""blur"",""10"",""52057""
""focus"",""11"",""62432""
""blur"",""11"",""63549""
""focus"",""11"",""64231""
","""event"",""trial"",""time""
""blur"",""10"",""52057""
""blur"",""11"",""63549""
","""event"",""trial"",""time""
""focus"",""11"",""62432""
""focus"",""11"",""64231""
","""event"",""trial"",""time""
""fullscreenenter"",""1"",""5591""
","
","","9519.699999988079","You should try to figure out which decks are lucky. </br> Then, try to choose the lucky decks so you can win the most tokens.","87","","instructions","2021-08-25 02:51:06.212","","","","","",""
"casino-keyboard-response","27","142369","0.0-16.0-0.5","228","true","img/card_backs/set1/purple.gif","img/card_backs/set1/yellow.gif","img/card_backs/set1/green.gif","img/card_backs/set1/red.gif","img/card_backs/set2/orange.gif","img/card_backs/set2/pink.gif","img/card_backs/set2/gray.gif","img/card_backs/set2/blue.gif","""event"",""trial"",""time""
""fullscreenenter"",""1"",""5591""
""blur"",""10"",""52057""
""focus"",""11"",""62432""
""blur"",""11"",""63549""
""focus"",""11"",""64231""
","""event"",""trial"",""time""
""blur"",""10"",""52057""
""blur"",""11"",""63549""
","""event"",""trial"",""time""
""focus"",""11"",""62432""
""focus"",""11"",""64231""
","""event"",""trial"",""time""
""fullscreenenter"",""1"",""5591""
","
","","11972","To make it trickier, the casino dealer will switch the locations of the decks on every turn. </br> The color of the deck determines how lucky it is. The location does not matter.","88","","instructions","2021-08-25 02:51:18.186","","","","","",""
"casino-keyboard-response","28","151876","0.0-16.0-0.6","228","true","img/card_backs/set1/purple.gif","img/card_backs/set1/yellow.gif","img/card_backs/set1/green.gif","img/card_backs/set1/red.gif","img/card_backs/set2/orange.gif","img/card_backs/set2/pink.gif","img/card_backs/set2/gray.gif","img/card_backs/set2/blue.gif","""event"",""trial"",""time""
""fullscreenenter"",""1"",""5591""
""blur"",""10"",""52057""
""focus"",""11"",""62432""
""blur"",""11"",""63549""
""focus"",""11"",""64231""
","""event"",""trial"",""time""
""blur"",""10"",""52057""
""blur"",""11"",""63549""
","""event"",""trial"",""time""
""focus"",""11"",""62432""
""focus"",""11"",""64231""
","""event"",""trial"",""time""
""fullscreenenter"",""1"",""5591""
","
","","9505.099999964237","The mix of cards in each colored deck will stay the same throughout the game. </br> That means that a deck that is lucky early on will stay lucky.","79","","instructions","2021-08-25 02:51:27.693","","","","","",""
"casino-keyboard-response","29","160416","0.0-16.0-0.7","228","true","img/card_backs/set1/purple.gif","img/card_backs/set1/yellow.gif","img/card_backs/set1/green.gif","img/card_backs/set1/red.gif","img/card_backs/set2/orange.gif","img/card_backs/set2/pink.gif","img/card_backs/set2/gray.gif","img/card_backs/set2/blue.gif","""event"",""trial"",""time""
""fullscreenenter"",""1"",""5591""
""blur"",""10"",""52057""
""focus"",""11"",""62432""
""blur"",""11"",""63549""
""focus"",""11"",""64231""
","""event"",""trial"",""time""
""blur"",""10"",""52057""
""blur"",""11"",""63549""
","""event"",""trial"",""time""
""focus"",""11"",""62432""
""focus"",""11"",""64231""
","""event"",""trial"",""time""
""fullscreenenter"",""1"",""5591""
","
","","8537.400000035763","Remember though, all the decks have a <b> mix </b> of both <b> good </b> and <b> bad </b> cards so it may take a couple of turns to figure out if a deck is lucky.","69","","instructions","2021-08-25 02:51:36.233","","","","","",""
"casino-keyboard-response","30","168502","0.0-16.0-0.8","228","true","img/card_backs/set1/purple.gif","img/card_backs/set1/yellow.gif","img/card_backs/set1/green.gif","img/card_backs/set1/red.gif","img/card_backs/set2/orange.gif","img/card_backs/set2/pink.gif","img/card_backs/set2/gray.gif","img/card_backs/set2/blue.gif","""event"",""trial"",""time""
""fullscreenenter"",""1"",""5591""
""blur"",""10"",""52057""
""focus"",""11"",""62432""
""blur"",""11"",""63549""
""focus"",""11"",""64231""
","""event"",""trial"",""time""
""blur"",""10"",""52057""
""blur"",""11"",""63549""
","""event"",""trial"",""time""
""focus"",""11"",""62432""
""focus"",""11"",""64231""
","""event"",""trial"",""time""
""fullscreenenter"",""1"",""5591""
","
","","8084.699999988079","At the end of the game, you will be paid bonus money based on how many tokens you win. </br> If you win more tokens, you will earn more money!","72","","instructions","2021-08-25 02:51:44.319","","","","","",""
"casino-keyboard-response","31","179017","0.0-16.0-0.9","228","true","img/card_backs/set1/purple.gif","img/card_backs/set1/yellow.gif","img/card_backs/set1/green.gif","img/card_backs/set1/red.gif","img/card_backs/set2/orange.gif","img/card_backs/set2/pink.gif","img/card_backs/set2/gray.gif","img/card_backs/set2/blue.gif","""event"",""trial"",""time""
""fullscreenenter"",""1"",""5591""
""blur"",""10"",""52057""
""focus"",""11"",""62432""
""blur"",""11"",""63549""
""focus"",""11"",""64231""
","""event"",""trial"",""time""
""blur"",""10"",""52057""
""blur"",""11"",""63549""
","""event"",""trial"",""time""
""focus"",""11"",""62432""
""focus"",""11"",""64231""
","""event"",""trial"",""time""
""fullscreenenter"",""1"",""5591""
","
","","10511","You will never <b> lose </b> money. </br> If you end up with fewer than 0 tokens, you will earn $0 of bonus money, but you will still be paid for playing the game.","83","","instructions","2021-08-25 02:51:54.834","","","","","",""
"casino-keyboard-response","32","183323","0.0-16.0-0.10","228","true","img/card_backs/set1/purple.gif","img/card_backs/set1/yellow.gif","img/card_backs/set1/green.gif","img/card_backs/set1/red.gif","img/card_backs/set2/orange.gif","img/card_backs/set2/pink.gif","img/card_backs/set2/gray.gif","img/card_backs/set2/blue.gif","""event"",""trial"",""time""
""fullscreenenter"",""1"",""5591""
""blur"",""10"",""52057""
""focus"",""11"",""62432""
""blur"",""11"",""63549""
""focus"",""11"",""64231""
","""event"",""trial"",""time""
""blur"",""10"",""52057""
""blur"",""11"",""63549""
","""event"",""trial"",""time""
""focus"",""11"",""62432""
""focus"",""11"",""64231""
","""event"",""trial"",""time""
""fullscreenenter"",""1"",""5591""
","
","","4304.399999976158","You will have 10 seconds to make each choice.","82","","instructions","2021-08-25 02:51:59.141","","","","","",""
"casino-keyboard-response","33","191626","0.0-16.0-0.11","228","true","img/card_backs/set1/purple.gif","img/card_backs/set1/yellow.gif","img/card_backs/set1/green.gif","img/card_backs/set1/red.gif","img/card_backs/set2/orange.gif","img/card_backs/set2/pink.gif","img/card_backs/set2/gray.gif","img/card_backs/set2/blue.gif","""event"",""trial"",""time""
""fullscreenenter"",""1"",""5591""
""blur"",""10"",""52057""
""focus"",""11"",""62432""
""blur"",""11"",""63549""
""focus"",""11"",""64231""
","""event"",""trial"",""time""
""blur"",""10"",""52057""
""blur"",""11"",""63549""
","""event"",""trial"",""time""
""focus"",""11"",""62432""
""focus"",""11"",""64231""
","""event"",""trial"",""time""
""fullscreenenter"",""1"",""5591""
","
","","8300.5","Before you play the game for real, you will play with practice decks. </br> The tokens you earn during practice won't count toward your total.","86","","instructions","2021-08-25 02:52:07.443","","","","","",""
"casino-keyboard-response","34","194945","0.0-16.0-0.12","228","true","img/card_backs/set1/purple.gif","img/card_backs/set1/yellow.gif","img/card_backs/set1/green.gif","img/card_backs/set1/red.gif","img/card_backs/set2/orange.gif","img/card_backs/set2/pink.gif","img/card_backs/set2/gray.gif","img/card_backs/set2/blue.gif","""event"",""trial"",""time""
""fullscreenenter"",""1"",""5591""
""blur"",""10"",""52057""
""focus"",""11"",""62432""
""blur"",""11"",""63549""
""focus"",""11"",""64231""
","""event"",""trial"",""time""
""blur"",""10"",""52057""
""blur"",""11"",""63549""
","""event"",""trial"",""time""
""focus"",""11"",""62432""
""focus"",""11"",""64231""
","""event"",""trial"",""time""
""fullscreenenter"",""1"",""5591""
","
","","3317","Ready? Remember, use the '2', '4', '6', and '8' keys to select the decks. </br> Put your fingers on those keys now and then press '2' to begin.","50","","instructions","2021-08-25 02:52:10.762","","","","","",""
"casino-fixation","35","195449","0.0-17.0-0.0","228","true","img/card_backs/set1/purple.gif","img/card_backs/set1/yellow.gif","img/card_backs/set1/green.gif","img/card_backs/set1/red.gif","img/card_backs/set2/orange.gif","img/card_backs/set2/pink.gif","img/card_backs/set2/gray.gif","img/card_backs/set2/blue.gif","""event"",""trial"",""time""
""fullscreenenter"",""1"",""5591""
""blur"",""10"",""52057""
""focus"",""11"",""62432""
""blur"",""11"",""63549""
""focus"",""11"",""64231""
","""event"",""trial"",""time""
""blur"",""10"",""52057""
""blur"",""11"",""63549""
","""event"",""trial"",""time""
""focus"",""11"",""62432""
""focus"",""11"",""64231""
","""event"",""trial"",""time""
""fullscreenenter"",""1"",""5591""
","
","","null","","null","","fixation","2021-08-25 02:52:11.266","","","","","",""
"card-selection-trial","36","202132","0.0-17.0-1.0","228","true","img/card_backs/set1/purple.gif","img/card_backs/set1/yellow.gif","img/card_backs/set1/green.gif","img/card_backs/set1/red.gif","img/card_backs/set2/orange.gif","img/card_backs/set2/pink.gif","img/card_backs/set2/gray.gif","img/card_backs/set2/blue.gif","""event"",""trial"",""time""
""fullscreenenter"",""1"",""5591""
""blur"",""10"",""52057""
""focus"",""11"",""62432""
""blur"",""11"",""63549""
""focus"",""11"",""64231""
","""event"",""trial"",""time""
""blur"",""10"",""52057""
""blur"",""11"",""63549""
","""event"",""trial"",""time""
""focus"",""11"",""62432""
""focus"",""11"",""64231""
","""event"",""trial"",""time""
""fullscreenenter"",""1"",""5591""
","
","","4675.699999988079","","","","practice","2021-08-25 02:52:17.949","img/practice_cards/backs/brown.gif","2","-100","0","",""
"casino-fixation","37","202640","0.0-17.0-0.1","228","true","img/card_backs/set1/purple.gif","img/card_backs/set1/yellow.gif","img/card_backs/set1/green.gif","img/card_backs/set1/red.gif","img/card_backs/set2/orange.gif","img/card_backs/set2/pink.gif","img/card_backs/set2/gray.gif","img/card_backs/set2/blue.gif","""event"",""trial"",""time""
""fullscreenenter"",""1"",""5591""
""blur"",""10"",""52057""
""focus"",""11"",""62432""
""blur"",""11"",""63549""
""focus"",""11"",""64231""
","""event"",""trial"",""time""
""blur"",""10"",""52057""
""blur"",""11"",""63549""
","""event"",""trial"",""time""
""focus"",""11"",""62432""
""focus"",""11"",""64231""
","""event"",""trial"",""time""
""fullscreenenter"",""1"",""5591""
","
","","null","","null","","fixation","2021-08-25 02:52:18.457","","","","","",""
"card-selection-trial","38","206026","0.0-17.0-1.1","228","true","img/card_backs/set1/purple.gif","img/card_backs/set1/yellow.gif","img/card_backs/set1/green.gif","img/card_backs/set1/red.gif","img/card_backs/set2/orange.gif","img/card_backs/set2/pink.gif","img/card_backs/set2/gray.gif","img/card_backs/set2/blue.gif","""event"",""trial"",""time""
""fullscreenenter"",""1"",""5591""
""blur"",""10"",""52057""
""focus"",""11"",""62432""
""blur"",""11"",""63549""
""focus"",""11"",""64231""
","""event"",""trial"",""time""
""blur"",""10"",""52057""
""blur"",""11"",""63549""
","""event"",""trial"",""time""
""focus"",""11"",""62432""
""focus"",""11"",""64231""
","""event"",""trial"",""time""
""fullscreenenter"",""1"",""5591""
","
","","1376.7000000476837","","","","practice","2021-08-25 02:52:21.843","img/practice_cards/backs/dark_blue.gif","0","-200","0","",""
"casino-fixation","39","206529","0.0-17.0-0.2","228","true","img/card_backs/set1/purple.gif","img/card_backs/set1/yellow.gif","img/card_backs/set1/green.gif","img/card_backs/set1/red.gif","img/card_backs/set2/orange.gif","img/card_backs/set2/pink.gif","img/card_backs/set2/gray.gif","img/card_backs/set2/blue.gif","""event"",""trial"",""time""
""fullscreenenter"",""1"",""5591""
""blur"",""10"",""52057""
""focus"",""11"",""62432""
""blur"",""11"",""63549""
""focus"",""11"",""64231""
","""event"",""trial"",""time""
""blur"",""10"",""52057""
""blur"",""11"",""63549""
","""event"",""trial"",""time""
""focus"",""11"",""62432""
""focus"",""11"",""64231""
","""event"",""trial"",""time""
""fullscreenenter"",""1"",""5591""
","
","","null","","null","","fixation","2021-08-25 02:52:22.346","","","","","",""
"card-selection-trial","40","210665","0.0-17.0-1.2","228","true","img/card_backs/set1/purple.gif","img/card_backs/set1/yellow.gif","img/card_backs/set1/green.gif","img/card_backs/set1/red.gif","img/card_backs/set2/orange.gif","img/card_backs/set2/pink.gif","img/card_backs/set2/gray.gif","img/card_backs/set2/blue.gif","""event"",""trial"",""time""
""fullscreenenter"",""1"",""5591""
""blur"",""10"",""52057""
""focus"",""11"",""62432""
""blur"",""11"",""63549""
""focus"",""11"",""64231""
","""event"",""trial"",""time""
""blur"",""10"",""52057""
""blur"",""11"",""63549""
","""event"",""trial"",""time""
""focus"",""11"",""62432""
""focus"",""11"",""64231""
","""event"",""trial"",""time""
""fullscreenenter"",""1"",""5591""
","
","","2127.300000011921","","","","practice","2021-08-25 02:52:26.482","img/practice_cards/backs/brown.gif","1","100","0","",""
"casino-fixation","41","211171","0.0-17.0-0.3","228","true","img/card_backs/set1/purple.gif","img/card_backs/set1/yellow.gif","img/card_backs/set1/green.gif","img/card_backs/set1/red.gif","img/card_backs/set2/orange.gif","img/card_backs/set2/pink.gif","img/card_backs/set2/gray.gif","img/card_backs/set2/blue.gif","""event"",""trial"",""time""
""fullscreenenter"",""1"",""5591""
""blur"",""10"",""52057""
""focus"",""11"",""62432""
""blur"",""11"",""63549""
""focus"",""11"",""64231""
","""event"",""trial"",""time""
""blur"",""10"",""52057""
""blur"",""11"",""63549""
","""event"",""trial"",""time""
""focus"",""11"",""62432""
""focus"",""11"",""64231""
","""event"",""trial"",""time""
""fullscreenenter"",""1"",""5591""
","
","","null","","null","","fixation","2021-08-25 02:52:26.988","","","","","",""
"card-selection-trial","42","214521","0.0-17.0-1.3","228","true","img/card_backs/set1/purple.gif","img/card_backs/set1/yellow.gif","img/card_backs/set1/green.gif","img/card_backs/set1/red.gif","img/card_backs/set2/orange.gif","img/card_backs/set2/pink.gif","img/card_backs/set2/gray.gif","img/card_backs/set2/blue.gif","""event"",""trial"",""time""
""fullscreenenter"",""1"",""5591""
""blur"",""10"",""52057""
""focus"",""11"",""62432""
""blur"",""11"",""63549""
""focus"",""11"",""64231""
","""event"",""trial"",""time""
""blur"",""10"",""52057""
""blur"",""11"",""63549""
","""event"",""trial"",""time""
""focus"",""11"",""62432""
""focus"",""11"",""64231""
","""event"",""trial"",""time""
""fullscreenenter"",""1"",""5591""
","
","","1336.8999999761581","","","","practice","2021-08-25 02:52:30.339","img/practice_cards/backs/black.gif","3","-100","0","",""
"casino-fixation","43","215028","0.0-17.0-0.4","228","true","img/card_backs/set1/purple.gif","img/card_backs/set1/yellow.gif","img/card_backs/set1/green.gif","img/card_backs/set1/red.gif","img/card_backs/set2/orange.gif","img/card_backs/set2/pink.gif","img/card_backs/set2/gray.gif","img/card_backs/set2/blue.gif","""event"",""trial"",""time""
""fullscreenenter"",""1"",""5591""
""blur"",""10"",""52057""
""focus"",""11"",""62432""
""blur"",""11"",""63549""
""focus"",""11"",""64231""
","""event"",""trial"",""time""
""blur"",""10"",""52057""
""blur"",""11"",""63549""
","""event"",""trial"",""time""
""focus"",""11"",""62432""
""focus"",""11"",""64231""
","""event"",""trial"",""time""
""fullscreenenter"",""1"",""5591""
","
","","null","","null","","fixation","2021-08-25 02:52:30.845","","","","","",""
"card-selection-trial","44","218124","0.0-17.0-1.4","228","true","img/card_backs/set1/purple.gif","img/card_backs/set1/yellow.gif","img/card_backs/set1/green.gif","img/card_backs/set1/red.gif","img/card_backs/set2/orange.gif","img/card_backs/set2/pink.gif","img/card_backs/set2/gray.gif","img/card_backs/set2/blue.gif","""event"",""trial"",""time""
""fullscreenenter"",""1"",""5591""
""blur"",""10"",""52057""
""focus"",""11"",""62432""
""blur"",""11"",""63549""
""focus"",""11"",""64231""
","""event"",""trial"",""time""
""blur"",""10"",""52057""
""blur"",""11"",""63549""
","""event"",""trial"",""time""
""focus"",""11"",""62432""
""focus"",""11"",""64231""
","""event"",""trial"",""time""
""fullscreenenter"",""1"",""5591""
","
","","1085.699999988079","","","","practice","2021-08-25 02:52:33.941","img/practice_cards/backs/dark_blue.gif","1","-200","0","",""
"casino-fixation","45","218630","0.0-17.0-0.5","228","true","img/card_backs/set1/purple.gif","img/card_backs/set1/yellow.gif","img/card_backs/set1/green.gif","img/card_backs/set1/red.gif","img/card_backs/set2/orange.gif","img/card_backs/set2/pink.gif","img/card_backs/set2/gray.gif","img/card_backs/set2/blue.gif","""event"",""trial"",""time""
""fullscreenenter"",""1"",""5591""
""blur"",""10"",""52057""
""focus"",""11"",""62432""
""blur"",""11"",""63549""
""focus"",""11"",""64231""
","""event"",""trial"",""time""
""blur"",""10"",""52057""
""blur"",""11"",""63549""
","""event"",""trial"",""time""
""focus"",""11"",""62432""
""focus"",""11"",""64231""
","""event"",""trial"",""time""
""fullscreenenter"",""1"",""5591""
","
","","null","","null","","fixation","2021-08-25 02:52:34.447","","","","","",""
"card-selection-trial","46","221623","0.0-17.0-1.5","228","true","img/card_backs/set1/purple.gif","img/card_backs/set1/yellow.gif","img/card_backs/set1/green.gif","img/card_backs/set1/red.gif","img/card_backs/set2/orange.gif","img/card_backs/set2/pink.gif","img/card_backs/set2/gray.gif","img/card_backs/set2/blue.gif","""event"",""trial"",""time""
""fullscreenenter"",""1"",""5591""
""blur"",""10"",""52057""
""focus"",""11"",""62432""
""blur"",""11"",""63549""
""focus"",""11"",""64231""
","""event"",""trial"",""time""
""blur"",""10"",""52057""
""blur"",""11"",""63549""
","""event"",""trial"",""time""
""focus"",""11"",""62432""
""focus"",""11"",""64231""
","""event"",""trial"",""time""
""fullscreenenter"",""1"",""5591""
","
","","983.5","","","","practice","2021-08-25 02:52:37.440","img/practice_cards/backs/dark_green.gif","2","-200","0","",""
"casino-fixation","47","222125","0.0-17.0-0.6","228","true","img/card_backs/set1/purple.gif","img/card_backs/set1/yellow.gif","img/card_backs/set1/green.gif","img/card_backs/set1/red.gif","img/card_backs/set2/orange.gif","img/card_backs/set2/pink.gif","img/card_backs/set2/gray.gif","img/card_backs/set2/blue.gif","""event"",""trial"",""time""
""fullscreenenter"",""1"",""5591""
""blur"",""10"",""52057""
""focus"",""11"",""62432""
""blur"",""11"",""63549""
""focus"",""11"",""64231""
","""event"",""trial"",""time""
""blur"",""10"",""52057""
""blur"",""11"",""63549""
","""event"",""trial"",""time""
""focus"",""11"",""62432""
""focus"",""11"",""64231""
","""event"",""trial"",""time""
""fullscreenenter"",""1"",""5591""
","
","","null","","null","","fixation","2021-08-25 02:52:37.942","","","","","",""
"card-selection-trial","48","224995","0.0-17.0-1.6","228","true","img/card_backs/set1/purple.gif","img/card_backs/set1/yellow.gif","img/card_backs/set1/green.gif","img/card_backs/set1/red.gif","img/card_backs/set2/orange.gif","img/card_backs/set2/pink.gif","img/card_backs/set2/gray.gif","img/card_backs/set2/blue.gif","""event"",""trial"",""time""
""fullscreenenter"",""1"",""5591""
""blur"",""10"",""52057""
""focus"",""11"",""62432""
""blur"",""11"",""63549""
""focus"",""11"",""64231""
","""event"",""trial"",""time""
""blur"",""10"",""52057""
""blur"",""11"",""63549""
","""event"",""trial"",""time""
""focus"",""11"",""62432""
""focus"",""11"",""64231""
","""event"",""trial"",""time""
""fullscreenenter"",""1"",""5591""
","
","","858.8000000119209","","","","practice","2021-08-25 02:52:40.812","img/practice_cards/backs/black.gif","0","-100","0","",""
"casino-fixation","49","225500","0.0-17.0-0.7","228","true","img/card_backs/set1/purple.gif","img/card_backs/set1/yellow.gif","img/card_backs/set1/green.gif","img/card_backs/set1/red.gif","img/card_backs/set2/orange.gif","img/card_backs/set2/pink.gif","img/card_backs/set2/gray.gif","img/card_backs/set2/blue.gif","""event"",""trial"",""time""
""fullscreenenter"",""1"",""5591""
""blur"",""10"",""52057""
""focus"",""11"",""62432""
""blur"",""11"",""63549""
""focus"",""11"",""64231""
","""event"",""trial"",""time""
""blur"",""10"",""52057""
""blur"",""11"",""63549""
","""event"",""trial"",""time""
""focus"",""11"",""62432""
""focus"",""11"",""64231""
","""event"",""trial"",""time""
""fullscreenenter"",""1"",""5591""
","
","","null","","null","","fixation","2021-08-25 02:52:41.317","","","","","",""
"card-selection-trial","50","238511","0.0-17.0-1.7","228","true","img/card_backs/set1/purple.gif","img/card_backs/set1/yellow.gif","img/card_backs/set1/green.gif","img/card_backs/set1/red.gif","img/card_backs/set2/orange.gif","img/card_backs/set2/pink.gif","img/card_backs/set2/gray.gif","img/card_backs/set2/blue.gif","""event"",""trial"",""time""
""fullscreenenter"",""1"",""5591""
""blur"",""10"",""52057""
""focus"",""11"",""62432""
""blur"",""11"",""63549""
""focus"",""11"",""64231""
","""event"",""trial"",""time""
""blur"",""10"",""52057""
""blur"",""11"",""63549""
","""event"",""trial"",""time""
""focus"",""11"",""62432""
""focus"",""11"",""64231""
","""event"",""trial"",""time""
""fullscreenenter"",""1"",""5591""
","
","","null","","","","practice","2021-08-25 02:52:54.328","null","null","null","0","",""
"casino-fixation","51","239017","0.0-17.0-0.8","228","true","img/card_backs/set1/purple.gif","img/card_backs/set1/yellow.gif","img/card_backs/set1/green.gif","img/card_backs/set1/red.gif","img/card_backs/set2/orange.gif","img/card_backs/set2/pink.gif","img/card_backs/set2/gray.gif","img/card_backs/set2/blue.gif","""event"",""trial"",""time""
""fullscreenenter"",""1"",""5591""
""blur"",""10"",""52057""
""focus"",""11"",""62432""
""blur"",""11"",""63549""
""focus"",""11"",""64231""
","""event"",""trial"",""time""
""blur"",""10"",""52057""
""blur"",""11"",""63549""
","""event"",""trial"",""time""
""focus"",""11"",""62432""
""focus"",""11"",""64231""
","""event"",""trial"",""time""
""fullscreenenter"",""1"",""5591""
","
","","null","","null","","fixation","2021-08-25 02:52:54.834","","","","","",""
"card-selection-trial","52","252030","0.0-17.0-1.8","228","true","img/card_backs/set1/purple.gif","img/card_backs/set1/yellow.gif","img/card_backs/set1/green.gif","img/card_backs/set1/red.gif","img/card_backs/set2/orange.gif","img/card_backs/set2/pink.gif","img/card_backs/set2/gray.gif","img/card_backs/set2/blue.gif","""event"",""trial"",""time""
""fullscreenenter"",""1"",""5591""
""blur"",""10"",""52057""
""focus"",""11"",""62432""
""blur"",""11"",""63549""
""focus"",""11"",""64231""
","""event"",""trial"",""time""
""blur"",""10"",""52057""
""blur"",""11"",""63549""
","""event"",""trial"",""time""
""focus"",""11"",""62432""
""focus"",""11"",""64231""
","""event"",""trial"",""time""
""fullscreenenter"",""1"",""5591""
","
","","null","","","","practice","2021-08-25 02:53:07.848","null","null","null","0","",""
"casino-fixation","53","252537","0.0-17.0-0.9","228","true","img/card_backs/set1/purple.gif","img/card_backs/set1/yellow.gif","img/card_backs/set1/green.gif","img/card_backs/set1/red.gif","img/card_backs/set2/orange.gif","img/card_backs/set2/pink.gif","img/card_backs/set2/gray.gif","img/card_backs/set2/blue.gif","""event"",""trial"",""time""
""fullscreenenter"",""1"",""5591""
""blur"",""10"",""52057""
""focus"",""11"",""62432""
""blur"",""11"",""63549""
""focus"",""11"",""64231""
","""event"",""trial"",""time""
""blur"",""10"",""52057""
""blur"",""11"",""63549""
","""event"",""trial"",""time""
""focus"",""11"",""62432""
""focus"",""11"",""64231""
","""event"",""trial"",""time""
""fullscreenenter"",""1"",""5591""
","
","","null","","null","","fixation","2021-08-25 02:53:08.354","","","","","",""
"card-selection-trial","54","258478","0.0-17.0-1.9","228","true","img/card_backs/set1/purple.gif","img/card_backs/set1/yellow.gif","img/card_backs/set1/green.gif","img/card_backs/set1/red.gif","img/card_backs/set2/orange.gif","img/card_backs/set2/pink.gif","img/card_backs/set2/gray.gif","img/card_backs/set2/blue.gif","""event"",""trial"",""time""
""fullscreenenter"",""1"",""5591""
""blur"",""10"",""52057""
""focus"",""11"",""62432""
""blur"",""11"",""63549""
""focus"",""11"",""64231""
","""event"",""trial"",""time""
""blur"",""10"",""52057""
""blur"",""11"",""63549""
","""event"",""trial"",""time""
""focus"",""11"",""62432""
""focus"",""11"",""64231""
","""event"",""trial"",""time""
""fullscreenenter"",""1"",""5591""
","
","","3928.7000000476837","","","","practice","2021-08-25 02:53:14.295","img/practice_cards/backs/black.gif","1","100","0","",""
"casino-keyboard-response","55","262104","0.0-18.0","228","true","img/card_backs/set1/purple.gif","img/card_backs/set1/yellow.gif","img/card_backs/set1/green.gif","img/card_backs/set1/red.gif","img/card_backs/set2/orange.gif","img/card_backs/set2/pink.gif","img/card_backs/set2/gray.gif","img/card_backs/set2/blue.gif","""event"",""trial"",""time""
""fullscreenenter"",""1"",""5591""
""blur"",""10"",""52057""
""focus"",""11"",""62432""
""blur"",""11"",""63549""
""focus"",""11"",""64231""
","""event"",""trial"",""time""
""blur"",""10"",""52057""
""blur"",""11"",""63549""
","""event"",""trial"",""time""
""focus"",""11"",""62432""
""focus"",""11"",""64231""
","""event"",""trial"",""time""
""fullscreenenter"",""1"",""5591""
","
","","3623.199999988079","You earned -700 tokens during the practice round!","82","","","2021-08-25 02:53:17.921","","","","","",""
"casino-keyboard-response","56","268444","0.0-19.0-0.0","228","true","img/card_backs/set1/purple.gif","img/card_backs/set1/yellow.gif","img/card_backs/set1/green.gif","img/card_backs/set1/red.gif","img/card_backs/set2/orange.gif","img/card_backs/set2/pink.gif","img/card_backs/set2/gray.gif","img/card_backs/set2/blue.gif","""event"",""trial"",""time""
""fullscreenenter"",""1"",""5591""
""blur"",""10"",""52057""
""focus"",""11"",""62432""
""blur"",""11"",""63549""
""focus"",""11"",""64231""
","""event"",""trial"",""time""
""blur"",""10"",""52057""
""blur"",""11"",""63549""
","""event"",""trial"",""time""
""focus"",""11"",""62432""
""focus"",""11"",""64231""
","""event"",""trial"",""time""
""fullscreenenter"",""1"",""5591""
","
","","6337.799999952316","Nice job! You are almost ready to play the real game.","86","","instructions","2021-08-25 02:53:24.261","","","","","",""
"casino-keyboard-response","57","276247","0.0-19.0-0.1","228","true","img/card_backs/set1/purple.gif","img/card_backs/set1/yellow.gif","img/card_backs/set1/green.gif","img/card_backs/set1/red.gif","img/card_backs/set2/orange.gif","img/card_backs/set2/pink.gif","img/card_backs/set2/gray.gif","img/card_backs/set2/blue.gif","""event"",""trial"",""time""
""fullscreenenter"",""1"",""5591""
""blur"",""10"",""52057""
""focus"",""11"",""62432""
""blur"",""11"",""63549""
""focus"",""11"",""64231""
","""event"",""trial"",""time""
""blur"",""10"",""52057""
""blur"",""11"",""63549""
","""event"",""trial"",""time""
""focus"",""11"",""62432""
""focus"",""11"",""64231""
","""event"",""trial"",""time""
""fullscreenenter"",""1"",""5591""
","
","","7801.599999964237","You will play two rounds of the real game. In each round, you will pick 100 cards in total.","73","","instructions","2021-08-25 02:53:32.064","","","","","",""
"casino-keyboard-response","58","280427","0.0-19.0-0.2","228","true","img/card_backs/set1/purple.gif","img/card_backs/set1/yellow.gif","img/card_backs/set1/green.gif","img/card_backs/set1/red.gif","img/card_backs/set2/orange.gif","img/card_backs/set2/pink.gif","img/card_backs/set2/gray.gif","img/card_backs/set2/blue.gif","""event"",""trial"",""time""
""fullscreenenter"",""1"",""5591""
""blur"",""10"",""52057""
""focus"",""11"",""62432""
""blur"",""11"",""63549""
""focus"",""11"",""64231""
","""event"",""trial"",""time""
""blur"",""10"",""52057""
""blur"",""11"",""63549""
","""event"",""trial"",""time""
""focus"",""11"",""62432""
""focus"",""11"",""64231""
","""event"",""trial"",""time""
""fullscreenenter"",""1"",""5591""
","
","","4176.799999952316","We are now going to ask you some questions about how the game works.","66","","instructions","2021-08-25 02:53:36.244","","","","","",""
"casino-keyboard-response","59","293643","0.0-19.0-0.3","228","true","img/card_backs/set1/purple.gif","img/card_backs/set1/yellow.gif","img/card_backs/set1/green.gif","img/card_backs/set1/red.gif","img/card_backs/set2/orange.gif","img/card_backs/set2/pink.gif","img/card_backs/set2/gray.gif","img/card_backs/set2/blue.gif","""event"",""trial"",""time""
""fullscreenenter"",""1"",""5591""
""blur"",""10"",""52057""
""focus"",""11"",""62432""
""blur"",""11"",""63549""
""focus"",""11"",""64231""
","""event"",""trial"",""time""
""blur"",""10"",""52057""
""blur"",""11"",""63549""
","""event"",""trial"",""time""
""focus"",""11"",""62432""
""focus"",""11"",""64231""
","""event"",""trial"",""time""
""fullscreenenter"",""1"",""5591""
","
","","13214.5","Answer carefully. You will not be able to begin the game until you answer them correctly.","67","","instructions","2021-08-25 02:53:49.460","","","","","",""
"casino-comp_q","60","300984","0.0-20.0-0.0","228","true","img/card_backs/set1/purple.gif","img/card_backs/set1/yellow.gif","img/card_backs/set1/green.gif","img/card_backs/set1/red.gif","img/card_backs/set2/orange.gif","img/card_backs/set2/pink.gif","img/card_backs/set2/gray.gif","img/card_backs/set2/blue.gif","""event"",""trial"",""time""
""fullscreenenter"",""1"",""5591""
""blur"",""10"",""52057""
""focus"",""11"",""62432""
""blur"",""11"",""63549""
""focus"",""11"",""64231""
","""event"",""trial"",""time""
""blur"",""10"",""52057""
""blur"",""11"",""63549""
","""event"",""trial"",""time""
""focus"",""11"",""62432""
""focus"",""11"",""64231""
","""event"",""trial"",""time""
""fullscreenenter"",""1"",""5591""
","
","","7338.899999976158","True or False: All the decks have some cards that cause you to win tokens and some cards that cause you to lose tokens.","84","","","2021-08-25 02:53:56.802","","","","","",""
"casino-keyboard-response","61","306722","0.0-20.0-1.0","228","true","img/card_backs/set1/purple.gif","img/card_backs/set1/yellow.gif","img/card_backs/set1/green.gif","img/card_backs/set1/red.gif","img/card_backs/set2/orange.gif","img/card_backs/set2/pink.gif","img/card_backs/set2/gray.gif","img/card_backs/set2/blue.gif","""event"",""trial"",""time""
""fullscreenenter"",""1"",""5591""
""blur"",""10"",""52057""
""focus"",""11"",""62432""
""blur"",""11"",""63549""
""focus"",""11"",""64231""
","""event"",""trial"",""time""
""blur"",""10"",""52057""
""blur"",""11"",""63549""
","""event"",""trial"",""time""
""focus"",""11"",""62432""
""focus"",""11"",""64231""
","""event"",""trial"",""time""
""fullscreenenter"",""1"",""5591""
","
","","5735.300000011921","True is correct! All the decks have a mix of winning and losing cards.","77","","","2021-08-25 02:54:02.540","","","","","true",""
"casino-comp_q","62","309314","0.0-21.0-0.0","228","true","img/card_backs/set1/purple.gif","img/card_backs/set1/yellow.gif","img/card_backs/set1/green.gif","img/card_backs/set1/red.gif","img/card_backs/set2/orange.gif","img/card_backs/set2/pink.gif","img/card_backs/set2/gray.gif","img/card_backs/set2/blue.gif","""event"",""trial"",""time""
""fullscreenenter"",""1"",""5591""
""blur"",""10"",""52057""
""focus"",""11"",""62432""
""blur"",""11"",""63549""
""focus"",""11"",""64231""
","""event"",""trial"",""time""
""blur"",""10"",""52057""
""blur"",""11"",""63549""
","""event"",""trial"",""time""
""focus"",""11"",""62432""
""focus"",""11"",""64231""
","""event"",""trial"",""time""
""fullscreenenter"",""1"",""5591""
","
","","2585.300000011921","True or False: You will have as much time as you want to make your response.","70","","","2021-08-25 02:54:05.131","","","","","",""
"casino-keyboard-response","63","319775","0.0-21.0-1.0","228","true","img/card_backs/set1/purple.gif","img/card_backs/set1/yellow.gif","img/card_backs/set1/green.gif","img/card_backs/set1/red.gif","img/card_backs/set2/orange.gif","img/card_backs/set2/pink.gif","img/card_backs/set2/gray.gif","img/card_backs/set2/blue.gif","""event"",""trial"",""time""
""fullscreenenter"",""1"",""5591""
""blur"",""10"",""52057""
""focus"",""11"",""62432""
""blur"",""11"",""63549""
""focus"",""11"",""64231""
","""event"",""trial"",""time""
""blur"",""10"",""52057""
""blur"",""11"",""63549""
","""event"",""trial"",""time""
""focus"",""11"",""62432""
""focus"",""11"",""64231""
","""event"",""trial"",""time""
""fullscreenenter"",""1"",""5591""
","
","","10458.699999988079","False is correct! You will only have 10 seconds to make each choice.","75","","","2021-08-25 02:54:15.592","","","","","true",""
"casino-comp_q","64","326134","0.0-22.0-0.0","228","true","img/card_backs/set1/purple.gif","img/card_backs/set1/yellow.gif","img/card_backs/set1/green.gif","img/card_backs/set1/red.gif","img/card_backs/set2/orange.gif","img/card_backs/set2/pink.gif","img/card_backs/set2/gray.gif","img/card_backs/set2/blue.gif","""event"",""trial"",""time""
""fullscreenenter"",""1"",""5591""
""blur"",""10"",""52057""
""focus"",""11"",""62432""
""blur"",""11"",""63549""
""focus"",""11"",""64231""
","""event"",""trial"",""time""
""blur"",""10"",""52057""
""blur"",""11"",""63549""
","""event"",""trial"",""time""
""focus"",""11"",""62432""
""focus"",""11"",""64231""
","""event"",""trial"",""time""
""fullscreenenter"",""1"",""5591""
","
","","6356.300000011921","True or False: The location of the deck determines how lucky it is.","70","","","2021-08-25 02:54:21.951","","","","","",""
"casino-keyboard-response","65","335888","0.0-22.0-1.0","228","true","img/card_backs/set1/purple.gif","img/card_backs/set1/yellow.gif","img/card_backs/set1/green.gif","img/card_backs/set1/red.gif","img/card_backs/set2/orange.gif","img/card_backs/set2/pink.gif","img/card_backs/set2/gray.gif","img/card_backs/set2/blue.gif","""event"",""trial"",""time""
""fullscreenenter"",""1"",""5591""
""blur"",""10"",""52057""
""focus"",""11"",""62432""
""blur"",""11"",""63549""
""focus"",""11"",""64231""
","""event"",""trial"",""time""
""blur"",""10"",""52057""
""blur"",""11"",""63549""
","""event"",""trial"",""time""
""focus"",""11"",""62432""
""focus"",""11"",""64231""
","""event"",""trial"",""time""
""fullscreenenter"",""1"",""5591""
","
","","9751.900000035763","False is correct! The <i>color</i>  of the deck determines how lucky or unlucky it is.","68","","","2021-08-25 02:54:31.705","","","","","true",""
"casino-keyboard-response","66","340784","0.0-23.0-0.0","228","true","img/card_backs/set1/purple.gif","img/card_backs/set1/yellow.gif","img/card_backs/set1/green.gif","img/card_backs/set1/red.gif","img/card_backs/set2/orange.gif","img/card_backs/set2/pink.gif","img/card_backs/set2/gray.gif","img/card_backs/set2/blue.gif","""event"",""trial"",""time""
""fullscreenenter"",""1"",""5591""
""blur"",""10"",""52057""
""focus"",""11"",""62432""
""blur"",""11"",""63549""
""focus"",""11"",""64231""
","""event"",""trial"",""time""
""blur"",""10"",""52057""
""blur"",""11"",""63549""
","""event"",""trial"",""time""
""focus"",""11"",""62432""
""focus"",""11"",""64231""
","""event"",""trial"",""time""
""fullscreenenter"",""1"",""5591""
","
","","4892.100000023842","Great job! Now it's time to start the real game.","82","","instructions","2021-08-25 02:54:36.601","","","","","",""
"casino-keyboard-response","67","346219","0.0-23.0-0.1","228","true","img/card_backs/set1/purple.gif","img/card_backs/set1/yellow.gif","img/card_backs/set1/green.gif","img/card_backs/set1/red.gif","img/card_backs/set2/orange.gif","img/card_backs/set2/pink.gif","img/card_backs/set2/gray.gif","img/card_backs/set2/blue.gif","""event"",""trial"",""time""
""fullscreenenter"",""1"",""5591""
""blur"",""10"",""52057""
""focus"",""11"",""62432""
""blur"",""11"",""63549""
""focus"",""11"",""64231""
","""event"",""trial"",""time""
""blur"",""10"",""52057""
""blur"",""11"",""63549""
","""event"",""trial"",""time""
""focus"",""11"",""62432""
""focus"",""11"",""64231""
","""event"",""trial"",""time""
""fullscreenenter"",""1"",""5591""
","
","","5433.099999964237","Before we start, we're going to head into a new room of the casino.","86","","instructions","2021-08-25 02:54:42.036","","","","","",""
"casino-keyboard-response","68","352305","0.0-24.0-0.0","228","true","img/card_backs/set1/purple.gif","img/card_backs/set1/yellow.gif","img/card_backs/set1/green.gif","img/card_backs/set1/red.gif","img/card_backs/set2/orange.gif","img/card_backs/set2/pink.gif","img/card_backs/set2/gray.gif","img/card_backs/set2/blue.gif","""event"",""trial"",""time""
""fullscreenenter"",""1"",""5591""
""blur"",""10"",""52057""
""focus"",""11"",""62432""
""blur"",""11"",""63549""
""focus"",""11"",""64231""
","""event"",""trial"",""time""
""blur"",""10"",""52057""
""blur"",""11"",""63549""
","""event"",""trial"",""time""
""focus"",""11"",""62432""
""focus"",""11"",""64231""
","""event"",""trial"",""time""
""fullscreenenter"",""1"",""5591""
","
","","6084.400000035763","Here we are! The real game will use different cards, but the rules will be the same.","71","","instructions","2021-08-25 02:54:48.123","","","","","",""
"casino-keyboard-response","69","354288","0.0-24.0-0.1","228","true","img/card_backs/set1/purple.gif","img/card_backs/set1/yellow.gif","img/card_backs/set1/green.gif","img/card_backs/set1/red.gif","img/card_backs/set2/orange.gif","img/card_backs/set2/pink.gif","img/card_backs/set2/gray.gif","img/card_backs/set2/blue.gif","""event"",""trial"",""time""
""fullscreenenter"",""1"",""5591""
""blur"",""10"",""52057""
""focus"",""11"",""62432""
""blur"",""11"",""63549""
""focus"",""11"",""64231""
","""event"",""trial"",""time""
""blur"",""10"",""52057""
""blur"",""11"",""63549""
","""event"",""trial"",""time""
""focus"",""11"",""62432""
""focus"",""11"",""64231""
","""event"",""trial"",""time""
""fullscreenenter"",""1"",""5591""
","
","","1980.2999999523163","Ready? Put your fingers over the '2', '4', 6', and '8' keys so you are ready to play the game. </br> Then press 2 to start.","50","","instructions","2021-08-25 02:54:50.106","","","","","",""
"casino-fixation","70","354791","0.0-25.0-0.0","228","true","img/card_backs/set1/purple.gif","img/card_backs/set1/yellow.gif","img/card_backs/set1/green.gif","img/card_backs/set1/red.gif","img/card_backs/set2/orange.gif","img/card_backs/set2/pink.gif","img/card_backs/set2/gray.gif","img/card_backs/set2/blue.gif","""event"",""trial"",""time""
""fullscreenenter"",""1"",""5591""
""blur"",""10"",""52057""
""focus"",""11"",""62432""
""blur"",""11"",""63549""
""focus"",""11"",""64231""
","""event"",""trial"",""time""
""blur"",""10"",""52057""
""blur"",""11"",""63549""
","""event"",""trial"",""time""
""focus"",""11"",""62432""
""focus"",""11"",""64231""
","""event"",""trial"",""time""
""fullscreenenter"",""1"",""5591""
","
","","null","","null","","fixation","2021-08-25 02:54:50.608","","","","","",""
"card-selection-trial","71","358725","0.0-25.0-1.0","228","true","img/card_backs/set1/purple.gif","img/card_backs/set1/yellow.gif","img/card_backs/set1/green.gif","img/card_backs/set1/red.gif","img/card_backs/set2/orange.gif","img/card_backs/set2/pink.gif","img/card_backs/set2/gray.gif","img/card_backs/set2/blue.gif","""event"",""trial"",""time""
""fullscreenenter"",""1"",""5591""
""blur"",""10"",""52057""
""focus"",""11"",""62432""
""blur"",""11"",""63549""
""focus"",""11"",""64231""
","""event"",""trial"",""time""
""blur"",""10"",""52057""
""blur"",""11"",""63549""
","""event"",""trial"",""time""
""focus"",""11"",""62432""
""focus"",""11"",""64231""
","""event"",""trial"",""time""
""fullscreenenter"",""1"",""5591""
","
","","1928.1000000238419","","","","real_trial","2021-08-25 02:54:54.542","img/card_backs/set1/yellow.gif","2","240","1","",""
"casino-fixation","72","359228","0.0-25.0-0.1","228","true","img/card_backs/set1/purple.gif","img/card_backs/set1/yellow.gif","img/card_backs/set1/green.gif","img/card_backs/set1/red.gif","img/card_backs/set2/orange.gif","img/card_backs/set2/pink.gif","img/card_backs/set2/gray.gif","img/card_backs/set2/blue.gif","""event"",""trial"",""time""
""fullscreenenter"",""1"",""5591""
""blur"",""10"",""52057""
""focus"",""11"",""62432""
""blur"",""11"",""63549""
""focus"",""11"",""64231""
","""event"",""trial"",""time""
""blur"",""10"",""52057""
""blur"",""11"",""63549""
","""event"",""trial"",""time""
""focus"",""11"",""62432""
""focus"",""11"",""64231""
","""event"",""trial"",""time""
""fullscreenenter"",""1"",""5591""
","
","","null","","null","","fixation","2021-08-25 02:54:55.045","","","","","",""
"card-selection-trial","73","362604","0.0-25.0-1.1","228","true","img/card_backs/set1/purple.gif","img/card_backs/set1/yellow.gif","img/card_backs/set1/green.gif","img/card_backs/set1/red.gif","img/card_backs/set2/orange.gif","img/card_backs/set2/pink.gif","img/card_backs/set2/gray.gif","img/card_backs/set2/blue.gif","""event"",""trial"",""time""
""fullscreenenter"",""1"",""5591""
""blur"",""10"",""52057""
""focus"",""11"",""62432""
""blur"",""11"",""63549""
""focus"",""11"",""64231""
","""event"",""trial"",""time""
""blur"",""10"",""52057""
""blur"",""11"",""63549""
","""event"",""trial"",""time""
""focus"",""11"",""62432""
""focus"",""11"",""64231""
","""event"",""trial"",""time""
""fullscreenenter"",""1"",""5591""
","
","","1365.199999988079","","","","real_trial","2021-08-25 02:54:58.421","img/card_backs/set1/purple.gif","1","250","1","",""
"casino-fixation","74","363107","0.0-25.0-0.2","228","true","img/card_backs/set1/purple.gif","img/card_backs/set1/yellow.gif","img/card_backs/set1/green.gif","img/card_backs/set1/red.gif","img/card_backs/set2/orange.gif","img/card_backs/set2/pink.gif","img/card_backs/set2/gray.gif","img/card_backs/set2/blue.gif","""event"",""trial"",""time""
""fullscreenenter"",""1"",""5591""
""blur"",""10"",""52057""
""focus"",""11"",""62432""
""blur"",""11"",""63549""
""focus"",""11"",""64231""
","""event"",""trial"",""time""
""blur"",""10"",""52057""
""blur"",""11"",""63549""
","""event"",""trial"",""time""
""focus"",""11"",""62432""
""focus"",""11"",""64231""
","""event"",""trial"",""time""
""fullscreenenter"",""1"",""5591""
","
","","null","","null","","fixation","2021-08-25 02:54:58.924","","","","","",""
"card-selection-trial","75","366649","0.0-25.0-1.2","228","true","img/card_backs/set1/purple.gif","img/card_backs/set1/yellow.gif","img/card_backs/set1/green.gif","img/card_backs/set1/red.gif","img/card_backs/set2/orange.gif","img/card_backs/set2/pink.gif","img/card_backs/set2/gray.gif","img/card_backs/set2/blue.gif","""event"",""trial"",""time""
""fullscreenenter"",""1"",""5591""
""blur"",""10"",""52057""
""focus"",""11"",""62432""
""blur"",""11"",""63549""
""focus"",""11"",""64231""
","""event"",""trial"",""time""
""blur"",""10"",""52057""
""blur"",""11"",""63549""
","""event"",""trial"",""time""
""focus"",""11"",""62432""
""focus"",""11"",""64231""
","""event"",""trial"",""time""
""fullscreenenter"",""1"",""5591""
","
","","1530","","","","real_trial","2021-08-25 02:55:02.466","img/card_backs/set1/green.gif","3","40","1","",""
"casino-fixation","76","367155","0.0-25.0-0.3","228","true","img/card_backs/set1/purple.gif","img/card_backs/set1/yellow.gif","img/card_backs/set1/green.gif","img/card_backs/set1/red.gif","img/card_backs/set2/orange.gif","img/card_backs/set2/pink.gif","img/card_backs/set2/gray.gif","img/card_backs/set2/blue.gif","""event"",""trial"",""time""
""fullscreenenter"",""1"",""5591""
""blur"",""10"",""52057""
""focus"",""11"",""62432""
""blur"",""11"",""63549""
""focus"",""11"",""64231""
","""event"",""trial"",""time""
""blur"",""10"",""52057""
""blur"",""11"",""63549""
","""event"",""trial"",""time""
""focus"",""11"",""62432""
""focus"",""11"",""64231""
","""event"",""trial"",""time""
""fullscreenenter"",""1"",""5591""
","
","","null","","null","","fixation","2021-08-25 02:55:02.972","","","","","",""
"card-selection-trial","77","370107","0.0-25.0-1.3","228","true","img/card_backs/set1/purple.gif","img/card_backs/set1/yellow.gif","img/card_backs/set1/green.gif","img/card_backs/set1/red.gif","img/card_backs/set2/orange.gif","img/card_backs/set2/pink.gif","img/card_backs/set2/gray.gif","img/card_backs/set2/blue.gif","""event"",""trial"",""time""
""fullscreenenter"",""1"",""5591""
""blur"",""10"",""52057""
""focus"",""11"",""62432""
""blur"",""11"",""63549""
""focus"",""11"",""64231""
","""event"",""trial"",""time""
""blur"",""10"",""52057""
""blur"",""11"",""63549""
","""event"",""trial"",""time""
""focus"",""11"",""62432""
""focus"",""11"",""64231""
","""event"",""trial"",""time""
""fullscreenenter"",""1"",""5591""
","
","","939.4000000357628","","","","real_trial","2021-08-25 02:55:05.924","img/card_backs/set1/yellow.gif","0","250","1","",""
"casino-fixation","78","370614","0.0-25.0-0.4","228","true","img/card_backs/set1/purple.gif","img/card_backs/set1/yellow.gif","img/card_backs/set1/green.gif","img/card_backs/set1/red.gif","img/card_backs/set2/orange.gif","img/card_backs/set2/pink.gif","img/card_backs/set2/gray.gif","img/card_backs/set2/blue.gif","""event"",""trial"",""time""
""fullscreenenter"",""1"",""5591""
""blur"",""10"",""52057""
""focus"",""11"",""62432""
""blur"",""11"",""63549""
""focus"",""11"",""64231""
","""event"",""trial"",""time""
""blur"",""10"",""52057""
""blur"",""11"",""63549""
","""event"",""trial"",""time""
""focus"",""11"",""62432""
""focus"",""11"",""64231""
","""event"",""trial"",""time""
""fullscreenenter"",""1"",""5591""
","
","","null","","null","","fixation","2021-08-25 02:55:06.431","","","","","",""
"card-selection-trial","79","374665","0.0-25.0-1.4","228","true","img/card_backs/set1/purple.gif","img/card_backs/set1/yellow.gif","img/card_backs/set1/green.gif","img/card_backs/set1/red.gif","img/card_backs/set2/orange.gif","img/card_backs/set2/pink.gif","img/card_backs/set2/gray.gif","img/card_backs/set2/blue.gif","""event"",""trial"",""time""
""fullscreenenter"",""1"",""5591""
""blur"",""10"",""52057""
""focus"",""11"",""62432""
""blur"",""11"",""63549""
""focus"",""11"",""64231""
","""event"",""trial"",""time""
""blur"",""10"",""52057""
""blur"",""11"",""63549""
","""event"",""trial"",""time""
""focus"",""11"",""62432""
""focus"",""11"",""64231""
","""event"",""trial"",""time""
""fullscreenenter"",""1"",""5591""
","
","","2041.2999999523163","","","","real_trial","2021-08-25 02:55:10.482","img/card_backs/set1/yellow.gif","2","250","1","",""
"casino-fixation","80","375171","0.0-25.0-0.5","228","true","img/card_backs/set1/purple.gif","img/card_backs/set1/yellow.gif","img/card_backs/set1/green.gif","img/card_backs/set1/red.gif","img/card_backs/set2/orange.gif","img/card_backs/set2/pink.gif","img/card_backs/set2/gray.gif","img/card_backs/set2/blue.gif","""event"",""trial"",""time""
""fullscreenenter"",""1"",""5591""
""blur"",""10"",""52057""
""focus"",""11"",""62432""
""blur"",""11"",""63549""
""focus"",""11"",""64231""
","""event"",""trial"",""time""
""blur"",""10"",""52057""
""blur"",""11"",""63549""
","""event"",""trial"",""time""
""focus"",""11"",""62432""
""focus"",""11"",""64231""
","""event"",""trial"",""time""
""fullscreenenter"",""1"",""5591""
","
","","null","","null","","fixation","2021-08-25 02:55:10.988","","","","","",""
"card-selection-trial","81","378378","0.0-25.0-1.5","228","true","img/card_backs/set1/purple.gif","img/card_backs/set1/yellow.gif","img/card_backs/set1/green.gif","img/card_backs/set1/red.gif","img/card_backs/set2/orange.gif","img/card_backs/set2/pink.gif","img/card_backs/set2/gray.gif","img/card_backs/set2/blue.gif","""event"",""trial"",""time""
""fullscreenenter"",""1"",""5591""
""blur"",""10"",""52057""
""focus"",""11"",""62432""
""blur"",""11"",""63549""
""focus"",""11"",""64231""
","""event"",""trial"",""time""
""blur"",""10"",""52057""
""blur"",""11"",""63549""
","""event"",""trial"",""time""
""focus"",""11"",""62432""
""focus"",""11"",""64231""
","""event"",""trial"",""time""
""fullscreenenter"",""1"",""5591""
","
","","1197.8999999761581","","","","real_trial","2021-08-25 02:55:14.195","img/card_backs/set1/yellow.gif","3","-200","1","",""
"casino-fixation","82","378882","0.0-25.0-0.6","228","true","img/card_backs/set1/purple.gif","img/card_backs/set1/yellow.gif","img/card_backs/set1/green.gif","img/card_backs/set1/red.gif","img/card_backs/set2/orange.gif","img/card_backs/set2/pink.gif","img/card_backs/set2/gray.gif","img/card_backs/set2/blue.gif","""event"",""trial"",""time""
""fullscreenenter"",""1"",""5591""
""blur"",""10"",""52057""
""focus"",""11"",""62432""
""blur"",""11"",""63549""
""focus"",""11"",""64231""
","""event"",""trial"",""time""
""blur"",""10"",""52057""
""blur"",""11"",""63549""
","""event"",""trial"",""time""
""focus"",""11"",""62432""
""focus"",""11"",""64231""
","""event"",""trial"",""time""
""fullscreenenter"",""1"",""5591""
","
","","null","","null","","fixation","2021-08-25 02:55:14.699","","","","","",""
"card-selection-trial","83","383818","0.0-25.0-1.6","228","true","img/card_backs/set1/purple.gif","img/card_backs/set1/yellow.gif","img/card_backs/set1/green.gif","img/card_backs/set1/red.gif","img/card_backs/set2/orange.gif","img/card_backs/set2/pink.gif","img/card_backs/set2/gray.gif","img/card_backs/set2/blue.gif","""event"",""trial"",""time""
""fullscreenenter"",""1"",""5591""
""blur"",""10"",""52057""
""focus"",""11"",""62432""
""blur"",""11"",""63549""
""focus"",""11"",""64231""
","""event"",""trial"",""time""
""blur"",""10"",""52057""
""blur"",""11"",""63549""
","""event"",""trial"",""time""
""focus"",""11"",""62432""
""focus"",""11"",""64231""
","""event"",""trial"",""time""
""fullscreenenter"",""1"",""5591""
","
","","2927.400000035763","","","","real_trial","2021-08-25 02:55:19.636","img/card_backs/set1/green.gif","3","50","1","",""
"casino-fixation","84","384326","0.0-25.0-0.7","228","true","img/card_backs/set1/purple.gif","img/card_backs/set1/yellow.gif","img/card_backs/set1/green.gif","img/card_backs/set1/red.gif","img/card_backs/set2/orange.gif","img/card_backs/set2/pink.gif","img/card_backs/set2/gray.gif","img/card_backs/set2/blue.gif","""event"",""trial"",""time""
""fullscreenenter"",""1"",""5591""
""blur"",""10"",""52057""
""focus"",""11"",""62432""
""blur"",""11"",""63549""
""focus"",""11"",""64231""
","""event"",""trial"",""time""
""blur"",""10"",""52057""
""blur"",""11"",""63549""
","""event"",""trial"",""time""
""focus"",""11"",""62432""
""focus"",""11"",""64231""
","""event"",""trial"",""time""
""fullscreenenter"",""1"",""5591""
","
","","null","","null","","fixation","2021-08-25 02:55:20.143","","","","","",""
"card-selection-trial","85","388414","0.0-25.0-1.7","228","true","img/card_backs/set1/purple.gif","img/card_backs/set1/yellow.gif","img/card_backs/set1/green.gif","img/card_backs/set1/red.gif","img/card_backs/set2/orange.gif","img/card_backs/set2/pink.gif","img/card_backs/set2/gray.gif","img/card_backs/set2/blue.gif","""event"",""trial"",""time""
""fullscreenenter"",""1"",""5591""
""blur"",""10"",""52057""
""focus"",""11"",""62432""
""blur"",""11"",""63549""
""focus"",""11"",""64231""
","""event"",""trial"",""time""
""blur"",""10"",""52057""
""blur"",""11"",""63549""
","""event"",""trial"",""time""
""focus"",""11"",""62432""
""focus"",""11"",""64231""
","""event"",""trial"",""time""
""fullscreenenter"",""1"",""5591""
","
","","2075.199999988079","","","","real_trial","2021-08-25 02:55:24.231","img/card_backs/set1/purple.gif","1","-190","1","",""
"casino-fixation","86","388921","0.0-25.0-0.8","228","true","img/card_backs/set1/purple.gif","img/card_backs/set1/yellow.gif","img/card_backs/set1/green.gif","img/card_backs/set1/red.gif","img/card_backs/set2/orange.gif","img/card_backs/set2/pink.gif","img/card_backs/set2/gray.gif","img/card_backs/set2/blue.gif","""event"",""trial"",""time""
""fullscreenenter"",""1"",""5591""
""blur"",""10"",""52057""
""focus"",""11"",""62432""
""blur"",""11"",""63549""
""focus"",""11"",""64231""
","""event"",""trial"",""time""
""blur"",""10"",""52057""
""blur"",""11"",""63549""
","""event"",""trial"",""time""
""focus"",""11"",""62432""
""focus"",""11"",""64231""
","""event"",""trial"",""time""
""fullscreenenter"",""1"",""5591""
","
","","null","","null","","fixation","2021-08-25 02:55:24.738","","","","","",""
"card-selection-trial","87","391913","0.0-25.0-1.8","228","true","img/card_backs/set1/purple.gif","img/card_backs/set1/yellow.gif","img/card_backs/set1/green.gif","img/card_backs/set1/red.gif","img/card_backs/set2/orange.gif","img/card_backs/set2/pink.gif","img/card_backs/set2/gray.gif","img/card_backs/set2/blue.gif","""event"",""trial"",""time""
""fullscreenenter"",""1"",""5591""
""blur"",""10"",""52057""
""focus"",""11"",""62432""
""blur"",""11"",""63549""
""focus"",""11"",""64231""
","""event"",""trial"",""time""
""blur"",""10"",""52057""
""blur"",""11"",""63549""
","""event"",""trial"",""time""
""focus"",""11"",""62432""
""focus"",""11"",""64231""
","""event"",""trial"",""time""
""fullscreenenter"",""1"",""5591""
","
","","980.2999999523163","","","","real_trial","2021-08-25 02:55:27.730","img/card_backs/set1/red.gif","3","60","1","",""
"casino-fixation","88","392418","0.0-25.0-0.9","228","true","img/card_backs/set1/purple.gif","img/card_backs/set1/yellow.gif","img/card_backs/set1/green.gif","img/card_backs/set1/red.gif","img/card_backs/set2/orange.gif","img/card_backs/set2/pink.gif","img/card_backs/set2/gray.gif","img/card_backs/set2/blue.gif","""event"",""trial"",""time""
""fullscreenenter"",""1"",""5591""
""blur"",""10"",""52057""
""focus"",""11"",""62432""
""blur"",""11"",""63549""
""focus"",""11"",""64231""
","""event"",""trial"",""time""
""blur"",""10"",""52057""
""blur"",""11"",""63549""
","""event"",""trial"",""time""
""focus"",""11"",""62432""
""focus"",""11"",""64231""
","""event"",""trial"",""time""
""fullscreenenter"",""1"",""5591""
","
","","null","","null","","fixation","2021-08-25 02:55:28.235","","","","","",""
"card-selection-trial","89","396686","0.0-25.0-1.9","228","true","img/card_backs/set1/purple.gif","img/card_backs/set1/yellow.gif","img/card_backs/set1/green.gif","img/card_backs/set1/red.gif","img/card_backs/set2/orange.gif","img/card_backs/set2/pink.gif","img/card_backs/set2/gray.gif","img/card_backs/set2/blue.gif","""event"",""trial"",""time""
""fullscreenenter"",""1"",""5591""
""blur"",""10"",""52057""
""focus"",""11"",""62432""
""blur"",""11"",""63549""
""focus"",""11"",""64231""
","""event"",""trial"",""time""
""blur"",""10"",""52057""
""blur"",""11"",""63549""
","""event"",""trial"",""time""
""focus"",""11"",""62432""
""focus"",""11"",""64231""
","""event"",""trial"",""time""
""fullscreenenter"",""1"",""5591""
","
","","2257.7999999523163","","","","real_trial","2021-08-25 02:55:32.503","img/card_backs/set1/red.gif","2","-110","1","",""
"casino-fixation","90","397192","0.0-25.0-0.10","228","true","img/card_backs/set1/purple.gif","img/card_backs/set1/yellow.gif","img/card_backs/set1/green.gif","img/card_backs/set1/red.gif","img/card_backs/set2/orange.gif","img/card_backs/set2/pink.gif","img/card_backs/set2/gray.gif","img/card_backs/set2/blue.gif","""event"",""trial"",""time""
""fullscreenenter"",""1"",""5591""
""blur"",""10"",""52057""
""focus"",""11"",""62432""
""blur"",""11"",""63549""
""focus"",""11"",""64231""
","""event"",""trial"",""time""
""blur"",""10"",""52057""
""blur"",""11"",""63549""
","""event"",""trial"",""time""
""focus"",""11"",""62432""
""focus"",""11"",""64231""
","""event"",""trial"",""time""
""fullscreenenter"",""1"",""5591""
","
","","null","","null","","fixation","2021-08-25 02:55:33.009","","","","","",""
"card-selection-trial","91","399968","0.0-25.0-1.10","228","true","img/card_backs/set1/purple.gif","img/card_backs/set1/yellow.gif","img/card_backs/set1/green.gif","img/card_backs/set1/red.gif","img/card_backs/set2/orange.gif","img/card_backs/set2/pink.gif","img/card_backs/set2/gray.gif","img/card_backs/set2/blue.gif","""event"",""trial"",""time""
""fullscreenenter"",""1"",""5591""
""blur"",""10"",""52057""
""focus"",""11"",""62432""
""blur"",""11"",""63549""
""focus"",""11"",""64231""
","""event"",""trial"",""time""
""blur"",""10"",""52057""
""blur"",""11"",""63549""
","""event"",""trial"",""time""
""focus"",""11"",""62432""
""focus"",""11"",""64231""
","""event"",""trial"",""time""
""fullscreenenter"",""1"",""5591""
","
","","764.8999999761581","","","","real_trial","2021-08-25 02:55:35.785","img/card_backs/set1/purple.gif","0","-190","1","",""
"casino-fixation","92","400477","0.0-25.0-0.11","228","true","img/card_backs/set1/purple.gif","img/card_backs/set1/yellow.gif","img/card_backs/set1/green.gif","img/card_backs/set1/red.gif","img/card_backs/set2/orange.gif","img/card_backs/set2/pink.gif","img/card_backs/set2/gray.gif","img/card_backs/set2/blue.gif","""event"",""trial"",""time""
""fullscreenenter"",""1"",""5591""
""blur"",""10"",""52057""
""focus"",""11"",""62432""
""blur"",""11"",""63549""
""focus"",""11"",""64231""
","""event"",""trial"",""time""
""blur"",""10"",""52057""
""blur"",""11"",""63549""
","""event"",""trial"",""time""
""focus"",""11"",""62432""
""focus"",""11"",""64231""
","""event"",""trial"",""time""
""fullscreenenter"",""1"",""5591""
","
","","null","","null","","fixation","2021-08-25 02:55:36.294","","","","","",""
"card-selection-trial","93","403693","0.0-25.0-1.11","228","true","img/card_backs/set1/purple.gif","img/card_backs/set1/yellow.gif","img/card_backs/set1/green.gif","img/card_backs/set1/red.gif","img/card_backs/set2/orange.gif","img/card_backs/set2/pink.gif","img/card_backs/set2/gray.gif","img/card_backs/set2/blue.gif","""event"",""trial"",""time""
""fullscreenenter"",""1"",""5591""
""blur"",""10"",""52057""
""focus"",""11"",""62432""
""blur"",""11"",""63549""
""focus"",""11"",""64231""
","""event"",""trial"",""time""
""blur"",""10"",""52057""
""blur"",""11"",""63549""
","""event"",""trial"",""time""
""focus"",""11"",""62432""
""focus"",""11"",""64231""
","""event"",""trial"",""time""
""fullscreenenter"",""1"",""5591""
","
","","1206.800000011921","","","","real_trial","2021-08-25 02:55:39.510","img/card_backs/set1/purple.gif","3","260","1","",""
"casino-fixation","94","404200","0.0-25.0-0.12","228","true","img/card_backs/set1/purple.gif","img/card_backs/set1/yellow.gif","img/card_backs/set1/green.gif","img/card_backs/set1/red.gif","img/card_backs/set2/orange.gif","img/card_backs/set2/pink.gif","img/card_backs/set2/gray.gif","img/card_backs/set2/blue.gif","""event"",""trial"",""time""
""fullscreenenter"",""1"",""5591""
""blur"",""10"",""52057""
""focus"",""11"",""62432""
""blur"",""11"",""63549""
""focus"",""11"",""64231""
","""event"",""trial"",""time""
""blur"",""10"",""52057""
""blur"",""11"",""63549""
","""event"",""trial"",""time""
""focus"",""11"",""62432""
""focus"",""11"",""64231""
","""event"",""trial"",""time""
""fullscreenenter"",""1"",""5591""
","
","","null","","null","","fixation","2021-08-25 02:55:40.017","","","","","",""
"card-selection-trial","95","407593","0.0-25.0-1.12","228","true","img/card_backs/set1/purple.gif","img/card_backs/set1/yellow.gif","img/card_backs/set1/green.gif","img/card_backs/set1/red.gif","img/card_backs/set2/orange.gif","img/card_backs/set2/pink.gif","img/card_backs/set2/gray.gif","img/card_backs/set2/blue.gif","""event"",""trial"",""time""
""fullscreenenter"",""1"",""5591""
""blur"",""10"",""52057""
""focus"",""11"",""62432""
""blur"",""11"",""63549""
""focus"",""11"",""64231""
","""event"",""trial"",""time""
""blur"",""10"",""52057""
""blur"",""11"",""63549""
","""event"",""trial"",""time""
""focus"",""11"",""62432""
""focus"",""11"",""64231""
","""event"",""trial"",""time""
""fullscreenenter"",""1"",""5591""
","
","","1382.699999988079","","","","real_trial","2021-08-25 02:55:43.410","img/card_backs/set1/red.gif","0","-90","1","",""
"casino-fixation","96","408098","0.0-25.0-0.13","228","true","img/card_backs/set1/purple.gif","img/card_backs/set1/yellow.gif","img/card_backs/set1/green.gif","img/card_backs/set1/red.gif","img/card_backs/set2/orange.gif","img/card_backs/set2/pink.gif","img/card_backs/set2/gray.gif","img/card_backs/set2/blue.gif","""event"",""trial"",""time""
""fullscreenenter"",""1"",""5591""
""blur"",""10"",""52057""
""focus"",""11"",""62432""
""blur"",""11"",""63549""
""focus"",""11"",""64231""
","""event"",""trial"",""time""
""blur"",""10"",""52057""
""blur"",""11"",""63549""
","""event"",""trial"",""time""
""focus"",""11"",""62432""
""focus"",""11"",""64231""
","""event"",""trial"",""time""
""fullscreenenter"",""1"",""5591""
","
","","null","","null","","fixation","2021-08-25 02:55:43.915","","","","","",""
"card-selection-trial","97","415016","0.0-25.0-1.13","228","true","img/card_backs/set1/purple.gif","img/card_backs/set1/yellow.gif","img/card_backs/set1/green.gif","img/card_backs/set1/red.gif","img/card_backs/set2/orange.gif","img/card_backs/set2/pink.gif","img/card_backs/set2/gray.gif","img/card_backs/set2/blue.gif","""event"",""trial"",""time""
""fullscreenenter"",""1"",""5591""
""blur"",""10"",""52057""
""focus"",""11"",""62432""
""blur"",""11"",""63549""
""focus"",""11"",""64231""
","""event"",""trial"",""time""
""blur"",""10"",""52057""
""blur"",""11"",""63549""
","""event"",""trial"",""time""
""focus"",""11"",""62432""
""focus"",""11"",""64231""
","""event"",""trial"",""time""
""fullscreenenter"",""1"",""5591""
","
","","4905.700000047684","","","","real_trial","2021-08-25 02:55:50.833","img/card_backs/set1/green.gif","1","-110","1","",""
"casino-fixation","98","415522","0.0-25.0-0.14","228","true","img/card_backs/set1/purple.gif","img/card_backs/set1/yellow.gif","img/card_backs/set1/green.gif","img/card_backs/set1/red.gif","img/card_backs/set2/orange.gif","img/card_backs/set2/pink.gif","img/card_backs/set2/gray.gif","img/card_backs/set2/blue.gif","""event"",""trial"",""time""
""fullscreenenter"",""1"",""5591""
""blur"",""10"",""52057""
""focus"",""11"",""62432""
""blur"",""11"",""63549""
""focus"",""11"",""64231""
","""event"",""trial"",""time""
""blur"",""10"",""52057""
""blur"",""11"",""63549""
","""event"",""trial"",""time""
""focus"",""11"",""62432""
""focus"",""11"",""64231""
","""event"",""trial"",""time""
""fullscreenenter"",""1"",""5591""
","
","","null","","null","","fixation","2021-08-25 02:55:51.339","","","","","",""
"card-selection-trial","99","418675","0.0-25.0-1.14","228","true","img/card_backs/set1/purple.gif","img/card_backs/set1/yellow.gif","img/card_backs/set1/green.gif","img/card_backs/set1/red.gif","img/card_backs/set2/orange.gif","img/card_backs/set2/pink.gif","img/card_backs/set2/gray.gif","img/card_backs/set2/blue.gif","""event"",""trial"",""time""
""fullscreenenter"",""1"",""5591""
""blur"",""10"",""52057""
""focus"",""11"",""62432""
""blur"",""11"",""63549""
""focus"",""11"",""64231""
","""event"",""trial"",""time""
""blur"",""10"",""52057""
""blur"",""11"",""63549""
","""event"",""trial"",""time""
""focus"",""11"",""62432""
""focus"",""11"",""64231""
","""event"",""trial"",""time""
""fullscreenenter"",""1"",""5591""
","
","","1143.5999999642372","","","","real_trial","2021-08-25 02:55:54.492","img/card_backs/set1/yellow.gif","3","-210","1","",""
"casino-fixation","100","419182","0.0-25.0-0.15","228","true","img/card_backs/set1/purple.gif","img/card_backs/set1/yellow.gif","img/card_backs/set1/green.gif","img/card_backs/set1/red.gif","img/card_backs/set2/orange.gif","img/card_backs/set2/pink.gif","img/card_backs/set2/gray.gif","img/card_backs/set2/blue.gif","""event"",""trial"",""time""
""fullscreenenter"",""1"",""5591""
""blur"",""10"",""52057""
""focus"",""11"",""62432""
""blur"",""11"",""63549""
""focus"",""11"",""64231""
","""event"",""trial"",""time""
""blur"",""10"",""52057""
""blur"",""11"",""63549""
","""event"",""trial"",""time""
""focus"",""11"",""62432""
""focus"",""11"",""64231""
","""event"",""trial"",""time""
""fullscreenenter"",""1"",""5591""
","
","","null","","null","","fixation","2021-08-25 02:55:55.000","","","","","",""
"card-selection-trial","101","422562","0.0-25.0-1.15","228","true","img/card_backs/set1/purple.gif","img/card_backs/set1/yellow.gif","img/card_backs/set1/green.gif","img/card_backs/set1/red.gif","img/card_backs/set2/orange.gif","img/card_backs/set2/pink.gif","img/card_backs/set2/gray.gif","img/card_backs/set2/blue.gif","""event"",""trial"",""time""
""fullscreenenter"",""1"",""5591""
""blur"",""10"",""52057""
""focus"",""11"",""62432""
""blur"",""11"",""63549""
""focus"",""11"",""64231""
","""event"",""trial"",""time""
""blur"",""10"",""52057""
""blur"",""11"",""63549""
","""event"",""trial"",""time""
""focus"",""11"",""62432""
""focus"",""11"",""64231""
","""event"",""trial"",""time""
""fullscreenenter"",""1"",""5591""
","
","","1368.0999999642372","","","","real_trial","2021-08-25 02:55:58.379","img/card_backs/set1/red.gif","1","50","1","",""
"casino-fixation","102","423064","0.0-25.0-0.16","228","true","img/card_backs/set1/purple.gif","img/card_backs/set1/yellow.gif","img/card_backs/set1/green.gif","img/card_backs/set1/red.gif","img/card_backs/set2/orange.gif","img/card_backs/set2/pink.gif","img/card_backs/set2/gray.gif","img/card_backs/set2/blue.gif","""event"",""trial"",""time""
""fullscreenenter"",""1"",""5591""
""blur"",""10"",""52057""
""focus"",""11"",""62432""
""blur"",""11"",""63549""
""focus"",""11"",""64231""
","""event"",""trial"",""time""
""blur"",""10"",""52057""
""blur"",""11"",""63549""
","""event"",""trial"",""time""
""focus"",""11"",""62432""
""focus"",""11"",""64231""
","""event"",""trial"",""time""
""fullscreenenter"",""1"",""5591""
","
","","null","","null","","fixation","2021-08-25 02:55:58.882","","","","","",""
"card-selection-trial","103","428620","0.0-25.0-1.16","228","true","img/card_backs/set1/purple.gif","img/card_backs/set1/yellow.gif","img/card_backs/set1/green.gif","img/card_backs/set1/red.gif","img/card_backs/set2/orange.gif","img/card_backs/set2/pink.gif","img/card_backs/set2/gray.gif","img/card_backs/set2/blue.gif","""event"",""trial"",""time""
""fullscreenenter"",""1"",""5591""
""blur"",""10"",""52057""
""focus"",""11"",""62432""
""blur"",""11"",""63549""
""focus"",""11"",""64231""
","""event"",""trial"",""time""
""blur"",""10"",""52057""
""blur"",""11"",""63549""
","""event"",""trial"",""time""
""focus"",""11"",""62432""
""focus"",""11"",""64231""
","""event"",""trial"",""time""
""fullscreenenter"",""1"",""5591""
","
","","3543.7000000476837","","","","real_trial","2021-08-25 02:56:04.438","img/card_backs/set1/purple.gif","2","240","1","",""
"casino-fixation","104","429127","0.0-25.0-0.17","228","true","img/card_backs/set1/purple.gif","img/card_backs/set1/yellow.gif","img/card_backs/set1/green.gif","img/card_backs/set1/red.gif","img/card_backs/set2/orange.gif","img/card_backs/set2/pink.gif","img/card_backs/set2/gray.gif","img/card_backs/set2/blue.gif","""event"",""trial"",""time""
""fullscreenenter"",""1"",""5591""
""blur"",""10"",""52057""
""focus"",""11"",""62432""
""blur"",""11"",""63549""
""focus"",""11"",""64231""
","""event"",""trial"",""time""
""blur"",""10"",""52057""
""blur"",""11"",""63549""
","""event"",""trial"",""time""
""focus"",""11"",""62432""
""focus"",""11"",""64231""
","""event"",""trial"",""time""
""fullscreenenter"",""1"",""5591""
","
","","null","","null","","fixation","2021-08-25 02:56:04.944","","","","","",""
"card-selection-trial","105","442138","0.0-25.0-1.17","228","true","img/card_backs/set1/purple.gif","img/card_backs/set1/yellow.gif","img/card_backs/set1/green.gif","img/card_backs/set1/red.gif","img/card_backs/set2/orange.gif","img/card_backs/set2/pink.gif","img/card_backs/set2/gray.gif","img/card_backs/set2/blue.gif","""event"",""trial"",""time""
""fullscreenenter"",""1"",""5591""
""blur"",""10"",""52057""
""focus"",""11"",""62432""
""blur"",""11"",""63549""
""focus"",""11"",""64231""
","""event"",""trial"",""time""
""blur"",""10"",""52057""
""blur"",""11"",""63549""
","""event"",""trial"",""time""
""focus"",""11"",""62432""
""focus"",""11"",""64231""
","""event"",""trial"",""time""
""fullscreenenter"",""1"",""5591""
","
","","null","","","","real_trial","2021-08-25 02:56:17.955","null","null","null","1","",""
"casino-fixation","106","442642","0.0-25.0-0.18","228","true","img/card_backs/set1/purple.gif","img/card_backs/set1/yellow.gif","img/card_backs/set1/green.gif","img/card_backs/set1/red.gif","img/card_backs/set2/orange.gif","img/card_backs/set2/pink.gif","img/card_backs/set2/gray.gif","img/card_backs/set2/blue.gif","""event"",""trial"",""time""
""fullscreenenter"",""1"",""5591""
""blur"",""10"",""52057""
""focus"",""11"",""62432""
""blur"",""11"",""63549""
""focus"",""11"",""64231""
","""event"",""trial"",""time""
""blur"",""10"",""52057""
""blur"",""11"",""63549""
","""event"",""trial"",""time""
""focus"",""11"",""62432""
""focus"",""11"",""64231""
","""event"",""trial"",""time""
""fullscreenenter"",""1"",""5591""
","
","","null","","null","","fixation","2021-08-25 02:56:18.459","","","","","",""
"card-selection-trial","107","453720","0.0-25.0-1.18","228","true","img/card_backs/set1/purple.gif","img/card_backs/set1/yellow.gif","img/card_backs/set1/green.gif","img/card_backs/set1/red.gif","img/card_backs/set2/orange.gif","img/card_backs/set2/pink.gif","img/card_backs/set2/gray.gif","img/card_backs/set2/blue.gif","""event"",""trial"",""time""
""fullscreenenter"",""1"",""5591""
""blur"",""10"",""52057""
""focus"",""11"",""62432""
""blur"",""11"",""63549""
""focus"",""11"",""64231""
","""event"",""trial"",""time""
""blur"",""10"",""52057""
""blur"",""11"",""63549""
","""event"",""trial"",""time""
""focus"",""11"",""62432""
""focus"",""11"",""64231""
","""event"",""trial"",""time""
""fullscreenenter"",""1"",""5591""
","
","","9065.5","","","","real_trial","2021-08-25 02:56:29.538","img/card_backs/set1/purple.gif","2","-210","1","",""
"casino-fixation","108","454225","0.0-25.0-0.19","228","true","img/card_backs/set1/purple.gif","img/card_backs/set1/yellow.gif","img/card_backs/set1/green.gif","img/card_backs/set1/red.gif","img/card_backs/set2/orange.gif","img/card_backs/set2/pink.gif","img/card_backs/set2/gray.gif","img/card_backs/set2/blue.gif","""event"",""trial"",""time""
""fullscreenenter"",""1"",""5591""
""blur"",""10"",""52057""
""focus"",""11"",""62432""
""blur"",""11"",""63549""
""focus"",""11"",""64231""
","""event"",""trial"",""time""
""blur"",""10"",""52057""
""blur"",""11"",""63549""
","""event"",""trial"",""time""
""focus"",""11"",""62432""
""focus"",""11"",""64231""
","""event"",""trial"",""time""
""fullscreenenter"",""1"",""5591""
","
","","null","","null","","fixation","2021-08-25 02:56:30.043","","","","","",""
"card-selection-trial","109","457045","0.0-25.0-1.19","228","true","img/card_backs/set1/purple.gif","img/card_backs/set1/yellow.gif","img/card_backs/set1/green.gif","img/card_backs/set1/red.gif","img/card_backs/set2/orange.gif","img/card_backs/set2/pink.gif","img/card_backs/set2/gray.gif","img/card_backs/set2/blue.gif","""event"",""trial"",""time""
""fullscreenenter"",""1"",""5591""
""blur"",""10"",""52057""
""focus"",""11"",""62432""
""blur"",""11"",""63549""
""focus"",""11"",""64231""
","""event"",""trial"",""time""
""blur"",""10"",""52057""
""blur"",""11"",""63549""
","""event"",""trial"",""time""
""focus"",""11"",""62432""
""focus"",""11"",""64231""
","""event"",""trial"",""time""
""fullscreenenter"",""1"",""5591""
","
","","806.8999999761581","","","","real_trial","2021-08-25 02:56:32.862","img/card_backs/set1/yellow.gif","3","-210","1","",""
"casino-fixation","110","457549","0.0-25.0-0.20","228","true","img/card_backs/set1/purple.gif","img/card_backs/set1/yellow.gif","img/card_backs/set1/green.gif","img/card_backs/set1/red.gif","img/card_backs/set2/orange.gif","img/card_backs/set2/pink.gif","img/card_backs/set2/gray.gif","img/card_backs/set2/blue.gif","""event"",""trial"",""time""
""fullscreenenter"",""1"",""5591""
""blur"",""10"",""52057""
""focus"",""11"",""62432""
""blur"",""11"",""63549""
""focus"",""11"",""64231""
","""event"",""trial"",""time""
""blur"",""10"",""52057""
""blur"",""11"",""63549""
","""event"",""trial"",""time""
""focus"",""11"",""62432""
""focus"",""11"",""64231""
","""event"",""trial"",""time""
""fullscreenenter"",""1"",""5591""
","
","","null","","null","","fixation","2021-08-25 02:56:33.366","","","","","",""
"card-selection-trial","111","460603","0.0-25.0-1.20","228","true","img/card_backs/set1/purple.gif","img/card_backs/set1/yellow.gif","img/card_backs/set1/green.gif","img/card_backs/set1/red.gif","img/card_backs/set2/orange.gif","img/card_backs/set2/pink.gif","img/card_backs/set2/gray.gif","img/card_backs/set2/blue.gif","""event"",""trial"",""time""
""fullscreenenter"",""1"",""5591""
""blur"",""10"",""52057""
""focus"",""11"",""62432""
""blur"",""11"",""63549""
""focus"",""11"",""64231""
","""event"",""trial"",""time""
""blur"",""10"",""52057""
""blur"",""11"",""63549""
","""event"",""trial"",""time""
""focus"",""11"",""62432""
""focus"",""11"",""64231""
","""event"",""trial"",""time""
""fullscreenenter"",""1"",""5591""
","
","","1044.3999999761581","","","","real_trial","2021-08-25 02:56:36.420","img/card_backs/set1/yellow.gif","1","260","1","",""
"casino-fixation","112","461104","0.0-25.0-0.21","228","true","img/card_backs/set1/purple.gif","img/card_backs/set1/yellow.gif","img/card_backs/set1/green.gif","img/card_backs/set1/red.gif","img/card_backs/set2/orange.gif","img/card_backs/set2/pink.gif","img/card_backs/set2/gray.gif","img/card_backs/set2/blue.gif","""event"",""trial"",""time""
""fullscreenenter"",""1"",""5591""
""blur"",""10"",""52057""
""focus"",""11"",""62432""
""blur"",""11"",""63549""
""focus"",""11"",""64231""
","""event"",""trial"",""time""
""blur"",""10"",""52057""
""blur"",""11"",""63549""
","""event"",""trial"",""time""
""focus"",""11"",""62432""
""focus"",""11"",""64231""
","""event"",""trial"",""time""
""fullscreenenter"",""1"",""5591""
","
","","null","","null","","fixation","2021-08-25 02:56:36.922","","","","","",""
"card-selection-trial","113","465027","0.0-25.0-1.21","228","true","img/card_backs/set1/purple.gif","img/card_backs/set1/yellow.gif","img/card_backs/set1/green.gif","img/card_backs/set1/red.gif","img/card_backs/set2/orange.gif","img/card_backs/set2/pink.gif","img/card_backs/set2/gray.gif","img/card_backs/set2/blue.gif","""event"",""trial"",""time""
""fullscreenenter"",""1"",""5591""
""blur"",""10"",""52057""
""focus"",""11"",""62432""
""blur"",""11"",""63549""
""focus"",""11"",""64231""
","""event"",""trial"",""time""
""blur"",""10"",""52057""
""blur"",""11"",""63549""
","""event"",""trial"",""time""
""focus"",""11"",""62432""
""focus"",""11"",""64231""
","""event"",""trial"",""time""
""fullscreenenter"",""1"",""5591""
","
","","1914.300000011921","","","","real_trial","2021-08-25 02:56:40.844","img/card_backs/set1/red.gif","2","60","1","",""
"casino-fixation","114","465535","0.0-25.0-0.22","228","true","img/card_backs/set1/purple.gif","img/card_backs/set1/yellow.gif","img/card_backs/set1/green.gif","img/card_backs/set1/red.gif","img/card_backs/set2/orange.gif","img/card_backs/set2/pink.gif","img/card_backs/set2/gray.gif","img/card_backs/set2/blue.gif","""event"",""trial"",""time""
""fullscreenenter"",""1"",""5591""
""blur"",""10"",""52057""
""focus"",""11"",""62432""
""blur"",""11"",""63549""
""focus"",""11"",""64231""
","""event"",""trial"",""time""
""blur"",""10"",""52057""
""blur"",""11"",""63549""
","""event"",""trial"",""time""
""focus"",""11"",""62432""
""focus"",""11"",""64231""
","""event"",""trial"",""time""
""fullscreenenter"",""1"",""5591""
","
","","null","","null","","fixation","2021-08-25 02:56:41.352","","","","","",""
"card-selection-trial","115","468470","0.0-25.0-1.22","228","true","img/card_backs/set1/purple.gif","img/card_backs/set1/yellow.gif","img/card_backs/set1/green.gif","img/card_backs/set1/red.gif","img/card_backs/set2/orange.gif","img/card_backs/set2/pink.gif","img/card_backs/set2/gray.gif","img/card_backs/set2/blue.gif","""event"",""trial"",""time""
""fullscreenenter"",""1"",""5591""
""blur"",""10"",""52057""
""focus"",""11"",""62432""
""blur"",""11"",""63549""
""focus"",""11"",""64231""
","""event"",""trial"",""time""
""blur"",""10"",""52057""
""blur"",""11"",""63549""
","""event"",""trial"",""time""
""focus"",""11"",""62432""
""focus"",""11"",""64231""
","""event"",""trial"",""time""
""fullscreenenter"",""1"",""5591""
","
","","924.8999999761581","","","","real_trial","2021-08-25 02:56:44.287","img/card_backs/set1/purple.gif","3","-210","1","",""
"casino-fixation","116","468977","0.0-25.0-0.23","228","true","img/card_backs/set1/purple.gif","img/card_backs/set1/yellow.gif","img/card_backs/set1/green.gif","img/card_backs/set1/red.gif","img/card_backs/set2/orange.gif","img/card_backs/set2/pink.gif","img/card_backs/set2/gray.gif","img/card_backs/set2/blue.gif","""event"",""trial"",""time""
""fullscreenenter"",""1"",""5591""
""blur"",""10"",""52057""
""focus"",""11"",""62432""
""blur"",""11"",""63549""
""focus"",""11"",""64231""
","""event"",""trial"",""time""
""blur"",""10"",""52057""
""blur"",""11"",""63549""
