"trial_type","trial_index","time_elapsed","internal_node_id","sub_id","risk_good_first","block1_A","block1_B","block1_C","block1_D","block2_A","block2_B","block2_C","block2_D","interactions","blur_events","focus_events","fullscreenenter_events","fullscreenexit_events","success","rt","stimulus","key_press","button_pressed","task_part","timestamp","card_choice","choice_position","points_earned","block","correct","response"
"pavlovia","0","7","0.0-0.0","981","false","img/card_backs/set1/purple.gif","img/card_backs/set1/green.gif","img/card_backs/set1/red.gif","img/card_backs/set1/yellow.gif","img/card_backs/set2/pink.gif","img/card_backs/set2/blue.gif","img/card_backs/set2/orange.gif","img/card_backs/set2/gray.gif","""event"",""trial"",""time""
""fullscreenenter"",""1"",""8906""
","
","
","""event"",""trial"",""time""
""fullscreenenter"",""1"",""8906""
","
","","","","","","","","","","","","",""
"fullscreen","1","9883","0.0-1.0","981","false","img/card_backs/set1/purple.gif","img/card_backs/set1/green.gif","img/card_backs/set1/red.gif","img/card_backs/set1/yellow.gif","img/card_backs/set2/pink.gif","img/card_backs/set2/blue.gif","img/card_backs/set2/orange.gif","img/card_backs/set2/gray.gif","""event"",""trial"",""time""
""fullscreenenter"",""1"",""8906""
","
","
","""event"",""trial"",""time""
""fullscreenenter"",""1"",""8906""
","
","true","","","","","","","","","","","",""
"audio-keyboard-response","2","13253","0.0-2.0","981","false","img/card_backs/set1/purple.gif","img/card_backs/set1/green.gif","img/card_backs/set1/red.gif","img/card_backs/set1/yellow.gif","img/card_backs/set2/pink.gif","img/card_backs/set2/blue.gif","img/card_backs/set2/orange.gif","img/card_backs/set2/gray.gif","""event"",""trial"",""time""
""fullscreenenter"",""1"",""8906""
","
","
","""event"",""trial"",""time""
""fullscreenenter"",""1"",""8906""
","
","","2531","audio/beep_loop.wav","32","","","","","","","","",""
"audio-button-response","3","15931","0.0-3.0","981","false","img/card_backs/set1/purple.gif","img/card_backs/set1/green.gif","img/card_backs/set1/red.gif","img/card_backs/set1/yellow.gif","img/card_backs/set2/pink.gif","img/card_backs/set2/blue.gif","img/card_backs/set2/orange.gif","img/card_backs/set2/gray.gif","""event"",""trial"",""time""
""fullscreenenter"",""1"",""8906""
","
","
","""event"",""trial"",""time""
""fullscreenenter"",""1"",""8906""
","
","","NaN","audio/turtle.mp3","","3","","","","","","","",""
"audio-button-response","4","19564","0.0-4.0","981","false","img/card_backs/set1/purple.gif","img/card_backs/set1/green.gif","img/card_backs/set1/red.gif","img/card_backs/set1/yellow.gif","img/card_backs/set2/pink.gif","img/card_backs/set2/blue.gif","img/card_backs/set2/orange.gif","img/card_backs/set2/gray.gif","""event"",""trial"",""time""
""fullscreenenter"",""1"",""8906""
","
","
","""event"",""trial"",""time""
""fullscreenenter"",""1"",""8906""
","
","","NaN","audio/shark.mp3","","2","","","","","","","",""
"fullscreen","5","30037","0.0-5.0","981","false","img/card_backs/set1/purple.gif","img/card_backs/set1/green.gif","img/card_backs/set1/red.gif","img/card_backs/set1/yellow.gif","img/card_backs/set2/pink.gif","img/card_backs/set2/blue.gif","img/card_backs/set2/orange.gif","img/card_backs/set2/gray.gif","""event"",""trial"",""time""
""fullscreenenter"",""1"",""8906""
","
","
","""event"",""trial"",""time""
""fullscreenenter"",""1"",""8906""
","
","true","","","","","","","","","","","",""
"casino-keyboard-response","6","35605","0.0-6.0-0.0","981","false","img/card_backs/set1/purple.gif","img/card_backs/set1/green.gif","img/card_backs/set1/red.gif","img/card_backs/set1/yellow.gif","img/card_backs/set2/pink.gif","img/card_backs/set2/blue.gif","img/card_backs/set2/orange.gif","img/card_backs/set2/gray.gif","""event"",""trial"",""time""
""fullscreenenter"",""1"",""8906""
","
","
","""event"",""trial"",""time""
""fullscreenenter"",""1"",""8906""
","
","","5561.700000047684","Welcome to the casino!","71","","instructions","2021-07-16 00:36:00.607","","","","","",""
"casino-keyboard-response","7","45376","0.0-6.0-0.1","981","false","img/card_backs/set1/purple.gif","img/card_backs/set1/green.gif","img/card_backs/set1/red.gif","img/card_backs/set1/yellow.gif","img/card_backs/set2/pink.gif","img/card_backs/set2/blue.gif","img/card_backs/set2/orange.gif","img/card_backs/set2/gray.gif","""event"",""trial"",""time""
""fullscreenenter"",""1"",""8906""
","
","
","""event"",""trial"",""time""
""fullscreenenter"",""1"",""8906""
","
","","9768.200000047684","Today you will be playing a game to earn tokens. </br> At the end of the experiment, you will be paid a bonus based on how many tokens you win. ","69","","instructions","2021-07-16 00:36:10.377","","","","","",""
"casino-keyboard-response","8","57791","0.0-6.0-0.2","981","false","img/card_backs/set1/purple.gif","img/card_backs/set1/green.gif","img/card_backs/set1/red.gif","img/card_backs/set1/yellow.gif","img/card_backs/set2/pink.gif","img/card_backs/set2/blue.gif","img/card_backs/set2/orange.gif","img/card_backs/set2/gray.gif","""event"",""trial"",""time""
""fullscreenenter"",""1"",""8906""
","
","
","""event"",""trial"",""time""
""fullscreenenter"",""1"",""8906""
","
","","12411.799999952316","On every turn, you will be shown four different decks of cards. </br> You need to select a card from one of the four decks.  ","75","","instructions","2021-07-16 00:36:22.792","","","","","",""
"casino-keyboard-response","9","63244","0.0-6.0-0.3","981","false","img/card_backs/set1/purple.gif","img/card_backs/set1/green.gif","img/card_backs/set1/red.gif","img/card_backs/set1/yellow.gif","img/card_backs/set2/pink.gif","img/card_backs/set2/blue.gif","img/card_backs/set2/orange.gif","img/card_backs/set2/gray.gif","""event"",""trial"",""time""
""fullscreenenter"",""1"",""8906""
","
","
","""event"",""trial"",""time""
""fullscreenenter"",""1"",""8906""
","
","","5450.599999904633","On the next screen, you will see what the decks will look like. ","66","","instructions","2021-07-16 00:36:28.245","","","","","",""
"card-selection-trial","10","67278","0.0-7.0-0.0","981","false","img/card_backs/set1/purple.gif","img/card_backs/set1/green.gif","img/card_backs/set1/red.gif","img/card_backs/set1/yellow.gif","img/card_backs/set2/pink.gif","img/card_backs/set2/blue.gif","img/card_backs/set2/orange.gif","img/card_backs/set2/gray.gif","""event"",""trial"",""time""
""fullscreenenter"",""1"",""8906""
","
","
","""event"",""trial"",""time""
""fullscreenenter"",""1"",""8906""
","
","","null","","","","practice","2021-07-16 00:36:32.279","null","null","null","0","",""
"casino-keyboard-response","11","76360","0.0-8.0-0.0","981","false","img/card_backs/set1/purple.gif","img/card_backs/set1/green.gif","img/card_backs/set1/red.gif","img/card_backs/set1/yellow.gif","img/card_backs/set2/pink.gif","img/card_backs/set2/blue.gif","img/card_backs/set2/orange.gif","img/card_backs/set2/gray.gif","""event"",""trial"",""time""
""fullscreenenter"",""1"",""8906""
","
","
","""event"",""trial"",""time""
""fullscreenenter"",""1"",""8906""
","
","","9079.599999904633","You should pick a card from a deck using the '2', '4', '6', and '8' keys at the top of the keyboard.","85","","instructions","2021-07-16 00:36:41.361","","","","","",""
"casino-keyboard-response","12","81851","0.0-8.0-0.1","981","false","img/card_backs/set1/purple.gif","img/card_backs/set1/green.gif","img/card_backs/set1/red.gif","img/card_backs/set1/yellow.gif","img/card_backs/set2/pink.gif","img/card_backs/set2/blue.gif","img/card_backs/set2/orange.gif","img/card_backs/set2/gray.gif","""event"",""trial"",""time""
""fullscreenenter"",""1"",""8906""
","
","
","""event"",""trial"",""time""
""fullscreenenter"",""1"",""8906""
","
","","5488.5","Once you select a card, it will turn over and you will see how many tokens you earned.","83","","instructions","2021-07-16 00:36:46.852","","","","","",""
"casino-keyboard-response","13","98786","0.0-8.0-0.2","981","false","img/card_backs/set1/purple.gif","img/card_backs/set1/green.gif","img/card_backs/set1/red.gif","img/card_backs/set1/yellow.gif","img/card_backs/set2/pink.gif","img/card_backs/set2/blue.gif","img/card_backs/set2/orange.gif","img/card_backs/set2/gray.gif","""event"",""trial"",""time""
""fullscreenenter"",""1"",""8906""
","
","
","""event"",""trial"",""time""
""fullscreenenter"",""1"",""8906""
","
","","16932.299999952316","Let's try practicing that! </br> First, try to put your fingers over the '2', '4', '6', and '8' keys. </br>  You can use whatever fingers are most comfortable for you. Try to find a comfortable position now. ","50","","instructions","2021-07-16 00:37:03.787","","","","","",""
"casino-keyboard-response","14","105719","0.0-8.0-0.3","981","false","img/card_backs/set1/purple.gif","img/card_backs/set1/green.gif","img/card_backs/set1/red.gif","img/card_backs/set1/yellow.gif","img/card_backs/set2/pink.gif","img/card_backs/set2/blue.gif","img/card_backs/set2/orange.gif","img/card_backs/set2/gray.gif","""event"",""trial"",""time""
""fullscreenenter"",""1"",""8906""
","
","
","""event"",""trial"",""time""
""fullscreenenter"",""1"",""8906""
","
","","6929.899999856949","Okay ready? </br> On the next screen, press '2' to select the left deck. ","50","","instructions","2021-07-16 00:37:10.721","","","","","",""
"card-selection-trial","15","109398","0.0-9.0-0.0","981","false","img/card_backs/set1/purple.gif","img/card_backs/set1/green.gif","img/card_backs/set1/red.gif","img/card_backs/set1/yellow.gif","img/card_backs/set2/pink.gif","img/card_backs/set2/blue.gif","img/card_backs/set2/orange.gif","img/card_backs/set2/gray.gif","""event"",""trial"",""time""
""fullscreenenter"",""1"",""8906""
","
","
","""event"",""trial"",""time""
""fullscreenenter"",""1"",""8906""
","
","","1651.2000000476837","","","","practice_card_selection","2021-07-16 00:37:14.399","img/practice_cards/backs/black.gif","0","-100","","",""
"casino-keyboard-response","16","115873","0.0-10.0-0.0","981","false","img/card_backs/set1/purple.gif","img/card_backs/set1/green.gif","img/card_backs/set1/red.gif","img/card_backs/set1/yellow.gif","img/card_backs/set2/pink.gif","img/card_backs/set2/blue.gif","img/card_backs/set2/orange.gif","img/card_backs/set2/gray.gif","""event"",""trial"",""time""
""fullscreenenter"",""1"",""8906""
","
","
","""event"",""trial"",""time""
""fullscreenenter"",""1"",""8906""
","
","","6472.299999952316","Great! Now on the next screen, try pressing '6' to select the third deck.","54","","instructions","2021-07-16 00:37:20.875","","","","","",""
"card-selection-trial","17","118468","0.0-11.0-0.0","981","false","img/card_backs/set1/purple.gif","img/card_backs/set1/green.gif","img/card_backs/set1/red.gif","img/card_backs/set1/yellow.gif","img/card_backs/set2/pink.gif","img/card_backs/set2/blue.gif","img/card_backs/set2/orange.gif","img/card_backs/set2/gray.gif","""event"",""trial"",""time""
""fullscreenenter"",""1"",""8906""
","
","
","""event"",""trial"",""time""
""fullscreenenter"",""1"",""8906""
","
","","578","","","","practice_card_selection","2021-07-16 00:37:23.469","img/practice_cards/backs/dark_blue.gif","2","-200","","",""
"casino-keyboard-response","18","123380","0.0-12.0-0.0","981","false","img/card_backs/set1/purple.gif","img/card_backs/set1/green.gif","img/card_backs/set1/red.gif","img/card_backs/set1/yellow.gif","img/card_backs/set2/pink.gif","img/card_backs/set2/blue.gif","img/card_backs/set2/orange.gif","img/card_backs/set2/gray.gif","""event"",""trial"",""time""
""fullscreenenter"",""1"",""8906""
","
","
","""event"",""trial"",""time""
""fullscreenenter"",""1"",""8906""
","
","","4910.5","Now on the next screen, try pressing '4' to select the second deck.","52","","instructions","2021-07-16 00:37:28.382","","","","","",""
"card-selection-trial","19","126062","0.0-13.0-0.0","981","false","img/card_backs/set1/purple.gif","img/card_backs/set1/green.gif","img/card_backs/set1/red.gif","img/card_backs/set1/yellow.gif","img/card_backs/set2/pink.gif","img/card_backs/set2/blue.gif","img/card_backs/set2/orange.gif","img/card_backs/set2/gray.gif","""event"",""trial"",""time""
""fullscreenenter"",""1"",""8906""
","
","
","""event"",""trial"",""time""
""fullscreenenter"",""1"",""8906""
","
","","664.2999999523163","","","","practice_card_selection","2021-07-16 00:37:31.063","img/practice_cards/backs/dark_green.gif","1","200","","",""
"casino-keyboard-response","20","130904","0.0-14.0-0.0","981","false","img/card_backs/set1/purple.gif","img/card_backs/set1/green.gif","img/card_backs/set1/red.gif","img/card_backs/set1/yellow.gif","img/card_backs/set2/pink.gif","img/card_backs/set2/blue.gif","img/card_backs/set2/orange.gif","img/card_backs/set2/gray.gif","""event"",""trial"",""time""
""fullscreenenter"",""1"",""8906""
","
","
","""event"",""trial"",""time""
""fullscreenenter"",""1"",""8906""
","
","","4839.900000095367","Finally, try pressing '8' to select the deck all the way on the right.","56","","instructions","2021-07-16 00:37:35.905","","","","","",""
"card-selection-trial","21","133498","0.0-15.0-0.0","981","false","img/card_backs/set1/purple.gif","img/card_backs/set1/green.gif","img/card_backs/set1/red.gif","img/card_backs/set1/yellow.gif","img/card_backs/set2/pink.gif","img/card_backs/set2/blue.gif","img/card_backs/set2/orange.gif","img/card_backs/set2/gray.gif","""event"",""trial"",""time""
""fullscreenenter"",""1"",""8906""
","
","
","""event"",""trial"",""time""
""fullscreenenter"",""1"",""8906""
","
","","576.3000001907349","","","","practice_card_selection","2021-07-16 00:37:38.499","img/practice_cards/backs/black.gif","3","-100","","",""
"casino-keyboard-response","22","137517","0.0-16.0-0.0","981","false","img/card_backs/set1/purple.gif","img/card_backs/set1/green.gif","img/card_backs/set1/red.gif","img/card_backs/set1/yellow.gif","img/card_backs/set2/pink.gif","img/card_backs/set2/blue.gif","img/card_backs/set2/orange.gif","img/card_backs/set2/gray.gif","""event"",""trial"",""time""
""fullscreenenter"",""1"",""8906""
","
","
","""event"",""trial"",""time""
""fullscreenenter"",""1"",""8906""
","
","","4016.7000000476837","Great! It seems like you are getting the hang of this.","80","","instructions","2021-07-16 00:37:42.518","","","","","",""
"casino-keyboard-response","23","150207","0.0-16.0-0.1","981","false","img/card_backs/set1/purple.gif","img/card_backs/set1/green.gif","img/card_backs/set1/red.gif","img/card_backs/set1/yellow.gif","img/card_backs/set2/pink.gif","img/card_backs/set2/blue.gif","img/card_backs/set2/orange.gif","img/card_backs/set2/gray.gif","""event"",""trial"",""time""
""fullscreenenter"",""1"",""8906""
","
","
","""event"",""trial"",""time""
""fullscreenenter"",""1"",""8906""
","
","","12687.399999856949","You may have noticed that some cards will cause you to <b> win </b> tokens while other cards will cause you to <b> lose </b>  tokens.","70","","instructions","2021-07-16 00:37:55.209","","","","","",""
"casino-keyboard-response","24","162413","0.0-16.0-0.2","981","false","img/card_backs/set1/purple.gif","img/card_backs/set1/green.gif","img/card_backs/set1/red.gif","img/card_backs/set1/yellow.gif","img/card_backs/set2/pink.gif","img/card_backs/set2/blue.gif","img/card_backs/set2/orange.gif","img/card_backs/set2/gray.gif","""event"",""trial"",""time""
""fullscreenenter"",""1"",""8906""
","
","
","""event"",""trial"",""time""
""fullscreenenter"",""1"",""8906""
","
","","12202.700000047684","Each deck has a mix of cards that will cause you to win and lose tokens. </br> However, the cards in each colored deck are different.","73","","instructions","2021-07-16 00:38:07.414","","","","","",""
"casino-keyboard-response","25","171695","0.0-16.0-0.3","981","false","img/card_backs/set1/purple.gif","img/card_backs/set1/green.gif","img/card_backs/set1/red.gif","img/card_backs/set1/yellow.gif","img/card_backs/set2/pink.gif","img/card_backs/set2/blue.gif","img/card_backs/set2/orange.gif","img/card_backs/set2/gray.gif","""event"",""trial"",""time""
""fullscreenenter"",""1"",""8906""
","
","
","""event"",""trial"",""time""
""fullscreenenter"",""1"",""8906""
","
","","9278.899999856949","Some colored decks are luckier than others. </br> If you choose the lucky decks, you will earn more tokens than if you choose the unlucky decks.","69","","instructions","2021-07-16 00:38:16.696","","","","","",""
"casino-keyboard-response","26","179336","0.0-16.0-0.4","981","false","img/card_backs/set1/purple.gif","img/card_backs/set1/green.gif","img/card_backs/set1/red.gif","img/card_backs/set1/yellow.gif","img/card_backs/set2/pink.gif","img/card_backs/set2/blue.gif","img/card_backs/set2/orange.gif","img/card_backs/set2/gray.gif","""event"",""trial"",""time""
""fullscreenenter"",""1"",""8906""
","
","
","""event"",""trial"",""time""
""fullscreenenter"",""1"",""8906""
","
","","7638.200000047684","You should try to figure out which decks are lucky. </br> Then, try to choose the lucky decks so you can win the most tokens.","87","","instructions","2021-07-16 00:38:24.337","","","","","",""
"casino-keyboard-response","27","190922","0.0-16.0-0.5","981","false","img/card_backs/set1/purple.gif","img/card_backs/set1/green.gif","img/card_backs/set1/red.gif","img/card_backs/set1/yellow.gif","img/card_backs/set2/pink.gif","img/card_backs/set2/blue.gif","img/card_backs/set2/orange.gif","img/card_backs/set2/gray.gif","""event"",""trial"",""time""
""fullscreenenter"",""1"",""8906""
","
","
","""event"",""trial"",""time""
""fullscreenenter"",""1"",""8906""
","
","","11583.799999952316","To make it trickier, the casino dealer will switch the locations of the decks on every turn. </br> The color of the deck determines how lucky it is. The location does not matter.","88","","instructions","2021-07-16 00:38:35.923","","","","","",""
"casino-keyboard-response","28","203876","0.0-16.0-0.6","981","false","img/card_backs/set1/purple.gif","img/card_backs/set1/green.gif","img/card_backs/set1/red.gif","img/card_backs/set1/yellow.gif","img/card_backs/set2/pink.gif","img/card_backs/set2/blue.gif","img/card_backs/set2/orange.gif","img/card_backs/set2/gray.gif","""event"",""trial"",""time""
""fullscreenenter"",""1"",""8906""
","
","
","""event"",""trial"",""time""
""fullscreenenter"",""1"",""8906""
","
","","12948.799999952316","The mix of cards in each colored deck will stay the same throughout the game. </br> That means that a deck that is lucky early on will stay lucky.","79","","instructions","2021-07-16 00:38:48.877","","","","","",""
"casino-keyboard-response","29","212247","0.0-16.0-0.7","981","false","img/card_backs/set1/purple.gif","img/card_backs/set1/green.gif","img/card_backs/set1/red.gif","img/card_backs/set1/yellow.gif","img/card_backs/set2/pink.gif","img/card_backs/set2/blue.gif","img/card_backs/set2/orange.gif","img/card_backs/set2/gray.gif","""event"",""trial"",""time""
""fullscreenenter"",""1"",""8906""
","
","
","""event"",""trial"",""time""
""fullscreenenter"",""1"",""8906""
","
","","8366.799999952316","Remember though, all the decks have a <b> mix </b> of both <b> good </b> and <b> bad </b> cards so it may take a couple of turns to figure out if a deck is lucky.","69","","instructions","2021-07-16 00:38:57.248","","","","","",""
"casino-keyboard-response","30","220824","0.0-16.0-0.8","981","false","img/card_backs/set1/purple.gif","img/card_backs/set1/green.gif","img/card_backs/set1/red.gif","img/card_backs/set1/yellow.gif","img/card_backs/set2/pink.gif","img/card_backs/set2/blue.gif","img/card_backs/set2/orange.gif","img/card_backs/set2/gray.gif","""event"",""trial"",""time""
""fullscreenenter"",""1"",""8906""
","
","
","""event"",""trial"",""time""
""fullscreenenter"",""1"",""8906""
","
","","8573.100000143051","At the end of the game, you will be paid bonus money based on how many tokens you win. </br> If you win more tokens, you will earn more money!","72","","instructions","2021-07-16 00:39:05.825","","","","","",""
"casino-keyboard-response","31","231076","0.0-16.0-0.9","981","false","img/card_backs/set1/purple.gif","img/card_backs/set1/green.gif","img/card_backs/set1/red.gif","img/card_backs/set1/yellow.gif","img/card_backs/set2/pink.gif","img/card_backs/set2/blue.gif","img/card_backs/set2/orange.gif","img/card_backs/set2/gray.gif","""event"",""trial"",""time""
""fullscreenenter"",""1"",""8906""
","
","
","""event"",""trial"",""time""
""fullscreenenter"",""1"",""8906""
","
","","10248.199999809265","You will never <b> lose </b> money. </br> If you end up with fewer than 0 tokens, you will earn $0 of bonus money, but you will still be paid for playing the game.","83","","instructions","2021-07-16 00:39:16.077","","","","","",""
"casino-keyboard-response","32","235413","0.0-16.0-0.10","981","false","img/card_backs/set1/purple.gif","img/card_backs/set1/green.gif","img/card_backs/set1/red.gif","img/card_backs/set1/yellow.gif","img/card_backs/set2/pink.gif","img/card_backs/set2/blue.gif","img/card_backs/set2/orange.gif","img/card_backs/set2/gray.gif","""event"",""trial"",""time""
""fullscreenenter"",""1"",""8906""
","
","
","""event"",""trial"",""time""
""fullscreenenter"",""1"",""8906""
","
","","4333.299999952316","You will have 10 seconds to make each choice.","82","","instructions","2021-07-16 00:39:20.414","","","","","",""
"casino-keyboard-response","33","243692","0.0-16.0-0.11","981","false","img/card_backs/set1/purple.gif","img/card_backs/set1/green.gif","img/card_backs/set1/red.gif","img/card_backs/set1/yellow.gif","img/card_backs/set2/pink.gif","img/card_backs/set2/blue.gif","img/card_backs/set2/orange.gif","img/card_backs/set2/gray.gif","""event"",""trial"",""time""
""fullscreenenter"",""1"",""8906""
","
","
","""event"",""trial"",""time""
""fullscreenenter"",""1"",""8906""
","
","","8274","Before you play the game for real, you will play with practice decks. </br> The tokens you earn during practice won't count toward your total.","86","","instructions","2021-07-16 00:39:28.693","","","","","",""
"casino-keyboard-response","34","254785","0.0-16.0-0.12","981","false","img/card_backs/set1/purple.gif","img/card_backs/set1/green.gif","img/card_backs/set1/red.gif","img/card_backs/set1/yellow.gif","img/card_backs/set2/pink.gif","img/card_backs/set2/blue.gif","img/card_backs/set2/orange.gif","img/card_backs/set2/gray.gif","""event"",""trial"",""time""
""fullscreenenter"",""1"",""8906""
","
","
","""event"",""trial"",""time""
""fullscreenenter"",""1"",""8906""
","
","","11089.5","Ready? Remember, use the '2', '4', '6', and '8' keys to select the decks. </br> Put your fingers on those keys now and then press '2' to begin.","50","","instructions","2021-07-16 00:39:39.786","","","","","",""
"casino-fixation","35","255299","0.0-17.0-0.0","981","false","img/card_backs/set1/purple.gif","img/card_backs/set1/green.gif","img/card_backs/set1/red.gif","img/card_backs/set1/yellow.gif","img/card_backs/set2/pink.gif","img/card_backs/set2/blue.gif","img/card_backs/set2/orange.gif","img/card_backs/set2/gray.gif","""event"",""trial"",""time""
""fullscreenenter"",""1"",""8906""
","
","
","""event"",""trial"",""time""
""fullscreenenter"",""1"",""8906""
","
","","null","","null","","fixation","2021-07-16 00:39:40.300","","","","","",""
"card-selection-trial","36","262017","0.0-17.0-1.0","981","false","img/card_backs/set1/purple.gif","img/card_backs/set1/green.gif","img/card_backs/set1/red.gif","img/card_backs/set1/yellow.gif","img/card_backs/set2/pink.gif","img/card_backs/set2/blue.gif","img/card_backs/set2/orange.gif","img/card_backs/set2/gray.gif","""event"",""trial"",""time""
""fullscreenenter"",""1"",""8906""
","
","
","""event"",""trial"",""time""
""fullscreenenter"",""1"",""8906""
","
","","4694.299999952316","","","","practice","2021-07-16 00:39:47.018","img/practice_cards/backs/dark_green.gif","2","200","0","",""
"casino-fixation","37","262537","0.0-17.0-0.1","981","false","img/card_backs/set1/purple.gif","img/card_backs/set1/green.gif","img/card_backs/set1/red.gif","img/card_backs/set1/yellow.gif","img/card_backs/set2/pink.gif","img/card_backs/set2/blue.gif","img/card_backs/set2/orange.gif","img/card_backs/set2/gray.gif","""event"",""trial"",""time""
""fullscreenenter"",""1"",""8906""
","
","
","""event"",""trial"",""time""
""fullscreenenter"",""1"",""8906""
","
","","null","","null","","fixation","2021-07-16 00:39:47.539","","","","","",""
"card-selection-trial","38","267167","0.0-17.0-1.1","981","false","img/card_backs/set1/purple.gif","img/card_backs/set1/green.gif","img/card_backs/set1/red.gif","img/card_backs/set1/yellow.gif","img/card_backs/set2/pink.gif","img/card_backs/set2/blue.gif","img/card_backs/set2/orange.gif","img/card_backs/set2/gray.gif","""event"",""trial"",""time""
""fullscreenenter"",""1"",""8906""
","
","
","""event"",""trial"",""time""
""fullscreenenter"",""1"",""8906""
","
","","2617","","","","practice","2021-07-16 00:39:52.168","img/practice_cards/backs/brown.gif","0","-100","0","",""
"casino-fixation","39","267687","0.0-17.0-0.2","981","false","img/card_backs/set1/purple.gif","img/card_backs/set1/green.gif","img/card_backs/set1/red.gif","img/card_backs/set1/yellow.gif","img/card_backs/set2/pink.gif","img/card_backs/set2/blue.gif","img/card_backs/set2/orange.gif","img/card_backs/set2/gray.gif","""event"",""trial"",""time""
""fullscreenenter"",""1"",""8906""
","
","
","""event"",""trial"",""time""
""fullscreenenter"",""1"",""8906""
","
","","null","","null","","fixation","2021-07-16 00:39:52.688","","","","","",""
"card-selection-trial","40","272027","0.0-17.0-1.2","981","false","img/card_backs/set1/purple.gif","img/card_backs/set1/green.gif","img/card_backs/set1/red.gif","img/card_backs/set1/yellow.gif","img/card_backs/set2/pink.gif","img/card_backs/set2/blue.gif","img/card_backs/set2/orange.gif","img/card_backs/set2/gray.gif","""event"",""trial"",""time""
""fullscreenenter"",""1"",""8906""
","
","
","""event"",""trial"",""time""
""fullscreenenter"",""1"",""8906""
","
","","2310","","","","practice","2021-07-16 00:39:57.028","img/practice_cards/backs/dark_green.gif","0","-200","0","",""
"casino-fixation","41","272537","0.0-17.0-0.3","981","false","img/card_backs/set1/purple.gif","img/card_backs/set1/green.gif","img/card_backs/set1/red.gif","img/card_backs/set1/yellow.gif","img/card_backs/set2/pink.gif","img/card_backs/set2/blue.gif","img/card_backs/set2/orange.gif","img/card_backs/set2/gray.gif","""event"",""trial"",""time""
""fullscreenenter"",""1"",""8906""
","
","
","""event"",""trial"",""time""
""fullscreenenter"",""1"",""8906""
","
","","null","","null","","fixation","2021-07-16 00:39:57.538","","","","","",""
"card-selection-trial","42","278822","0.0-17.0-1.3","981","false","img/card_backs/set1/purple.gif","img/card_backs/set1/green.gif","img/card_backs/set1/red.gif","img/card_backs/set1/yellow.gif","img/card_backs/set2/pink.gif","img/card_backs/set2/blue.gif","img/card_backs/set2/orange.gif","img/card_backs/set2/gray.gif","""event"",""trial"",""time""
""fullscreenenter"",""1"",""8906""
","
","
","""event"",""trial"",""time""
""fullscreenenter"",""1"",""8906""
","
","","4270.599999904633","","","","practice","2021-07-16 00:40:03.823","img/practice_cards/backs/black.gif","1","100","0","",""
"casino-fixation","43","279337","0.0-17.0-0.4","981","false","img/card_backs/set1/purple.gif","img/card_backs/set1/green.gif","img/card_backs/set1/red.gif","img/card_backs/set1/yellow.gif","img/card_backs/set2/pink.gif","img/card_backs/set2/blue.gif","img/card_backs/set2/orange.gif","img/card_backs/set2/gray.gif","""event"",""trial"",""time""
""fullscreenenter"",""1"",""8906""
","
","
","""event"",""trial"",""time""
""fullscreenenter"",""1"",""8906""
","
","","null","","null","","fixation","2021-07-16 00:40:04.338","","","","","",""
"card-selection-trial","44","282797","0.0-17.0-1.4","981","false","img/card_backs/set1/purple.gif","img/card_backs/set1/green.gif","img/card_backs/set1/red.gif","img/card_backs/set1/yellow.gif","img/card_backs/set2/pink.gif","img/card_backs/set2/blue.gif","img/card_backs/set2/orange.gif","img/card_backs/set2/gray.gif","""event"",""trial"",""time""
""fullscreenenter"",""1"",""8906""
","
","
","""event"",""trial"",""time""
""fullscreenenter"",""1"",""8906""
","
","","1436","","","","practice","2021-07-16 00:40:07.798","img/practice_cards/backs/black.gif","3","100","0","",""
"casino-fixation","45","283302","0.0-17.0-0.5","981","false","img/card_backs/set1/purple.gif","img/card_backs/set1/green.gif","img/card_backs/set1/red.gif","img/card_backs/set1/yellow.gif","img/card_backs/set2/pink.gif","img/card_backs/set2/blue.gif","img/card_backs/set2/orange.gif","img/card_backs/set2/gray.gif","""event"",""trial"",""time""
""fullscreenenter"",""1"",""8906""
","
","
","""event"",""trial"",""time""
""fullscreenenter"",""1"",""8906""
","
","","null","","null","","fixation","2021-07-16 00:40:08.303","","","","","",""
"card-selection-trial","46","287926","0.0-17.0-1.5","981","false","img/card_backs/set1/purple.gif","img/card_backs/set1/green.gif","img/card_backs/set1/red.gif","img/card_backs/set1/yellow.gif","img/card_backs/set2/pink.gif","img/card_backs/set2/blue.gif","img/card_backs/set2/orange.gif","img/card_backs/set2/gray.gif","""event"",""trial"",""time""
""fullscreenenter"",""1"",""8906""
","
","
","""event"",""trial"",""time""
""fullscreenenter"",""1"",""8906""
","
","","2609.9000000953674","","","","practice","2021-07-16 00:40:12.928","img/practice_cards/backs/black.gif","2","-100","0","",""
"casino-fixation","47","288435","0.0-17.0-0.6","981","false","img/card_backs/set1/purple.gif","img/card_backs/set1/green.gif","img/card_backs/set1/red.gif","img/card_backs/set1/yellow.gif","img/card_backs/set2/pink.gif","img/card_backs/set2/blue.gif","img/card_backs/set2/orange.gif","img/card_backs/set2/gray.gif","""event"",""trial"",""time""
""fullscreenenter"",""1"",""8906""
","
","
","""event"",""trial"",""time""
""fullscreenenter"",""1"",""8906""
","
","","null","","null","","fixation","2021-07-16 00:40:13.436","","","","","",""
"card-selection-trial","48","291766","0.0-17.0-1.6","981","false","img/card_backs/set1/purple.gif","img/card_backs/set1/green.gif","img/card_backs/set1/red.gif","img/card_backs/set1/yellow.gif","img/card_backs/set2/pink.gif","img/card_backs/set2/blue.gif","img/card_backs/set2/orange.gif","img/card_backs/set2/gray.gif","""event"",""trial"",""time""
""fullscreenenter"",""1"",""8906""
","
","
","""event"",""trial"",""time""
""fullscreenenter"",""1"",""8906""
","
","","1321.2000000476837","","","","practice","2021-07-16 00:40:16.767","img/practice_cards/backs/black.gif","2","100","0","",""
"casino-fixation","49","292270","0.0-17.0-0.7","981","false","img/card_backs/set1/purple.gif","img/card_backs/set1/green.gif","img/card_backs/set1/red.gif","img/card_backs/set1/yellow.gif","img/card_backs/set2/pink.gif","img/card_backs/set2/blue.gif","img/card_backs/set2/orange.gif","img/card_backs/set2/gray.gif","""event"",""trial"",""time""
""fullscreenenter"",""1"",""8906""
","
","
","""event"",""trial"",""time""
""fullscreenenter"",""1"",""8906""
","
","","null","","null","","fixation","2021-07-16 00:40:17.271","","","","","",""
"card-selection-trial","50","295857","0.0-17.0-1.7","981","false","img/card_backs/set1/purple.gif","img/card_backs/set1/green.gif","img/card_backs/set1/red.gif","img/card_backs/set1/yellow.gif","img/card_backs/set2/pink.gif","img/card_backs/set2/blue.gif","img/card_backs/set2/orange.gif","img/card_backs/set2/gray.gif","""event"",""trial"",""time""
""fullscreenenter"",""1"",""8906""
","
","
","""event"",""trial"",""time""
""fullscreenenter"",""1"",""8906""
","
","","1575.2000000476837","","","","practice","2021-07-16 00:40:20.859","img/practice_cards/backs/black.gif","3","-100","0","",""
"casino-fixation","51","296362","0.0-17.0-0.8","981","false","img/card_backs/set1/purple.gif","img/card_backs/set1/green.gif","img/card_backs/set1/red.gif","img/card_backs/set1/yellow.gif","img/card_backs/set2/pink.gif","img/card_backs/set2/blue.gif","img/card_backs/set2/orange.gif","img/card_backs/set2/gray.gif","""event"",""trial"",""time""
""fullscreenenter"",""1"",""8906""
","
","
","""event"",""trial"",""time""
""fullscreenenter"",""1"",""8906""
","
","","null","","null","","fixation","2021-07-16 00:40:21.363","","","","","",""
"card-selection-trial","52","299720","0.0-17.0-1.8","981","false","img/card_backs/set1/purple.gif","img/card_backs/set1/green.gif","img/card_backs/set1/red.gif","img/card_backs/set1/yellow.gif","img/card_backs/set2/pink.gif","img/card_backs/set2/blue.gif","img/card_backs/set2/orange.gif","img/card_backs/set2/gray.gif","""event"",""trial"",""time""
""fullscreenenter"",""1"",""8906""
","
","
","""event"",""trial"",""time""
""fullscreenenter"",""1"",""8906""
","
","","1345.5","","","","practice","2021-07-16 00:40:24.722","img/practice_cards/backs/black.gif","2","-100","0","",""
"casino-fixation","53","300227","0.0-17.0-0.9","981","false","img/card_backs/set1/purple.gif","img/card_backs/set1/green.gif","img/card_backs/set1/red.gif","img/card_backs/set1/yellow.gif","img/card_backs/set2/pink.gif","img/card_backs/set2/blue.gif","img/card_backs/set2/orange.gif","img/card_backs/set2/gray.gif","""event"",""trial"",""time""
""fullscreenenter"",""1"",""8906""
","
","
","""event"",""trial"",""time""
""fullscreenenter"",""1"",""8906""
","
","","null","","null","","fixation","2021-07-16 00:40:25.228","","","","","",""
"card-selection-trial","54","303907","0.0-17.0-1.9","981","false","img/card_backs/set1/purple.gif","img/card_backs/set1/green.gif","img/card_backs/set1/red.gif","img/card_backs/set1/yellow.gif","img/card_backs/set2/pink.gif","img/card_backs/set2/blue.gif","img/card_backs/set2/orange.gif","img/card_backs/set2/gray.gif","""event"",""trial"",""time""
""fullscreenenter"",""1"",""8906""
","
","
","""event"",""trial"",""time""
""fullscreenenter"",""1"",""8906""
","
","","1666","","","","practice","2021-07-16 00:40:28.908","img/practice_cards/backs/black.gif","0","100","0","",""
"casino-keyboard-response","55","308100","0.0-18.0","981","false","img/card_backs/set1/purple.gif","img/card_backs/set1/green.gif","img/card_backs/set1/red.gif","img/card_backs/set1/yellow.gif","img/card_backs/set2/pink.gif","img/card_backs/set2/blue.gif","img/card_backs/set2/orange.gif","img/card_backs/set2/gray.gif","""event"",""trial"",""time""
""fullscreenenter"",""1"",""8906""
","
","
","""event"",""trial"",""time""
""fullscreenenter"",""1"",""8906""
","
","","4189.899999856949","You earned 0 tokens during the practice round!","82","","","2021-07-16 00:40:33.101","","","","","",""
"casino-keyboard-response","56","314225","0.0-19.0-0.0","981","false","img/card_backs/set1/purple.gif","img/card_backs/set1/green.gif","img/card_backs/set1/red.gif","img/card_backs/set1/yellow.gif","img/card_backs/set2/pink.gif","img/card_backs/set2/blue.gif","img/card_backs/set2/orange.gif","img/card_backs/set2/gray.gif","""event"",""trial"",""time""
""fullscreenenter"",""1"",""8906""
","
","
","""event"",""trial"",""time""
""fullscreenenter"",""1"",""8906""
","
","","6122.100000143051","Nice job! You are almost ready to play the real game.","86","","instructions","2021-07-16 00:40:39.226","","","","","",""
"casino-keyboard-response","57","324625","0.0-19.0-0.1","981","false","img/card_backs/set1/purple.gif","img/card_backs/set1/green.gif","img/card_backs/set1/red.gif","img/card_backs/set1/yellow.gif","img/card_backs/set2/pink.gif","img/card_backs/set2/blue.gif","img/card_backs/set2/orange.gif","img/card_backs/set2/gray.gif","""event"",""trial"",""time""
""fullscreenenter"",""1"",""8906""
","
","
","""event"",""trial"",""time""
""fullscreenenter"",""1"",""8906""
","
","","10396.299999952316","You will play two rounds of the real game. In each round, you will pick 100 cards in total.","73","","instructions","2021-07-16 00:40:49.626","","","","","",""
"casino-keyboard-response","58","328868","0.0-19.0-0.2","981","false","img/card_backs/set1/purple.gif","img/card_backs/set1/green.gif","img/card_backs/set1/red.gif","img/card_backs/set1/yellow.gif","img/card_backs/set2/pink.gif","img/card_backs/set2/blue.gif","img/card_backs/set2/orange.gif","img/card_backs/set2/gray.gif","""event"",""trial"",""time""
""fullscreenenter"",""1"",""8906""
","
","
","""event"",""trial"",""time""
""fullscreenenter"",""1"",""8906""
","
","","4239.5","We are now going to ask you some questions about how the game works.","66","","instructions","2021-07-16 00:40:53.869","","","","","",""
"casino-keyboard-response","59","335224","0.0-19.0-0.3","981","false","img/card_backs/set1/purple.gif","img/card_backs/set1/green.gif","img/card_backs/set1/red.gif","img/card_backs/set1/yellow.gif","img/card_backs/set2/pink.gif","img/card_backs/set2/blue.gif","img/card_backs/set2/orange.gif","img/card_backs/set2/gray.gif","""event"",""trial"",""time""
""fullscreenenter"",""1"",""8906""
","
","
","""event"",""trial"",""time""
""fullscreenenter"",""1"",""8906""
","
","","6352.899999856949","Answer carefully. You will not be able to begin the game until you answer them correctly.","67","","instructions","2021-07-16 00:41:00.225","","","","","",""
"casino-comp_q","60","343318","0.0-20.0-0.0","981","false","img/card_backs/set1/purple.gif","img/card_backs/set1/green.gif","img/card_backs/set1/red.gif","img/card_backs/set1/yellow.gif","img/card_backs/set2/pink.gif","img/card_backs/set2/blue.gif","img/card_backs/set2/orange.gif","img/card_backs/set2/gray.gif","""event"",""trial"",""time""
""fullscreenenter"",""1"",""8906""
","
","
","""event"",""trial"",""time""
""fullscreenenter"",""1"",""8906""
","
","","8089.700000047684","True or False: All the decks have some cards that cause you to win tokens and some cards that cause you to lose tokens.","84","","","2021-07-16 00:41:08.319","","","","","",""
"casino-keyboard-response","61","346407","0.0-20.0-1.0","981","false","img/card_backs/set1/purple.gif","img/card_backs/set1/green.gif","img/card_backs/set1/red.gif","img/card_backs/set1/yellow.gif","img/card_backs/set2/pink.gif","img/card_backs/set2/blue.gif","img/card_backs/set2/orange.gif","img/card_backs/set2/gray.gif","""event"",""trial"",""time""
""fullscreenenter"",""1"",""8906""
","
","
","""event"",""trial"",""time""
""fullscreenenter"",""1"",""8906""
","
","","3085.5","True is correct! All the decks have a mix of winning and losing cards.","77","","","2021-07-16 00:41:11.409","","","","","true",""
"casino-comp_q","62","351585","0.0-21.0-0.0","981","false","img/card_backs/set1/purple.gif","img/card_backs/set1/green.gif","img/card_backs/set1/red.gif","img/card_backs/set1/yellow.gif","img/card_backs/set2/pink.gif","img/card_backs/set2/blue.gif","img/card_backs/set2/orange.gif","img/card_backs/set2/gray.gif","""event"",""trial"",""time""
""fullscreenenter"",""1"",""8906""
","
","
","""event"",""trial"",""time""
""fullscreenenter"",""1"",""8906""
","
","","5173.599999904633","True or False: You will have as much time as you want to make your response.","70","","","2021-07-16 00:41:16.586","","","","","",""
"casino-keyboard-response","63","357315","0.0-21.0-1.0","981","false","img/card_backs/set1/purple.gif","img/card_backs/set1/green.gif","img/card_backs/set1/red.gif","img/card_backs/set1/yellow.gif","img/card_backs/set2/pink.gif","img/card_backs/set2/blue.gif","img/card_backs/set2/orange.gif","img/card_backs/set2/gray.gif","""event"",""trial"",""time""
""fullscreenenter"",""1"",""8906""
","
","
","""event"",""trial"",""time""
""fullscreenenter"",""1"",""8906""
","
","","5721.100000143051","False is correct! You will only have 10 seconds to make each choice.","75","","","2021-07-16 00:41:22.316","","","","","true",""
"casino-comp_q","64","363996","0.0-22.0-0.0","981","false","img/card_backs/set1/purple.gif","img/card_backs/set1/green.gif","img/card_backs/set1/red.gif","img/card_backs/set1/yellow.gif","img/card_backs/set2/pink.gif","img/card_backs/set2/blue.gif","img/card_backs/set2/orange.gif","img/card_backs/set2/gray.gif","""event"",""trial"",""time""
""fullscreenenter"",""1"",""8906""
","
","
","""event"",""trial"",""time""
""fullscreenenter"",""1"",""8906""
","
","","6677.200000047684","True or False: The location of the deck determines how lucky it is.","70","","","2021-07-16 00:41:28.997","","","","","",""
"casino-keyboard-response","65","369351","0.0-22.0-1.0","981","false","img/card_backs/set1/purple.gif","img/card_backs/set1/green.gif","img/card_backs/set1/red.gif","img/card_backs/set1/yellow.gif","img/card_backs/set2/pink.gif","img/card_backs/set2/blue.gif","img/card_backs/set2/orange.gif","img/card_backs/set2/gray.gif","""event"",""trial"",""time""
""fullscreenenter"",""1"",""8906""
","
","
","""event"",""trial"",""time""
""fullscreenenter"",""1"",""8906""
","
","","5352.599999904633","False is correct! The <i>color</i>  of the deck determines how lucky or unlucky it is.","68","","","2021-07-16 00:41:34.352","","","","","true",""
"casino-keyboard-response","66","373627","0.0-23.0-0.0","981","false","img/card_backs/set1/purple.gif","img/card_backs/set1/green.gif","img/card_backs/set1/red.gif","img/card_backs/set1/yellow.gif","img/card_backs/set2/pink.gif","img/card_backs/set2/blue.gif","img/card_backs/set2/orange.gif","img/card_backs/set2/gray.gif","""event"",""trial"",""time""
""fullscreenenter"",""1"",""8906""
","
","
","""event"",""trial"",""time""
""fullscreenenter"",""1"",""8906""
","
","","4272.899999856949","Great job! Now it's time to start the real game.","82","","instructions","2021-07-16 00:41:38.628","","","","","",""
"casino-keyboard-response","67","378999","0.0-23.0-0.1","981","false","img/card_backs/set1/purple.gif","img/card_backs/set1/green.gif","img/card_backs/set1/red.gif","img/card_backs/set1/yellow.gif","img/card_backs/set2/pink.gif","img/card_backs/set2/blue.gif","img/card_backs/set2/orange.gif","img/card_backs/set2/gray.gif","""event"",""trial"",""time""
""fullscreenenter"",""1"",""8906""
","
","
","""event"",""trial"",""time""
""fullscreenenter"",""1"",""8906""
","
","","5368.700000047684","Before we start, we're going to head into a new room of the casino.","86","","instructions","2021-07-16 00:41:44.000","","","","","",""
"casino-keyboard-response","68","385439","0.0-24.0-0.0","981","false","img/card_backs/set1/purple.gif","img/card_backs/set1/green.gif","img/card_backs/set1/red.gif","img/card_backs/set1/yellow.gif","img/card_backs/set2/pink.gif","img/card_backs/set2/blue.gif","img/card_backs/set2/orange.gif","img/card_backs/set2/gray.gif","""event"",""trial"",""time""
""fullscreenenter"",""1"",""8906""
","
","
","""event"",""trial"",""time""
""fullscreenenter"",""1"",""8906""
","
","","6436.400000095367","Here we are! The real game will use different cards, but the rules will be the same.","71","","instructions","2021-07-16 00:41:50.440","","","","","",""
"casino-keyboard-response","69","395673","0.0-24.0-0.1","981","false","img/card_backs/set1/purple.gif","img/card_backs/set1/green.gif","img/card_backs/set1/red.gif","img/card_backs/set1/yellow.gif","img/card_backs/set2/pink.gif","img/card_backs/set2/blue.gif","img/card_backs/set2/orange.gif","img/card_backs/set2/gray.gif","""event"",""trial"",""time""
""fullscreenenter"",""1"",""8906""
","
","
","""event"",""trial"",""time""
""fullscreenenter"",""1"",""8906""
","
","","10230.700000047684","Ready? Put your fingers over the '2', '4', 6', and '8' keys so you are ready to play the game. </br> Then press 2 to start.","50","","instructions","2021-07-16 00:42:00.674","","","","","",""
"casino-fixation","70","396177","0.0-25.0-0.0","981","false","img/card_backs/set1/purple.gif","img/card_backs/set1/green.gif","img/card_backs/set1/red.gif","img/card_backs/set1/yellow.gif","img/card_backs/set2/pink.gif","img/card_backs/set2/blue.gif","img/card_backs/set2/orange.gif","img/card_backs/set2/gray.gif","""event"",""trial"",""time""
""fullscreenenter"",""1"",""8906""
","
","
","""event"",""trial"",""time""
""fullscreenenter"",""1"",""8906""
","
","","null","","null","","fixation","2021-07-16 00:42:01.178","","","","","",""
"card-selection-trial","71","403288","0.0-25.0-1.0","981","false","img/card_backs/set1/purple.gif","img/card_backs/set1/green.gif","img/card_backs/set1/red.gif","img/card_backs/set1/yellow.gif","img/card_backs/set2/pink.gif","img/card_backs/set2/blue.gif","img/card_backs/set2/orange.gif","img/card_backs/set2/gray.gif","""event"",""trial"",""time""
""fullscreenenter"",""1"",""8906""
","
","
","""event"",""trial"",""time""
""fullscreenenter"",""1"",""8906""
","
","","5093.800000190735","","","","real_trial","2021-07-16 00:42:08.289","img/card_backs/set1/yellow.gif","2","-70","1","",""
"casino-fixation","72","403802","0.0-25.0-0.1","981","false","img/card_backs/set1/purple.gif","img/card_backs/set1/green.gif","img/card_backs/set1/red.gif","img/card_backs/set1/yellow.gif","img/card_backs/set2/pink.gif","img/card_backs/set2/blue.gif","img/card_backs/set2/orange.gif","img/card_backs/set2/gray.gif","""event"",""trial"",""time""
""fullscreenenter"",""1"",""8906""
","
","
","""event"",""trial"",""time""
""fullscreenenter"",""1"",""8906""
","
","","null","","null","","fixation","2021-07-16 00:42:08.803","","","","","",""
"card-selection-trial","73","408521","0.0-25.0-1.1","981","false","img/card_backs/set1/purple.gif","img/card_backs/set1/green.gif","img/card_backs/set1/red.gif","img/card_backs/set1/yellow.gif","img/card_backs/set2/pink.gif","img/card_backs/set2/blue.gif","img/card_backs/set2/orange.gif","img/card_backs/set2/gray.gif","""event"",""trial"",""time""
""fullscreenenter"",""1"",""8906""
","
","
","""event"",""trial"",""time""
""fullscreenenter"",""1"",""8906""
","
","","2698.9000000953674","","","","real_trial","2021-07-16 00:42:13.522","img/card_backs/set1/purple.gif","1","180","1","",""
"casino-fixation","74","409028","0.0-25.0-0.2","981","false","img/card_backs/set1/purple.gif","img/card_backs/set1/green.gif","img/card_backs/set1/red.gif","img/card_backs/set1/yellow.gif","img/card_backs/set2/pink.gif","img/card_backs/set2/blue.gif","img/card_backs/set2/orange.gif","img/card_backs/set2/gray.gif","""event"",""trial"",""time""
""fullscreenenter"",""1"",""8906""
","
","
","""event"",""trial"",""time""
""fullscreenenter"",""1"",""8906""
","
","","null","","null","","fixation","2021-07-16 00:42:14.029","","","","","",""
"card-selection-trial","75","412551","0.0-25.0-1.2","981","false","img/card_backs/set1/purple.gif","img/card_backs/set1/green.gif","img/card_backs/set1/red.gif","img/card_backs/set1/yellow.gif","img/card_backs/set2/pink.gif","img/card_backs/set2/blue.gif","img/card_backs/set2/orange.gif","img/card_backs/set2/gray.gif","""event"",""trial"",""time""
""fullscreenenter"",""1"",""8906""
","
","
","""event"",""trial"",""time""
""fullscreenenter"",""1"",""8906""
","
","","1499.7999999523163","","","","real_trial","2021-07-16 00:42:17.552","img/card_backs/set1/purple.gif","3","190","1","",""
"casino-fixation","76","413057","0.0-25.0-0.3","981","false","img/card_backs/set1/purple.gif","img/card_backs/set1/green.gif","img/card_backs/set1/red.gif","img/card_backs/set1/yellow.gif","img/card_backs/set2/pink.gif","img/card_backs/set2/blue.gif","img/card_backs/set2/orange.gif","img/card_backs/set2/gray.gif","""event"",""trial"",""time""
""fullscreenenter"",""1"",""8906""
","
","
","""event"",""trial"",""time""
""fullscreenenter"",""1"",""8906""
","
","","null","","null","","fixation","2021-07-16 00:42:18.059","","","","","",""
"card-selection-trial","77","416718","0.0-25.0-1.3","981","false","img/card_backs/set1/purple.gif","img/card_backs/set1/green.gif","img/card_backs/set1/red.gif","img/card_backs/set1/yellow.gif","img/card_backs/set2/pink.gif","img/card_backs/set2/blue.gif","img/card_backs/set2/orange.gif","img/card_backs/set2/gray.gif","""event"",""trial"",""time""
""fullscreenenter"",""1"",""8906""
","
","
","""event"",""trial"",""time""
""fullscreenenter"",""1"",""8906""
","
","","1633.1000001430511","","","","real_trial","2021-07-16 00:42:21.720","img/card_backs/set1/purple.gif","1","190","1","",""
"casino-fixation","78","417238","0.0-25.0-0.4","981","false","img/card_backs/set1/purple.gif","img/card_backs/set1/green.gif","img/card_backs/set1/red.gif","img/card_backs/set1/yellow.gif","img/card_backs/set2/pink.gif","img/card_backs/set2/blue.gif","img/card_backs/set2/orange.gif","img/card_backs/set2/gray.gif","""event"",""trial"",""time""
""fullscreenenter"",""1"",""8906""
","
","
","""event"",""trial"",""time""
""fullscreenenter"",""1"",""8906""
","
","","null","","null","","fixation","2021-07-16 00:42:22.239","","","","","",""
"card-selection-trial","79","420738","0.0-25.0-1.4","981","false","img/card_backs/set1/purple.gif","img/card_backs/set1/green.gif","img/card_backs/set1/red.gif","img/card_backs/set1/yellow.gif","img/card_backs/set2/pink.gif","img/card_backs/set2/blue.gif","img/card_backs/set2/orange.gif","img/card_backs/set2/gray.gif","""event"",""trial"",""time""
""fullscreenenter"",""1"",""8906""
","
","
","""event"",""trial"",""time""
""fullscreenenter"",""1"",""8906""
","
","","1488.0999999046326","","","","real_trial","2021-07-16 00:42:25.739","img/card_backs/set1/purple.gif","1","-230","1","",""
"casino-fixation","80","421257","0.0-25.0-0.5","981","false","img/card_backs/set1/purple.gif","img/card_backs/set1/green.gif","img/card_backs/set1/red.gif","img/card_backs/set1/yellow.gif","img/card_backs/set2/pink.gif","img/card_backs/set2/blue.gif","img/card_backs/set2/orange.gif","img/card_backs/set2/gray.gif","""event"",""trial"",""time""
""fullscreenenter"",""1"",""8906""
","
","
","""event"",""trial"",""time""
""fullscreenenter"",""1"",""8906""
","
","","null","","null","","fixation","2021-07-16 00:42:26.258","","","","","",""
"card-selection-trial","81","424739","0.0-25.0-1.5","981","false","img/card_backs/set1/purple.gif","img/card_backs/set1/green.gif","img/card_backs/set1/red.gif","img/card_backs/set1/yellow.gif","img/card_backs/set2/pink.gif","img/card_backs/set2/blue.gif","img/card_backs/set2/orange.gif","img/card_backs/set2/gray.gif","""event"",""trial"",""time""
""fullscreenenter"",""1"",""8906""
","
","
","""event"",""trial"",""time""
""fullscreenenter"",""1"",""8906""
","
","","1466.1999998092651","","","","real_trial","2021-07-16 00:42:29.740","img/card_backs/set1/yellow.gif","0","110","1","",""
"casino-fixation","82","425244","0.0-25.0-0.6","981","false","img/card_backs/set1/purple.gif","img/card_backs/set1/green.gif","img/card_backs/set1/red.gif","img/card_backs/set1/yellow.gif","img/card_backs/set2/pink.gif","img/card_backs/set2/blue.gif","img/card_backs/set2/orange.gif","img/card_backs/set2/gray.gif","""event"",""trial"",""time""
""fullscreenenter"",""1"",""8906""
","
","
","""event"",""trial"",""time""
""fullscreenenter"",""1"",""8906""
","
","","null","","null","","fixation","2021-07-16 00:42:30.246","","","","","",""
"card-selection-trial","83","428970","0.0-25.0-1.6","981","false","img/card_backs/set1/purple.gif","img/card_backs/set1/green.gif","img/card_backs/set1/red.gif","img/card_backs/set1/yellow.gif","img/card_backs/set2/pink.gif","img/card_backs/set2/blue.gif","img/card_backs/set2/orange.gif","img/card_backs/set2/gray.gif","""event"",""trial"",""time""
""fullscreenenter"",""1"",""8906""
","
","
","""event"",""trial"",""time""
""fullscreenenter"",""1"",""8906""
","
","","1711.7000000476837","","","","real_trial","2021-07-16 00:42:33.972","img/card_backs/set1/yellow.gif","3","-60","1","",""
"casino-fixation","84","429477","0.0-25.0-0.7","981","false","img/card_backs/set1/purple.gif","img/card_backs/set1/green.gif","img/card_backs/set1/red.gif","img/card_backs/set1/yellow.gif","img/card_backs/set2/pink.gif","img/card_backs/set2/blue.gif","img/card_backs/set2/orange.gif","img/card_backs/set2/gray.gif","""event"",""trial"",""time""
""fullscreenenter"",""1"",""8906""
","
","
","""event"",""trial"",""time""
""fullscreenenter"",""1"",""8906""
","
","","null","","null","","fixation","2021-07-16 00:42:34.478","","","","","",""
"card-selection-trial","85","433041","0.0-25.0-1.7","981","false","img/card_backs/set1/purple.gif","img/card_backs/set1/green.gif","img/card_backs/set1/red.gif","img/card_backs/set1/yellow.gif","img/card_backs/set2/pink.gif","img/card_backs/set2/blue.gif","img/card_backs/set2/orange.gif","img/card_backs/set2/gray.gif","""event"",""trial"",""time""
""fullscreenenter"",""1"",""8906""
","
","
","""event"",""trial"",""time""
""fullscreenenter"",""1"",""8906""
","
","","1546.2000000476837","","","","real_trial","2021-07-16 00:42:38.042","img/card_backs/set1/purple.gif","0","180","1","",""
"casino-fixation","86","433549","0.0-25.0-0.8","981","false","img/card_backs/set1/purple.gif","img/card_backs/set1/green.gif","img/card_backs/set1/red.gif","img/card_backs/set1/yellow.gif","img/card_backs/set2/pink.gif","img/card_backs/set2/blue.gif","img/card_backs/set2/orange.gif","img/card_backs/set2/gray.gif","""event"",""trial"",""time""
""fullscreenenter"",""1"",""8906""
","
","
","""event"",""trial"",""time""
""fullscreenenter"",""1"",""8906""
","
","","null","","null","","fixation","2021-07-16 00:42:38.551","","","","","",""
"card-selection-trial","87","436984","0.0-25.0-1.8","981","false","img/card_backs/set1/purple.gif","img/card_backs/set1/green.gif","img/card_backs/set1/red.gif","img/card_backs/set1/yellow.gif","img/card_backs/set2/pink.gif","img/card_backs/set2/blue.gif","img/card_backs/set2/orange.gif","img/card_backs/set2/gray.gif","""event"",""trial"",""time""
""fullscreenenter"",""1"",""8906""
","
","
","""event"",""trial"",""time""
""fullscreenenter"",""1"",""8906""
","
","","1421.5","","","","real_trial","2021-07-16 00:42:41.985","img/card_backs/set1/purple.gif","1","180","1","",""
"casino-fixation","88","437504","0.0-25.0-0.9","981","false","img/card_backs/set1/purple.gif","img/card_backs/set1/green.gif","img/card_backs/set1/red.gif","img/card_backs/set1/yellow.gif","img/card_backs/set2/pink.gif","img/card_backs/set2/blue.gif","img/card_backs/set2/orange.gif","img/card_backs/set2/gray.gif","""event"",""trial"",""time""
""fullscreenenter"",""1"",""8906""
","
","
","""event"",""trial"",""time""
""fullscreenenter"",""1"",""8906""
","
","","null","","null","","fixation","2021-07-16 00:42:42.506","","","","","",""
"card-selection-trial","89","441326","0.0-25.0-1.9","981","false","img/card_backs/set1/purple.gif","img/card_backs/set1/green.gif","img/card_backs/set1/red.gif","img/card_backs/set1/yellow.gif","img/card_backs/set2/pink.gif","img/card_backs/set2/blue.gif","img/card_backs/set2/orange.gif","img/card_backs/set2/gray.gif","""event"",""trial"",""time""
""fullscreenenter"",""1"",""8906""
","
","
","""event"",""trial"",""time""
""fullscreenenter"",""1"",""8906""
","
","","1803.7000000476837","","","","real_trial","2021-07-16 00:42:46.327","img/card_backs/set1/purple.gif","2","190","1","",""
"casino-fixation","90","441829","0.0-25.0-0.10","981","false","img/card_backs/set1/purple.gif","img/card_backs/set1/green.gif","img/card_backs/set1/red.gif","img/card_backs/set1/yellow.gif","img/card_backs/set2/pink.gif","img/card_backs/set2/blue.gif","img/card_backs/set2/orange.gif","img/card_backs/set2/gray.gif","""event"",""trial"",""time""
""fullscreenenter"",""1"",""8906""
","
","
","""event"",""trial"",""time""
""fullscreenenter"",""1"",""8906""
","
","","null","","null","","fixation","2021-07-16 00:42:46.830","","","","","",""
"card-selection-trial","91","444978","0.0-25.0-1.10","981","false","img/card_backs/set1/purple.gif","img/card_backs/set1/green.gif","img/card_backs/set1/red.gif","img/card_backs/set1/yellow.gif","img/card_backs/set2/pink.gif","img/card_backs/set2/blue.gif","img/card_backs/set2/orange.gif","img/card_backs/set2/gray.gif","""event"",""trial"",""time""
""fullscreenenter"",""1"",""8906""
","
","
","""event"",""trial"",""time""
""fullscreenenter"",""1"",""8906""
","
","","1131.5","","","","real_trial","2021-07-16 00:42:49.979","img/card_backs/set1/purple.gif","1","190","1","",""
"casino-fixation","92","445488","0.0-25.0-0.11","981","false","img/card_backs/set1/purple.gif","img/card_backs/set1/green.gif","img/card_backs/set1/red.gif","img/card_backs/set1/yellow.gif","img/card_backs/set2/pink.gif","img/card_backs/set2/blue.gif","img/card_backs/set2/orange.gif","img/card_backs/set2/gray.gif","""event"",""trial"",""time""
""fullscreenenter"",""1"",""8906""
","
","
","""event"",""trial"",""time""
""fullscreenenter"",""1"",""8906""
","
","","null","","null","","fixation","2021-07-16 00:42:50.489","","","","","",""
"card-selection-trial","93","448898","0.0-25.0-1.11","981","false","img/card_backs/set1/purple.gif","img/card_backs/set1/green.gif","img/card_backs/set1/red.gif","img/card_backs/set1/yellow.gif","img/card_backs/set2/pink.gif","img/card_backs/set2/blue.gif","img/card_backs/set2/orange.gif","img/card_backs/set2/gray.gif","""event"",""trial"",""time""
""fullscreenenter"",""1"",""8906""
","
","
","""event"",""trial"",""time""
""fullscreenenter"",""1"",""8906""
","
","","1390.7999999523163","","","","real_trial","2021-07-16 00:42:53.899","img/card_backs/set1/purple.gif","1","-250","1","",""
"casino-fixation","94","449409","0.0-25.0-0.12","981","false","img/card_backs/set1/purple.gif","img/card_backs/set1/green.gif","img/card_backs/set1/red.gif","img/card_backs/set1/yellow.gif","img/card_backs/set2/pink.gif","img/card_backs/set2/blue.gif","img/card_backs/set2/orange.gif","img/card_backs/set2/gray.gif","""event"",""trial"",""time""
""fullscreenenter"",""1"",""8906""
","
","
","""event"",""trial"",""time""
""fullscreenenter"",""1"",""8906""
","
","","null","","null","","fixation","2021-07-16 00:42:54.410","","","","","",""
"card-selection-trial","95","454386","0.0-25.0-1.12","981","false","img/card_backs/set1/purple.gif","img/card_backs/set1/green.gif","img/card_backs/set1/red.gif","img/card_backs/set1/yellow.gif","img/card_backs/set2/pink.gif","img/card_backs/set2/blue.gif","img/card_backs/set2/orange.gif","img/card_backs/set2/gray.gif","""event"",""trial"",""time""
""fullscreenenter"",""1"",""8906""
","
","
","""event"",""trial"",""time""
""fullscreenenter"",""1"",""8906""
","
","","2959.399999856949","","","","real_trial","2021-07-16 00:42:59.387","img/card_backs/set1/yellow.gif","2","120","1","",""
"casino-fixation","96","454898","0.0-25.0-0.13","981","false","img/card_backs/set1/purple.gif","img/card_backs/set1/green.gif","img/card_backs/set1/red.gif","img/card_backs/set1/yellow.gif","img/card_backs/set2/pink.gif","img/card_backs/set2/blue.gif","img/card_backs/set2/orange.gif","img/card_backs/set2/gray.gif","""event"",""trial"",""time""
""fullscreenenter"",""1"",""8906""
","
","
","""event"",""trial"",""time""
""fullscreenenter"",""1"",""8906""
","
","","null","","null","","fixation","2021-07-16 00:42:59.899","","","","","",""
"card-selection-trial","97","458080","0.0-25.0-1.13","981","false","img/card_backs/set1/purple.gif","img/card_backs/set1/green.gif","img/card_backs/set1/red.gif","img/card_backs/set1/yellow.gif","img/card_backs/set2/pink.gif","img/card_backs/set2/blue.gif","img/card_backs/set2/orange.gif","img/card_backs/set2/gray.gif","""event"",""trial"",""time""
""fullscreenenter"",""1"",""8906""
","
","
","""event"",""trial"",""time""
""fullscreenenter"",""1"",""8906""
","
","","1165.7000000476837","","","","real_trial","2021-07-16 00:43:03.081","img/card_backs/set1/yellow.gif","2","-50","1","",""
"casino-fixation","98","458597","0.0-25.0-0.14","981","false","img/card_backs/set1/purple.gif","img/card_backs/set1/green.gif","img/card_backs/set1/red.gif","img/card_backs/set1/yellow.gif","img/card_backs/set2/pink.gif","img/card_backs/set2/blue.gif","img/card_backs/set2/orange.gif","img/card_backs/set2/gray.gif","""event"",""trial"",""time""
""fullscreenenter"",""1"",""8906""
","
","
","""event"",""trial"",""time""
""fullscreenenter"",""1"",""8906""
","
","","null","","null","","fixation","2021-07-16 00:43:03.598","","","","","",""
"card-selection-trial","99","462064","0.0-25.0-1.14","981","false","img/card_backs/set1/purple.gif","img/card_backs/set1/green.gif","img/card_backs/set1/red.gif","img/card_backs/set1/yellow.gif","img/card_backs/set2/pink.gif","img/card_backs/set2/blue.gif","img/card_backs/set2/orange.gif","img/card_backs/set2/gray.gif","""event"",""trial"",""time""
""fullscreenenter"",""1"",""8906""
","
","
","""event"",""trial"",""time""
""fullscreenenter"",""1"",""8906""
","
","","1459","","","","real_trial","2021-07-16 00:43:07.066","img/card_backs/set1/purple.gif","0","180","1","",""
"casino-fixation","100","462569","0.0-25.0-0.15","981","false","img/card_backs/set1/purple.gif","img/card_backs/set1/green.gif","img/card_backs/set1/red.gif","img/card_backs/set1/yellow.gif","img/card_backs/set2/pink.gif","img/card_backs/set2/blue.gif","img/card_backs/set2/orange.gif","img/card_backs/set2/gray.gif","""event"",""trial"",""time""
""fullscreenenter"",""1"",""8906""
","
","
","""event"",""trial"",""time""
""fullscreenenter"",""1"",""8906""
","
","","null","","null","","fixation","2021-07-16 00:43:07.570","","","","","",""
"card-selection-trial","101","466537","0.0-25.0-1.15","981","false","img/card_backs/set1/purple.gif","img/card_backs/set1/green.gif","img/card_backs/set1/red.gif","img/card_backs/set1/yellow.gif","img/card_backs/set2/pink.gif","img/card_backs/set2/blue.gif","img/card_backs/set2/orange.gif","img/card_backs/set2/gray.gif","""event"",""trial"",""time""
""fullscreenenter"",""1"",""8906""
","
","
","""event"",""trial"",""time""
""fullscreenenter"",""1"",""8906""
","
","","1956.5999999046326","","","","real_trial","2021-07-16 00:43:11.538","img/card_backs/set1/purple.gif","3","-250","1","",""
"casino-fixation","102","467041","0.0-25.0-0.16","981","false","img/card_backs/set1/purple.gif","img/card_backs/set1/green.gif","img/card_backs/set1/red.gif","img/card_backs/set1/yellow.gif","img/card_backs/set2/pink.gif","img/card_backs/set2/blue.gif","img/card_backs/set2/orange.gif","img/card_backs/set2/gray.gif","""event"",""trial"",""time""
""fullscreenenter"",""1"",""8906""
","
","
","""event"",""trial"",""time""
""fullscreenenter"",""1"",""8906""
","
","","null","","null","","fixation","2021-07-16 00:43:12.042","","","","","",""
"card-selection-trial","103","471576","0.0-25.0-1.16","981","false","img/card_backs/set1/purple.gif","img/card_backs/set1/green.gif","img/card_backs/set1/red.gif","img/card_backs/set1/yellow.gif","img/card_backs/set2/pink.gif","img/card_backs/set2/blue.gif","img/card_backs/set2/orange.gif","img/card_backs/set2/gray.gif","""event"",""trial"",""time""
""fullscreenenter"",""1"",""8906""
","
","
","""event"",""trial"",""time""
""fullscreenenter"",""1"",""8906""
","
","","2524","","","","real_trial","2021-07-16 00:43:16.577","img/card_backs/set1/yellow.gif","3","110","1","",""
"casino-fixation","104","472079","0.0-25.0-0.17","981","false","img/card_backs/set1/purple.gif","img/card_backs/set1/green.gif","img/card_backs/set1/red.gif","img/card_backs/set1/yellow.gif","img/card_backs/set2/pink.gif","img/card_backs/set2/blue.gif","img/card_backs/set2/orange.gif","img/card_backs/set2/gray.gif","""event"",""trial"",""time""
""fullscreenenter"",""1"",""8906""
","
","
","""event"",""trial"",""time""
""fullscreenenter"",""1"",""8906""
","
","","null","","null","","fixation","2021-07-16 00:43:17.081","","","","","",""
"card-selection-trial","105","475889","0.0-25.0-1.17","981","false","img/card_backs/set1/purple.gif","img/card_backs/set1/green.gif","img/card_backs/set1/red.gif","img/card_backs/set1/yellow.gif","img/card_backs/set2/pink.gif","img/card_backs/set2/blue.gif","img/card_backs/set2/orange.gif","img/card_backs/set2/gray.gif","""event"",""trial"",""time""
""fullscreenenter"",""1"",""8906""
","
","
","""event"",""trial"",""time""
""fullscreenenter"",""1"",""8906""
","
","","1792.7999999523163","","","","real_trial","2021-07-16 00:43:20.890","img/card_backs/set1/purple.gif","2","-230","1","",""
"casino-fixation","106","476393","0.0-25.0-0.18","981","false","img/card_backs/set1/purple.gif","img/card_backs/set1/green.gif","img/card_backs/set1/red.gif","img/card_backs/set1/yellow.gif","img/card_backs/set2/pink.gif","img/card_backs/set2/blue.gif","img/card_backs/set2/orange.gif","img/card_backs/set2/gray.gif","""event"",""trial"",""time""
""fullscreenenter"",""1"",""8906""
","
","
","""event"",""trial"",""time""
""fullscreenenter"",""1"",""8906""
","
","","null","","null","","fixation","2021-07-16 00:43:21.394","","","","","",""
"card-selection-trial","107","480068","0.0-25.0-1.18","981","false","img/card_backs/set1/purple.gif","img/card_backs/set1/green.gif","img/card_backs/set1/red.gif","img/card_backs/set1/yellow.gif","img/card_backs/set2/pink.gif","img/card_backs/set2/blue.gif","img/card_backs/set2/orange.gif","img/card_backs/set2/gray.gif","""event"",""trial"",""time""
""fullscreenenter"",""1"",""8906""
","
","
","""event"",""trial"",""time""
""fullscreenenter"",""1"",""8906""
","
","","1658.8999998569489","","","","real_trial","2021-07-16 00:43:25.069","img/card_backs/set1/yellow.gif","3","-60","1","",""
"casino-fixation","108","480574","0.0-25.0-0.19","981","false","img/card_backs/set1/purple.gif","img/card_backs/set1/green.gif","img/card_backs/set1/red.gif","img/card_backs/set1/yellow.gif","img/card_backs/set2/pink.gif","img/card_backs/set2/blue.gif","img/card_backs/set2/orange.gif","img/card_backs/set2/gray.gif","""event"",""trial"",""time""
""fullscreenenter"",""1"",""8906""
","
","
","""event"",""trial"",""time""
""fullscreenenter"",""1"",""8906""
","
","","null","","null","","fixation","2021-07-16 00:43:25.576","","","","","",""
"card-selection-trial","109","483614","0.0-25.0-1.19","981","false","img/card_backs/set1/purple.gif","img/card_backs/set1/green.gif","img/card_backs/set1/red.gif","img/card_backs/set1/yellow.gif","img/card_backs/set2/pink.gif","img/card_backs/set2/blue.gif","img/card_backs/set2/orange.gif","img/card_backs/set2/gray.gif","""event"",""trial"",""time""
""fullscreenenter"",""1"",""8906""
","
","
","""event"",""trial"",""time""
""fullscreenenter"",""1"",""8906""
","
","","1025.8999998569489","","","","real_trial","2021-07-16 00:43:28.615","img/card_backs/set1/green.gif","0","190","1","",""
"casino-fixation","110","484125","0.0-25.0-0.20","981","false","img/card_backs/set1/purple.gif","img/card_backs/set1/green.gif","img/card_backs/set1/red.gif","img/card_backs/set1/yellow.gif","img/card_backs/set2/pink.gif","img/card_backs/set2/blue.gif","img/card_backs/set2/orange.gif","img/card_backs/set2/gray.gif","""event"",""trial"",""time""
""fullscreenenter"",""1"",""8906""
","
","
","""event"",""trial"",""time""
""fullscreenenter"",""1"",""8906""
","
","","null","","null","","fixation","2021-07-16 00:43:29.126","","","","","",""
"card-selection-trial","111","487067","0.0-25.0-1.20","981","false","img/card_backs/set1/purple.gif","img/card_backs/set1/green.gif","img/card_backs/set1/red.gif","img/card_backs/set1/yellow.gif","img/card_backs/set2/pink.gif","img/card_backs/set2/blue.gif","img/card_backs/set2/orange.gif","img/card_backs/set2/gray.gif","""event"",""trial"",""time""
""fullscreenenter"",""1"",""8906""
","
","
","""event"",""trial"",""time""
""fullscreenenter"",""1"",""8906""
","
","","921.7000000476837","","","","real_trial","2021-07-16 00:43:32.068","img/card_backs/set1/green.gif","0","200","1","",""
"casino-fixation","112","487573","0.0-25.0-0.21","981","false","img/card_backs/set1/purple.gif","img/card_backs/set1/green.gif","img/card_backs/set1/red.gif","img/card_backs/set1/yellow.gif","img/card_backs/set2/pink.gif","img/card_backs/set2/blue.gif","img/card_backs/set2/orange.gif","img/card_backs/set2/gray.gif","""event"",""trial"",""time""
""fullscreenenter"",""1"",""8906""
","
","
","""event"",""trial"",""time""
""fullscreenenter"",""1"",""8906""
","
","","null","","null","","fixation","2021-07-16 00:43:32.574","","","","","",""
"card-selection-trial","113","490893","0.0-25.0-1.21","981","false","img/card_backs/set1/purple.gif","img/card_backs/set1/green.gif","img/card_backs/set1/red.gif","img/card_backs/set1/yellow.gif","img/card_backs/set2/pink.gif","img/card_backs/set2/blue.gif","img/card_backs/set2/orange.gif","img/card_backs/set2/gray.gif","""event"",""trial"",""time""
""fullscreenenter"",""1"",""8906""
","
","
","""event"",""trial"",""time""
""fullscreenenter"",""1"",""8906""
","
","","1310.2000000476837","","","","real_trial","2021-07-16 00:43:35.894","img/card_backs/set1/green.gif","0","200","1","",""
"casino-fixation","114","491411","0.0-25.0-0.22","981","false","img/card_backs/set1/purple.gif","img/card_backs/set1/green.gif","img/card_backs/set1/red.gif","img/card_backs/set1/yellow.gif","img/card_backs/set2/pink.gif","img/card_backs/set2/blue.gif","img/card_backs/set2/orange.gif","img/card_backs/set2/gray.gif","""event"",""trial"",""time""
""fullscreenenter"",""1"",""8906""
","
","
","""event"",""trial"",""time""
""fullscreenenter"",""1"",""8906""
","
","","null","","null","","fixation","2021-07-16 00:43:36.413","","","","","",""
"card-selection-trial","115","494640","0.0-25.0-1.22","981","false","img/card_backs/set1/purple.gif","img/card_backs/set1/green.gif","img/card_backs/set1/red.gif","img/card_backs/set1/yellow.gif","img/card_backs/set2/pink.gif","img/card_backs/set2/blue.gif","img/card_backs/set2/orange.gif","img/card_backs/set2/gray.gif","""event"",""trial"",""time""
""fullscreenenter"",""1"",""8906""
","
","
","""event"",""trial"",""time""
""fullscreenenter"",""1"",""8906""
","
","","1209.8999998569489","","","","real_trial","2021-07-16 00:43:39.641","img/card_backs/set1/purple.gif","1","190","1","",""
"casino-fixation","116","495149","0.0-25.0-0.23","981","false","img/card_backs/set1/purple.gif","img/card_backs/set1/green.gif","img/card_backs/set1/red.gif","img/card_backs/set1/yellow.gif","img/card_backs/set2/pink.gif","img/card_backs/set2/blue.gif","img/card_backs/set2/orange.gif","img/card_backs/set2/gray.gif","""event"",""trial"",""time""
""fullscreenenter"",""1"",""8906""
","
","
","""event"",""trial"",""time""
""fullscreenenter"",""1"",""8906""
","
","","null","","null","","fixation","2021-07-16 00:43:40.150","","","","","",""
"card-selection-trial","117","498970","0.0-25.0-1.23","981","false","img/card_backs/set1/purple.gif","img/card_backs/set1/green.gif","img/card_backs/set1/red.gif","img/card_backs/set1/yellow.gif","img/card_backs/set2/pink.gif","img/card_backs/set2/blue.gif","img/card_backs/set2/orange.gif","img/card_backs/set2/gray.gif","""event"",""trial"",""time""
""fullscreenenter"",""1"",""8906""
","
","
","""event"",""trial"",""time""
""fullscreenenter"",""1"",""8906""
","
","","1808.3999998569489","","","","real_trial","2021-07-16 00:43:43.971","img/card_backs/set1/purple.gif","3","-240","1","",""
"casino-fixation","118","499476","0.0-25.0-0.24","981","false","img/card_backs/set1/purple.gif","img/card_backs/set1/green.gif","img/card_backs/set1/red.gif","img/card_backs/set1/yellow.gif","img/card_backs/set2/pink.gif","img/card_backs/set2/blue.gif","img/card_backs/set2/orange.gif","img/card_backs/set2/gray.gif","""event"",""trial"",""time""
""fullscreenenter"",""1"",""8906""
","
","
","""event"",""trial"",""time""
""fullscreenenter"",""1"",""8906""
","
","","null","","null","","fixation","2021-07-16 00:43:44.478","","","","","",""
"card-selection-trial","119","503814","0.0-25.0-1.24","981","false","img/card_backs/set1/purple.gif","img/card_backs/set1/green.gif","img/card_backs/set1/red.gif","img/card_backs/set1/yellow.gif","img/card_backs/set2/pink.gif","img/card_backs/set2/blue.gif","img/card_backs/set2/orange.gif","img/card_backs/set2/gray.gif","""event"",""trial"",""time""
""fullscreenenter"",""1"",""8906""
","
","
","""event"",""trial"",""time""
""fullscreenenter"",""1"",""8906""
","
","","2322.0999999046326","","","","real_trial","2021-07-16 00:43:48.815","img/card_backs/set1/yellow.gif","2","120","1","",""
"casino-fixation","120","504323","0.0-25.0-0.25","981","false","img/card_backs/set1/purple.gif","img/card_backs/set1/green.gif","img/card_backs/set1/red.gif","img/card_backs/set1/yellow.gif","img/card_backs/set2/pink.gif","img/card_backs/set2/blue.gif","img/card_backs/set2/orange.gif","img/card_backs/set2/gray.gif","""event"",""trial"",""time""
""fullscreenenter"",""1"",""8906""
","
","
","""event"",""trial"",""time""
""fullscreenenter"",""1"",""8906""
","
","","null","","null","","fixation","2021-07-16 00:43:49.324","","","","","",""
"card-selection-trial","121","508106","0.0-25.0-1.25","981","false","img/card_backs/set1/purple.gif","img/card_backs/set1/green.gif","img/card_backs/set1/red.gif","img/card_backs/set1/yellow.gif","img/card_backs/set2/pink.gif","img/card_backs/set2/blue.gif","img/card_backs/set2/orange.gif","img/card_backs/set2/gray.gif","""event"",""trial"",""time""
""fullscreenenter"",""1"",""8906""
","
","
","""event"",""trial"",""time""
""fullscreenenter"",""1"",""8906""
","
","","1769.2999999523163","","","","real_trial","2021-07-16 00:43:53.107","img/card_backs/set1/green.gif","2","190","1","",""
"casino-fixation","122","508616","0.0-25.0-0.26","981","false","img/card_backs/set1/purple.gif","img/card_backs/set1/green.gif","img/card_backs/set1/red.gif","img/card_backs/set1/yellow.gif","img/card_backs/set2/pink.gif","img/card_backs/set2/blue.gif","img/card_backs/set2/orange.gif","img/card_backs/set2/gray.gif","""event"",""trial"",""time""
""fullscreenenter"",""1"",""8906""
","
","
","""event"",""trial"",""time""
""fullscreenenter"",""1"",""8906""
","
","","null","","null","","fixation","2021-07-16 00:43:53.618","","","","","",""
"card-selection-trial","123","512239","0.0-25.0-1.26","981","false","img/card_backs/set1/purple.gif","img/card_backs/set1/green.gif","img/card_backs/set1/red.gif","img/card_backs/set1/yellow.gif","img/card_backs/set2/pink.gif","img/card_backs/set2/blue.gif","img/card_backs/set2/orange.gif","img/card_backs/set2/gray.gif","""event"",""trial"",""time""
""fullscreenenter"",""1"",""8906""
","
","
","""event"",""trial"",""time""
""fullscreenenter"",""1"",""8906""
","
","","1613.0999999046326","","","","real_trial","2021-07-16 00:43:57.240","img/card_backs/set1/green.gif","0","190","1","",""
"casino-fixation","124","512746","0.0-25.0-0.27","981","false","img/card_backs/set1/purple.gif","img/card_backs/set1/green.gif","img/card_backs/set1/red.gif","img/card_backs/set1/yellow.gif","img/card_backs/set2/pink.gif","img/card_backs/set2/blue.gif","img/card_backs/set2/orange.gif","img/card_backs/set2/gray.gif","""event"",""trial"",""time""
""fullscreenenter"",""1"",""8906""
","
","
","""event"",""trial"",""time""
""fullscreenenter"",""1"",""8906""
","
","","null","","null","","fixation","2021-07-16 00:43:57.747","","","","","",""
"card-selection-trial","125","516436","0.0-25.0-1.27","981","false","img/card_backs/set1/purple.gif","img/card_backs/set1/green.gif","img/card_backs/set1/red.gif","img/card_backs/set1/yellow.gif","img/card_backs/set2/pink.gif","img/card_backs/set2/blue.gif","img/card_backs/set2/orange.gif","img/card_backs/set2/gray.gif","""event"",""trial"",""time""
""fullscreenenter"",""1"",""8906""
","
","
","""event"",""trial"",""time""
""fullscreenenter"",""1"",""8906""
","
","","1677.0999999046326","","","","real_trial","2021-07-16 00:44:01.437","img/card_backs/set1/green.gif","3","-240","1","",""
"casino-fixation","126","516939","0.0-25.0-0.28","981","false","img/card_backs/set1/purple.gif","img/card_backs/set1/green.gif","img/card_backs/set1/red.gif","img/card_backs/set1/yellow.gif","img/card_backs/set2/pink.gif","img/card_backs/set2/blue.gif","img/card_backs/set2/orange.gif","img/card_backs/set2/gray.gif","""event"",""trial"",""time""
""fullscreenenter"",""1"",""8906""
","
","
","""event"",""trial"",""time""
""fullscreenenter"",""1"",""8906""
","
","","null","","null","","fixation","2021-07-16 00:44:01.940","","","","","",""
"card-selection-trial","127","522838","0.0-25.0-1.28","981","false","img/card_backs/set1/purple.gif","img/card_backs/set1/green.gif","img/card_backs/set1/red.gif","img/card_backs/set1/yellow.gif","img/card_backs/set2/pink.gif","img/card_backs/set2/blue.gif","img/card_backs/set2/orange.gif","img/card_backs/set2/gray.gif","""event"",""trial"",""time""
""fullscreenenter"",""1"",""8906""
","
","
","""event"",""trial"",""time""
""fullscreenenter"",""1"",""8906""
","
","","3873","","","","real_trial","2021-07-16 00:44:07.839","img/card_backs/set1/yellow.gif","0","100","1","",""
"casino-fixation","128","523348","0.0-25.0-0.29","981","false","img/card_backs/set1/purple.gif","img/card_backs/set1/green.gif","img/card_backs/set1/red.gif","img/card_backs/set1/yellow.gif","img/card_backs/set2/pink.gif","img/card_backs/set2/blue.gif","img/card_backs/set2/orange.gif","img/card_backs/set2/gray.gif","""event"",""trial"",""time""
""fullscreenenter"",""1"",""8906""
","
","
","""event"",""trial"",""time""
""fullscreenenter"",""1"",""8906""
","
","","null","","null","","fixation","2021-07-16 00:44:08.349","","","","","",""
"card-selection-trial","129","526865","0.0-25.0-1.29","981","false","img/card_backs/set1/purple.gif","img/card_backs/set1/green.gif","img/card_backs/set1/red.gif","img/card_backs/set1/yellow.gif","img/card_backs/set2/pink.gif","img/card_backs/set2/blue.gif","img/card_backs/set2/orange.gif","img/card_backs/set2/gray.gif","""event"",""trial"",""time""
""fullscreenenter"",""1"",""8906""
","
","
","""event"",""trial"",""time""
""fullscreenenter"",""1"",""8906""
","
","","1498.0999999046326","","","","real_trial","2021-07-16 00:44:11.866","img/card_backs/set1/purple.gif","2","-240","1","",""
"casino-fixation","130","527372","0.0-25.0-0.30","981","false","img/card_backs/set1/purple.gif","img/card_backs/set1/green.gif","img/card_backs/set1/red.gif","img/card_backs/set1/yellow.gif","img/card_backs/set2/pink.gif","img/card_backs/set2/blue.gif","img/card_backs/set2/orange.gif","img/card_backs/set2/gray.gif","""event"",""trial"",""time""
""fullscreenenter"",""1"",""8906""
","
","
","""event"",""trial"",""time""
""fullscreenenter"",""1"",""8906""
","
","","null","","null","","fixation","2021-07-16 00:44:12.373","","","","","",""
"card-selection-trial","131","530730","0.0-25.0-1.30","981","false","img/card_backs/set1/purple.gif","img/card_backs/set1/green.gif","img/card_backs/set1/red.gif","img/card_backs/set1/yellow.gif","img/card_backs/set2/pink.gif","img/card_backs/set2/blue.gif","img/card_backs/set2/orange.gif","img/card_backs/set2/gray.gif","""event"",""trial"",""time""
""fullscreenenter"",""1"",""8906""
","
","
","""event"",""trial"",""time""
""fullscreenenter"",""1"",""8906""
","
","","1343.2000000476837","","","","real_trial","2021-07-16 00:44:15.731","img/card_backs/set1/yellow.gif","0","-70","1","",""
"casino-fixation","132","531236","0.0-25.0-0.31","981","false","img/card_backs/set1/purple.gif","img/card_backs/set1/green.gif","img/card_backs/set1/red.gif","img/card_backs/set1/yellow.gif","img/card_backs/set2/pink.gif","img/card_backs/set2/blue.gif","img/card_backs/set2/orange.gif","img/card_backs/set2/gray.gif","""event"",""trial"",""time""
""fullscreenenter"",""1"",""8906""
","
","
","""event"",""trial"",""time""
""fullscreenenter"",""1"",""8906""
","
","","null","","null","","fixation","2021-07-16 00:44:16.237","","","","","",""
"card-selection-trial","133","537428","0.0-25.0-1.31","981","false","img/card_backs/set1/purple.gif","img/card_backs/set1/green.gif","img/card_backs/set1/red.gif","img/card_backs/set1/yellow.gif","img/card_backs/set2/pink.gif","img/card_backs/set2/blue.gif","img/card_backs/set2/orange.gif","img/card_backs/set2/gray.gif","""event"",""trial"",""time""
""fullscreenenter"",""1"",""8906""
","
","
","""event"",""trial"",""time""
""fullscreenenter"",""1"",""8906""
","
","","4176","","","","real_trial","2021-07-16 00:44:22.429","img/card_backs/set1/green.gif","3","190","1","",""
"casino-fixation","134","537936","0.0-25.0-0.32","981","false","img/card_backs/set1/purple.gif","img/card_backs/set1/green.gif","img/card_backs/set1/red.gif","img/card_backs/set1/yellow.gif","img/card_backs/set2/pink.gif","img/card_backs/set2/blue.gif","img/card_backs/set2/orange.gif","img/card_backs/set2/gray.gif","""event"",""trial"",""time""
""fullscreenenter"",""1"",""8906""
","
","
","""event"",""trial"",""time""
""fullscreenenter"",""1"",""8906""
","
","","null","","null","","fixation","2021-07-16 00:44:22.937","","","","","",""
"card-selection-trial","135","541574","0.0-25.0-1.32","981","false","img/card_backs/set1/purple.gif","img/card_backs/set1/green.gif","img/card_backs/set1/red.gif","img/card_backs/set1/yellow.gif","img/card_backs/set2/pink.gif","img/card_backs/set2/blue.gif","img/card_backs/set2/orange.gif","img/card_backs/set2/gray.gif","""event"",""trial"",""time""
""fullscreenenter"",""1"",""8906""
","
","
","""event"",""trial"",""time""
""fullscreenenter"",""1"",""8906""
","
","","1620.3000001907349","","","","real_trial","2021-07-16 00:44:26.575","img/card_backs/set1/green.gif","0","-230","1","",""
"casino-fixation","136","542077","0.0-25.0-0.33","981","false","img/card_backs/set1/purple.gif","img/card_backs/set1/green.gif","img/card_backs/set1/red.gif","img/card_backs/set1/yellow.gif","img/card_backs/set2/pink.gif","img/card_backs/set2/blue.gif","img/card_backs/set2/orange.gif","img/card_backs/set2/gray.gif","""event"",""trial"",""time""
""fullscreenenter"",""1"",""8906""
","
","
","""event"",""trial"",""time""
""fullscreenenter"",""1"",""8906""
","
","","null","","null","","fixation","2021-07-16 00:44:27.078","","","","","",""
"card-selection-trial","137","548495","0.0-25.0-1.33","981","false","img/card_backs/set1/purple.gif","img/card_backs/set1/green.gif","img/card_backs/set1/red.gif","img/card_backs/set1/yellow.gif","img/card_backs/set2/pink.gif","img/card_backs/set2/blue.gif","img/card_backs/set2/orange.gif","img/card_backs/set2/gray.gif","""event"",""trial"",""time""
""fullscreenenter"",""1"",""8906""
","
","
","""event"",""trial"",""time""
""fullscreenenter"",""1"",""8906""
","
","","4408","","","","real_trial","2021-07-16 00:44:33.496","img/card_backs/set1/purple.gif","1","-230","1","",""
"casino-fixation","138","549007","0.0-25.0-0.34","981","false","img/card_backs/set1/purple.gif","img/card_backs/set1/green.gif","img/card_backs/set1/red.gif","img/card_backs/set1/yellow.gif","img/card_backs/set2/pink.gif","img/card_backs/set2/blue.gif","img/card_backs/set2/orange.gif","img/card_backs/set2/gray.gif","""event"",""trial"",""time""
""fullscreenenter"",""1"",""8906""
","
","
","""event"",""trial"",""time""
""fullscreenenter"",""1"",""8906""
","
","","null","","null","","fixation","2021-07-16 00:44:34.008","","","","","",""
"card-selection-trial","139","553274","0.0-25.0-1.34","981","false","img/card_backs/set1/purple.gif","img/card_backs/set1/green.gif","img/card_backs/set1/red.gif","img/card_backs/set1/yellow.gif","img/card_backs/set2/pink.gif","img/card_backs/set2/blue.gif","img/card_backs/set2/orange.gif","img/card_backs/set2/gray.gif","""event"",""trial"",""time""
""fullscreenenter"",""1"",""8906""
","
","
","""event"",""trial"",""time""
""fullscreenenter"",""1"",""8906""
","
","","2252.7000000476837","","","","real_trial","2021-07-16 00:44:38.275","img/card_backs/set1/green.gif","2","180","1","",""
"casino-fixation","140","553785","0.0-25.0-0.35","981","false","img/card_backs/set1/purple.gif","img/card_backs/set1/green.gif","img/card_backs/set1/red.gif","img/card_backs/set1/yellow.gif","img/card_backs/set2/pink.gif","img/card_backs/set2/blue.gif","img/card_backs/set2/orange.gif","img/card_backs/set2/gray.gif","""event"",""trial"",""time""
""fullscreenenter"",""1"",""8906""
","
","
","""event"",""trial"",""time""
""fullscreenenter"",""1"",""8906""
","
","","null","","null","","fixation","2021-07-16 00:44:38.786","","","","","",""
"card-selection-trial","141","559108","0.0-25.0-1.35","981","false","img/card_backs/set1/purple.gif","img/card_backs/set1/green.gif","img/card_backs/set1/red.gif","img/card_backs/set1/yellow.gif","img/card_backs/set2/pink.gif","img/card_backs/set2/blue.gif","img/card_backs/set2/orange.gif","img/card_backs/set2/gray.gif","""event"",""trial"",""time""
""fullscreenenter"",""1"",""8906""
","
","
","""event"",""trial"",""time""
""fullscreenenter"",""1"",""8906""
","
","","3309.0999999046326","","","","real_trial","2021-07-16 00:44:44.109","img/card_backs/set1/green.gif","3","-240","1","",""
"casino-fixation","142","559617","0.0-25.0-0.36","981","false","img/card_backs/set1/purple.gif","img/card_backs/set1/green.gif","img/card_backs/set1/red.gif","img/card_backs/set1/yellow.gif","img/card_backs/set2/pink.gif","img/card_backs/set2/blue.gif","img/card_backs/set2/orange.gif","img/card_backs/set2/gray.gif","""event"",""trial"",""time""
""fullscreenenter"",""1"",""8906""
","
","
","""event"",""trial"",""time""
""fullscreenenter"",""1"",""8906""
","
","","null","","null","","fixation","2021-07-16 00:44:44.618","","","","","",""
"card-selection-trial","143","564286","0.0-25.0-1.36","981","false","img/card_backs/set1/purple.gif","img/card_backs/set1/green.gif","img/card_backs/set1/red.gif","img/card_backs/set1/yellow.gif","img/card_backs/set2/pink.gif","img/card_backs/set2/blue.gif","img/card_backs/set2/orange.gif","img/card_backs/set2/gray.gif","""event"",""trial"",""time""
""fullscreenenter"",""1"",""8906""
","
","
","""event"",""trial"",""time""
""fullscreenenter"",""1"",""8906""
","
","","2643.2999999523163","","","","real_trial","2021-07-16 00:44:49.287","img/card_backs/set1/red.gif","3","110","1","",""
"casino-fixation","144","564794","0.0-25.0-0.37","981","false","img/card_backs/set1/purple.gif","img/card_backs/set1/green.gif","img/card_backs/set1/red.gif","img/card_backs/set1/yellow.gif","img/card_backs/set2/pink.gif","img/card_backs/set2/blue.gif","img/card_backs/set2/orange.gif","img/card_backs/set2/gray.gif","""event"",""trial"",""time""
""fullscreenenter"",""1"",""8906""
","
","
","""event"",""trial"",""time""
""fullscreenenter"",""1"",""8906""
","
","","null","","null","","fixation","2021-07-16 00:44:49.795","","","","","",""
"card-selection-trial","145","568456","0.0-25.0-1.37","981","false","img/card_backs/set1/purple.gif","img/card_backs/set1/green.gif","img/card_backs/set1/red.gif","img/card_backs/set1/yellow.gif","img/card_backs/set2/pink.gif","img/card_backs/set2/blue.gif","img/card_backs/set2/orange.gif","img/card_backs/set2/gray.gif","""event"",""trial"",""time""
""fullscreenenter"",""1"",""8906""
","
","
","""event"",""trial"",""time""
""fullscreenenter"",""1"",""8906""
","
","","1643.5999999046326","","","","real_trial","2021-07-16 00:44:53.457","img/card_backs/set1/red.gif","0","110","1","",""
"casino-fixation","146","568966","0.0-25.0-0.38","981","false","img/card_backs/set1/purple.gif","img/card_backs/set1/green.gif","img/card_backs/set1/red.gif","img/card_backs/set1/yellow.gif","img/card_backs/set2/pink.gif","img/card_backs/set2/blue.gif","img/card_backs/set2/orange.gif","img/card_backs/set2/gray.gif","""event"",""trial"",""time""
""fullscreenenter"",""1"",""8906""
","
","
","""event"",""trial"",""time""
""fullscreenenter"",""1"",""8906""
","
","","null","","null","","fixation","2021-07-16 00:44:53.967","","","","","",""
"card-selection-trial","147","575405","0.0-25.0-1.38","981","false","img/card_backs/set1/purple.gif","img/card_backs/set1/green.gif","img/card_backs/set1/red.gif","img/card_backs/set1/yellow.gif","img/card_backs/set2/pink.gif","img/card_backs/set2/blue.gif","img/card_backs/set2/orange.gif","img/card_backs/set2/gray.gif","""event"",""trial"",""time""
""fullscreenenter"",""1"",""8906""
","
","
","""event"",""trial"",""time""
""fullscreenenter"",""1"",""8906""
","
","","4420.900000095367","","","","real_trial","2021-07-16 00:45:00.406","img/card_backs/set1/green.gif","2","200","1","",""
"casino-fixation","148","575908","0.0-25.0-0.39","981","false","img/card_backs/set1/purple.gif","img/card_backs/set1/green.gif","img/card_backs/set1/red.gif","img/card_backs/set1/yellow.gif","img/card_backs/set2/pink.gif","img/card_backs/set2/blue.gif","img/card_backs/set2/orange.gif","img/card_backs/set2/gray.gif","""event"",""trial"",""time""
""fullscreenenter"",""1"",""8906""
","
","
","""event"",""trial"",""time""
""fullscreenenter"",""1"",""8906""
","
","","null","","null","","fixation","2021-07-16 00:45:00.910","","","","","",""
"card-selection-trial","149","579455","0.0-25.0-1.39","981","false","img/card_backs/set1/purple.gif","img/card_backs/set1/green.gif","img/card_backs/set1/red.gif","img/card_backs/set1/yellow.gif","img/card_backs/set2/pink.gif","img/card_backs/set2/blue.gif","img/card_backs/set2/orange.gif","img/card_backs/set2/gray.gif","""event"",""trial"",""time""
""fullscreenenter"",""1"",""8906""
","
","
","""event"",""trial"",""time""
""fullscreenenter"",""1"",""8906""
","
","","1535.7000000476837","","","","real_trial","2021-07-16 00:45:04.456","img/card_backs/set1/green.gif","1","-250","1","",""
"casino-fixation","150","579964","0.0-25.0-0.40","981","false","img/card_backs/set1/purple.gif","img/card_backs/set1/green.gif","img/card_backs/set1/red.gif","img/card_backs/set1/yellow.gif","img/card_backs/set2/pink.gif","img/card_backs/set2/blue.gif","img/card_backs/set2/orange.gif","img/card_backs/set2/gray.gif","""event"",""trial"",""time""
""fullscreenenter"",""1"",""8906""
","
","
","""event"",""trial"",""time""
""fullscreenenter"",""1"",""8906""
","
","","null","","null","","fixation","2021-07-16 00:45:04.965","","","","","",""
"card-selection-trial","151","585544","0.0-25.0-1.40","981","false","img/card_backs/set1/purple.gif","img/card_backs/set1/green.gif","img/card_backs/set1/red.gif","img/card_backs/set1/yellow.gif","img/card_backs/set2/pink.gif","img/card_backs/set2/blue.gif","img/card_backs/set2/orange.gif","img/card_backs/set2/gray.gif","""event"",""trial"",""time""
""fullscreenenter"",""1"",""8906""
","
","
","""event"",""trial"",""time""
""fullscreenenter"",""1"",""8906""
","
","","3569.399999856949","","","","real_trial","2021-07-16 00:45:10.545","img/card_backs/set1/green.gif","3","200","1","",""
"casino-fixation","152","586055","0.0-25.0-0.41","981","false","img/card_backs/set1/purple.gif","img/card_backs/set1/green.gif","img/card_backs/set1/red.gif","img/card_backs/set1/yellow.gif","img/card_backs/set2/pink.gif","img/card_backs/set2/blue.gif","img/card_backs/set2/orange.gif","img/card_backs/set2/gray.gif","""event"",""trial"",""time""
""fullscreenenter"",""1"",""8906""
","
","
","""event"",""trial"",""time""
""fullscreenenter"",""1"",""8906""
","
","","null","","null","","fixation","2021-07-16 00:45:11.057","","","","","",""
"card-selection-trial","153","593497","0.0-25.0-1.41","981","false","img/card_backs/set1/purple.gif","img/card_backs/set1/green.gif","img/card_backs/set1/red.gif","img/card_backs/set1/yellow.gif","img/card_backs/set2/pink.gif","img/card_backs/set2/blue.gif","img/card_backs/set2/orange.gif","img/card_backs/set2/gray.gif","""event"",""trial"",""time""
""fullscreenenter"",""1"",""8906""
","
","
","""event"",""trial"",""time""
""fullscreenenter"",""1"",""8906""
","
","","5425.600000143051","","","","real_trial","2021-07-16 00:45:18.498","img/card_backs/set1/yellow.gif","3","-60","1","",""
"casino-fixation","154","594011","0.0-25.0-0.42","981","false","img/card_backs/set1/purple.gif","img/card_backs/set1/green.gif","img/card_backs/set1/red.gif","img/card_backs/set1/yellow.gif","img/card_backs/set2/pink.gif","img/card_backs/set2/blue.gif","img/card_backs/set2/orange.gif","img/card_backs/set2/gray.gif","""event"",""trial"",""time""
""fullscreenenter"",""1"",""8906""
","
","
","""event"",""trial"",""time""
""fullscreenenter"",""1"",""8906""
","
","","null","","null","","fixation","2021-07-16 00:45:19.012","","","","","",""
"card-selection-trial","155","597807","0.0-25.0-1.42","981","false","img/card_backs/set1/purple.gif","img/card_backs/set1/green.gif","img/card_backs/set1/red.gif","img/card_backs/set1/yellow.gif","img/card_backs/set2/pink.gif","img/card_backs/set2/blue.gif","img/card_backs/set2/orange.gif","img/card_backs/set2/gray.gif","""event"",""trial"",""time""
""fullscreenenter"",""1"",""8906""
","
","
","""event"",""trial"",""time""
""fullscreenenter"",""1"",""8906""
","
","","1784.3999998569489","","","","real_trial","2021-07-16 00:45:22.808","img/card_backs/set1/yellow.gif","1","-70","1","",""
"casino-fixation","156","598313","0.0-25.0-0.43","981","false","img/card_backs/set1/purple.gif","img/card_backs/set1/green.gif","img/card_backs/set1/red.gif","img/card_backs/set1/yellow.gif","img/card_backs/set2/pink.gif","img/card_backs/set2/blue.gif","img/card_backs/set2/orange.gif","img/card_backs/set2/gray.gif","""event"",""trial"",""time""
""fullscreenenter"",""1"",""8906""
","
","
","""event"",""trial"",""time""
""fullscreenenter"",""1"",""8906""
","
","","null","","null","","fixation","2021-07-16 00:45:23.314","","","","","",""
"card-selection-trial","157","602509","0.0-25.0-1.43","981","false","img/card_backs/set1/purple.gif","img/card_backs/set1/green.gif","img/card_backs/set1/red.gif","img/card_backs/set1/yellow.gif","img/card_backs/set2/pink.gif","img/card_backs/set2/blue.gif","img/card_backs/set2/orange.gif","img/card_backs/set2/gray.gif","""event"",""trial"",""time""
""fullscreenenter"",""1"",""8906""
","
","
","""event"",""trial"",""time""
""fullscreenenter"",""1"",""8906""
","
","","2186.0999999046326","","","","real_trial","2021-07-16 00:45:27.510","img/card_backs/set1/purple.gif","2","-240","1","",""
"casino-fixation","158","603022","0.0-25.0-0.44","981","false","img/card_backs/set1/purple.gif","img/card_backs/set1/green.gif","img/card_backs/set1/red.gif","img/card_backs/set1/yellow.gif","img/card_backs/set2/pink.gif","img/card_backs/set2/blue.gif","img/card_backs/set2/orange.gif","img/card_backs/set2/gray.gif","""event"",""trial"",""time""
""fullscreenenter"",""1"",""8906""
","
","
","""event"",""trial"",""time""
""fullscreenenter"",""1"",""8906""
","
","","null","","null","","fixation","2021-07-16 00:45:28.023","","","","","",""
"card-selection-trial","159","606362","0.0-25.0-1.44","981","false","img/card_backs/set1/purple.gif","img/card_backs/set1/green.gif","img/card_backs/set1/red.gif","img/card_backs/set1/yellow.gif","img/card_backs/set2/pink.gif","img/card_backs/set2/blue.gif","img/card_backs/set2/orange.gif","img/card_backs/set2/gray.gif","""event"",""trial"",""time""
""fullscreenenter"",""1"",""8906""
","
","
","""event"",""trial"",""time""
""fullscreenenter"",""1"",""8906""
","
","","1326.3999998569489","","","","real_trial","2021-07-16 00:45:31.363","img/card_backs/set1/yellow.gif","1","110","1","",""
"casino-fixation","160","606875","0.0-25.0-0.45","981","false","img/card_backs/set1/purple.gif","img/card_backs/set1/green.gif","img/card_backs/set1/red.gif","img/card_backs/set1/yellow.gif","img/card_backs/set2/pink.gif","img/card_backs/set2/blue.gif","img/card_backs/set2/orange.gif","img/card_backs/set2/gray.gif","""event"",""trial"",""time""
""fullscreenenter"",""1"",""8906""
","
","
","""event"",""trial"",""time""
""fullscreenenter"",""1"",""8906""
","
","","null","","null","","fixation","2021-07-16 00:45:31.876","","","","","",""
"card-selection-trial","161","610580","0.0-25.0-1.45","981","false","img/card_backs/set1/purple.gif","img/card_backs/set1/green.gif","img/card_backs/set1/red.gif","img/card_backs/set1/yellow.gif","img/card_backs/set2/pink.gif","img/card_backs/set2/blue.gif","img/card_backs/set2/orange.gif","img/card_backs/set2/gray.gif","""event"",""trial"",""time""
""fullscreenenter"",""1"",""8906""
","
","
","""event"",""trial"",""time""
""fullscreenenter"",""1"",""8906""
","
","","1683.4000000953674","","","","real_trial","2021-07-16 00:45:35.581","img/card_backs/set1/yellow.gif","3","-50","1","",""
"casino-fixation","162","611089","0.0-25.0-0.46","981","false","img/card_backs/set1/purple.gif","img/card_backs/set1/green.gif","img/card_backs/set1/red.gif","img/card_backs/set1/yellow.gif","img/card_backs/set2/pink.gif","img/card_backs/set2/blue.gif","img/card_backs/set2/orange.gif","img/card_backs/set2/gray.gif","""event"",""trial"",""time""
""fullscreenenter"",""1"",""8906""
","
","
","""event"",""trial"",""time""
""fullscreenenter"",""1"",""8906""
","
","","null","","null","","fixation","2021-07-16 00:45:36.090","","","","","",""
"card-selection-trial","163","614888","0.0-25.0-1.46","981","false","img/card_backs/set1/purple.gif","img/card_backs/set1/green.gif","img/card_backs/set1/red.gif","img/card_backs/set1/yellow.gif","img/card_backs/set2/pink.gif","img/card_backs/set2/blue.gif","img/card_backs/set2/orange.gif","img/card_backs/set2/gray.gif","""event"",""trial"",""time""
""fullscreenenter"",""1"",""8906""
","
","
","""event"",""trial"",""time""
""fullscreenenter"",""1"",""8906""
","
","","1782","","","","real_trial","2021-07-16 00:45:39.889","img/card_backs/set1/yellow.gif","2","-60","1","",""
"casino-fixation","164","615396","0.0-25.0-0.47","981","false","img/card_backs/set1/purple.gif","img/card_backs/set1/green.gif","img/card_backs/set1/red.gif","img/card_backs/set1/yellow.gif","img/card_backs/set2/pink.gif","img/card_backs/set2/blue.gif","img/card_backs/set2/orange.gif","img/card_backs/set2/gray.gif","""event"",""trial"",""time""
""fullscreenenter"",""1"",""8906""
","
","
","""event"",""trial"",""time""
""fullscreenenter"",""1"",""8906""
","
","","null","","null","","fixation","2021-07-16 00:45:40.397","","","","","",""
"card-selection-trial","165","618495","0.0-25.0-1.47","981","false","img/card_backs/set1/purple.gif","img/card_backs/set1/green.gif","img/card_backs/set1/red.gif","img/card_backs/set1/yellow.gif","img/card_backs/set2/pink.gif","img/card_backs/set2/blue.gif","img/card_backs/set2/orange.gif","img/card_backs/set2/gray.gif","""event"",""trial"",""time""
""fullscreenenter"",""1"",""8906""
","
","
","""event"",""trial"",""time""
""fullscreenenter"",""1"",""8906""
","
","","1085.7000000476837","","","","real_trial","2021-07-16 00:45:43.496","img/card_backs/set1/yellow.gif","2","-70","1","",""
"casino-fixation","166","619005","0.0-25.0-0.48","981","false","img/card_backs/set1/purple.gif","img/card_backs/set1/green.gif","img/card_backs/set1/red.gif","img/card_backs/set1/yellow.gif","img/card_backs/set2/pink.gif","img/card_backs/set2/blue.gif","img/card_backs/set2/orange.gif","img/card_backs/set2/gray.gif","""event"",""trial"",""time""
""fullscreenenter"",""1"",""8906""
","
","
","""event"",""trial"",""time""
""fullscreenenter"",""1"",""8906""
","
","","null","","null","","fixation","2021-07-16 00:45:44.007","","","","","",""
"card-selection-trial","167","622143","0.0-25.0-1.48","981","false","img/card_backs/set1/purple.gif","img/card_backs/set1/green.gif","img/card_backs/set1/red.gif","img/card_backs/set1/yellow.gif","img/card_backs/set2/pink.gif","img/card_backs/set2/blue.gif","img/card_backs/set2/orange.gif","img/card_backs/set2/gray.gif","""event"",""trial"",""time""
""fullscreenenter"",""1"",""8906""
","
","
","""event"",""trial"",""time""
""fullscreenenter"",""1"",""8906""
","
