"trial_type","trial_index","time_elapsed","internal_node_id","sub_id","risk_good_first","block1_A","block1_B","block1_C","block1_D","block2_A","block2_B","block2_C","block2_D","interactions","blur_events","focus_events","fullscreenenter_events","fullscreenexit_events","success","rt","stimulus","key_press","button_pressed","task_part","timestamp","card_choice","choice_position","points_earned","block","correct","response"
"pavlovia","0","14","0.0-0.0","A206","true","img/card_backs/set1/red.gif","img/card_backs/set1/green.gif","img/card_backs/set1/yellow.gif","img/card_backs/set1/purple.gif","img/card_backs/set2/gray.gif","img/card_backs/set2/blue.gif","img/card_backs/set2/pink.gif","img/card_backs/set2/orange.gif","""event"",""trial"",""time""
""fullscreenenter"",""1"",""3570""
","
","
","""event"",""trial"",""time""
""fullscreenenter"",""1"",""3570""
","
","","","","","","","","","","","","",""
"fullscreen","1","4236","0.0-1.0","A206","true","img/card_backs/set1/red.gif","img/card_backs/set1/green.gif","img/card_backs/set1/yellow.gif","img/card_backs/set1/purple.gif","img/card_backs/set2/gray.gif","img/card_backs/set2/blue.gif","img/card_backs/set2/pink.gif","img/card_backs/set2/orange.gif","""event"",""trial"",""time""
""fullscreenenter"",""1"",""3570""
","
","
","""event"",""trial"",""time""
""fullscreenenter"",""1"",""3570""
","
","true","","","","","","","","","","","",""
"audio-keyboard-response","2","5786","0.0-2.0","A206","true","img/card_backs/set1/red.gif","img/card_backs/set1/green.gif","img/card_backs/set1/yellow.gif","img/card_backs/set1/purple.gif","img/card_backs/set2/gray.gif","img/card_backs/set2/blue.gif","img/card_backs/set2/pink.gif","img/card_backs/set2/orange.gif","""event"",""trial"",""time""
""fullscreenenter"",""1"",""3570""
","
","
","""event"",""trial"",""time""
""fullscreenenter"",""1"",""3570""
","
","","171","audio/beep_loop.wav","32","","","","","","","","",""
"audio-button-response","3","7875","0.0-3.0","A206","true","img/card_backs/set1/red.gif","img/card_backs/set1/green.gif","img/card_backs/set1/yellow.gif","img/card_backs/set1/purple.gif","img/card_backs/set2/gray.gif","img/card_backs/set2/blue.gif","img/card_backs/set2/pink.gif","img/card_backs/set2/orange.gif","""event"",""trial"",""time""
""fullscreenenter"",""1"",""3570""
","
","
","""event"",""trial"",""time""
""fullscreenenter"",""1"",""3570""
","
","","NaN","audio/turtle.mp3","","3","","","","","","","",""
"audio-button-response","4","10388","0.0-4.0","A206","true","img/card_backs/set1/red.gif","img/card_backs/set1/green.gif","img/card_backs/set1/yellow.gif","img/card_backs/set1/purple.gif","img/card_backs/set2/gray.gif","img/card_backs/set2/blue.gif","img/card_backs/set2/pink.gif","img/card_backs/set2/orange.gif","""event"",""trial"",""time""
""fullscreenenter"",""1"",""3570""
","
","
","""event"",""trial"",""time""
""fullscreenenter"",""1"",""3570""
","
","","NaN","audio/shark.mp3","","2","","","","","","","",""
"fullscreen","5","14054","0.0-5.0","A206","true","img/card_backs/set1/red.gif","img/card_backs/set1/green.gif","img/card_backs/set1/yellow.gif","img/card_backs/set1/purple.gif","img/card_backs/set2/gray.gif","img/card_backs/set2/blue.gif","img/card_backs/set2/pink.gif","img/card_backs/set2/orange.gif","""event"",""trial"",""time""
""fullscreenenter"",""1"",""3570""
","
","
","""event"",""trial"",""time""
""fullscreenenter"",""1"",""3570""
","
","true","","","","","","","","","","","",""
"casino-keyboard-response","6","17006","0.0-6.0-0.0","A206","true","img/card_backs/set1/red.gif","img/card_backs/set1/green.gif","img/card_backs/set1/yellow.gif","img/card_backs/set1/purple.gif","img/card_backs/set2/gray.gif","img/card_backs/set2/blue.gif","img/card_backs/set2/pink.gif","img/card_backs/set2/orange.gif","""event"",""trial"",""time""
""fullscreenenter"",""1"",""3570""
","
","
","""event"",""trial"",""time""
""fullscreenenter"",""1"",""3570""
","
","","2930.1200001500547","Welcome to the casino!","71","","instructions","2021-04-02 22:29:20.896","","","","","",""
"casino-keyboard-response","7","26374","0.0-6.0-0.1","A206","true","img/card_backs/set1/red.gif","img/card_backs/set1/green.gif","img/card_backs/set1/yellow.gif","img/card_backs/set1/purple.gif","img/card_backs/set2/gray.gif","img/card_backs/set2/blue.gif","img/card_backs/set2/pink.gif","img/card_backs/set2/orange.gif","""event"",""trial"",""time""
""fullscreenenter"",""1"",""3570""
","
","
","""event"",""trial"",""time""
""fullscreenenter"",""1"",""3570""
","
","","9362.119999947026","Today you will be playing a game to earn tokens. </br> At the end of the experiment, you will be paid a bonus based on how many tokens you win. ","69","","instructions","2021-04-02 22:29:30.263","","","","","",""
"casino-keyboard-response","8","33932","0.0-6.0-0.2","A206","true","img/card_backs/set1/red.gif","img/card_backs/set1/green.gif","img/card_backs/set1/yellow.gif","img/card_backs/set1/purple.gif","img/card_backs/set2/gray.gif","img/card_backs/set2/blue.gif","img/card_backs/set2/pink.gif","img/card_backs/set2/orange.gif","""event"",""trial"",""time""
""fullscreenenter"",""1"",""3570""
","
","
","""event"",""trial"",""time""
""fullscreenenter"",""1"",""3570""
","
","","7547.359999967739","On every turn, you will be shown four different decks of cards. </br> You need to select a card from one of the four decks.  ","75","","instructions","2021-04-02 22:29:37.821","","","","","",""
"casino-keyboard-response","9","38643","0.0-6.0-0.3","A206","true","img/card_backs/set1/red.gif","img/card_backs/set1/green.gif","img/card_backs/set1/yellow.gif","img/card_backs/set1/purple.gif","img/card_backs/set2/gray.gif","img/card_backs/set2/blue.gif","img/card_backs/set2/pink.gif","img/card_backs/set2/orange.gif","""event"",""trial"",""time""
""fullscreenenter"",""1"",""3570""
","
","
","""event"",""trial"",""time""
""fullscreenenter"",""1"",""3570""
","
","","4702.139999950305","On the next screen, you will see what the decks will look like. ","66","","instructions","2021-04-02 22:29:42.532","","","","","",""
"card-selection-trial","10","42674","0.0-7.0-0.0","A206","true","img/card_backs/set1/red.gif","img/card_backs/set1/green.gif","img/card_backs/set1/yellow.gif","img/card_backs/set1/purple.gif","img/card_backs/set2/gray.gif","img/card_backs/set2/blue.gif","img/card_backs/set2/pink.gif","img/card_backs/set2/orange.gif","""event"",""trial"",""time""
""fullscreenenter"",""1"",""3570""
","
","
","""event"",""trial"",""time""
""fullscreenenter"",""1"",""3570""
","
","","null","","","","practice","2021-04-02 22:29:46.564","null","null","null","0","",""
"casino-keyboard-response","11","50101","0.0-8.0-0.0","A206","true","img/card_backs/set1/red.gif","img/card_backs/set1/green.gif","img/card_backs/set1/yellow.gif","img/card_backs/set1/purple.gif","img/card_backs/set2/gray.gif","img/card_backs/set2/blue.gif","img/card_backs/set2/pink.gif","img/card_backs/set2/orange.gif","""event"",""trial"",""time""
""fullscreenenter"",""1"",""3570""
","
","
","""event"",""trial"",""time""
""fullscreenenter"",""1"",""3570""
","
","","7422.689999919385","You should pick a card from a deck using the '2', '4', '6', and '8' keys at the top of the keyboard.","85","","instructions","2021-04-02 22:29:53.990","","","","","",""
"casino-keyboard-response","12","55392","0.0-8.0-0.1","A206","true","img/card_backs/set1/red.gif","img/card_backs/set1/green.gif","img/card_backs/set1/yellow.gif","img/card_backs/set1/purple.gif","img/card_backs/set2/gray.gif","img/card_backs/set2/blue.gif","img/card_backs/set2/pink.gif","img/card_backs/set2/orange.gif","""event"",""trial"",""time""
""fullscreenenter"",""1"",""3570""
","
","
","""event"",""trial"",""time""
""fullscreenenter"",""1"",""3570""
","
","","5286.03499988094","Once you select a card, it will turn over and you will see how many tokens you earned.","83","","instructions","2021-04-02 22:29:59.282","","","","","",""
"casino-keyboard-response","13","72211","0.0-8.0-0.2","A206","true","img/card_backs/set1/red.gif","img/card_backs/set1/green.gif","img/card_backs/set1/yellow.gif","img/card_backs/set1/purple.gif","img/card_backs/set2/gray.gif","img/card_backs/set2/blue.gif","img/card_backs/set2/pink.gif","img/card_backs/set2/orange.gif","""event"",""trial"",""time""
""fullscreenenter"",""1"",""3570""
","
","
","""event"",""trial"",""time""
""fullscreenenter"",""1"",""3570""
","
","","16809.164999984205","Let's try practicing that! </br> First, try to put your fingers over the '2', '4', '6', and '8' keys. </br>  You can use whatever fingers are most comfortable for you. Try to find a comfortable position now. ","50","","instructions","2021-04-02 22:30:16.100","","","","","",""
"casino-keyboard-response","14","78267","0.0-8.0-0.3","A206","true","img/card_backs/set1/red.gif","img/card_backs/set1/green.gif","img/card_backs/set1/yellow.gif","img/card_backs/set1/purple.gif","img/card_backs/set2/gray.gif","img/card_backs/set2/blue.gif","img/card_backs/set2/pink.gif","img/card_backs/set2/orange.gif","""event"",""trial"",""time""
""fullscreenenter"",""1"",""3570""
","
","
","""event"",""trial"",""time""
""fullscreenenter"",""1"",""3570""
","
","","6049.445000011474","Okay ready? </br> On the next screen, press '2' to select the left deck. ","50","","instructions","2021-04-02 22:30:22.156","","","","","",""
"card-selection-trial","15","81231","0.0-9.0-0.0","A206","true","img/card_backs/set1/red.gif","img/card_backs/set1/green.gif","img/card_backs/set1/yellow.gif","img/card_backs/set1/purple.gif","img/card_backs/set2/gray.gif","img/card_backs/set2/blue.gif","img/card_backs/set2/pink.gif","img/card_backs/set2/orange.gif","""event"",""trial"",""time""
""fullscreenenter"",""1"",""3570""
","
","
","""event"",""trial"",""time""
""fullscreenenter"",""1"",""3570""
","
","","850.7099999114871","","","","practice_card_selection","2021-04-02 22:30:25.121","img/practice_cards/backs/black.gif","0","100","","",""
"casino-keyboard-response","16","86825","0.0-10.0-0.0","A206","true","img/card_backs/set1/red.gif","img/card_backs/set1/green.gif","img/card_backs/set1/yellow.gif","img/card_backs/set1/purple.gif","img/card_backs/set2/gray.gif","img/card_backs/set2/blue.gif","img/card_backs/set2/pink.gif","img/card_backs/set2/orange.gif","""event"",""trial"",""time""
""fullscreenenter"",""1"",""3570""
","
","
","""event"",""trial"",""time""
""fullscreenenter"",""1"",""3570""
","
","","5586.134999990463","Great! Now on the next screen, try pressing '6' to select the third deck.","54","","instructions","2021-04-02 22:30:30.714","","","","","",""
"card-selection-trial","17","89635","0.0-11.0-0.0","A206","true","img/card_backs/set1/red.gif","img/card_backs/set1/green.gif","img/card_backs/set1/yellow.gif","img/card_backs/set1/purple.gif","img/card_backs/set2/gray.gif","img/card_backs/set2/blue.gif","img/card_backs/set2/pink.gif","img/card_backs/set2/orange.gif","""event"",""trial"",""time""
""fullscreenenter"",""1"",""3570""
","
","
","""event"",""trial"",""time""
""fullscreenenter"",""1"",""3570""
","
","","785.2000000420958","","","","practice_card_selection","2021-04-02 22:30:33.524","img/practice_cards/backs/brown.gif","2","-100","","",""
"casino-keyboard-response","18","94380","0.0-12.0-0.0","A206","true","img/card_backs/set1/red.gif","img/card_backs/set1/green.gif","img/card_backs/set1/yellow.gif","img/card_backs/set1/purple.gif","img/card_backs/set2/gray.gif","img/card_backs/set2/blue.gif","img/card_backs/set2/pink.gif","img/card_backs/set2/orange.gif","""event"",""trial"",""time""
""fullscreenenter"",""1"",""3570""
","
","
","""event"",""trial"",""time""
""fullscreenenter"",""1"",""3570""
","
","","4739.994999952614","Now on the next screen, try pressing '4' to select the second deck.","52","","instructions","2021-04-02 22:30:38.269","","","","","",""
"card-selection-trial","19","97033","0.0-13.0-0.0","A206","true","img/card_backs/set1/red.gif","img/card_backs/set1/green.gif","img/card_backs/set1/yellow.gif","img/card_backs/set1/purple.gif","img/card_backs/set2/gray.gif","img/card_backs/set2/blue.gif","img/card_backs/set2/pink.gif","img/card_backs/set2/orange.gif","""event"",""trial"",""time""
""fullscreenenter"",""1"",""3570""
","
","
","""event"",""trial"",""time""
""fullscreenenter"",""1"",""3570""
","
","","618.5449999757111","","","","practice_card_selection","2021-04-02 22:30:40.923","img/practice_cards/backs/brown.gif","1","100","","",""
"casino-keyboard-response","20","101528","0.0-14.0-0.0","A206","true","img/card_backs/set1/red.gif","img/card_backs/set1/green.gif","img/card_backs/set1/yellow.gif","img/card_backs/set1/purple.gif","img/card_backs/set2/gray.gif","img/card_backs/set2/blue.gif","img/card_backs/set2/pink.gif","img/card_backs/set2/orange.gif","""event"",""trial"",""time""
""fullscreenenter"",""1"",""3570""
","
","
","""event"",""trial"",""time""
""fullscreenenter"",""1"",""3570""
","
","","4489.194999914616","Finally, try pressing '8' to select the deck all the way on the right.","56","","instructions","2021-04-02 22:30:45.417","","","","","",""
"card-selection-trial","21","104298","0.0-15.0-0.0","A206","true","img/card_backs/set1/red.gif","img/card_backs/set1/green.gif","img/card_backs/set1/yellow.gif","img/card_backs/set1/purple.gif","img/card_backs/set2/gray.gif","img/card_backs/set2/blue.gif","img/card_backs/set2/pink.gif","img/card_backs/set2/orange.gif","""event"",""trial"",""time""
""fullscreenenter"",""1"",""3570""
","
","
","""event"",""trial"",""time""
""fullscreenenter"",""1"",""3570""
","
","","741.1399998236448","","","","practice_card_selection","2021-04-02 22:30:48.187","img/practice_cards/backs/black.gif","3","100","","",""
"casino-keyboard-response","22","108208","0.0-16.0-0.0","A206","true","img/card_backs/set1/red.gif","img/card_backs/set1/green.gif","img/card_backs/set1/yellow.gif","img/card_backs/set1/purple.gif","img/card_backs/set2/gray.gif","img/card_backs/set2/blue.gif","img/card_backs/set2/pink.gif","img/card_backs/set2/orange.gif","""event"",""trial"",""time""
""fullscreenenter"",""1"",""3570""
","
","
","""event"",""trial"",""time""
""fullscreenenter"",""1"",""3570""
","
","","3899.214999983087","Great! It seems like you are getting the hang of this.","80","","instructions","2021-04-02 22:30:52.098","","","","","",""
"casino-keyboard-response","23","116246","0.0-16.0-0.1","A206","true","img/card_backs/set1/red.gif","img/card_backs/set1/green.gif","img/card_backs/set1/yellow.gif","img/card_backs/set1/purple.gif","img/card_backs/set2/gray.gif","img/card_backs/set2/blue.gif","img/card_backs/set2/pink.gif","img/card_backs/set2/orange.gif","""event"",""trial"",""time""
""fullscreenenter"",""1"",""3570""
","
","
","""event"",""trial"",""time""
""fullscreenenter"",""1"",""3570""
","
","","8031.279999995604","You may have noticed that some cards will cause you to <b> win </b> tokens while other cards will cause you to <b> lose </b>  tokens.","70","","instructions","2021-04-02 22:31:00.136","","","","","",""
"casino-keyboard-response","24","124530","0.0-16.0-0.2","A206","true","img/card_backs/set1/red.gif","img/card_backs/set1/green.gif","img/card_backs/set1/yellow.gif","img/card_backs/set1/purple.gif","img/card_backs/set2/gray.gif","img/card_backs/set2/blue.gif","img/card_backs/set2/pink.gif","img/card_backs/set2/orange.gif","""event"",""trial"",""time""
""fullscreenenter"",""1"",""3570""
","
","
","""event"",""trial"",""time""
""fullscreenenter"",""1"",""3570""
","
","","8278.219999978319","Each deck has a mix of cards that will cause you to win and lose tokens. </br> However, the cards in each colored deck are different.","73","","instructions","2021-04-02 22:31:08.419","","","","","",""
"casino-keyboard-response","25","133055","0.0-16.0-0.3","A206","true","img/card_backs/set1/red.gif","img/card_backs/set1/green.gif","img/card_backs/set1/yellow.gif","img/card_backs/set1/purple.gif","img/card_backs/set2/gray.gif","img/card_backs/set2/blue.gif","img/card_backs/set2/pink.gif","img/card_backs/set2/orange.gif","""event"",""trial"",""time""
""fullscreenenter"",""1"",""3570""
","
","
","""event"",""trial"",""time""
""fullscreenenter"",""1"",""3570""
","
","","8514.019999885932","Some colored decks are luckier than others. </br> If you choose the lucky decks, you will earn more tokens than if you choose the unlucky decks.","69","","instructions","2021-04-02 22:31:16.944","","","","","",""
"casino-keyboard-response","26","140131","0.0-16.0-0.4","A206","true","img/card_backs/set1/red.gif","img/card_backs/set1/green.gif","img/card_backs/set1/yellow.gif","img/card_backs/set1/purple.gif","img/card_backs/set2/gray.gif","img/card_backs/set2/blue.gif","img/card_backs/set2/pink.gif","img/card_backs/set2/orange.gif","""event"",""trial"",""time""
""fullscreenenter"",""1"",""3570""
","
","
","""event"",""trial"",""time""
""fullscreenenter"",""1"",""3570""
","
","","7067.280000075698","You should try to figure out which decks are lucky. </br> Then, try to choose the lucky decks so you can win the most tokens.","87","","instructions","2021-04-02 22:31:24.021","","","","","",""
"casino-keyboard-response","27","151138","0.0-16.0-0.5","A206","true","img/card_backs/set1/red.gif","img/card_backs/set1/green.gif","img/card_backs/set1/yellow.gif","img/card_backs/set1/purple.gif","img/card_backs/set2/gray.gif","img/card_backs/set2/blue.gif","img/card_backs/set2/pink.gif","img/card_backs/set2/orange.gif","""event"",""trial"",""time""
""fullscreenenter"",""1"",""3570""
","
","
","""event"",""trial"",""time""
""fullscreenenter"",""1"",""3570""
","
","","10997.599999886006","To make it trickier, the casino dealer will switch the locations of the decks on every turn. </br> The color of the deck determines how lucky it is. The location does not matter.","88","","instructions","2021-04-02 22:31:35.027","","","","","",""
"casino-keyboard-response","28","160224","0.0-16.0-0.6","A206","true","img/card_backs/set1/red.gif","img/card_backs/set1/green.gif","img/card_backs/set1/yellow.gif","img/card_backs/set1/purple.gif","img/card_backs/set2/gray.gif","img/card_backs/set2/blue.gif","img/card_backs/set2/pink.gif","img/card_backs/set2/orange.gif","""event"",""trial"",""time""
""fullscreenenter"",""1"",""3570""
","
","
","""event"",""trial"",""time""
""fullscreenenter"",""1"",""3570""
","
","","9074.50499990955","The mix of cards in each colored deck will stay the same throughout the game. </br> That means that a deck that is lucky early on will stay lucky.","79","","instructions","2021-04-02 22:31:44.113","","","","","",""
"casino-keyboard-response","29","168398","0.0-16.0-0.7","A206","true","img/card_backs/set1/red.gif","img/card_backs/set1/green.gif","img/card_backs/set1/yellow.gif","img/card_backs/set1/purple.gif","img/card_backs/set2/gray.gif","img/card_backs/set2/blue.gif","img/card_backs/set2/pink.gif","img/card_backs/set2/orange.gif","""event"",""trial"",""time""
""fullscreenenter"",""1"",""3570""
","
","
","""event"",""trial"",""time""
""fullscreenenter"",""1"",""3570""
","
","","8164.290000218898","Remember though, all the decks have a <b> mix </b> of both <b> good </b> and <b> bad </b> cards so it may take a couple of turns to figure out if a deck is lucky.","69","","instructions","2021-04-02 22:31:52.287","","","","","",""
"casino-keyboard-response","30","176507","0.0-16.0-0.8","A206","true","img/card_backs/set1/red.gif","img/card_backs/set1/green.gif","img/card_backs/set1/yellow.gif","img/card_backs/set1/purple.gif","img/card_backs/set2/gray.gif","img/card_backs/set2/blue.gif","img/card_backs/set2/pink.gif","img/card_backs/set2/orange.gif","""event"",""trial"",""time""
""fullscreenenter"",""1"",""3570""
","
","
","""event"",""trial"",""time""
""fullscreenenter"",""1"",""3570""
","
","","8100.115000037476","At the end of the game, you will be paid bonus money based on how many tokens you win. </br> If you win more tokens, you will earn more money!","72","","instructions","2021-04-02 22:32:00.396","","","","","",""
"casino-keyboard-response","31","186677","0.0-16.0-0.9","A206","true","img/card_backs/set1/red.gif","img/card_backs/set1/green.gif","img/card_backs/set1/yellow.gif","img/card_backs/set1/purple.gif","img/card_backs/set2/gray.gif","img/card_backs/set2/blue.gif","img/card_backs/set2/pink.gif","img/card_backs/set2/orange.gif","""event"",""trial"",""time""
""fullscreenenter"",""1"",""3570""
","
","
","""event"",""trial"",""time""
""fullscreenenter"",""1"",""3570""
","
","","10158.784999977797","You will never <b> lose </b> money. </br> If you end up with fewer than 0 tokens, you will earn $0 of bonus money, but you will still be paid for playing the game.","83","","instructions","2021-04-02 22:32:10.566","","","","","",""
"casino-keyboard-response","32","190801","0.0-16.0-0.10","A206","true","img/card_backs/set1/red.gif","img/card_backs/set1/green.gif","img/card_backs/set1/yellow.gif","img/card_backs/set1/purple.gif","img/card_backs/set2/gray.gif","img/card_backs/set2/blue.gif","img/card_backs/set2/pink.gif","img/card_backs/set2/orange.gif","""event"",""trial"",""time""
""fullscreenenter"",""1"",""3570""
","
","
","""event"",""trial"",""time""
""fullscreenenter"",""1"",""3570""
","
","","4111.669999780133","You will have 10 seconds to make each choice.","82","","instructions","2021-04-02 22:32:14.690","","","","","",""
"casino-keyboard-response","33","198839","0.0-16.0-0.11","A206","true","img/card_backs/set1/red.gif","img/card_backs/set1/green.gif","img/card_backs/set1/yellow.gif","img/card_backs/set1/purple.gif","img/card_backs/set2/gray.gif","img/card_backs/set2/blue.gif","img/card_backs/set2/pink.gif","img/card_backs/set2/orange.gif","""event"",""trial"",""time""
""fullscreenenter"",""1"",""3570""
","
","
","""event"",""trial"",""time""
""fullscreenenter"",""1"",""3570""
","
","","8030.750000150874","Before you play the game for real, you will play with practice decks. </br> The tokens you earn during practice won't count toward your total.","86","","instructions","2021-04-02 22:32:22.729","","","","","",""
"casino-keyboard-response","34","209880","0.0-16.0-0.12","A206","true","img/card_backs/set1/red.gif","img/card_backs/set1/green.gif","img/card_backs/set1/yellow.gif","img/card_backs/set1/purple.gif","img/card_backs/set2/gray.gif","img/card_backs/set2/blue.gif","img/card_backs/set2/pink.gif","img/card_backs/set2/orange.gif","""event"",""trial"",""time""
""fullscreenenter"",""1"",""3570""
","
","
","""event"",""trial"",""time""
""fullscreenenter"",""1"",""3570""
","
","","11031.775000039488","Ready? Remember, use the '2', '4', '6', and '8' keys to select the decks. </br> Put your fingers on those keys now and then press '2' to begin.","50","","instructions","2021-04-02 22:32:33.769","","","","","",""
"casino-fixation","35","210390","0.0-17.0-0.0","A206","true","img/card_backs/set1/red.gif","img/card_backs/set1/green.gif","img/card_backs/set1/yellow.gif","img/card_backs/set1/purple.gif","img/card_backs/set2/gray.gif","img/card_backs/set2/blue.gif","img/card_backs/set2/pink.gif","img/card_backs/set2/orange.gif","""event"",""trial"",""time""
""fullscreenenter"",""1"",""3570""
","
","
","""event"",""trial"",""time""
""fullscreenenter"",""1"",""3570""
","
","","null","","null","","fixation","2021-04-02 22:32:34.279","","","","","",""
"card-selection-trial","36","213418","0.0-17.0-1.0","A206","true","img/card_backs/set1/red.gif","img/card_backs/set1/green.gif","img/card_backs/set1/yellow.gif","img/card_backs/set1/purple.gif","img/card_backs/set2/gray.gif","img/card_backs/set2/blue.gif","img/card_backs/set2/pink.gif","img/card_backs/set2/orange.gif","""event"",""trial"",""time""
""fullscreenenter"",""1"",""3570""
","
","
","""event"",""trial"",""time""
""fullscreenenter"",""1"",""3570""
","
","","998.9899999927729","","","","practice","2021-04-02 22:32:37.307","img/practice_cards/backs/black.gif","0","100","0","",""
"casino-fixation","37","213933","0.0-17.0-0.1","A206","true","img/card_backs/set1/red.gif","img/card_backs/set1/green.gif","img/card_backs/set1/yellow.gif","img/card_backs/set1/purple.gif","img/card_backs/set2/gray.gif","img/card_backs/set2/blue.gif","img/card_backs/set2/pink.gif","img/card_backs/set2/orange.gif","""event"",""trial"",""time""
""fullscreenenter"",""1"",""3570""
","
","
","""event"",""trial"",""time""
""fullscreenenter"",""1"",""3570""
","
","","null","","null","","fixation","2021-04-02 22:32:37.823","","","","","",""
"card-selection-trial","38","216486","0.0-17.0-1.1","A206","true","img/card_backs/set1/red.gif","img/card_backs/set1/green.gif","img/card_backs/set1/yellow.gif","img/card_backs/set1/purple.gif","img/card_backs/set2/gray.gif","img/card_backs/set2/blue.gif","img/card_backs/set2/pink.gif","img/card_backs/set2/orange.gif","""event"",""trial"",""time""
""fullscreenenter"",""1"",""3570""
","
","
","""event"",""trial"",""time""
""fullscreenenter"",""1"",""3570""
","
","","515.7900000922382","","","","practice","2021-04-02 22:32:40.376","img/practice_cards/backs/black.gif","0","100","0","",""
"casino-fixation","39","217007","0.0-17.0-0.2","A206","true","img/card_backs/set1/red.gif","img/card_backs/set1/green.gif","img/card_backs/set1/yellow.gif","img/card_backs/set1/purple.gif","img/card_backs/set2/gray.gif","img/card_backs/set2/blue.gif","img/card_backs/set2/pink.gif","img/card_backs/set2/orange.gif","""event"",""trial"",""time""
""fullscreenenter"",""1"",""3570""
","
","
","""event"",""trial"",""time""
""fullscreenenter"",""1"",""3570""
","
","","null","","null","","fixation","2021-04-02 22:32:40.896","","","","","",""
"card-selection-trial","40","219404","0.0-17.0-1.2","A206","true","img/card_backs/set1/red.gif","img/card_backs/set1/green.gif","img/card_backs/set1/yellow.gif","img/card_backs/set1/purple.gif","img/card_backs/set2/gray.gif","img/card_backs/set2/blue.gif","img/card_backs/set2/pink.gif","img/card_backs/set2/orange.gif","""event"",""trial"",""time""
""fullscreenenter"",""1"",""3570""
","
","
","""event"",""trial"",""time""
""fullscreenenter"",""1"",""3570""
","
","","364.98000007122755","","","","practice","2021-04-02 22:32:43.293","img/practice_cards/backs/dark_blue.gif","0","-200","0","",""
"casino-fixation","41","219920","0.0-17.0-0.3","A206","true","img/card_backs/set1/red.gif","img/card_backs/set1/green.gif","img/card_backs/set1/yellow.gif","img/card_backs/set1/purple.gif","img/card_backs/set2/gray.gif","img/card_backs/set2/blue.gif","img/card_backs/set2/pink.gif","img/card_backs/set2/orange.gif","""event"",""trial"",""time""
""fullscreenenter"",""1"",""3570""
","
","
","""event"",""trial"",""time""
""fullscreenenter"",""1"",""3570""
","
","","null","","null","","fixation","2021-04-02 22:32:43.810","","","","","",""
"card-selection-trial","42","222349","0.0-17.0-1.3","A206","true","img/card_backs/set1/red.gif","img/card_backs/set1/green.gif","img/card_backs/set1/yellow.gif","img/card_backs/set1/purple.gif","img/card_backs/set2/gray.gif","img/card_backs/set2/blue.gif","img/card_backs/set2/pink.gif","img/card_backs/set2/orange.gif","""event"",""trial"",""time""
""fullscreenenter"",""1"",""3570""
","
","
","""event"",""trial"",""time""
""fullscreenenter"",""1"",""3570""
","
","","390.4999999795109","","","","practice","2021-04-02 22:32:46.239","img/practice_cards/backs/brown.gif","0","100","0","",""
"casino-fixation","43","222867","0.0-17.0-0.4","A206","true","img/card_backs/set1/red.gif","img/card_backs/set1/green.gif","img/card_backs/set1/yellow.gif","img/card_backs/set1/purple.gif","img/card_backs/set2/gray.gif","img/card_backs/set2/blue.gif","img/card_backs/set2/pink.gif","img/card_backs/set2/orange.gif","""event"",""trial"",""time""
""fullscreenenter"",""1"",""3570""
","
","
","""event"",""trial"",""time""
""fullscreenenter"",""1"",""3570""
","
","","null","","null","","fixation","2021-04-02 22:32:46.756","","","","","",""
"card-selection-trial","44","225978","0.0-17.0-1.4","A206","true","img/card_backs/set1/red.gif","img/card_backs/set1/green.gif","img/card_backs/set1/yellow.gif","img/card_backs/set1/purple.gif","img/card_backs/set2/gray.gif","img/card_backs/set2/blue.gif","img/card_backs/set2/pink.gif","img/card_backs/set2/orange.gif","""event"",""trial"",""time""
""fullscreenenter"",""1"",""3570""
","
","
","""event"",""trial"",""time""
""fullscreenenter"",""1"",""3570""
","
","","1077.7700000908226","","","","practice","2021-04-02 22:32:49.867","img/practice_cards/backs/black.gif","3","100","0","",""
"casino-fixation","45","226485","0.0-17.0-0.5","A206","true","img/card_backs/set1/red.gif","img/card_backs/set1/green.gif","img/card_backs/set1/yellow.gif","img/card_backs/set1/purple.gif","img/card_backs/set2/gray.gif","img/card_backs/set2/blue.gif","img/card_backs/set2/pink.gif","img/card_backs/set2/orange.gif","""event"",""trial"",""time""
""fullscreenenter"",""1"",""3570""
","
","
","""event"",""trial"",""time""
""fullscreenenter"",""1"",""3570""
","
","","null","","null","","fixation","2021-04-02 22:32:50.374","","","","","",""
"card-selection-trial","46","229203","0.0-17.0-1.5","A206","true","img/card_backs/set1/red.gif","img/card_backs/set1/green.gif","img/card_backs/set1/yellow.gif","img/card_backs/set1/purple.gif","img/card_backs/set2/gray.gif","img/card_backs/set2/blue.gif","img/card_backs/set2/pink.gif","img/card_backs/set2/orange.gif","""event"",""trial"",""time""
""fullscreenenter"",""1"",""3570""
","
","
","""event"",""trial"",""time""
""fullscreenenter"",""1"",""3570""
","
","","704.5849999412894","","","","practice","2021-04-02 22:32:53.092","img/practice_cards/backs/black.gif","2","-100","0","",""
"casino-fixation","47","229727","0.0-17.0-0.6","A206","true","img/card_backs/set1/red.gif","img/card_backs/set1/green.gif","img/card_backs/set1/yellow.gif","img/card_backs/set1/purple.gif","img/card_backs/set2/gray.gif","img/card_backs/set2/blue.gif","img/card_backs/set2/pink.gif","img/card_backs/set2/orange.gif","""event"",""trial"",""time""
""fullscreenenter"",""1"",""3570""
","
","
","""event"",""trial"",""time""
""fullscreenenter"",""1"",""3570""
","
","","null","","null","","fixation","2021-04-02 22:32:53.617","","","","","",""
"card-selection-trial","48","232627","0.0-17.0-1.6","A206","true","img/card_backs/set1/red.gif","img/card_backs/set1/green.gif","img/card_backs/set1/yellow.gif","img/card_backs/set1/purple.gif","img/card_backs/set2/gray.gif","img/card_backs/set2/blue.gif","img/card_backs/set2/pink.gif","img/card_backs/set2/orange.gif","""event"",""trial"",""time""
""fullscreenenter"",""1"",""3570""
","
","
","""event"",""trial"",""time""
""fullscreenenter"",""1"",""3570""
","
","","857.2199998889118","","","","practice","2021-04-02 22:32:56.516","img/practice_cards/backs/black.gif","0","100","0","",""
"casino-fixation","49","233141","0.0-17.0-0.7","A206","true","img/card_backs/set1/red.gif","img/card_backs/set1/green.gif","img/card_backs/set1/yellow.gif","img/card_backs/set1/purple.gif","img/card_backs/set2/gray.gif","img/card_backs/set2/blue.gif","img/card_backs/set2/pink.gif","img/card_backs/set2/orange.gif","""event"",""trial"",""time""
""fullscreenenter"",""1"",""3570""
","
","
","""event"",""trial"",""time""
""fullscreenenter"",""1"",""3570""
","
","","null","","null","","fixation","2021-04-02 22:32:57.031","","","","","",""
"card-selection-trial","50","235856","0.0-17.0-1.7","A206","true","img/card_backs/set1/red.gif","img/card_backs/set1/green.gif","img/card_backs/set1/yellow.gif","img/card_backs/set1/purple.gif","img/card_backs/set2/gray.gif","img/card_backs/set2/blue.gif","img/card_backs/set2/pink.gif","img/card_backs/set2/orange.gif","""event"",""trial"",""time""
""fullscreenenter"",""1"",""3570""
","
","
","""event"",""trial"",""time""
""fullscreenenter"",""1"",""3570""
","
","","687.4299999326468","","","","practice","2021-04-02 22:32:59.746","img/practice_cards/backs/black.gif","0","-100","0","",""
"casino-fixation","51","236368","0.0-17.0-0.8","A206","true","img/card_backs/set1/red.gif","img/card_backs/set1/green.gif","img/card_backs/set1/yellow.gif","img/card_backs/set1/purple.gif","img/card_backs/set2/gray.gif","img/card_backs/set2/blue.gif","img/card_backs/set2/pink.gif","img/card_backs/set2/orange.gif","""event"",""trial"",""time""
""fullscreenenter"",""1"",""3570""
","
","
","""event"",""trial"",""time""
""fullscreenenter"",""1"",""3570""
","
","","null","","null","","fixation","2021-04-02 22:33:00.257","","","","","",""
"card-selection-trial","52","239480","0.0-17.0-1.8","A206","true","img/card_backs/set1/red.gif","img/card_backs/set1/green.gif","img/card_backs/set1/yellow.gif","img/card_backs/set1/purple.gif","img/card_backs/set2/gray.gif","img/card_backs/set2/blue.gif","img/card_backs/set2/pink.gif","img/card_backs/set2/orange.gif","""event"",""trial"",""time""
""fullscreenenter"",""1"",""3570""
","
","
","""event"",""trial"",""time""
""fullscreenenter"",""1"",""3570""
","
","","1079.7300001140684","","","","practice","2021-04-02 22:33:03.369","img/practice_cards/backs/dark_green.gif","1","-200","0","",""
"casino-fixation","53","239999","0.0-17.0-0.9","A206","true","img/card_backs/set1/red.gif","img/card_backs/set1/green.gif","img/card_backs/set1/yellow.gif","img/card_backs/set1/purple.gif","img/card_backs/set2/gray.gif","img/card_backs/set2/blue.gif","img/card_backs/set2/pink.gif","img/card_backs/set2/orange.gif","""event"",""trial"",""time""
""fullscreenenter"",""1"",""3570""
","
","
","""event"",""trial"",""time""
""fullscreenenter"",""1"",""3570""
","
","","null","","null","","fixation","2021-04-02 22:33:03.889","","","","","",""
"card-selection-trial","54","242616","0.0-17.0-1.9","A206","true","img/card_backs/set1/red.gif","img/card_backs/set1/green.gif","img/card_backs/set1/yellow.gif","img/card_backs/set1/purple.gif","img/card_backs/set2/gray.gif","img/card_backs/set2/blue.gif","img/card_backs/set2/pink.gif","img/card_backs/set2/orange.gif","""event"",""trial"",""time""
""fullscreenenter"",""1"",""3570""
","
","
","""event"",""trial"",""time""
""fullscreenenter"",""1"",""3570""
","
","","586.9350000284612","","","","practice","2021-04-02 22:33:06.506","img/practice_cards/backs/dark_green.gif","2","200","0","",""
"casino-keyboard-response","55","245414","0.0-18.0","A206","true","img/card_backs/set1/red.gif","img/card_backs/set1/green.gif","img/card_backs/set1/yellow.gif","img/card_backs/set1/purple.gif","img/card_backs/set2/gray.gif","img/card_backs/set2/blue.gif","img/card_backs/set2/pink.gif","img/card_backs/set2/orange.gif","""event"",""trial"",""time""
""fullscreenenter"",""1"",""3570""
","
","
","""event"",""trial"",""time""
""fullscreenenter"",""1"",""3570""
","
","","2788.685000035912","You earned 100 tokens during the practice round!","82","","","2021-04-02 22:33:09.304","","","","","",""
"casino-keyboard-response","56","249705","0.0-19.0-0.0","A206","true","img/card_backs/set1/red.gif","img/card_backs/set1/green.gif","img/card_backs/set1/yellow.gif","img/card_backs/set1/purple.gif","img/card_backs/set2/gray.gif","img/card_backs/set2/blue.gif","img/card_backs/set2/pink.gif","img/card_backs/set2/orange.gif","""event"",""trial"",""time""
""fullscreenenter"",""1"",""3570""
","
","
","""event"",""trial"",""time""
""fullscreenenter"",""1"",""3570""
","
","","4286.73499985598","Nice job! You are almost ready to play the real game.","86","","instructions","2021-04-02 22:33:13.595","","","","","",""
"casino-keyboard-response","57","256151","0.0-19.0-0.1","A206","true","img/card_backs/set1/red.gif","img/card_backs/set1/green.gif","img/card_backs/set1/yellow.gif","img/card_backs/set1/purple.gif","img/card_backs/set2/gray.gif","img/card_backs/set2/blue.gif","img/card_backs/set2/pink.gif","img/card_backs/set2/orange.gif","""event"",""trial"",""time""
""fullscreenenter"",""1"",""3570""
","
","
","""event"",""trial"",""time""
""fullscreenenter"",""1"",""3570""
","
","","6437.8600001800805","You will play two rounds of the real game. In each round, you will pick 100 cards in total.","73","","instructions","2021-04-02 22:33:20.041","","","","","",""
"casino-keyboard-response","58","260303","0.0-19.0-0.2","A206","true","img/card_backs/set1/red.gif","img/card_backs/set1/green.gif","img/card_backs/set1/yellow.gif","img/card_backs/set1/purple.gif","img/card_backs/set2/gray.gif","img/card_backs/set2/blue.gif","img/card_backs/set2/pink.gif","img/card_backs/set2/orange.gif","""event"",""trial"",""time""
""fullscreenenter"",""1"",""3570""
","
","
","""event"",""trial"",""time""
""fullscreenenter"",""1"",""3570""
","
","","4142.470000078902","We are now going to ask you some questions about how the game works.","66","","instructions","2021-04-02 22:33:24.193","","","","","",""
"casino-keyboard-response","59","266125","0.0-19.0-0.3","A206","true","img/card_backs/set1/red.gif","img/card_backs/set1/green.gif","img/card_backs/set1/yellow.gif","img/card_backs/set1/purple.gif","img/card_backs/set2/gray.gif","img/card_backs/set2/blue.gif","img/card_backs/set2/pink.gif","img/card_backs/set2/orange.gif","""event"",""trial"",""time""
""fullscreenenter"",""1"",""3570""
","
","
","""event"",""trial"",""time""
""fullscreenenter"",""1"",""3570""
","
","","5812.275000149384","Answer carefully. You will not be able to begin the game until you answer them correctly.","67","","instructions","2021-04-02 22:33:30.014","","","","","",""
"casino-comp_q","60","273032","0.0-20.0-0.0","A206","true","img/card_backs/set1/red.gif","img/card_backs/set1/green.gif","img/card_backs/set1/yellow.gif","img/card_backs/set1/purple.gif","img/card_backs/set2/gray.gif","img/card_backs/set2/blue.gif","img/card_backs/set2/pink.gif","img/card_backs/set2/orange.gif","""event"",""trial"",""time""
""fullscreenenter"",""1"",""3570""
","
","
","""event"",""trial"",""time""
""fullscreenenter"",""1"",""3570""
","
","","6897.009999956936","True or False: All the decks have some cards that cause you to win tokens and some cards that cause you to lose tokens.","84","","","2021-04-02 22:33:36.922","","","","","",""
"casino-keyboard-response","61","275978","0.0-20.0-1.0","A206","true","img/card_backs/set1/red.gif","img/card_backs/set1/green.gif","img/card_backs/set1/yellow.gif","img/card_backs/set1/purple.gif","img/card_backs/set2/gray.gif","img/card_backs/set2/blue.gif","img/card_backs/set2/pink.gif","img/card_backs/set2/orange.gif","""event"",""trial"",""time""
""fullscreenenter"",""1"",""3570""
","
","
","""event"",""trial"",""time""
""fullscreenenter"",""1"",""3570""
","
","","2940.9700001124293","True is correct! All the decks have a mix of winning and losing cards.","77","","","2021-04-02 22:33:39.868","","","","","true",""
"casino-comp_q","62","278424","0.0-21.0-0.0","A206","true","img/card_backs/set1/red.gif","img/card_backs/set1/green.gif","img/card_backs/set1/yellow.gif","img/card_backs/set1/purple.gif","img/card_backs/set2/gray.gif","img/card_backs/set2/blue.gif","img/card_backs/set2/pink.gif","img/card_backs/set2/orange.gif","""event"",""trial"",""time""
""fullscreenenter"",""1"",""3570""
","
","
","""event"",""trial"",""time""
""fullscreenenter"",""1"",""3570""
","
","","2424.9750000890344","True or False: You will have as much time as you want to make your response.","70","","","2021-04-02 22:33:42.314","","","","","",""
"casino-keyboard-response","63","281075","0.0-21.0-1.0","A206","true","img/card_backs/set1/red.gif","img/card_backs/set1/green.gif","img/card_backs/set1/yellow.gif","img/card_backs/set1/purple.gif","img/card_backs/set2/gray.gif","img/card_backs/set2/blue.gif","img/card_backs/set2/pink.gif","img/card_backs/set2/orange.gif","""event"",""trial"",""time""
""fullscreenenter"",""1"",""3570""
","
","
","""event"",""trial"",""time""
""fullscreenenter"",""1"",""3570""
","
","","2646.76499995403","False is correct! You will only have 10 seconds to make each choice.","75","","","2021-04-02 22:33:44.965","","","","","true",""
"casino-comp_q","64","284148","0.0-22.0-0.0","A206","true","img/card_backs/set1/red.gif","img/card_backs/set1/green.gif","img/card_backs/set1/yellow.gif","img/card_backs/set1/purple.gif","img/card_backs/set2/gray.gif","img/card_backs/set2/blue.gif","img/card_backs/set2/pink.gif","img/card_backs/set2/orange.gif","""event"",""trial"",""time""
""fullscreenenter"",""1"",""3570""
","
","
","""event"",""trial"",""time""
""fullscreenenter"",""1"",""3570""
","
","","3064.185000024736","True or False: The location of the deck determines how lucky it is.","70","","","2021-04-02 22:33:48.037","","","","","",""
"casino-keyboard-response","65","286742","0.0-22.0-1.0","A206","true","img/card_backs/set1/red.gif","img/card_backs/set1/green.gif","img/card_backs/set1/yellow.gif","img/card_backs/set1/purple.gif","img/card_backs/set2/gray.gif","img/card_backs/set2/blue.gif","img/card_backs/set2/pink.gif","img/card_backs/set2/orange.gif","""event"",""trial"",""time""
""fullscreenenter"",""1"",""3570""
","
","
","""event"",""trial"",""time""
""fullscreenenter"",""1"",""3570""
","
","","2585.9300000593066","False is correct! The <i>color</i>  of the deck determines how lucky or unlucky it is.","68","","","2021-04-02 22:33:50.631","","","","","true",""
"casino-keyboard-response","66","290765","0.0-23.0-0.0","A206","true","img/card_backs/set1/red.gif","img/card_backs/set1/green.gif","img/card_backs/set1/yellow.gif","img/card_backs/set1/purple.gif","img/card_backs/set2/gray.gif","img/card_backs/set2/blue.gif","img/card_backs/set2/pink.gif","img/card_backs/set2/orange.gif","""event"",""trial"",""time""
""fullscreenenter"",""1"",""3570""
","
","
","""event"",""trial"",""time""
""fullscreenenter"",""1"",""3570""
","
","","4017.2200000379235","Great job! Now it's time to start the real game.","82","","instructions","2021-04-02 22:33:54.654","","","","","",""
"casino-keyboard-response","67","295694","0.0-23.0-0.1","A206","true","img/card_backs/set1/red.gif","img/card_backs/set1/green.gif","img/card_backs/set1/yellow.gif","img/card_backs/set1/purple.gif","img/card_backs/set2/gray.gif","img/card_backs/set2/blue.gif","img/card_backs/set2/pink.gif","img/card_backs/set2/orange.gif","""event"",""trial"",""time""
""fullscreenenter"",""1"",""3570""
","
","
","""event"",""trial"",""time""
""fullscreenenter"",""1"",""3570""
","
","","4919.555000029504","Before we start, we're going to head into a new room of the casino.","86","","instructions","2021-04-02 22:33:59.583","","","","","",""
"casino-keyboard-response","68","301775","0.0-24.0-0.0","A206","true","img/card_backs/set1/red.gif","img/card_backs/set1/green.gif","img/card_backs/set1/yellow.gif","img/card_backs/set1/purple.gif","img/card_backs/set2/gray.gif","img/card_backs/set2/blue.gif","img/card_backs/set2/pink.gif","img/card_backs/set2/orange.gif","""event"",""trial"",""time""
""fullscreenenter"",""1"",""3570""
","
","
","""event"",""trial"",""time""
""fullscreenenter"",""1"",""3570""
","
","","6073.265000013635","Here we are! The real game will use different cards, but the rules will be the same.","71","","instructions","2021-04-02 22:34:05.665","","","","","",""
"casino-keyboard-response","69","311127","0.0-24.0-0.1","A206","true","img/card_backs/set1/red.gif","img/card_backs/set1/green.gif","img/card_backs/set1/yellow.gif","img/card_backs/set1/purple.gif","img/card_backs/set2/gray.gif","img/card_backs/set2/blue.gif","img/card_backs/set2/pink.gif","img/card_backs/set2/orange.gif","""event"",""trial"",""time""
""fullscreenenter"",""1"",""3570""
","
","
","""event"",""trial"",""time""
""fullscreenenter"",""1"",""3570""
","
","","9345.435000024736","Ready? Put your fingers over the '2', '4', 6', and '8' keys so you are ready to play the game. </br> Then press 2 to start.","50","","instructions","2021-04-02 22:34:15.016","","","","","",""
"casino-fixation","70","311650","0.0-25.0-0.0","A206","true","img/card_backs/set1/red.gif","img/card_backs/set1/green.gif","img/card_backs/set1/yellow.gif","img/card_backs/set1/purple.gif","img/card_backs/set2/gray.gif","img/card_backs/set2/blue.gif","img/card_backs/set2/pink.gif","img/card_backs/set2/orange.gif","""event"",""trial"",""time""
""fullscreenenter"",""1"",""3570""
","
","
","""event"",""trial"",""time""
""fullscreenenter"",""1"",""3570""
","
","","null","","null","","fixation","2021-04-02 22:34:15.539","","","","","",""
"card-selection-trial","71","314585","0.0-25.0-1.0","A206","true","img/card_backs/set1/red.gif","img/card_backs/set1/green.gif","img/card_backs/set1/yellow.gif","img/card_backs/set1/purple.gif","img/card_backs/set2/gray.gif","img/card_backs/set2/blue.gif","img/card_backs/set2/pink.gif","img/card_backs/set2/orange.gif","""event"",""trial"",""time""
""fullscreenenter"",""1"",""3570""
","
","
","""event"",""trial"",""time""
""fullscreenenter"",""1"",""3570""
","
","","891.1550000775605","","","","real_trial","2021-04-02 22:34:18.475","img/card_backs/set1/green.gif","0","250","1","",""
"casino-fixation","72","315134","0.0-25.0-0.1","A206","true","img/card_backs/set1/red.gif","img/card_backs/set1/green.gif","img/card_backs/set1/yellow.gif","img/card_backs/set1/purple.gif","img/card_backs/set2/gray.gif","img/card_backs/set2/blue.gif","img/card_backs/set2/pink.gif","img/card_backs/set2/orange.gif","""event"",""trial"",""time""
""fullscreenenter"",""1"",""3570""
","
","
","""event"",""trial"",""time""
""fullscreenenter"",""1"",""3570""
","
","","null","","null","","fixation","2021-04-02 22:34:19.023","","","","","",""
"card-selection-trial","73","317977","0.0-25.0-1.1","A206","true","img/card_backs/set1/red.gif","img/card_backs/set1/green.gif","img/card_backs/set1/yellow.gif","img/card_backs/set1/purple.gif","img/card_backs/set2/gray.gif","img/card_backs/set2/blue.gif","img/card_backs/set2/pink.gif","img/card_backs/set2/orange.gif","""event"",""trial"",""time""
""fullscreenenter"",""1"",""3570""
","
","
","""event"",""trial"",""time""
""fullscreenenter"",""1"",""3570""
","
","","817.5299998838454","","","","real_trial","2021-04-02 22:34:21.867","img/card_backs/set1/green.gif","2","-210","1","",""
"casino-fixation","74","318499","0.0-25.0-0.2","A206","true","img/card_backs/set1/red.gif","img/card_backs/set1/green.gif","img/card_backs/set1/yellow.gif","img/card_backs/set1/purple.gif","img/card_backs/set2/gray.gif","img/card_backs/set2/blue.gif","img/card_backs/set2/pink.gif","img/card_backs/set2/orange.gif","""event"",""trial"",""time""
""fullscreenenter"",""1"",""3570""
","
","
","""event"",""trial"",""time""
""fullscreenenter"",""1"",""3570""
","
","","null","","null","","fixation","2021-04-02 22:34:22.388","","","","","",""
"card-selection-trial","75","321133","0.0-25.0-1.2","A206","true","img/card_backs/set1/red.gif","img/card_backs/set1/green.gif","img/card_backs/set1/yellow.gif","img/card_backs/set1/purple.gif","img/card_backs/set2/gray.gif","img/card_backs/set2/blue.gif","img/card_backs/set2/pink.gif","img/card_backs/set2/orange.gif","""event"",""trial"",""time""
""fullscreenenter"",""1"",""3570""
","
","
","""event"",""trial"",""time""
""fullscreenenter"",""1"",""3570""
","
","","593.2949997950345","","","","real_trial","2021-04-02 22:34:25.022","img/card_backs/set1/green.gif","0","250","1","",""
"casino-fixation","76","321641","0.0-25.0-0.3","A206","true","img/card_backs/set1/red.gif","img/card_backs/set1/green.gif","img/card_backs/set1/yellow.gif","img/card_backs/set1/purple.gif","img/card_backs/set2/gray.gif","img/card_backs/set2/blue.gif","img/card_backs/set2/pink.gif","img/card_backs/set2/orange.gif","""event"",""trial"",""time""
""fullscreenenter"",""1"",""3570""
","
","
","""event"",""trial"",""time""
""fullscreenenter"",""1"",""3570""
","
","","null","","null","","fixation","2021-04-02 22:34:25.530","","","","","",""
"card-selection-trial","77","324619","0.0-25.0-1.3","A206","true","img/card_backs/set1/red.gif","img/card_backs/set1/green.gif","img/card_backs/set1/yellow.gif","img/card_backs/set1/purple.gif","img/card_backs/set2/gray.gif","img/card_backs/set2/blue.gif","img/card_backs/set2/pink.gif","img/card_backs/set2/orange.gif","""event"",""trial"",""time""
""fullscreenenter"",""1"",""3570""
","
","
","""event"",""trial"",""time""
""fullscreenenter"",""1"",""3570""
","
","","934.7249998245388","","","","real_trial","2021-04-02 22:34:28.508","img/card_backs/set1/green.gif","1","-200","1","",""
"casino-fixation","78","325131","0.0-25.0-0.4","A206","true","img/card_backs/set1/red.gif","img/card_backs/set1/green.gif","img/card_backs/set1/yellow.gif","img/card_backs/set1/purple.gif","img/card_backs/set2/gray.gif","img/card_backs/set2/blue.gif","img/card_backs/set2/pink.gif","img/card_backs/set2/orange.gif","""event"",""trial"",""time""
""fullscreenenter"",""1"",""3570""
","
","
","""event"",""trial"",""time""
""fullscreenenter"",""1"",""3570""
","
","","null","","null","","fixation","2021-04-02 22:34:29.020","","","","","",""
"card-selection-trial","79","328635","0.0-25.0-1.4","A206","true","img/card_backs/set1/red.gif","img/card_backs/set1/green.gif","img/card_backs/set1/yellow.gif","img/card_backs/set1/purple.gif","img/card_backs/set2/gray.gif","img/card_backs/set2/blue.gif","img/card_backs/set2/pink.gif","img/card_backs/set2/orange.gif","""event"",""trial"",""time""
""fullscreenenter"",""1"",""3570""
","
","
","""event"",""trial"",""time""
""fullscreenenter"",""1"",""3570""
","
","","1467.4899999517947","","","","real_trial","2021-04-02 22:34:32.524","img/card_backs/set1/red.gif","1","250","1","",""
"casino-fixation","80","329148","0.0-25.0-0.5","A206","true","img/card_backs/set1/red.gif","img/card_backs/set1/green.gif","img/card_backs/set1/yellow.gif","img/card_backs/set1/purple.gif","img/card_backs/set2/gray.gif","img/card_backs/set2/blue.gif","img/card_backs/set2/pink.gif","img/card_backs/set2/orange.gif","""event"",""trial"",""time""
""fullscreenenter"",""1"",""3570""
","
","
","""event"",""trial"",""time""
""fullscreenenter"",""1"",""3570""
","
","","null","","null","","fixation","2021-04-02 22:34:33.038","","","","","",""
"card-selection-trial","81","331815","0.0-25.0-1.5","A206","true","img/card_backs/set1/red.gif","img/card_backs/set1/green.gif","img/card_backs/set1/yellow.gif","img/card_backs/set1/purple.gif","img/card_backs/set2/gray.gif","img/card_backs/set2/blue.gif","img/card_backs/set2/pink.gif","img/card_backs/set2/orange.gif","""event"",""trial"",""time""
""fullscreenenter"",""1"",""3570""
","
","
","""event"",""trial"",""time""
""fullscreenenter"",""1"",""3570""
","
","","640.5450000893325","","","","real_trial","2021-04-02 22:34:35.704","img/card_backs/set1/red.gif","3","-210","1","",""
"casino-fixation","82","332333","0.0-25.0-0.6","A206","true","img/card_backs/set1/red.gif","img/card_backs/set1/green.gif","img/card_backs/set1/yellow.gif","img/card_backs/set1/purple.gif","img/card_backs/set2/gray.gif","img/card_backs/set2/blue.gif","img/card_backs/set2/pink.gif","img/card_backs/set2/orange.gif","""event"",""trial"",""time""
""fullscreenenter"",""1"",""3570""
","
","
","""event"",""trial"",""time""
""fullscreenenter"",""1"",""3570""
","
","","null","","null","","fixation","2021-04-02 22:34:36.222","","","","","",""
"card-selection-trial","83","335324","0.0-25.0-1.6","A206","true","img/card_backs/set1/red.gif","img/card_backs/set1/green.gif","img/card_backs/set1/yellow.gif","img/card_backs/set1/purple.gif","img/card_backs/set2/gray.gif","img/card_backs/set2/blue.gif","img/card_backs/set2/pink.gif","img/card_backs/set2/orange.gif","""event"",""trial"",""time""
""fullscreenenter"",""1"",""3570""
","
","
","""event"",""trial"",""time""
""fullscreenenter"",""1"",""3570""
","
","","947.9449999053031","","","","real_trial","2021-04-02 22:34:39.214","img/card_backs/set1/red.gif","1","240","1","",""
"casino-fixation","84","335851","0.0-25.0-0.7","A206","true","img/card_backs/set1/red.gif","img/card_backs/set1/green.gif","img/card_backs/set1/yellow.gif","img/card_backs/set1/purple.gif","img/card_backs/set2/gray.gif","img/card_backs/set2/blue.gif","img/card_backs/set2/pink.gif","img/card_backs/set2/orange.gif","""event"",""trial"",""time""
""fullscreenenter"",""1"",""3570""
","
","
","""event"",""trial"",""time""
""fullscreenenter"",""1"",""3570""
","
","","null","","null","","fixation","2021-04-02 22:34:39.740","","","","","",""
"card-selection-trial","85","338452","0.0-25.0-1.7","A206","true","img/card_backs/set1/red.gif","img/card_backs/set1/green.gif","img/card_backs/set1/yellow.gif","img/card_backs/set1/purple.gif","img/card_backs/set2/gray.gif","img/card_backs/set2/blue.gif","img/card_backs/set2/pink.gif","img/card_backs/set2/orange.gif","""event"",""trial"",""time""
""fullscreenenter"",""1"",""3570""
","
","
","""event"",""trial"",""time""
""fullscreenenter"",""1"",""3570""
","
","","576.1400000192225","","","","real_trial","2021-04-02 22:34:42.342","img/card_backs/set1/red.gif","1","240","1","",""
"casino-fixation","86","338959","0.0-25.0-0.8","A206","true","img/card_backs/set1/red.gif","img/card_backs/set1/green.gif","img/card_backs/set1/yellow.gif","img/card_backs/set1/purple.gif","img/card_backs/set2/gray.gif","img/card_backs/set2/blue.gif","img/card_backs/set2/pink.gif","img/card_backs/set2/orange.gif","""event"",""trial"",""time""
""fullscreenenter"",""1"",""3570""
","
","
","""event"",""trial"",""time""
""fullscreenenter"",""1"",""3570""
","
","","null","","null","","fixation","2021-04-02 22:34:42.849","","","","","",""
"card-selection-trial","87","342360","0.0-25.0-1.8","A206","true","img/card_backs/set1/red.gif","img/card_backs/set1/green.gif","img/card_backs/set1/yellow.gif","img/card_backs/set1/purple.gif","img/card_backs/set2/gray.gif","img/card_backs/set2/blue.gif","img/card_backs/set2/pink.gif","img/card_backs/set2/orange.gif","""event"",""trial"",""time""
""fullscreenenter"",""1"",""3570""
","
","
","""event"",""trial"",""time""
""fullscreenenter"",""1"",""3570""
","
","","1368.0600000079721","","","","real_trial","2021-04-02 22:34:46.250","img/card_backs/set1/yellow.gif","2","-100","1","",""
"casino-fixation","88","342877","0.0-25.0-0.9","A206","true","img/card_backs/set1/red.gif","img/card_backs/set1/green.gif","img/card_backs/set1/yellow.gif","img/card_backs/set1/purple.gif","img/card_backs/set2/gray.gif","img/card_backs/set2/blue.gif","img/card_backs/set2/pink.gif","img/card_backs/set2/orange.gif","""event"",""trial"",""time""
""fullscreenenter"",""1"",""3570""
","
","
","""event"",""trial"",""time""
""fullscreenenter"",""1"",""3570""
","
","","null","","null","","fixation","2021-04-02 22:34:46.766","","","","","",""
"card-selection-trial","89","345625","0.0-25.0-1.9","A206","true","img/card_backs/set1/red.gif","img/card_backs/set1/green.gif","img/card_backs/set1/yellow.gif","img/card_backs/set1/purple.gif","img/card_backs/set2/gray.gif","img/card_backs/set2/blue.gif","img/card_backs/set2/pink.gif","img/card_backs/set2/orange.gif","""event"",""trial"",""time""
""fullscreenenter"",""1"",""3570""
","
","
","""event"",""trial"",""time""
""fullscreenenter"",""1"",""3570""
","
","","705.4500000085682","","","","real_trial","2021-04-02 22:34:49.514","img/card_backs/set1/yellow.gif","3","-90","1","",""
"casino-fixation","90","346138","0.0-25.0-0.10","A206","true","img/card_backs/set1/red.gif","img/card_backs/set1/green.gif","img/card_backs/set1/yellow.gif","img/card_backs/set1/purple.gif","img/card_backs/set2/gray.gif","img/card_backs/set2/blue.gif","img/card_backs/set2/pink.gif","img/card_backs/set2/orange.gif","""event"",""trial"",""time""
""fullscreenenter"",""1"",""3570""
","
","
","""event"",""trial"",""time""
""fullscreenenter"",""1"",""3570""
","
","","null","","null","","fixation","2021-04-02 22:34:50.027","","","","","",""
"card-selection-trial","91","348817","0.0-25.0-1.10","A206","true","img/card_backs/set1/red.gif","img/card_backs/set1/green.gif","img/card_backs/set1/yellow.gif","img/card_backs/set1/purple.gif","img/card_backs/set2/gray.gif","img/card_backs/set2/blue.gif","img/card_backs/set2/pink.gif","img/card_backs/set2/orange.gif","""event"",""trial"",""time""
""fullscreenenter"",""1"",""3570""
","
","
","""event"",""trial"",""time""
""fullscreenenter"",""1"",""3570""
","
","","651.4550000429153","","","","real_trial","2021-04-02 22:34:52.707","img/card_backs/set1/yellow.gif","1","50","1","",""
"casino-fixation","92","349326","0.0-25.0-0.11","A206","true","img/card_backs/set1/red.gif","img/card_backs/set1/green.gif","img/card_backs/set1/yellow.gif","img/card_backs/set1/purple.gif","img/card_backs/set2/gray.gif","img/card_backs/set2/blue.gif","img/card_backs/set2/pink.gif","img/card_backs/set2/orange.gif","""event"",""trial"",""time""
""fullscreenenter"",""1"",""3570""
","
","
","""event"",""trial"",""time""
""fullscreenenter"",""1"",""3570""
","
","","null","","null","","fixation","2021-04-02 22:34:53.215","","","","","",""
"card-selection-trial","93","353621","0.0-25.0-1.11","A206","true","img/card_backs/set1/red.gif","img/card_backs/set1/green.gif","img/card_backs/set1/yellow.gif","img/card_backs/set1/purple.gif","img/card_backs/set2/gray.gif","img/card_backs/set2/blue.gif","img/card_backs/set2/pink.gif","img/card_backs/set2/orange.gif","""event"",""trial"",""time""
""fullscreenenter"",""1"",""3570""
","
","
","""event"",""trial"",""time""
""fullscreenenter"",""1"",""3570""
","
","","2252.1349999587983","","","","real_trial","2021-04-02 22:34:57.510","img/card_backs/set1/purple.gif","3","-110","1","",""
"casino-fixation","94","354134","0.0-25.0-0.12","A206","true","img/card_backs/set1/red.gif","img/card_backs/set1/green.gif","img/card_backs/set1/yellow.gif","img/card_backs/set1/purple.gif","img/card_backs/set2/gray.gif","img/card_backs/set2/blue.gif","img/card_backs/set2/pink.gif","img/card_backs/set2/orange.gif","""event"",""trial"",""time""
""fullscreenenter"",""1"",""3570""
","
","
","""event"",""trial"",""time""
""fullscreenenter"",""1"",""3570""
","
","","null","","null","","fixation","2021-04-02 22:34:58.023","","","","","",""
"card-selection-trial","95","356823","0.0-25.0-1.12","A206","true","img/card_backs/set1/red.gif","img/card_backs/set1/green.gif","img/card_backs/set1/yellow.gif","img/card_backs/set1/purple.gif","img/card_backs/set2/gray.gif","img/card_backs/set2/blue.gif","img/card_backs/set2/pink.gif","img/card_backs/set2/orange.gif","""event"",""trial"",""time""
""fullscreenenter"",""1"",""3570""
","
","
","""event"",""trial"",""time""
""fullscreenenter"",""1"",""3570""
","
","","677.7800000272691","","","","real_trial","2021-04-02 22:35:00.712","img/card_backs/set1/purple.gif","1","-100","1","",""
"casino-fixation","96","357327","0.0-25.0-0.13","A206","true","img/card_backs/set1/red.gif","img/card_backs/set1/green.gif","img/card_backs/set1/yellow.gif","img/card_backs/set1/purple.gif","img/card_backs/set2/gray.gif","img/card_backs/set2/blue.gif","img/card_backs/set2/pink.gif","img/card_backs/set2/orange.gif","""event"",""trial"",""time""
""fullscreenenter"",""1"",""3570""
","
","
","""event"",""trial"",""time""
""fullscreenenter"",""1"",""3570""
","
","","null","","null","","fixation","2021-04-02 22:35:01.216","","","","","",""
"card-selection-trial","97","359869","0.0-25.0-1.13","A206","true","img/card_backs/set1/red.gif","img/card_backs/set1/green.gif","img/card_backs/set1/yellow.gif","img/card_backs/set1/purple.gif","img/card_backs/set2/gray.gif","img/card_backs/set2/blue.gif","img/card_backs/set2/pink.gif","img/card_backs/set2/orange.gif","""event"",""trial"",""time""
""fullscreenenter"",""1"",""3570""
","
","
","""event"",""trial"",""time""
""fullscreenenter"",""1"",""3570""
","
","","485.84500001743436","","","","real_trial","2021-04-02 22:35:03.759","img/card_backs/set1/purple.gif","3","60","1","",""
"casino-fixation","98","360377","0.0-25.0-0.14","A206","true","img/card_backs/set1/red.gif","img/card_backs/set1/green.gif","img/card_backs/set1/yellow.gif","img/card_backs/set1/purple.gif","img/card_backs/set2/gray.gif","img/card_backs/set2/blue.gif","img/card_backs/set2/pink.gif","img/card_backs/set2/orange.gif","""event"",""trial"",""time""
""fullscreenenter"",""1"",""3570""
","
","
","""event"",""trial"",""time""
""fullscreenenter"",""1"",""3570""
","
","","null","","null","","fixation","2021-04-02 22:35:04.266","","","","","",""
"card-selection-trial","99","362915","0.0-25.0-1.14","A206","true","img/card_backs/set1/red.gif","img/card_backs/set1/green.gif","img/card_backs/set1/yellow.gif","img/card_backs/set1/purple.gif","img/card_backs/set2/gray.gif","img/card_backs/set2/blue.gif","img/card_backs/set2/pink.gif","img/card_backs/set2/orange.gif","""event"",""trial"",""time""
""fullscreenenter"",""1"",""3570""
","
","
","""event"",""trial"",""time""
""fullscreenenter"",""1"",""3570""
","
","","499.32499998249114","","","","real_trial","2021-04-02 22:35:06.804","img/card_backs/set1/purple.gif","1","40","1","",""
"casino-fixation","100","363418","0.0-25.0-0.15","A206","true","img/card_backs/set1/red.gif","img/card_backs/set1/green.gif","img/card_backs/set1/yellow.gif","img/card_backs/set1/purple.gif","img/card_backs/set2/gray.gif","img/card_backs/set2/blue.gif","img/card_backs/set2/pink.gif","img/card_backs/set2/orange.gif","""event"",""trial"",""time""
""fullscreenenter"",""1"",""3570""
","
","
","""event"",""trial"",""time""
""fullscreenenter"",""1"",""3570""
","
","","null","","null","","fixation","2021-04-02 22:35:07.307","","","","","",""
"card-selection-trial","101","366321","0.0-25.0-1.15","A206","true","img/card_backs/set1/red.gif","img/card_backs/set1/green.gif","img/card_backs/set1/yellow.gif","img/card_backs/set1/purple.gif","img/card_backs/set2/gray.gif","img/card_backs/set2/blue.gif","img/card_backs/set2/pink.gif","img/card_backs/set2/orange.gif","""event"",""trial"",""time""
""fullscreenenter"",""1"",""3570""
","
","
","""event"",""trial"",""time""
""fullscreenenter"",""1"",""3570""
","
","","885.7200001366436","","","","real_trial","2021-04-02 22:35:10.211","img/card_backs/set1/red.gif","0","-190","1","",""
"casino-fixation","102","366830","0.0-25.0-0.16","A206","true","img/card_backs/set1/red.gif","img/card_backs/set1/green.gif","img/card_backs/set1/yellow.gif","img/card_backs/set1/purple.gif","img/card_backs/set2/gray.gif","img/card_backs/set2/blue.gif","img/card_backs/set2/pink.gif","img/card_backs/set2/orange.gif","""event"",""trial"",""time""
""fullscreenenter"",""1"",""3570""
","
","
","""event"",""trial"",""time""
""fullscreenenter"",""1"",""3570""
","
","","null","","null","","fixation","2021-04-02 22:35:10.719","","","","","",""
"card-selection-trial","103","369523","0.0-25.0-1.16","A206","true","img/card_backs/set1/red.gif","img/card_backs/set1/green.gif","img/card_backs/set1/yellow.gif","img/card_backs/set1/purple.gif","img/card_backs/set2/gray.gif","img/card_backs/set2/blue.gif","img/card_backs/set2/pink.gif","img/card_backs/set2/orange.gif","""event"",""trial"",""time""
""fullscreenenter"",""1"",""3570""
","
","
","""event"",""trial"",""time""
""fullscreenenter"",""1"",""3570""
","
","","650.920000160113","","","","real_trial","2021-04-02 22:35:13.412","img/card_backs/set1/red.gif","2","-190","1","",""
"casino-fixation","104","370036","0.0-25.0-0.17","A206","true","img/card_backs/set1/red.gif","img/card_backs/set1/green.gif","img/card_backs/set1/yellow.gif","img/card_backs/set1/purple.gif","img/card_backs/set2/gray.gif","img/card_backs/set2/blue.gif","img/card_backs/set2/pink.gif","img/card_backs/set2/orange.gif","""event"",""trial"",""time""
""fullscreenenter"",""1"",""3570""
","
","
","""event"",""trial"",""time""
""fullscreenenter"",""1"",""3570""
","
","","null","","null","","fixation","2021-04-02 22:35:13.926","","","","","",""
"card-selection-trial","105","372771","0.0-25.0-1.17","A206","true","img/card_backs/set1/red.gif","img/card_backs/set1/green.gif","img/card_backs/set1/yellow.gif","img/card_backs/set1/purple.gif","img/card_backs/set2/gray.gif","img/card_backs/set2/blue.gif","img/card_backs/set2/pink.gif","img/card_backs/set2/orange.gif","""event"",""trial"",""time""
""fullscreenenter"",""1"",""3570""
","
","
","""event"",""trial"",""time""
""fullscreenenter"",""1"",""3570""
","
","","697.7649999316782","","","","real_trial","2021-04-02 22:35:16.660","img/card_backs/set1/red.gif","1","240","1","",""
"casino-fixation","106","373277","0.0-25.0-0.18","A206","true","img/card_backs/set1/red.gif","img/card_backs/set1/green.gif","img/card_backs/set1/yellow.gif","img/card_backs/set1/purple.gif","img/card_backs/set2/gray.gif","img/card_backs/set2/blue.gif","img/card_backs/set2/pink.gif","img/card_backs/set2/orange.gif","""event"",""trial"",""time""
""fullscreenenter"",""1"",""3570""
","
","
","""event"",""trial"",""time""
""fullscreenenter"",""1"",""3570""
","
","","null","","null","","fixation","2021-04-02 22:35:17.166","","","","","",""
"card-selection-trial","107","375857","0.0-25.0-1.18","A206","true","img/card_backs/set1/red.gif","img/card_backs/set1/green.gif","img/card_backs/set1/yellow.gif","img/card_backs/set1/purple.gif","img/card_backs/set2/gray.gif","img/card_backs/set2/blue.gif","img/card_backs/set2/pink.gif","img/card_backs/set2/orange.gif","""event"",""trial"",""time""
""fullscreenenter"",""1"",""3570""
","
","
","""event"",""trial"",""time""
""fullscreenenter"",""1"",""3570""
","
","","547.6299999281764","","","","real_trial","2021-04-02 22:35:19.747","img/card_backs/set1/red.gif","0","-190","1","",""
"casino-fixation","108","376362","0.0-25.0-0.19","A206","true","img/card_backs/set1/red.gif","img/card_backs/set1/green.gif","img/card_backs/set1/yellow.gif","img/card_backs/set1/purple.gif","img/card_backs/set2/gray.gif","img/card_backs/set2/blue.gif","img/card_backs/set2/pink.gif","img/card_backs/set2/orange.gif","""event"",""trial"",""time""
""fullscreenenter"",""1"",""3570""
","
","
","""event"",""trial"",""time""
""fullscreenenter"",""1"",""3570""
","
","","null","","null","","fixation","2021-04-02 22:35:20.251","","","","","",""
"card-selection-trial","109","379005","0.0-25.0-1.19","A206","true","img/card_backs/set1/red.gif","img/card_backs/set1/green.gif","img/card_backs/set1/yellow.gif","img/card_backs/set1/purple.gif","img/card_backs/set2/gray.gif","img/card_backs/set2/blue.gif","img/card_backs/set2/pink.gif","img/card_backs/set2/orange.gif","""event"",""trial"",""time""
""fullscreenenter"",""1"",""3570""
","
","
","""event"",""trial"",""time""
""fullscreenenter"",""1"",""3570""
","
","","604.3750001117587","","","","real_trial","2021-04-02 22:35:22.895","img/card_backs/set1/red.gif","2","-200","1","",""
"casino-fixation","110","379515","0.0-25.0-0.20","A206","true","img/card_backs/set1/red.gif","img/card_backs/set1/green.gif","img/card_backs/set1/yellow.gif","img/card_backs/set1/purple.gif","img/card_backs/set2/gray.gif","img/card_backs/set2/blue.gif","img/card_backs/set2/pink.gif","img/card_backs/set2/orange.gif","""event"",""trial"",""time""
""fullscreenenter"",""1"",""3570""
","
","
","""event"",""trial"",""time""
""fullscreenenter"",""1"",""3570""
","
","","null","","null","","fixation","2021-04-02 22:35:23.404","","","","","",""
"card-selection-trial","111","382205","0.0-25.0-1.20","A206","true","img/card_backs/set1/red.gif","img/card_backs/set1/green.gif","img/card_backs/set1/yellow.gif","img/card_backs/set1/purple.gif","img/card_backs/set2/gray.gif","img/card_backs/set2/blue.gif","img/card_backs/set2/pink.gif","img/card_backs/set2/orange.gif","""event"",""trial"",""time""
""fullscreenenter"",""1"",""3570""
","
","
","""event"",""trial"",""time""
""fullscreenenter"",""1"",""3570""
","
","","646.0549999028444","","","","real_trial","2021-04-02 22:35:26.095","img/card_backs/set1/red.gif","3","-210","1","",""
"casino-fixation","112","382713","0.0-25.0-0.21","A206","true","img/card_backs/set1/red.gif","img/card_backs/set1/green.gif","img/card_backs/set1/yellow.gif","img/card_backs/set1/purple.gif","img/card_backs/set2/gray.gif","img/card_backs/set2/blue.gif","img/card_backs/set2/pink.gif","img/card_backs/set2/orange.gif","""event"",""trial"",""time""
""fullscreenenter"",""1"",""3570""
","
","
","""event"",""trial"",""time""
""fullscreenenter"",""1"",""3570""
","
","","null","","null","","fixation","2021-04-02 22:35:26.603","","","","","",""
"card-selection-trial","113","388180","0.0-25.0-1.21","A206","true","img/card_backs/set1/red.gif","img/card_backs/set1/green.gif","img/card_backs/set1/yellow.gif","img/card_backs/set1/purple.gif","img/card_backs/set2/gray.gif","img/card_backs/set2/blue.gif","img/card_backs/set2/pink.gif","img/card_backs/set2/orange.gif","""event"",""trial"",""time""
""fullscreenenter"",""1"",""3570""
","
","
","""event"",""trial"",""time""
""fullscreenenter"",""1"",""3570""
","
","","3417.7099999506027","","","","real_trial","2021-04-02 22:35:32.070","img/card_backs/set1/yellow.gif","1","60","1","",""
"casino-fixation","114","388694","0.0-25.0-0.22","A206","true","img/card_backs/set1/red.gif","img/card_backs/set1/green.gif","img/card_backs/set1/yellow.gif","img/card_backs/set1/purple.gif","img/card_backs/set2/gray.gif","img/card_backs/set2/blue.gif","img/card_backs/set2/pink.gif","img/card_backs/set2/orange.gif","""event"",""trial"",""time""
""fullscreenenter"",""1"",""3570""
","
","
","""event"",""trial"",""time""
""fullscreenenter"",""1"",""3570""
","
","","null","","null","","fixation","2021-04-02 22:35:32.584","","","","","",""
"card-selection-trial","115","391933","0.0-25.0-1.22","A206","true","img/card_backs/set1/red.gif","img/card_backs/set1/green.gif","img/card_backs/set1/yellow.gif","img/card_backs/set1/purple.gif","img/card_backs/set2/gray.gif","img/card_backs/set2/blue.gif","img/card_backs/set2/pink.gif","img/card_backs/set2/orange.gif","""event"",""trial"",""time""
""fullscreenenter"",""1"",""3570""
","
","
","""event"",""trial"",""time""
""fullscreenenter"",""1"",""3570""
","
","","1202.3700000718236","","","","real_trial","2021-04-02 22:35:35.823","img/card_backs/set1/yellow.gif","2","40","1","",""
"casino-fixation","116","392445","0.0-25.0-0.23","A206","true","img/card_backs/set1/red.gif","img/card_backs/set1/green.gif","img/card_backs/set1/yellow.gif","img/card_backs/set1/purple.gif","img/card_backs/set2/gray.gif","img/card_backs/set2/blue.gif","img/card_backs/set2/pink.gif","img/card_backs/set2/orange.gif","""event"",""trial"",""time""
""fullscreenenter"",""1"",""3570""
","
","
","""event"",""trial"",""time""
""fullscreenenter"",""1"",""3570""
","
","","null","","null","","fixation","2021-04-02 22:35:36.335","","","","","",""
"card-selection-trial","117","394997","0.0-25.0-1.23","A206","true","img/card_backs/set1/red.gif","img/card_backs/set1/green.gif","img/card_backs/set1/yellow.gif","img/card_backs/set1/purple.gif","img/card_backs/set2/gray.gif","img/card_backs/set2/blue.gif","img/card_backs/set2/pink.gif","img/card_backs/set2/orange.gif","""event"",""trial"",""time""
""fullscreenenter"",""1"",""3570""
","
","
","""event"",""trial"",""time""
""fullscreenenter"",""1"",""3570""
","
","","516.2649999838322","","","","real_trial","2021-04-02 22:35:38.886","img/card_backs/set1/yellow.gif","2","-90","1","",""
"casino-fixation","118","395505","0.0-25.0-0.24","A206","true","img/card_backs/set1/red.gif","img/card_backs/set1/green.gif","img/card_backs/set1/yellow.gif","img/card_backs/set1/purple.gif","img/card_backs/set2/gray.gif","img/card_backs/set2/blue.gif","img/card_backs/set2/pink.gif","img/card_backs/set2/orange.gif","""event"",""trial"",""time""
""fullscreenenter"",""1"",""3570""
","
","
","""event"",""trial"",""time""
""fullscreenenter"",""1"",""3570""
","
","","null","","null","","fixation","2021-04-02 22:35:39.394","","","","","",""
"card-selection-trial","119","398086","0.0-25.0-1.24","A206","true","img/card_backs/set1/red.gif","img/card_backs/set1/green.gif","img/card_backs/set1/yellow.gif","img/card_backs/set1/purple.gif","img/card_backs/set2/gray.gif","img/card_backs/set2/blue.gif","img/card_backs/set2/pink.gif","img/card_backs/set2/orange.gif","""event"",""trial"",""time""
""fullscreenenter"",""1"",""3570""
","
","
","""event"",""trial"",""time""
""fullscreenenter"",""1"",""3570""
","
","","547.1349998842925","","","","real_trial","2021-04-02 22:35:41.975","img/card_backs/set1/yellow.gif","3","50","1","",""
"casino-fixation","120","398593","0.0-25.0-0.25","A206","true","img/card_backs/set1/red.gif","img/card_backs/set1/green.gif","img/card_backs/set1/yellow.gif","img/card_backs/set1/purple.gif","img/card_backs/set2/gray.gif","img/card_backs/set2/blue.gif","img/card_backs/set2/pink.gif","img/card_backs/set2/orange.gif","""event"",""trial"",""time""
""fullscreenenter"",""1"",""3570""
","
","
","""event"",""trial"",""time""
""fullscreenenter"",""1"",""3570""
","
","","null","","null","","fixation","2021-04-02 22:35:42.483","","","","","",""
"card-selection-trial","121","401248","0.0-25.0-1.25","A206","true","img/card_backs/set1/red.gif","img/card_backs/set1/green.gif","img/card_backs/set1/yellow.gif","img/card_backs/set1/purple.gif","img/card_backs/set2/gray.gif","img/card_backs/set2/blue.gif","img/card_backs/set2/pink.gif","img/card_backs/set2/orange.gif","""event"",""trial"",""time""
""fullscreenenter"",""1"",""3570""
","
","
","""event"",""trial"",""time""
""fullscreenenter"",""1"",""3570""
","
","","617.8749999962747","","","","real_trial","2021-04-02 22:35:45.138","img/card_backs/set1/yellow.gif","0","60","1","",""
"casino-fixation","122","401758","0.0-25.0-0.26","A206","true","img/card_backs/set1/red.gif","img/card_backs/set1/green.gif","img/card_backs/set1/yellow.gif","img/card_backs/set1/purple.gif","img/card_backs/set2/gray.gif","img/card_backs/set2/blue.gif","img/card_backs/set2/pink.gif","img/card_backs/set2/orange.gif","""event"",""trial"",""time""
""fullscreenenter"",""1"",""3570""
","
","
","""event"",""trial"",""time""
""fullscreenenter"",""1"",""3570""
","
","","null","","null","","fixation","2021-04-02 22:35:45.648","","","","","",""
"card-selection-trial","123","404560","0.0-25.0-1.26","A206","true","img/card_backs/set1/red.gif","img/card_backs/set1/green.gif","img/card_backs/set1/yellow.gif","img/card_backs/set1/purple.gif","img/card_backs/set2/gray.gif","img/card_backs/set2/blue.gif","img/card_backs/set2/pink.gif","img/card_backs/set2/orange.gif","""event"",""trial"",""time""
""fullscreenenter"",""1"",""3570""
","
","
","""event"",""trial"",""time""
""fullscreenenter"",""1"",""3570""
","
","","752.2199999075383","","","","real_trial","2021-04-02 22:35:48.450","img/card_backs/set1/yellow.gif","2","50","1","",""
"casino-fixation","124","405067","0.0-25.0-0.27","A206","true","img/card_backs/set1/red.gif","img/card_backs/set1/green.gif","img/card_backs/set1/yellow.gif","img/card_backs/set1/purple.gif","img/card_backs/set2/gray.gif","img/card_backs/set2/blue.gif","img/card_backs/set2/pink.gif","img/card_backs/set2/orange.gif","""event"",""trial"",""time""
""fullscreenenter"",""1"",""3570""
","
","
","""event"",""trial"",""time""
""fullscreenenter"",""1"",""3570""
","
","","null","","null","","fixation","2021-04-02 22:35:48.957","","","","","",""
"card-selection-trial","125","407590","0.0-25.0-1.27","A206","true","img/card_backs/set1/red.gif","img/card_backs/set1/green.gif","img/card_backs/set1/yellow.gif","img/card_backs/set1/purple.gif","img/card_backs/set2/gray.gif","img/card_backs/set2/blue.gif","img/card_backs/set2/pink.gif","img/card_backs/set2/orange.gif","""event"",""trial"",""time""
""fullscreenenter"",""1"",""3570""
","
","
","""event"",""trial"",""time""
""fullscreenenter"",""1"",""3570""
","
","","480.1399998832494","","","","real_trial","2021-04-02 22:35:51.479","img/card_backs/set1/yellow.gif","3","50","1","",""
"casino-fixation","126","408096","0.0-25.0-0.28","A206","true","img/card_backs/set1/red.gif","img/card_backs/set1/green.gif","img/card_backs/set1/yellow.gif","img/card_backs/set1/purple.gif","img/card_backs/set2/gray.gif","img/card_backs/set2/blue.gif","img/card_backs/set2/pink.gif","img/card_backs/set2/orange.gif","""event"",""trial"",""time""
""fullscreenenter"",""1"",""3570""
","
","
","""event"",""trial"",""time""
""fullscreenenter"",""1"",""3570""
","
","","null","","null","","fixation","2021-04-02 22:35:51.985","","","","","",""
"card-selection-trial","127","411307","0.0-25.0-1.28","A206","true","img/card_backs/set1/red.gif","img/card_backs/set1/green.gif","img/card_backs/set1/yellow.gif","img/card_backs/set1/purple.gif","img/card_backs/set2/gray.gif","img/card_backs/set2/blue.gif","img/card_backs/set2/pink.gif","img/card_backs/set2/orange.gif","""event"",""trial"",""time""
""fullscreenenter"",""1"",""3570""
","
","
","""event"",""trial"",""time""
""fullscreenenter"",""1"",""3570""
","
","","1169.0800001379102","","","","real_trial","2021-04-02 22:35:55.196","img/card_backs/set1/green.gif","0","260","1","",""
"casino-fixation","128","411810","0.0-25.0-0.29","A206","true","img/card_backs/set1/red.gif","img/card_backs/set1/green.gif","img/card_backs/set1/yellow.gif","img/card_backs/set1/purple.gif","img/card_backs/set2/gray.gif","img/card_backs/set2/blue.gif","img/card_backs/set2/pink.gif","img/card_backs/set2/orange.gif","""event"",""trial"",""time""
""fullscreenenter"",""1"",""3570""
","
","
","""event"",""trial"",""time""
""fullscreenenter"",""1"",""3570""
","
","","null","","null","","fixation","2021-04-02 22:35:55.699","","","","","",""
"card-selection-trial","129","414421","0.0-25.0-1.29","A206","true","img/card_backs/set1/red.gif","img/card_backs/set1/green.gif","img/card_backs/set1/yellow.gif","img/card_backs/set1/purple.gif","img/card_backs/set2/gray.gif","img/card_backs/set2/blue.gif","img/card_backs/set2/pink.gif","img/card_backs/set2/orange.gif","""event"",""trial"",""time""
""fullscreenenter"",""1"",""3570""
","
","
","""event"",""trial"",""time""
""fullscreenenter"",""1"",""3570""
","
","","593.2150001171976","","","","real_trial","2021-04-02 22:35:58.310","img/card_backs/set1/green.gif","2","240","1","",""
"casino-fixation","130","414925","0.0-25.0-0.30","A206","true","img/card_backs/set1/red.gif","img/card_backs/set1/green.gif","img/card_backs/set1/yellow.gif","img/card_backs/set1/purple.gif","img/card_backs/set2/gray.gif","img/card_backs/set2/blue.gif","img/card_backs/set2/pink.gif","img/card_backs/set2/orange.gif","""event"",""trial"",""time""
""fullscreenenter"",""1"",""3570""
","
","
","""event"",""trial"",""time""
""fullscreenenter"",""1"",""3570""
","
","","null","","null","","fixation","2021-04-02 22:35:58.816","","","","","",""
"card-selection-trial","131","417495","0.0-25.0-1.30","A206","true","img/card_backs/set1/red.gif","img/card_backs/set1/green.gif","img/card_backs/set1/yellow.gif","img/card_backs/set1/purple.gif","img/card_backs/set2/gray.gif","img/card_backs/set2/blue.gif","img/card_backs/set2/pink.gif","img/card_backs/set2/orange.gif","""event"",""trial"",""time""
""fullscreenenter"",""1"",""3570""
","
","
","""event"",""trial"",""time""
""fullscreenenter"",""1"",""3570""
","
","","528.2149999402463","","","","real_trial","2021-04-02 22:36:01.385","img/card_backs/set1/green.gif","2","-190","1","",""
"casino-fixation","132","418007","0.0-25.0-0.31","A206","true","img/card_backs/set1/red.gif","img/card_backs/set1/green.gif","img/card_backs/set1/yellow.gif","img/card_backs/set1/purple.gif","img/card_backs/set2/gray.gif","img/card_backs/set2/blue.gif","img/card_backs/set2/pink.gif","img/card_backs/set2/orange.gif","""event"",""trial"",""time""
""fullscreenenter"",""1"",""3570""
","
","
","""event"",""trial"",""time""
""fullscreenenter"",""1"",""3570""
","
","","null","","null","","fixation","2021-04-02 22:36:01.897","","","","","",""
"card-selection-trial","133","420487","0.0-25.0-1.31","A206","true","img/card_backs/set1/red.gif","img/card_backs/set1/green.gif","img/card_backs/set1/yellow.gif","img/card_backs/set1/purple.gif","img/card_backs/set2/gray.gif","img/card_backs/set2/blue.gif","img/card_backs/set2/pink.gif","img/card_backs/set2/orange.gif","""event"",""trial"",""time""
""fullscreenenter"",""1"",""3570""
","
","
","""event"",""trial"",""time""
""fullscreenenter"",""1"",""3570""
","
","","448.1699999887496","","","","real_trial","2021-04-02 22:36:04.376","img/card_backs/set1/green.gif","3","260","1","",""
"casino-fixation","134","421009","0.0-25.0-0.32","A206","true","img/card_backs/set1/red.gif","img/card_backs/set1/green.gif","img/card_backs/set1/yellow.gif","img/card_backs/set1/purple.gif","img/card_backs/set2/gray.gif","img/card_backs/set2/blue.gif","img/card_backs/set2/pink.gif","img/card_backs/set2/orange.gif","""event"",""trial"",""time""
""fullscreenenter"",""1"",""3570""
","
","
","""event"",""trial"",""time""
""fullscreenenter"",""1"",""3570""
","
","","null","","null","","fixation","2021-04-02 22:36:04.898","","","","","",""
"card-selection-trial","135","423539","0.0-25.0-1.32","A206","true","img/card_backs/set1/red.gif","img/card_backs/set1/green.gif","img/card_backs/set1/yellow.gif","img/card_backs/set1/purple.gif","img/card_backs/set2/gray.gif","img/card_backs/set2/blue.gif","img/card_backs/set2/pink.gif","img/card_backs/set2/orange.gif","""event"",""trial"",""time""
""fullscreenenter"",""1"",""3570""
","
","
","""event"",""trial"",""time""
""fullscreenenter"",""1"",""3570""
","
","","494.2300000693649","","","","real_trial","2021-04-02 22:36:07.429","img/card_backs/set1/green.gif","3","240","1","",""
"casino-fixation","136","424054","0.0-25.0-0.33","A206","true","img/card_backs/set1/red.gif","img/card_backs/set1/green.gif","img/card_backs/set1/yellow.gif","img/card_backs/set1/purple.gif","img/card_backs/set2/gray.gif","img/card_backs/set2/blue.gif","img/card_backs/set2/pink.gif","img/card_backs/set2/orange.gif","""event"",""trial"",""time""
""fullscreenenter"",""1"",""3570""
","
","
","""event"",""trial"",""time""
""fullscreenenter"",""1"",""3570""
","
","","null","","null","","fixation","2021-04-02 22:36:07.943","","","","","",""
"card-selection-trial","137","426513","0.0-25.0-1.33","A206","true","img/card_backs/set1/red.gif","img/card_backs/set1/green.gif","img/card_backs/set1/yellow.gif","img/card_backs/set1/purple.gif","img/card_backs/set2/gray.gif","img/card_backs/set2/blue.gif","img/card_backs/set2/pink.gif","img/card_backs/set2/orange.gif","""event"",""trial"",""time""
""fullscreenenter"",""1"",""3570""
","
","
","""event"",""trial"",""time""
""fullscreenenter"",""1"",""3570""
","
","","418.40499988757074","","","","real_trial","2021-04-02 22:36:10.403","img/card_backs/set1/green.gif","3","-210","1","",""
"casino-fixation","138","427021","0.0-25.0-0.34","A206","true","img/card_backs/set1/red.gif","img/card_backs/set1/green.gif","img/card_backs/set1/yellow.gif","img/card_backs/set1/purple.gif","img/card_backs/set2/gray.gif","img/card_backs/set2/blue.gif","img/card_backs/set2/pink.gif","img/card_backs/set2/orange.gif","""event"",""trial"",""time""
""fullscreenenter"",""1"",""3570""
","
","
","""event"",""trial"",""time""
""fullscreenenter"",""1"",""3570""
","
","","null","","null","","fixation","2021-04-02 22:36:10.910","","","","","",""
"card-selection-trial","139","429566","0.0-25.0-1.34","A206","true","img/card_backs/set1/red.gif","img/card_backs/set1/green.gif","img/card_backs/set1/yellow.gif","img/card_backs/set1/purple.gif","img/card_backs/set2/gray.gif","img/card_backs/set2/blue.gif","img/card_backs/set2/pink.gif","img/card_backs/set2/orange.gif","""event"",""trial"",""time""
""fullscreenenter"",""1"",""3570""
","
","
","""event"",""trial"",""time""
""fullscreenenter"",""1"",""3570""
","
","","500.2900001127273","","","","real_trial","2021-04-02 22:36:13.455","img/card_backs/set1/green.gif","3","240","1","",""
"casino-fixation","140","430078","0.0-25.0-0.35","A206","true","img/card_backs/set1/red.gif","img/card_backs/set1/green.gif","img/card_backs/set1/yellow.gif","img/card_backs/set1/purple.gif","img/card_backs/set2/gray.gif","img/card_backs/set2/blue.gif","img/card_backs/set2/pink.gif","img/card_backs/set2/orange.gif","""event"",""trial"",""time""
""fullscreenenter"",""1"",""3570""
","
","
","""event"",""trial"",""time""
""fullscreenenter"",""1"",""3570""
","
","","null","","null","","fixation","2021-04-02 22:36:13.968","","","","","",""
"card-selection-trial","141","432620","0.0-25.0-1.35","A206","true","img/card_backs/set1/red.gif","img/card_backs/set1/green.gif","img/card_backs/set1/yellow.gif","img/card_backs/set1/purple.gif","img/card_backs/set2/gray.gif","img/card_backs/set2/blue.gif","img/card_backs/set2/pink.gif","img/card_backs/set2/orange.gif","""event"",""trial"",""time""
""fullscreenenter"",""1"",""3570""
","
","
","""event"",""trial"",""time""
""fullscreenenter"",""1"",""3570""
","
","","489.9100000038743","","","","real_trial","2021-04-02 22:36:16.510","img/card_backs/set1/green.gif","3","-190","1","",""
"casino-fixation","142","433129","0.0-25.0-0.36","A206","true","img/card_backs/set1/red.gif","img/card_backs/set1/green.gif","img/card_backs/set1/yellow.gif","img/card_backs/set1/purple.gif","img/card_backs/set2/gray.gif","img/card_backs/set2/blue.gif","img/card_backs/set2/pink.gif","img/card_backs/set2/orange.gif","""event"",""trial"",""time""
""fullscreenenter"",""1"",""3570""
","
","
","""event"",""trial"",""time""
""fullscreenenter"",""1"",""3570""
","
","","null","","null","","fixation","2021-04-02 22:36:17.019","","","","","",""
"card-selection-trial","143","435511","0.0-25.0-1.36","A206","true","img/card_backs/set1/red.gif","img/card_backs/set1/green.gif","img/card_backs/set1/yellow.gif","img/card_backs/set1/purple.gif","img/card_backs/set2/gray.gif","img/card_backs/set2/blue.gif","img/card_backs/set2/pink.gif","img/card_backs/set2/orange.gif","""event"",""trial"",""time""
""fullscreenenter"",""1"",""3570""
","
","
","""event"",""trial"",""time""
""fullscreenenter"",""1"",""3570""
","
","","338.9500000048429","","","","real_trial","2021-04-02 22:36:19.401","img/card_backs/set1/green.gif","3","-210","1","",""
"casino-fixation","144","436022","0.0-25.0-0.37","A206","true","img/card_backs/set1/red.gif","img/card_backs/set1/green.gif","img/card_backs/set1/yellow.gif","img/card_backs/set1/purple.gif","img/card_backs/set2/gray.gif","img/card_backs/set2/blue.gif","img/card_backs/set2/pink.gif","img/card_backs/set2/orange.gif","""event"",""trial"",""time""
""fullscreenenter"",""1"",""3570""
","
","
","""event"",""trial"",""time""
""fullscreenenter"",""1"",""3570""
","
","","null","","null","","fixation","2021-04-02 22:36:19.912","","","","","",""
"card-selection-trial","145","438361","0.0-25.0-1.37","A206","true","img/card_backs/set1/red.gif","img/card_backs/set1/green.gif","img/card_backs/set1/yellow.gif","img/card_backs/set1/purple.gif","img/card_backs/set2/gray.gif","img/card_backs/set2/blue.gif","img/card_backs/set2/pink.gif","img/card_backs/set2/orange.gif","""event"",""trial"",""time""
""fullscreenenter"",""1"",""3570""
","
","
","""event"",""trial"",""time""
""fullscreenenter"",""1"",""3570""
","
","","293.92499988898635","","","","real_trial","2021-04-02 22:36:22.251","img/card_backs/set1/yellow.gif","3","-110","1","",""
"casino-fixation","146","438871","0.0-25.0-0.38","A206","true","img/card_backs/set1/red.gif","img/card_backs/set1/green.gif","img/card_backs/set1/yellow.gif","img/card_backs/set1/purple.gif","img/card_backs/set2/gray.gif","img/card_backs/set2/blue.gif","img/card_backs/set2/pink.gif","img/card_backs/set2/orange.gif","""event"",""trial"",""time""
""fullscreenenter"",""1"",""3570""
","
","
","""event"",""trial"",""time""
""fullscreenenter"",""1"",""3570""
","
","","null","","null","","fixation","2021-04-02 22:36:22.760","","","","","",""
"card-selection-trial","147","441562","0.0-25.0-1.38","A206","true","img/card_backs/set1/red.gif","img/card_backs/set1/green.gif","img/card_backs/set1/yellow.gif","img/card_backs/set1/purple.gif","img/card_backs/set2/gray.gif","img/card_backs/set2/blue.gif","img/card_backs/set2/pink.gif","img/card_backs/set2/orange.gif","""event"",""trial"",""time""
""fullscreenenter"",""1"",""3570""
","
","
","""event"",""trial"",""time""
""fullscreenenter"",""1"",""3570""
","
","","669.3049999885261","","","","real_trial","2021-04-02 22:36:25.451","img/card_backs/set1/yellow.gif","3","-90","1","",""
"casino-fixation","148","442073","0.0-25.0-0.39","A206","true","img/card_backs/set1/red.gif","img/card_backs/set1/green.gif","img/card_backs/set1/yellow.gif","img/card_backs/set1/purple.gif","img/card_backs/set2/gray.gif","img/card_backs/set2/blue.gif","img/card_backs/set2/pink.gif","img/card_backs/set2/orange.gif","""event"",""trial"",""time""
""fullscreenenter"",""1"",""3570""
","
","
","""event"",""trial"",""time""
""fullscreenenter"",""1"",""3570""
","
","","null","","null","","fixation","2021-04-02 22:36:25.962","","","","","",""
"card-selection-trial","149","444676","0.0-25.0-1.39","A206","true","img/card_backs/set1/red.gif","img/card_backs/set1/green.gif","img/card_backs/set1/yellow.gif","img/card_backs/set1/purple.gif","img/card_backs/set2/gray.gif","img/card_backs/set2/blue.gif","img/card_backs/set2/pink.gif","img/card_backs/set2/orange.gif","""event"",""trial"",""time""
""fullscreenenter"",""1"",""3570""
","
","
","""event"",""trial"",""time""
""fullscreenenter"",""1"",""3570""
","
","","567.2649999614805","","","","real_trial","2021-04-02 22:36:28.566","img/card_backs/set1/yellow.gif","2","-90","1","",""
"casino-fixation","150","445184","0.0-25.0-0.40","A206","true","img/card_backs/set1/red.gif","img/card_backs/set1/green.gif","img/card_backs/set1/yellow.gif","img/card_backs/set1/purple.gif","img/card_backs/set2/gray.gif","img/card_backs/set2/blue.gif","img/card_backs/set2/pink.gif","img/card_backs/set2/orange.gif","""event"",""trial"",""time""
""fullscreenenter"",""1"",""3570""
","
","
","""event"",""trial"",""time""
""fullscreenenter"",""1"",""3570""
","
","","null","","null","","fixation","2021-04-02 22:36:29.073","","","","","",""
"card-selection-trial","151","447701","0.0-25.0-1.40","A206","true","img/card_backs/set1/red.gif","img/card_backs/set1/green.gif","img/card_backs/set1/yellow.gif","img/card_backs/set1/purple.gif","img/card_backs/set2/gray.gif","img/card_backs/set2/blue.gif","img/card_backs/set2/pink.gif","img/card_backs/set2/orange.gif","""event"",""trial"",""time""
""fullscreenenter"",""1"",""3570""
","
","
","""event"",""trial"",""time""
""fullscreenenter"",""1"",""3570""
","
","","475.330000044778","","","","real_trial","2021-04-02 22:36:31.590","img/card_backs/set1/yellow.gif","2","50","1","",""
"casino-fixation","152","448211","0.0-25.0-0.41","A206","true","img/card_backs/set1/red.gif","img/card_backs/set1/green.gif","img/card_backs/set1/yellow.gif","img/card_backs/set1/purple.gif","img/card_backs/set2/gray.gif","img/card_backs/set2/blue.gif","img/card_backs/set2/pink.gif","img/card_backs/set2/orange.gif","""event"",""trial"",""time""
""fullscreenenter"",""1"",""3570""
","
","
","""event"",""trial"",""time""
""fullscreenenter"",""1"",""3570""
","
","","null","","null","","fixation","2021-04-02 22:36:32.100","","","","","",""
"card-selection-trial","153","451104","0.0-25.0-1.41","A206","true","img/card_backs/set1/red.gif","img/card_backs/set1/green.gif","img/card_backs/set1/yellow.gif","img/card_backs/set1/purple.gif","img/card_backs/set2/gray.gif","img/card_backs/set2/blue.gif","img/card_backs/set2/pink.gif","img/card_backs/set2/orange.gif","""event"",""trial"",""time""
""fullscreenenter"",""1"",""3570""
","
","
","""event"",""trial"",""time""
""fullscreenenter"",""1"",""3570""
","
","","855.7450000662357","","","","real_trial","2021-04-02 22:36:34.993","img/card_backs/set1/yellow.gif","0","-90","1","",""
"casino-fixation","154","451612","0.0-25.0-0.42","A206","true","img/card_backs/set1/red.gif","img/card_backs/set1/green.gif","img/card_backs/set1/yellow.gif","img/card_backs/set1/purple.gif","img/card_backs/set2/gray.gif","img/card_backs/set2/blue.gif","img/card_backs/set2/pink.gif","img/card_backs/set2/orange.gif","""event"",""trial"",""time""
""fullscreenenter"",""1"",""3570""
","
","
","""event"",""trial"",""time""
""fullscreenenter"",""1"",""3570""
","
","","null","","null","","fixation","2021-04-02 22:36:35.502","","","","","",""
"card-selection-trial","155","454656","0.0-25.0-1.42","A206","true","img/card_backs/set1/red.gif","img/card_backs/set1/green.gif","img/card_backs/set1/yellow.gif","img/card_backs/set1/purple.gif","img/card_backs/set2/gray.gif","img/card_backs/set2/blue.gif","img/card_backs/set2/pink.gif","img/card_backs/set2/orange.gif","""event"",""trial"",""time""
""fullscreenenter"",""1"",""3570""
","
","
","""event"",""trial"",""time""
""fullscreenenter"",""1"",""3570""
","
","","1011.0299999359995","","","","real_trial","2021-04-02 22:36:38.545","img/card_backs/set1/green.gif","0","260","1","",""
"casino-fixation","156","455163","0.0-25.0-0.43","A206","true","img/card_backs/set1/red.gif","img/card_backs/set1/green.gif","img/card_backs/set1/yellow.gif","img/card_backs/set1/purple.gif","img/card_backs/set2/gray.gif","img/card_backs/set2/blue.gif","img/card_backs/set2/pink.gif","img/card_backs/set2/orange.gif","""event"",""trial"",""time""
""fullscreenenter"",""1"",""3570""
","
","
","""event"",""trial"",""time""
""fullscreenenter"",""1"",""3570""
","
","","null","","null","","fixation","2021-04-02 22:36:39.052","","","","","",""
"card-selection-trial","157","457669","0.0-25.0-1.43","A206","true","img/card_backs/set1/red.gif","img/card_backs/set1/green.gif","img/card_backs/set1/yellow.gif","img/card_backs/set1/purple.gif","img/card_backs/set2/gray.gif","img/card_backs/set2/blue.gif","img/card_backs/set2/pink.gif","img/card_backs/set2/orange.gif","""event"",""trial"",""time""
""fullscreenenter"",""1"",""3570""
","
","
","""event"",""trial"",""time""
""fullscreenenter"",""1"",""3570""
","
","","462.4550000298768","","","","real_trial","2021-04-02 22:36:41.558","img/card_backs/set1/green.gif","0","-190","1","",""
"casino-fixation","158","458180","0.0-25.0-0.44","A206","true","img/card_backs/set1/red.gif","img/card_backs/set1/green.gif","img/card_backs/set1/yellow.gif","img/card_backs/set1/purple.gif","img/card_backs/set2/gray.gif","img/card_backs/set2/blue.gif","img/card_backs/set2/pink.gif","img/card_backs/set2/orange.gif","""event"",""trial"",""time""
""fullscreenenter"",""1"",""3570""
","
","
","""event"",""trial"",""time""
""fullscreenenter"",""1"",""3570""
","
","","null","","null","","fixation","2021-04-02 22:36:42.070","","","","","",""
"card-selection-trial","159","460679","0.0-25.0-1.44","A206","true","img/card_backs/set1/red.gif","img/card_backs/set1/green.gif","img/card_backs/set1/yellow.gif","img/card_backs/set1/purple.gif","img/card_backs/set2/gray.gif","img/card_backs/set2/blue.gif","img/card_backs/set2/pink.gif","img/card_backs/set2/orange.gif","""event"",""trial"",""time""
""fullscreenenter"",""1"",""3570""
","
","
","""event"",""trial"",""time""
""fullscreenenter"",""1"",""3570""
","
","","464.21500016003847","","","","real_trial","2021-04-02 22:36:44.568","img/card_backs/set1/green.gif","0","-190","1","",""
"casino-fixation","160","461185","0.0-25.0-0.45","A206","true","img/card_backs/set1/red.gif","img/card_backs/set1/green.gif","img/card_backs/set1/yellow.gif","img/card_backs/set1/purple.gif","img/card_backs/set2/gray.gif","img/card_backs/set2/blue.gif","img/card_backs/set2/pink.gif","img/card_backs/set2/orange.gif","""event"",""trial"",""time""
""fullscreenenter"",""1"",""3570""
","
","
","""event"",""trial"",""time""
""fullscreenenter"",""1"",""3570""
","
","","null","","null","","fixation","2021-04-02 22:36:45.075","","","","","",""
"card-selection-trial","161","463726","0.0-25.0-1.45","A206","true","img/card_backs/set1/red.gif","img/card_backs/set1/green.gif","img/card_backs/set1/yellow.gif","img/card_backs/set1/purple.gif","img/card_backs/set2/gray.gif","img/card_backs/set2/blue.gif","img/card_backs/set2/pink.gif","img/card_backs/set2/orange.gif","""event"",""trial"",""time""
""fullscreenenter"",""1"",""3570""
","
","
","""event"",""trial"",""time""
""fullscreenenter"",""1"",""3570""
","
","","497.65999987721443","","","","real_trial","2021-04-02 22:36:47.615","img/card_backs/set1/green.gif","0","-190","1","",""
"casino-fixation","162","464235","0.0-25.0-0.46","A206","true","img/card_backs/set1/red.gif","img/card_backs/set1/green.gif","img/card_backs/set1/yellow.gif","img/card_backs/set1/purple.gif","img/card_backs/set2/gray.gif","img/card_backs/set2/blue.gif","img/card_backs/set2/pink.gif","img/card_backs/set2/orange.gif","""event"",""trial"",""time""
""fullscreenenter"",""1"",""3570""
","
","
","""event"",""trial"",""time""
""fullscreenenter"",""1"",""3570""
","
","","null","","null","","fixation","2021-04-02 22:36:48.125","","","","","",""
"card-selection-trial","163","466688","0.0-25.0-1.46","A206","true","img/card_backs/set1/red.gif","img/card_backs/set1/green.gif","img/card_backs/set1/yellow.gif","img/card_backs/set1/purple.gif","img/card_backs/set2/gray.gif","img/card_backs/set2/blue.gif","img/card_backs/set2/pink.gif","img/card_backs/set2/orange.gif","""event"",""trial"",""time""
""fullscreenenter"",""1"",""3570""
","
","
","""event"",""trial"",""time""
""fullscreenenter"",""1"",""3570""
","
","","412.12500003166497","","","","real_trial","2021-04-02 22:36:50.577","img/card_backs/set1/green.gif","3","-200","1","",""
"casino-fixation","164","467197","0.0-25.0-0.47","A206","true","img/card_backs/set1/red.gif","img/card_backs/set1/green.gif","img/card_backs/set1/yellow.gif","img/card_backs/set1/purple.gif","img/card_backs/set2/gray.gif","img/card_backs/set2/blue.gif","img/card_backs/set2/pink.gif","img/card_backs/set2/orange.gif","""event"",""trial"",""time""
""fullscreenenter"",""1"",""3570""
","
","
","""event"",""trial"",""time""
""fullscreenenter"",""1"",""3570""
","
","","null","","null","","fixation","2021-04-02 22:36:51.086","","","","","",""
"card-selection-trial","165","469748","0.0-25.0-1.47","A206","true","img/card_backs/set1/red.gif","img/card_backs/set1/green.gif","img/card_backs/set1/yellow.gif","img/card_backs/set1/purple.gif","img/card_backs/set2/gray.gif","img/card_backs/set2/blue.gif","img/card_backs/set2/pink.gif","img/card_backs/set2/orange.gif","""event"",""trial"",""time""
""fullscreenenter"",""1"",""3570""
","
","
","""event"",""trial"",""time""
""fullscreenenter"",""1"",""3570""
","
","","504.35999990440905","","","","real_trial","2021-04-02 22:36:53.637","img/card_backs/set1/green.gif","2","-200","1","",""
"casino-fixation","166","470259","0.0-25.0-0.48","A206","true","img/card_backs/set1/red.gif","img/card_backs/set1/green.gif","img/card_backs/set1/yellow.gif","img/card_backs/set1/purple.gif","img/card_backs/set2/gray.gif","img/card_backs/set2/blue.gif","img/card_backs/set2/pink.gif","img/card_backs/set2/orange.gif","""event"",""trial"",""time""
""fullscreenenter"",""1"",""3570""
","
","
","""event"",""trial"",""time""
""fullscreenenter"",""1"",""3570""
","
","","null","","null","","fixation","2021-04-02 22:36:54.148","","","","","",""
