"trial_type","trial_index","time_elapsed","internal_node_id","sub_id","risk_good_first","block1_A","block1_B","block1_C","block1_D","block2_A","block2_B","block2_C","block2_D","interactions","blur_events","focus_events","fullscreenenter_events","fullscreenexit_events","success","rt","stimulus","key_press","button_pressed","task_part","timestamp","card_choice","choice_position","points_earned","block","correct","response"
"pavlovia","0","4","0.0-0.0","245","true","img/card_backs/set1/green.gif","img/card_backs/set1/yellow.gif","img/card_backs/set1/red.gif","img/card_backs/set1/purple.gif","img/card_backs/set2/blue.gif","img/card_backs/set2/gray.gif","img/card_backs/set2/pink.gif","img/card_backs/set2/orange.gif","""event"",""trial"",""time""
""fullscreenenter"",""1"",""4348""
","
","
","""event"",""trial"",""time""
""fullscreenenter"",""1"",""4348""
","
","","","","","","","","","","","","",""
"fullscreen","1","5325","0.0-1.0","245","true","img/card_backs/set1/green.gif","img/card_backs/set1/yellow.gif","img/card_backs/set1/red.gif","img/card_backs/set1/purple.gif","img/card_backs/set2/blue.gif","img/card_backs/set2/gray.gif","img/card_backs/set2/pink.gif","img/card_backs/set2/orange.gif","""event"",""trial"",""time""
""fullscreenenter"",""1"",""4348""
","
","
","""event"",""trial"",""time""
""fullscreenenter"",""1"",""4348""
","
","true","","","","","","","","","","","",""
"audio-keyboard-response","2","7555","0.0-2.0","245","true","img/card_backs/set1/green.gif","img/card_backs/set1/yellow.gif","img/card_backs/set1/red.gif","img/card_backs/set1/purple.gif","img/card_backs/set2/blue.gif","img/card_backs/set2/gray.gif","img/card_backs/set2/pink.gif","img/card_backs/set2/orange.gif","""event"",""trial"",""time""
""fullscreenenter"",""1"",""4348""
","
","
","""event"",""trial"",""time""
""fullscreenenter"",""1"",""4348""
","
","","1541","audio/beep_loop.wav","32","","","","","","","","",""
"audio-button-response","3","13054","0.0-3.0","245","true","img/card_backs/set1/green.gif","img/card_backs/set1/yellow.gif","img/card_backs/set1/red.gif","img/card_backs/set1/purple.gif","img/card_backs/set2/blue.gif","img/card_backs/set2/gray.gif","img/card_backs/set2/pink.gif","img/card_backs/set2/orange.gif","""event"",""trial"",""time""
""fullscreenenter"",""1"",""4348""
","
","
","""event"",""trial"",""time""
""fullscreenenter"",""1"",""4348""
","
","","NaN","audio/turtle.mp3","","3","","","","","","","",""
"audio-button-response","4","15733","0.0-4.0","245","true","img/card_backs/set1/green.gif","img/card_backs/set1/yellow.gif","img/card_backs/set1/red.gif","img/card_backs/set1/purple.gif","img/card_backs/set2/blue.gif","img/card_backs/set2/gray.gif","img/card_backs/set2/pink.gif","img/card_backs/set2/orange.gif","""event"",""trial"",""time""
""fullscreenenter"",""1"",""4348""
","
","
","""event"",""trial"",""time""
""fullscreenenter"",""1"",""4348""
","
","","NaN","audio/shark.mp3","","2","","","","","","","",""
"fullscreen","5","20163","0.0-5.0","245","true","img/card_backs/set1/green.gif","img/card_backs/set1/yellow.gif","img/card_backs/set1/red.gif","img/card_backs/set1/purple.gif","img/card_backs/set2/blue.gif","img/card_backs/set2/gray.gif","img/card_backs/set2/pink.gif","img/card_backs/set2/orange.gif","""event"",""trial"",""time""
""fullscreenenter"",""1"",""4348""
","
","
","""event"",""trial"",""time""
""fullscreenenter"",""1"",""4348""
","
","true","","","","","","","","","","","",""
"casino-keyboard-response","6","23933","0.0-6.0-0.0","245","true","img/card_backs/set1/green.gif","img/card_backs/set1/yellow.gif","img/card_backs/set1/red.gif","img/card_backs/set1/purple.gif","img/card_backs/set2/blue.gif","img/card_backs/set2/gray.gif","img/card_backs/set2/pink.gif","img/card_backs/set2/orange.gif","""event"",""trial"",""time""
""fullscreenenter"",""1"",""4348""
","
","
","""event"",""trial"",""time""
""fullscreenenter"",""1"",""4348""
","
","","3765.1249999762513","Welcome to the casino!","71","","instructions","2021-04-02 16:49:27.458","","","","","",""
"casino-keyboard-response","7","39410","0.0-6.0-0.1","245","true","img/card_backs/set1/green.gif","img/card_backs/set1/yellow.gif","img/card_backs/set1/red.gif","img/card_backs/set1/purple.gif","img/card_backs/set2/blue.gif","img/card_backs/set2/gray.gif","img/card_backs/set2/pink.gif","img/card_backs/set2/orange.gif","""event"",""trial"",""time""
""fullscreenenter"",""1"",""4348""
","
","
","""event"",""trial"",""time""
""fullscreenenter"",""1"",""4348""
","
","","15472.069999959785","Today you will be playing a game to earn tokens. </br> At the end of the experiment, you will be paid a bonus based on how many tokens you win. ","69","","instructions","2021-04-02 16:49:42.935","","","","","",""
"casino-keyboard-response","8","48850","0.0-6.0-0.2","245","true","img/card_backs/set1/green.gif","img/card_backs/set1/yellow.gif","img/card_backs/set1/red.gif","img/card_backs/set1/purple.gif","img/card_backs/set2/blue.gif","img/card_backs/set2/gray.gif","img/card_backs/set2/pink.gif","img/card_backs/set2/orange.gif","""event"",""trial"",""time""
""fullscreenenter"",""1"",""4348""
","
","
","""event"",""trial"",""time""
""fullscreenenter"",""1"",""4348""
","
","","9436.570000019856","On every turn, you will be shown four different decks of cards. </br> You need to select a card from one of the four decks.  ","75","","instructions","2021-04-02 16:49:52.375","","","","","",""
"casino-keyboard-response","9","54069","0.0-6.0-0.3","245","true","img/card_backs/set1/green.gif","img/card_backs/set1/yellow.gif","img/card_backs/set1/red.gif","img/card_backs/set1/purple.gif","img/card_backs/set2/blue.gif","img/card_backs/set2/gray.gif","img/card_backs/set2/pink.gif","img/card_backs/set2/orange.gif","""event"",""trial"",""time""
""fullscreenenter"",""1"",""4348""
","
","
","""event"",""trial"",""time""
""fullscreenenter"",""1"",""4348""
","
","","5214.04499997152","On the next screen, you will see what the decks will look like. ","66","","instructions","2021-04-02 16:49:57.594","","","","","",""
"card-selection-trial","10","58106","0.0-7.0-0.0","245","true","img/card_backs/set1/green.gif","img/card_backs/set1/yellow.gif","img/card_backs/set1/red.gif","img/card_backs/set1/purple.gif","img/card_backs/set2/blue.gif","img/card_backs/set2/gray.gif","img/card_backs/set2/pink.gif","img/card_backs/set2/orange.gif","""event"",""trial"",""time""
""fullscreenenter"",""1"",""4348""
","
","
","""event"",""trial"",""time""
""fullscreenenter"",""1"",""4348""
","
","","null","","","","practice","2021-04-02 16:50:01.632","null","null","null","0","",""
"casino-keyboard-response","11","66791","0.0-8.0-0.0","245","true","img/card_backs/set1/green.gif","img/card_backs/set1/yellow.gif","img/card_backs/set1/red.gif","img/card_backs/set1/purple.gif","img/card_backs/set2/blue.gif","img/card_backs/set2/gray.gif","img/card_backs/set2/pink.gif","img/card_backs/set2/orange.gif","""event"",""trial"",""time""
""fullscreenenter"",""1"",""4348""
","
","
","""event"",""trial"",""time""
""fullscreenenter"",""1"",""4348""
","
","","8677.620000031311","You should pick a card from a deck using the '2', '4', '6', and '8' keys at the top of the keyboard.","85","","instructions","2021-04-02 16:50:10.316","","","","","",""
"casino-keyboard-response","12","73269","0.0-8.0-0.1","245","true","img/card_backs/set1/green.gif","img/card_backs/set1/yellow.gif","img/card_backs/set1/red.gif","img/card_backs/set1/purple.gif","img/card_backs/set2/blue.gif","img/card_backs/set2/gray.gif","img/card_backs/set2/pink.gif","img/card_backs/set2/orange.gif","""event"",""trial"",""time""
""fullscreenenter"",""1"",""4348""
","
","
","""event"",""trial"",""time""
""fullscreenenter"",""1"",""4348""
","
","","6473.669999977574","Once you select a card, it will turn over and you will see how many tokens you earned.","83","","instructions","2021-04-02 16:50:16.794","","","","","",""
"casino-keyboard-response","13","87850","0.0-8.0-0.2","245","true","img/card_backs/set1/green.gif","img/card_backs/set1/yellow.gif","img/card_backs/set1/red.gif","img/card_backs/set1/purple.gif","img/card_backs/set2/blue.gif","img/card_backs/set2/gray.gif","img/card_backs/set2/pink.gif","img/card_backs/set2/orange.gif","""event"",""trial"",""time""
""fullscreenenter"",""1"",""4348""
","
","
","""event"",""trial"",""time""
""fullscreenenter"",""1"",""4348""
","
","","14577.255000011064","Let's try practicing that! </br> First, try to put your fingers over the '2', '4', '6', and '8' keys. </br>  You can use whatever fingers are most comfortable for you. Try to find a comfortable position now. ","50","","instructions","2021-04-02 16:50:31.375","","","","","",""
"casino-keyboard-response","14","93989","0.0-8.0-0.3","245","true","img/card_backs/set1/green.gif","img/card_backs/set1/yellow.gif","img/card_backs/set1/red.gif","img/card_backs/set1/purple.gif","img/card_backs/set2/blue.gif","img/card_backs/set2/gray.gif","img/card_backs/set2/pink.gif","img/card_backs/set2/orange.gif","""event"",""trial"",""time""
""fullscreenenter"",""1"",""4348""
","
","
","""event"",""trial"",""time""
""fullscreenenter"",""1"",""4348""
","
","","6134.329999971669","Okay ready? </br> On the next screen, press '2' to select the left deck. ","50","","instructions","2021-04-02 16:50:37.515","","","","","",""
"card-selection-trial","15","96772","0.0-9.0-0.0","245","true","img/card_backs/set1/green.gif","img/card_backs/set1/yellow.gif","img/card_backs/set1/red.gif","img/card_backs/set1/purple.gif","img/card_backs/set2/blue.gif","img/card_backs/set2/gray.gif","img/card_backs/set2/pink.gif","img/card_backs/set2/orange.gif","""event"",""trial"",""time""
""fullscreenenter"",""1"",""4348""
","
","
","""event"",""trial"",""time""
""fullscreenenter"",""1"",""4348""
","
","","756.699999968987","","","","practice_card_selection","2021-04-02 16:50:40.298","img/practice_cards/backs/black.gif","0","100","","",""
"casino-keyboard-response","16","102890","0.0-10.0-0.0","245","true","img/card_backs/set1/green.gif","img/card_backs/set1/yellow.gif","img/card_backs/set1/red.gif","img/card_backs/set1/purple.gif","img/card_backs/set2/blue.gif","img/card_backs/set2/gray.gif","img/card_backs/set2/pink.gif","img/card_backs/set2/orange.gif","""event"",""trial"",""time""
""fullscreenenter"",""1"",""4348""
","
","
","""event"",""trial"",""time""
""fullscreenenter"",""1"",""4348""
","
","","6114.0200000372715","Great! Now on the next screen, try pressing '6' to select the third deck.","54","","instructions","2021-04-02 16:50:46.415","","","","","",""
"card-selection-trial","17","105514","0.0-11.0-0.0","245","true","img/card_backs/set1/green.gif","img/card_backs/set1/yellow.gif","img/card_backs/set1/red.gif","img/card_backs/set1/purple.gif","img/card_backs/set2/blue.gif","img/card_backs/set2/gray.gif","img/card_backs/set2/pink.gif","img/card_backs/set2/orange.gif","""event"",""trial"",""time""
""fullscreenenter"",""1"",""4348""
","
","
","""event"",""trial"",""time""
""fullscreenenter"",""1"",""4348""
","
","","602.9700000071898","","","","practice_card_selection","2021-04-02 16:50:49.039","img/practice_cards/backs/dark_green.gif","2","200","","",""
"casino-keyboard-response","18","109809","0.0-12.0-0.0","245","true","img/card_backs/set1/green.gif","img/card_backs/set1/yellow.gif","img/card_backs/set1/red.gif","img/card_backs/set1/purple.gif","img/card_backs/set2/blue.gif","img/card_backs/set2/gray.gif","img/card_backs/set2/pink.gif","img/card_backs/set2/orange.gif","""event"",""trial"",""time""
""fullscreenenter"",""1"",""4348""
","
","
","""event"",""trial"",""time""
""fullscreenenter"",""1"",""4348""
","
","","4292.26000001654","Now on the next screen, try pressing '4' to select the second deck.","52","","instructions","2021-04-02 16:50:53.334","","","","","",""
"card-selection-trial","19","112453","0.0-13.0-0.0","245","true","img/card_backs/set1/green.gif","img/card_backs/set1/yellow.gif","img/card_backs/set1/red.gif","img/card_backs/set1/purple.gif","img/card_backs/set2/blue.gif","img/card_backs/set2/gray.gif","img/card_backs/set2/pink.gif","img/card_backs/set2/orange.gif","""event"",""trial"",""time""
""fullscreenenter"",""1"",""4348""
","
","
","""event"",""trial"",""time""
""fullscreenenter"",""1"",""4348""
","
","","616.0300000337884","","","","practice_card_selection","2021-04-02 16:50:55.978","img/practice_cards/backs/dark_green.gif","1","-200","","",""
"casino-keyboard-response","20","113598","0.0-14.0-0.0","245","true","img/card_backs/set1/green.gif","img/card_backs/set1/yellow.gif","img/card_backs/set1/red.gif","img/card_backs/set1/purple.gif","img/card_backs/set2/blue.gif","img/card_backs/set2/gray.gif","img/card_backs/set2/pink.gif","img/card_backs/set2/orange.gif","""event"",""trial"",""time""
""fullscreenenter"",""1"",""4348""
","
","
","""event"",""trial"",""time""
""fullscreenenter"",""1"",""4348""
","
","","1143.9050000044517","Finally, try pressing '8' to select the deck all the way on the right.","56","","instructions","2021-04-02 16:50:57.123","","","","","",""
"card-selection-trial","21","116443","0.0-15.0-0.0","245","true","img/card_backs/set1/green.gif","img/card_backs/set1/yellow.gif","img/card_backs/set1/red.gif","img/card_backs/set1/purple.gif","img/card_backs/set2/blue.gif","img/card_backs/set2/gray.gif","img/card_backs/set2/pink.gif","img/card_backs/set2/orange.gif","""event"",""trial"",""time""
""fullscreenenter"",""1"",""4348""
","
","
","""event"",""trial"",""time""
""fullscreenenter"",""1"",""4348""
","
","","835.5149999842979","","","","practice_card_selection","2021-04-02 16:50:59.968","img/practice_cards/backs/dark_green.gif","3","200","","",""
"casino-keyboard-response","22","122109","0.0-16.0-0.0","245","true","img/card_backs/set1/green.gif","img/card_backs/set1/yellow.gif","img/card_backs/set1/red.gif","img/card_backs/set1/purple.gif","img/card_backs/set2/blue.gif","img/card_backs/set2/gray.gif","img/card_backs/set2/pink.gif","img/card_backs/set2/orange.gif","""event"",""trial"",""time""
""fullscreenenter"",""1"",""4348""
","
","
","""event"",""trial"",""time""
""fullscreenenter"",""1"",""4348""
","
","","5664.074999978766","Great! It seems like you are getting the hang of this.","80","","instructions","2021-04-02 16:51:05.634","","","","","",""
"casino-keyboard-response","23","130490","0.0-16.0-0.1","245","true","img/card_backs/set1/green.gif","img/card_backs/set1/yellow.gif","img/card_backs/set1/red.gif","img/card_backs/set1/purple.gif","img/card_backs/set2/blue.gif","img/card_backs/set2/gray.gif","img/card_backs/set2/pink.gif","img/card_backs/set2/orange.gif","""event"",""trial"",""time""
""fullscreenenter"",""1"",""4348""
","
","
","""event"",""trial"",""time""
""fullscreenenter"",""1"",""4348""
","
","","8376.959999965038","You may have noticed that some cards will cause you to <b> win </b> tokens while other cards will cause you to <b> lose </b>  tokens.","70","","instructions","2021-04-02 16:51:14.015","","","","","",""
"casino-keyboard-response","24","139609","0.0-16.0-0.2","245","true","img/card_backs/set1/green.gif","img/card_backs/set1/yellow.gif","img/card_backs/set1/red.gif","img/card_backs/set1/purple.gif","img/card_backs/set2/blue.gif","img/card_backs/set2/gray.gif","img/card_backs/set2/pink.gif","img/card_backs/set2/orange.gif","""event"",""trial"",""time""
""fullscreenenter"",""1"",""4348""
","
","
","""event"",""trial"",""time""
""fullscreenenter"",""1"",""4348""
","
","","9114.650000003166","Each deck has a mix of cards that will cause you to win and lose tokens. </br> However, the cards in each colored deck are different.","73","","instructions","2021-04-02 16:51:23.134","","","","","",""
"casino-keyboard-response","25","148200","0.0-16.0-0.3","245","true","img/card_backs/set1/green.gif","img/card_backs/set1/yellow.gif","img/card_backs/set1/red.gif","img/card_backs/set1/purple.gif","img/card_backs/set2/blue.gif","img/card_backs/set2/gray.gif","img/card_backs/set2/pink.gif","img/card_backs/set2/orange.gif","""event"",""trial"",""time""
""fullscreenenter"",""1"",""4348""
","
","
","""event"",""trial"",""time""
""fullscreenenter"",""1"",""4348""
","
","","8586.089999997057","Some colored decks are luckier than others. </br> If you choose the lucky decks, you will earn more tokens than if you choose the unlucky decks.","69","","instructions","2021-04-02 16:51:31.725","","","","","",""
"casino-keyboard-response","26","158299","0.0-16.0-0.4","245","true","img/card_backs/set1/green.gif","img/card_backs/set1/yellow.gif","img/card_backs/set1/red.gif","img/card_backs/set1/purple.gif","img/card_backs/set2/blue.gif","img/card_backs/set2/gray.gif","img/card_backs/set2/pink.gif","img/card_backs/set2/orange.gif","""event"",""trial"",""time""
""fullscreenenter"",""1"",""4348""
","
","
","""event"",""trial"",""time""
""fullscreenenter"",""1"",""4348""
","
","","10094.3650000263","You should try to figure out which decks are lucky. </br> Then, try to choose the lucky decks so you can win the most tokens.","87","","instructions","2021-04-02 16:51:41.824","","","","","",""
"casino-keyboard-response","27","172999","0.0-16.0-0.5","245","true","img/card_backs/set1/green.gif","img/card_backs/set1/yellow.gif","img/card_backs/set1/red.gif","img/card_backs/set1/purple.gif","img/card_backs/set2/blue.gif","img/card_backs/set2/gray.gif","img/card_backs/set2/pink.gif","img/card_backs/set2/orange.gif","""event"",""trial"",""time""
""fullscreenenter"",""1"",""4348""
","
","
","""event"",""trial"",""time""
""fullscreenenter"",""1"",""4348""
","
","","14697.265000024345","To make it trickier, the casino dealer will switch the locations of the decks on every turn. </br> The color of the deck determines how lucky it is. The location does not matter.","88","","instructions","2021-04-02 16:51:56.525","","","","","",""
"casino-keyboard-response","28","182977","0.0-16.0-0.6","245","true","img/card_backs/set1/green.gif","img/card_backs/set1/yellow.gif","img/card_backs/set1/red.gif","img/card_backs/set1/purple.gif","img/card_backs/set2/blue.gif","img/card_backs/set2/gray.gif","img/card_backs/set2/pink.gif","img/card_backs/set2/orange.gif","""event"",""trial"",""time""
""fullscreenenter"",""1"",""4348""
","
","
","""event"",""trial"",""time""
""fullscreenenter"",""1"",""4348""
","
","","9972.98000002047","The mix of cards in each colored deck will stay the same throughout the game. </br> That means that a deck that is lucky early on will stay lucky.","79","","instructions","2021-04-02 16:52:06.502","","","","","",""
"casino-keyboard-response","29","191957","0.0-16.0-0.7","245","true","img/card_backs/set1/green.gif","img/card_backs/set1/yellow.gif","img/card_backs/set1/red.gif","img/card_backs/set1/purple.gif","img/card_backs/set2/blue.gif","img/card_backs/set2/gray.gif","img/card_backs/set2/pink.gif","img/card_backs/set2/orange.gif","""event"",""trial"",""time""
""fullscreenenter"",""1"",""4348""
","
","
","""event"",""trial"",""time""
""fullscreenenter"",""1"",""4348""
","
","","8978.6600000225","Remember though, all the decks have a <b> mix </b> of both <b> good </b> and <b> bad </b> cards so it may take a couple of turns to figure out if a deck is lucky.","69","","instructions","2021-04-02 16:52:15.482","","","","","",""
"casino-keyboard-response","30","200958","0.0-16.0-0.8","245","true","img/card_backs/set1/green.gif","img/card_backs/set1/yellow.gif","img/card_backs/set1/red.gif","img/card_backs/set1/purple.gif","img/card_backs/set2/blue.gif","img/card_backs/set2/gray.gif","img/card_backs/set2/pink.gif","img/card_backs/set2/orange.gif","""event"",""trial"",""time""
""fullscreenenter"",""1"",""4348""
","
","
","""event"",""trial"",""time""
""fullscreenenter"",""1"",""4348""
","
","","8999.469999980647","At the end of the game, you will be paid bonus money based on how many tokens you win. </br> If you win more tokens, you will earn more money!","72","","instructions","2021-04-02 16:52:24.484","","","","","",""
"casino-keyboard-response","31","211938","0.0-16.0-0.9","245","true","img/card_backs/set1/green.gif","img/card_backs/set1/yellow.gif","img/card_backs/set1/red.gif","img/card_backs/set1/purple.gif","img/card_backs/set2/blue.gif","img/card_backs/set2/gray.gif","img/card_backs/set2/pink.gif","img/card_backs/set2/orange.gif","""event"",""trial"",""time""
""fullscreenenter"",""1"",""4348""
","
","
","""event"",""trial"",""time""
""fullscreenenter"",""1"",""4348""
","
","","10976.955000020098","You will never <b> lose </b> money. </br> If you end up with fewer than 0 tokens, you will earn $0 of bonus money, but you will still be paid for playing the game.","83","","instructions","2021-04-02 16:52:35.463","","","","","",""
"casino-keyboard-response","32","216386","0.0-16.0-0.10","245","true","img/card_backs/set1/green.gif","img/card_backs/set1/yellow.gif","img/card_backs/set1/red.gif","img/card_backs/set1/purple.gif","img/card_backs/set2/blue.gif","img/card_backs/set2/gray.gif","img/card_backs/set2/pink.gif","img/card_backs/set2/orange.gif","""event"",""trial"",""time""
""fullscreenenter"",""1"",""4348""
","
","
","""event"",""trial"",""time""
""fullscreenenter"",""1"",""4348""
","
","","4443.18000000203","You will have 10 seconds to make each choice.","82","","instructions","2021-04-02 16:52:39.911","","","","","",""
"casino-keyboard-response","33","225817","0.0-16.0-0.11","245","true","img/card_backs/set1/green.gif","img/card_backs/set1/yellow.gif","img/card_backs/set1/red.gif","img/card_backs/set1/purple.gif","img/card_backs/set2/blue.gif","img/card_backs/set2/gray.gif","img/card_backs/set2/pink.gif","img/card_backs/set2/orange.gif","""event"",""trial"",""time""
""fullscreenenter"",""1"",""4348""
","
","
","""event"",""trial"",""time""
""fullscreenenter"",""1"",""4348""
","
","","9429.319999995641","Before you play the game for real, you will play with practice decks. </br> The tokens you earn during practice won't count toward your total.","86","","instructions","2021-04-02 16:52:49.343","","","","","",""
"casino-keyboard-response","34","230165","0.0-16.0-0.12","245","true","img/card_backs/set1/green.gif","img/card_backs/set1/yellow.gif","img/card_backs/set1/red.gif","img/card_backs/set1/purple.gif","img/card_backs/set2/blue.gif","img/card_backs/set2/gray.gif","img/card_backs/set2/pink.gif","img/card_backs/set2/orange.gif","""event"",""trial"",""time""
""fullscreenenter"",""1"",""4348""
","
","
","""event"",""trial"",""time""
""fullscreenenter"",""1"",""4348""
","
","","4345.690000045579","Ready? Remember, use the '2', '4', '6', and '8' keys to select the decks. </br> Put your fingers on those keys now and then press '2' to begin.","50","","instructions","2021-04-02 16:52:53.690","","","","","",""
"casino-fixation","35","230671","0.0-17.0-0.0","245","true","img/card_backs/set1/green.gif","img/card_backs/set1/yellow.gif","img/card_backs/set1/red.gif","img/card_backs/set1/purple.gif","img/card_backs/set2/blue.gif","img/card_backs/set2/gray.gif","img/card_backs/set2/pink.gif","img/card_backs/set2/orange.gif","""event"",""trial"",""time""
""fullscreenenter"",""1"",""4348""
","
","
","""event"",""trial"",""time""
""fullscreenenter"",""1"",""4348""
","
","","null","","null","","fixation","2021-04-02 16:52:54.197","","","","","",""
"card-selection-trial","36","234420","0.0-17.0-1.0","245","true","img/card_backs/set1/green.gif","img/card_backs/set1/yellow.gif","img/card_backs/set1/red.gif","img/card_backs/set1/purple.gif","img/card_backs/set2/blue.gif","img/card_backs/set2/gray.gif","img/card_backs/set2/pink.gif","img/card_backs/set2/orange.gif","""event"",""trial"",""time""
""fullscreenenter"",""1"",""4348""
","
","
","""event"",""trial"",""time""
""fullscreenenter"",""1"",""4348""
","
","","1731.3800000119954","","","","practice","2021-04-02 16:52:57.945","img/practice_cards/backs/dark_blue.gif","1","-200","0","",""
"casino-fixation","37","234940","0.0-17.0-0.1","245","true","img/card_backs/set1/green.gif","img/card_backs/set1/yellow.gif","img/card_backs/set1/red.gif","img/card_backs/set1/purple.gif","img/card_backs/set2/blue.gif","img/card_backs/set2/gray.gif","img/card_backs/set2/pink.gif","img/card_backs/set2/orange.gif","""event"",""trial"",""time""
""fullscreenenter"",""1"",""4348""
","
","
","""event"",""trial"",""time""
""fullscreenenter"",""1"",""4348""
","
","","null","","null","","fixation","2021-04-02 16:52:58.466","","","","","",""
"card-selection-trial","38","238279","0.0-17.0-1.1","245","true","img/card_backs/set1/green.gif","img/card_backs/set1/yellow.gif","img/card_backs/set1/red.gif","img/card_backs/set1/purple.gif","img/card_backs/set2/blue.gif","img/card_backs/set2/gray.gif","img/card_backs/set2/pink.gif","img/card_backs/set2/orange.gif","""event"",""trial"",""time""
""fullscreenenter"",""1"",""4348""
","
","
","""event"",""trial"",""time""
""fullscreenenter"",""1"",""4348""
","
","","1323.6000000033528","","","","practice","2021-04-02 16:53:01.804","img/practice_cards/backs/black.gif","2","-100","0","",""
"casino-fixation","39","238783","0.0-17.0-0.2","245","true","img/card_backs/set1/green.gif","img/card_backs/set1/yellow.gif","img/card_backs/set1/red.gif","img/card_backs/set1/purple.gif","img/card_backs/set2/blue.gif","img/card_backs/set2/gray.gif","img/card_backs/set2/pink.gif","img/card_backs/set2/orange.gif","""event"",""trial"",""time""
""fullscreenenter"",""1"",""4348""
","
","
","""event"",""trial"",""time""
""fullscreenenter"",""1"",""4348""
","
","","null","","null","","fixation","2021-04-02 16:53:02.308","","","","","",""
"card-selection-trial","40","241140","0.0-17.0-1.2","245","true","img/card_backs/set1/green.gif","img/card_backs/set1/yellow.gif","img/card_backs/set1/red.gif","img/card_backs/set1/purple.gif","img/card_backs/set2/blue.gif","img/card_backs/set2/gray.gif","img/card_backs/set2/pink.gif","img/card_backs/set2/orange.gif","""event"",""trial"",""time""
""fullscreenenter"",""1"",""4348""
","
","
","""event"",""trial"",""time""
""fullscreenenter"",""1"",""4348""
","
","","338.33500003675","","","","practice","2021-04-02 16:53:04.665","img/practice_cards/backs/dark_green.gif","3","-200","0","",""
"casino-fixation","41","241665","0.0-17.0-0.3","245","true","img/card_backs/set1/green.gif","img/card_backs/set1/yellow.gif","img/card_backs/set1/red.gif","img/card_backs/set1/purple.gif","img/card_backs/set2/blue.gif","img/card_backs/set2/gray.gif","img/card_backs/set2/pink.gif","img/card_backs/set2/orange.gif","""event"",""trial"",""time""
""fullscreenenter"",""1"",""4348""
","
","
","""event"",""trial"",""time""
""fullscreenenter"",""1"",""4348""
","
","","null","","null","","fixation","2021-04-02 16:53:05.190","","","","","",""
"card-selection-trial","42","244791","0.0-17.0-1.3","245","true","img/card_backs/set1/green.gif","img/card_backs/set1/yellow.gif","img/card_backs/set1/red.gif","img/card_backs/set1/purple.gif","img/card_backs/set2/blue.gif","img/card_backs/set2/gray.gif","img/card_backs/set2/pink.gif","img/card_backs/set2/orange.gif","""event"",""trial"",""time""
""fullscreenenter"",""1"",""4348""
","
","
","""event"",""trial"",""time""
""fullscreenenter"",""1"",""4348""
","
","","1101.5799999586307","","","","practice","2021-04-02 16:53:08.317","img/practice_cards/backs/dark_blue.gif","1","200","0","",""
"casino-fixation","43","245309","0.0-17.0-0.4","245","true","img/card_backs/set1/green.gif","img/card_backs/set1/yellow.gif","img/card_backs/set1/red.gif","img/card_backs/set1/purple.gif","img/card_backs/set2/blue.gif","img/card_backs/set2/gray.gif","img/card_backs/set2/pink.gif","img/card_backs/set2/orange.gif","""event"",""trial"",""time""
""fullscreenenter"",""1"",""4348""
","
","
","""event"",""trial"",""time""
""fullscreenenter"",""1"",""4348""
","
","","null","","null","","fixation","2021-04-02 16:53:08.834","","","","","",""
"card-selection-trial","44","248222","0.0-17.0-1.4","245","true","img/card_backs/set1/green.gif","img/card_backs/set1/yellow.gif","img/card_backs/set1/red.gif","img/card_backs/set1/purple.gif","img/card_backs/set2/blue.gif","img/card_backs/set2/gray.gif","img/card_backs/set2/pink.gif","img/card_backs/set2/orange.gif","""event"",""trial"",""time""
""fullscreenenter"",""1"",""4348""
","
","
","""event"",""trial"",""time""
""fullscreenenter"",""1"",""4348""
","
","","891.9349999632686","","","","practice","2021-04-02 16:53:11.747","img/practice_cards/backs/dark_blue.gif","1","-200","0","",""
"casino-fixation","45","248740","0.0-17.0-0.5","245","true","img/card_backs/set1/green.gif","img/card_backs/set1/yellow.gif","img/card_backs/set1/red.gif","img/card_backs/set1/purple.gif","img/card_backs/set2/blue.gif","img/card_backs/set2/gray.gif","img/card_backs/set2/pink.gif","img/card_backs/set2/orange.gif","""event"",""trial"",""time""
""fullscreenenter"",""1"",""4348""
","
","
","""event"",""trial"",""time""
""fullscreenenter"",""1"",""4348""
","
","","null","","null","","fixation","2021-04-02 16:53:12.266","","","","","",""
"card-selection-trial","46","251690","0.0-17.0-1.5","245","true","img/card_backs/set1/green.gif","img/card_backs/set1/yellow.gif","img/card_backs/set1/red.gif","img/card_backs/set1/purple.gif","img/card_backs/set2/blue.gif","img/card_backs/set2/gray.gif","img/card_backs/set2/pink.gif","img/card_backs/set2/orange.gif","""event"",""trial"",""time""
""fullscreenenter"",""1"",""4348""
","
","
","""event"",""trial"",""time""
""fullscreenenter"",""1"",""4348""
","
","","915.854999970179","","","","practice","2021-04-02 16:53:15.215","img/practice_cards/backs/dark_blue.gif","0","200","0","",""
"casino-fixation","47","252209","0.0-17.0-0.6","245","true","img/card_backs/set1/green.gif","img/card_backs/set1/yellow.gif","img/card_backs/set1/red.gif","img/card_backs/set1/purple.gif","img/card_backs/set2/blue.gif","img/card_backs/set2/gray.gif","img/card_backs/set2/pink.gif","img/card_backs/set2/orange.gif","""event"",""trial"",""time""
""fullscreenenter"",""1"",""4348""
","
","
","""event"",""trial"",""time""
""fullscreenenter"",""1"",""4348""
","
","","null","","null","","fixation","2021-04-02 16:53:15.735","","","","","",""
"card-selection-trial","48","255721","0.0-17.0-1.6","245","true","img/card_backs/set1/green.gif","img/card_backs/set1/yellow.gif","img/card_backs/set1/red.gif","img/card_backs/set1/purple.gif","img/card_backs/set2/blue.gif","img/card_backs/set2/gray.gif","img/card_backs/set2/pink.gif","img/card_backs/set2/orange.gif","""event"",""trial"",""time""
""fullscreenenter"",""1"",""4348""
","
","
","""event"",""trial"",""time""
""fullscreenenter"",""1"",""4348""
","
","","1491.5200000395998","","","","practice","2021-04-02 16:53:19.247","img/practice_cards/backs/dark_blue.gif","1","200","0","",""
"casino-fixation","49","256240","0.0-17.0-0.7","245","true","img/card_backs/set1/green.gif","img/card_backs/set1/yellow.gif","img/card_backs/set1/red.gif","img/card_backs/set1/purple.gif","img/card_backs/set2/blue.gif","img/card_backs/set2/gray.gif","img/card_backs/set2/pink.gif","img/card_backs/set2/orange.gif","""event"",""trial"",""time""
""fullscreenenter"",""1"",""4348""
","
","
","""event"",""trial"",""time""
""fullscreenenter"",""1"",""4348""
","
","","null","","null","","fixation","2021-04-02 16:53:19.766","","","","","",""
"card-selection-trial","50","259051","0.0-17.0-1.7","245","true","img/card_backs/set1/green.gif","img/card_backs/set1/yellow.gif","img/card_backs/set1/red.gif","img/card_backs/set1/purple.gif","img/card_backs/set2/blue.gif","img/card_backs/set2/gray.gif","img/card_backs/set2/pink.gif","img/card_backs/set2/orange.gif","""event"",""trial"",""time""
""fullscreenenter"",""1"",""4348""
","
","
","""event"",""trial"",""time""
""fullscreenenter"",""1"",""4348""
","
","","794.2700000130571","","","","practice","2021-04-02 16:53:22.576","img/practice_cards/backs/dark_blue.gif","1","-200","0","",""
"casino-fixation","51","259569","0.0-17.0-0.8","245","true","img/card_backs/set1/green.gif","img/card_backs/set1/yellow.gif","img/card_backs/set1/red.gif","img/card_backs/set1/purple.gif","img/card_backs/set2/blue.gif","img/card_backs/set2/gray.gif","img/card_backs/set2/pink.gif","img/card_backs/set2/orange.gif","""event"",""trial"",""time""
""fullscreenenter"",""1"",""4348""
","
","
","""event"",""trial"",""time""
""fullscreenenter"",""1"",""4348""
","
","","null","","null","","fixation","2021-04-02 16:53:23.095","","","","","",""
"card-selection-trial","52","263056","0.0-17.0-1.8","245","true","img/card_backs/set1/green.gif","img/card_backs/set1/yellow.gif","img/card_backs/set1/red.gif","img/card_backs/set1/purple.gif","img/card_backs/set2/blue.gif","img/card_backs/set2/gray.gif","img/card_backs/set2/pink.gif","img/card_backs/set2/orange.gif","""event"",""trial"",""time""
""fullscreenenter"",""1"",""4348""
","
","
","""event"",""trial"",""time""
""fullscreenenter"",""1"",""4348""
","
","","1479.460000002291","","","","practice","2021-04-02 16:53:26.582","img/practice_cards/backs/black.gif","2","100","0","",""
"casino-fixation","53","263562","0.0-17.0-0.9","245","true","img/card_backs/set1/green.gif","img/card_backs/set1/yellow.gif","img/card_backs/set1/red.gif","img/card_backs/set1/purple.gif","img/card_backs/set2/blue.gif","img/card_backs/set2/gray.gif","img/card_backs/set2/pink.gif","img/card_backs/set2/orange.gif","""event"",""trial"",""time""
""fullscreenenter"",""1"",""4348""
","
","
","""event"",""trial"",""time""
""fullscreenenter"",""1"",""4348""
","
","","null","","null","","fixation","2021-04-02 16:53:27.088","","","","","",""
"card-selection-trial","54","266858","0.0-17.0-1.9","245","true","img/card_backs/set1/green.gif","img/card_backs/set1/yellow.gif","img/card_backs/set1/red.gif","img/card_backs/set1/purple.gif","img/card_backs/set2/blue.gif","img/card_backs/set2/gray.gif","img/card_backs/set2/pink.gif","img/card_backs/set2/orange.gif","""event"",""trial"",""time""
""fullscreenenter"",""1"",""4348""
","
","
","""event"",""trial"",""time""
""fullscreenenter"",""1"",""4348""
","
","","1283.4799999836832","","","","practice","2021-04-02 16:53:30.383","img/practice_cards/backs/black.gif","0","100","0","",""
"casino-keyboard-response","55","272256","0.0-18.0","245","true","img/card_backs/set1/green.gif","img/card_backs/set1/yellow.gif","img/card_backs/set1/red.gif","img/card_backs/set1/purple.gif","img/card_backs/set2/blue.gif","img/card_backs/set2/gray.gif","img/card_backs/set2/pink.gif","img/card_backs/set2/orange.gif","""event"",""trial"",""time""
""fullscreenenter"",""1"",""4348""
","
","
","""event"",""trial"",""time""
""fullscreenenter"",""1"",""4348""
","
","","5393.195000011474","You earned -100 tokens during the practice round!","82","","","2021-04-02 16:53:35.781","","","","","",""
"casino-keyboard-response","56","276805","0.0-19.0-0.0","245","true","img/card_backs/set1/green.gif","img/card_backs/set1/yellow.gif","img/card_backs/set1/red.gif","img/card_backs/set1/purple.gif","img/card_backs/set2/blue.gif","img/card_backs/set2/gray.gif","img/card_backs/set2/pink.gif","img/card_backs/set2/orange.gif","""event"",""trial"",""time""
""fullscreenenter"",""1"",""4348""
","
","
","""event"",""trial"",""time""
""fullscreenenter"",""1"",""4348""
","
","","4544.265000033192","Nice job! You are almost ready to play the real game.","86","","instructions","2021-04-02 16:53:40.331","","","","","",""
"casino-keyboard-response","57","283806","0.0-19.0-0.1","245","true","img/card_backs/set1/green.gif","img/card_backs/set1/yellow.gif","img/card_backs/set1/red.gif","img/card_backs/set1/purple.gif","img/card_backs/set2/blue.gif","img/card_backs/set2/gray.gif","img/card_backs/set2/pink.gif","img/card_backs/set2/orange.gif","""event"",""trial"",""time""
""fullscreenenter"",""1"",""4348""
","
","
","""event"",""trial"",""time""
""fullscreenenter"",""1"",""4348""
","
","","6995.950000011362","You will play two rounds of the real game. In each round, you will pick 100 cards in total.","73","","instructions","2021-04-02 16:53:47.331","","","","","",""
"casino-keyboard-response","58","288655","0.0-19.0-0.2","245","true","img/card_backs/set1/green.gif","img/card_backs/set1/yellow.gif","img/card_backs/set1/red.gif","img/card_backs/set1/purple.gif","img/card_backs/set2/blue.gif","img/card_backs/set2/gray.gif","img/card_backs/set2/pink.gif","img/card_backs/set2/orange.gif","""event"",""trial"",""time""
""fullscreenenter"",""1"",""4348""
","
","
","""event"",""trial"",""time""
""fullscreenenter"",""1"",""4348""
","
","","4844.8849999695085","We are now going to ask you some questions about how the game works.","66","","instructions","2021-04-02 16:53:52.180","","","","","",""
"casino-keyboard-response","59","296118","0.0-19.0-0.3","245","true","img/card_backs/set1/green.gif","img/card_backs/set1/yellow.gif","img/card_backs/set1/red.gif","img/card_backs/set1/purple.gif","img/card_backs/set2/blue.gif","img/card_backs/set2/gray.gif","img/card_backs/set2/pink.gif","img/card_backs/set2/orange.gif","""event"",""trial"",""time""
""fullscreenenter"",""1"",""4348""
","
","
","""event"",""trial"",""time""
""fullscreenenter"",""1"",""4348""
","
","","7457.920000015292","Answer carefully. You will not be able to begin the game until you answer them correctly.","67","","instructions","2021-04-02 16:53:59.643","","","","","",""
"casino-comp_q","60","306297","0.0-20.0-0.0","245","true","img/card_backs/set1/green.gif","img/card_backs/set1/yellow.gif","img/card_backs/set1/red.gif","img/card_backs/set1/purple.gif","img/card_backs/set2/blue.gif","img/card_backs/set2/gray.gif","img/card_backs/set2/pink.gif","img/card_backs/set2/orange.gif","""event"",""trial"",""time""
""fullscreenenter"",""1"",""4348""
","
","
","""event"",""trial"",""time""
""fullscreenenter"",""1"",""4348""
","
","","10174.31500001112","True or False: All the decks have some cards that cause you to win tokens and some cards that cause you to lose tokens.","84","","","2021-04-02 16:54:09.822","","","","","",""
"casino-keyboard-response","61","312607","0.0-20.0-1.0","245","true","img/card_backs/set1/green.gif","img/card_backs/set1/yellow.gif","img/card_backs/set1/red.gif","img/card_backs/set1/purple.gif","img/card_backs/set2/blue.gif","img/card_backs/set2/gray.gif","img/card_backs/set2/pink.gif","img/card_backs/set2/orange.gif","""event"",""trial"",""time""
""fullscreenenter"",""1"",""4348""
","
","
","""event"",""trial"",""time""
""fullscreenenter"",""1"",""4348""
","
","","6307.525000011083","True is correct! All the decks have a mix of winning and losing cards.","77","","","2021-04-02 16:54:16.133","","","","","true",""
"casino-comp_q","62","316518","0.0-21.0-0.0","245","true","img/card_backs/set1/green.gif","img/card_backs/set1/yellow.gif","img/card_backs/set1/red.gif","img/card_backs/set1/purple.gif","img/card_backs/set2/blue.gif","img/card_backs/set2/gray.gif","img/card_backs/set2/pink.gif","img/card_backs/set2/orange.gif","""event"",""trial"",""time""
""fullscreenenter"",""1"",""4348""
","
","
","""event"",""trial"",""time""
""fullscreenenter"",""1"",""4348""
","
","","3905.1949999993667","True or False: You will have as much time as you want to make your response.","70","","","2021-04-02 16:54:20.043","","","","","",""
"casino-keyboard-response","63","322596","0.0-21.0-1.0","245","true","img/card_backs/set1/green.gif","img/card_backs/set1/yellow.gif","img/card_backs/set1/red.gif","img/card_backs/set1/purple.gif","img/card_backs/set2/blue.gif","img/card_backs/set2/gray.gif","img/card_backs/set2/pink.gif","img/card_backs/set2/orange.gif","""event"",""trial"",""time""
""fullscreenenter"",""1"",""4348""
","
","
","""event"",""trial"",""time""
""fullscreenenter"",""1"",""4348""
","
","","6076.110000023618","False is correct! You will only have 10 seconds to make each choice.","75","","","2021-04-02 16:54:26.121","","","","","true",""
"casino-comp_q","64","327698","0.0-22.0-0.0","245","true","img/card_backs/set1/green.gif","img/card_backs/set1/yellow.gif","img/card_backs/set1/red.gif","img/card_backs/set1/purple.gif","img/card_backs/set2/blue.gif","img/card_backs/set2/gray.gif","img/card_backs/set2/pink.gif","img/card_backs/set2/orange.gif","""event"",""trial"",""time""
""fullscreenenter"",""1"",""4348""
","
","
","""event"",""trial"",""time""
""fullscreenenter"",""1"",""4348""
","
","","5100.379999959841","True or False: The location of the deck determines how lucky it is.","70","","","2021-04-02 16:54:31.223","","","","","",""
"casino-keyboard-response","65","331816","0.0-22.0-1.0","245","true","img/card_backs/set1/green.gif","img/card_backs/set1/yellow.gif","img/card_backs/set1/red.gif","img/card_backs/set1/purple.gif","img/card_backs/set2/blue.gif","img/card_backs/set2/gray.gif","img/card_backs/set2/pink.gif","img/card_backs/set2/orange.gif","""event"",""trial"",""time""
""fullscreenenter"",""1"",""4348""
","
","
","""event"",""trial"",""time""
""fullscreenenter"",""1"",""4348""
","
","","4114.555000036489","False is correct! The <i>color</i>  of the deck determines how lucky or unlucky it is.","68","","","2021-04-02 16:54:35.342","","","","","true",""
"casino-keyboard-response","66","336435","0.0-23.0-0.0","245","true","img/card_backs/set1/green.gif","img/card_backs/set1/yellow.gif","img/card_backs/set1/red.gif","img/card_backs/set1/purple.gif","img/card_backs/set2/blue.gif","img/card_backs/set2/gray.gif","img/card_backs/set2/pink.gif","img/card_backs/set2/orange.gif","""event"",""trial"",""time""
""fullscreenenter"",""1"",""4348""
","
","
","""event"",""trial"",""time""
""fullscreenenter"",""1"",""4348""
","
","","4617.024999985006","Great job! Now it's time to start the real game.","82","","instructions","2021-04-02 16:54:39.960","","","","","",""
"casino-keyboard-response","67","342548","0.0-23.0-0.1","245","true","img/card_backs/set1/green.gif","img/card_backs/set1/yellow.gif","img/card_backs/set1/red.gif","img/card_backs/set1/purple.gif","img/card_backs/set2/blue.gif","img/card_backs/set2/gray.gif","img/card_backs/set2/pink.gif","img/card_backs/set2/orange.gif","""event"",""trial"",""time""
""fullscreenenter"",""1"",""4348""
","
","
","""event"",""trial"",""time""
""fullscreenenter"",""1"",""4348""
","
","","6111.005000013392","Before we start, we're going to head into a new room of the casino.","86","","instructions","2021-04-02 16:54:46.073","","","","","",""
"casino-keyboard-response","68","350657","0.0-24.0-0.0","245","true","img/card_backs/set1/green.gif","img/card_backs/set1/yellow.gif","img/card_backs/set1/red.gif","img/card_backs/set1/purple.gif","img/card_backs/set2/blue.gif","img/card_backs/set2/gray.gif","img/card_backs/set2/pink.gif","img/card_backs/set2/orange.gif","""event"",""trial"",""time""
""fullscreenenter"",""1"",""4348""
","
","
","""event"",""trial"",""time""
""fullscreenenter"",""1"",""4348""
","
","","8104.370000015479","Here we are! The real game will use different cards, but the rules will be the same.","71","","instructions","2021-04-02 16:54:54.182","","","","","",""
"casino-keyboard-response","69","353890","0.0-24.0-0.1","245","true","img/card_backs/set1/green.gif","img/card_backs/set1/yellow.gif","img/card_backs/set1/red.gif","img/card_backs/set1/purple.gif","img/card_backs/set2/blue.gif","img/card_backs/set2/gray.gif","img/card_backs/set2/pink.gif","img/card_backs/set2/orange.gif","""event"",""trial"",""time""
""fullscreenenter"",""1"",""4348""
","
","
","""event"",""trial"",""time""
""fullscreenenter"",""1"",""4348""
","
","","3233.5949999978766","Ready? Put your fingers over the '2', '4', 6', and '8' keys so you are ready to play the game. </br> Then press 2 to start.","50","","instructions","2021-04-02 16:54:57.415","","","","","",""
"casino-fixation","70","354404","0.0-25.0-0.0","245","true","img/card_backs/set1/green.gif","img/card_backs/set1/yellow.gif","img/card_backs/set1/red.gif","img/card_backs/set1/purple.gif","img/card_backs/set2/blue.gif","img/card_backs/set2/gray.gif","img/card_backs/set2/pink.gif","img/card_backs/set2/orange.gif","""event"",""trial"",""time""
""fullscreenenter"",""1"",""4348""
","
","
","""event"",""trial"",""time""
""fullscreenenter"",""1"",""4348""
","
","","null","","null","","fixation","2021-04-02 16:54:57.929","","","","","",""
"card-selection-trial","71","357806","0.0-25.0-1.0","245","true","img/card_backs/set1/green.gif","img/card_backs/set1/yellow.gif","img/card_backs/set1/red.gif","img/card_backs/set1/purple.gif","img/card_backs/set2/blue.gif","img/card_backs/set2/gray.gif","img/card_backs/set2/pink.gif","img/card_backs/set2/orange.gif","""event"",""trial"",""time""
""fullscreenenter"",""1"",""4348""
","
","
","""event"",""trial"",""time""
""fullscreenenter"",""1"",""4348""
","
","","1391.7399999918416","","","","real_trial","2021-04-02 16:55:01.331","img/card_backs/set1/yellow.gif","0","-200","1","",""
"casino-fixation","72","358324","0.0-25.0-0.1","245","true","img/card_backs/set1/green.gif","img/card_backs/set1/yellow.gif","img/card_backs/set1/red.gif","img/card_backs/set1/purple.gif","img/card_backs/set2/blue.gif","img/card_backs/set2/gray.gif","img/card_backs/set2/pink.gif","img/card_backs/set2/orange.gif","""event"",""trial"",""time""
""fullscreenenter"",""1"",""4348""
","
","
","""event"",""trial"",""time""
""fullscreenenter"",""1"",""4348""
","
","","null","","null","","fixation","2021-04-02 16:55:01.849","","","","","",""
"card-selection-trial","73","361736","0.0-25.0-1.1","245","true","img/card_backs/set1/green.gif","img/card_backs/set1/yellow.gif","img/card_backs/set1/red.gif","img/card_backs/set1/purple.gif","img/card_backs/set2/blue.gif","img/card_backs/set2/gray.gif","img/card_backs/set2/pink.gif","img/card_backs/set2/orange.gif","""event"",""trial"",""time""
""fullscreenenter"",""1"",""4348""
","
","
","""event"",""trial"",""time""
""fullscreenenter"",""1"",""4348""
","
","","1393.225000007078","","","","real_trial","2021-04-02 16:55:05.261","img/card_backs/set1/yellow.gif","2","-210","1","",""
"casino-fixation","74","362255","0.0-25.0-0.2","245","true","img/card_backs/set1/green.gif","img/card_backs/set1/yellow.gif","img/card_backs/set1/red.gif","img/card_backs/set1/purple.gif","img/card_backs/set2/blue.gif","img/card_backs/set2/gray.gif","img/card_backs/set2/pink.gif","img/card_backs/set2/orange.gif","""event"",""trial"",""time""
""fullscreenenter"",""1"",""4348""
","
","
","""event"",""trial"",""time""
""fullscreenenter"",""1"",""4348""
","
","","null","","null","","fixation","2021-04-02 16:55:05.780","","","","","",""
"card-selection-trial","75","365434","0.0-25.0-1.2","245","true","img/card_backs/set1/green.gif","img/card_backs/set1/yellow.gif","img/card_backs/set1/red.gif","img/card_backs/set1/purple.gif","img/card_backs/set2/blue.gif","img/card_backs/set2/gray.gif","img/card_backs/set2/pink.gif","img/card_backs/set2/orange.gif","""event"",""trial"",""time""
""fullscreenenter"",""1"",""4348""
","
","
","""event"",""trial"",""time""
""fullscreenenter"",""1"",""4348""
","
","","1152.3700000252575","","","","real_trial","2021-04-02 16:55:08.959","img/card_backs/set1/yellow.gif","2","-210","1","",""
"casino-fixation","76","365954","0.0-25.0-0.3","245","true","img/card_backs/set1/green.gif","img/card_backs/set1/yellow.gif","img/card_backs/set1/red.gif","img/card_backs/set1/purple.gif","img/card_backs/set2/blue.gif","img/card_backs/set2/gray.gif","img/card_backs/set2/pink.gif","img/card_backs/set2/orange.gif","""event"",""trial"",""time""
""fullscreenenter"",""1"",""4348""
","
","
","""event"",""trial"",""time""
""fullscreenenter"",""1"",""4348""
","
","","null","","null","","fixation","2021-04-02 16:55:09.479","","","","","",""
"card-selection-trial","77","369096","0.0-25.0-1.3","245","true","img/card_backs/set1/green.gif","img/card_backs/set1/yellow.gif","img/card_backs/set1/red.gif","img/card_backs/set1/purple.gif","img/card_backs/set2/blue.gif","img/card_backs/set2/gray.gif","img/card_backs/set2/pink.gif","img/card_backs/set2/orange.gif","""event"",""trial"",""time""
""fullscreenenter"",""1"",""4348""
","
","
","""event"",""trial"",""time""
""fullscreenenter"",""1"",""4348""
","
","","1133.1800000043586","","","","real_trial","2021-04-02 16:55:12.621","img/card_backs/set1/yellow.gif","3","240","1","",""
"casino-fixation","78","369605","0.0-25.0-0.4","245","true","img/card_backs/set1/green.gif","img/card_backs/set1/yellow.gif","img/card_backs/set1/red.gif","img/card_backs/set1/purple.gif","img/card_backs/set2/blue.gif","img/card_backs/set2/gray.gif","img/card_backs/set2/pink.gif","img/card_backs/set2/orange.gif","""event"",""trial"",""time""
""fullscreenenter"",""1"",""4348""
","
","
","""event"",""trial"",""time""
""fullscreenenter"",""1"",""4348""
","
","","null","","null","","fixation","2021-04-02 16:55:13.130","","","","","",""
"card-selection-trial","79","372265","0.0-25.0-1.4","245","true","img/card_backs/set1/green.gif","img/card_backs/set1/yellow.gif","img/card_backs/set1/red.gif","img/card_backs/set1/purple.gif","img/card_backs/set2/blue.gif","img/card_backs/set2/gray.gif","img/card_backs/set2/pink.gif","img/card_backs/set2/orange.gif","""event"",""trial"",""time""
""fullscreenenter"",""1"",""4348""
","
","
","""event"",""trial"",""time""
""fullscreenenter"",""1"",""4348""
","
","","634.9999999511056","","","","real_trial","2021-04-02 16:55:15.790","img/card_backs/set1/yellow.gif","3","250","1","",""
"casino-fixation","80","372784","0.0-25.0-0.5","245","true","img/card_backs/set1/green.gif","img/card_backs/set1/yellow.gif","img/card_backs/set1/red.gif","img/card_backs/set1/purple.gif","img/card_backs/set2/blue.gif","img/card_backs/set2/gray.gif","img/card_backs/set2/pink.gif","img/card_backs/set2/orange.gif","""event"",""trial"",""time""
""fullscreenenter"",""1"",""4348""
","
","
","""event"",""trial"",""time""
""fullscreenenter"",""1"",""4348""
","
","","null","","null","","fixation","2021-04-02 16:55:16.310","","","","","",""
"card-selection-trial","81","375415","0.0-25.0-1.5","245","true","img/card_backs/set1/green.gif","img/card_backs/set1/yellow.gif","img/card_backs/set1/red.gif","img/card_backs/set1/purple.gif","img/card_backs/set2/blue.gif","img/card_backs/set2/gray.gif","img/card_backs/set2/pink.gif","img/card_backs/set2/orange.gif","""event"",""trial"",""time""
""fullscreenenter"",""1"",""4348""
","
","
","""event"",""trial"",""time""
""fullscreenenter"",""1"",""4348""
","
","","612.3249999945983","","","","real_trial","2021-04-02 16:55:18.940","img/card_backs/set1/yellow.gif","3","250","1","",""
"casino-fixation","82","375925","0.0-25.0-0.6","245","true","img/card_backs/set1/green.gif","img/card_backs/set1/yellow.gif","img/card_backs/set1/red.gif","img/card_backs/set1/purple.gif","img/card_backs/set2/blue.gif","img/card_backs/set2/gray.gif","img/card_backs/set2/pink.gif","img/card_backs/set2/orange.gif","""event"",""trial"",""time""
""fullscreenenter"",""1"",""4348""
","
","
","""event"",""trial"",""time""
""fullscreenenter"",""1"",""4348""
","
","","null","","null","","fixation","2021-04-02 16:55:19.450","","","","","",""
"card-selection-trial","83","379265","0.0-25.0-1.6","245","true","img/card_backs/set1/green.gif","img/card_backs/set1/yellow.gif","img/card_backs/set1/red.gif","img/card_backs/set1/purple.gif","img/card_backs/set2/blue.gif","img/card_backs/set2/gray.gif","img/card_backs/set2/pink.gif","img/card_backs/set2/orange.gif","""event"",""trial"",""time""
""fullscreenenter"",""1"",""4348""
","
","
","""event"",""trial"",""time""
""fullscreenenter"",""1"",""4348""
","
","","1316.4899999974295","","","","real_trial","2021-04-02 16:55:22.791","img/card_backs/set1/yellow.gif","0","-200","1","",""
"casino-fixation","84","379784","0.0-25.0-0.7","245","true","img/card_backs/set1/green.gif","img/card_backs/set1/yellow.gif","img/card_backs/set1/red.gif","img/card_backs/set1/purple.gif","img/card_backs/set2/blue.gif","img/card_backs/set2/gray.gif","img/card_backs/set2/pink.gif","img/card_backs/set2/orange.gif","""event"",""trial"",""time""
""fullscreenenter"",""1"",""4348""
","
","
","""event"",""trial"",""time""
""fullscreenenter"",""1"",""4348""
","
","","null","","null","","fixation","2021-04-02 16:55:23.310","","","","","",""
"card-selection-trial","85","383096","0.0-25.0-1.7","245","true","img/card_backs/set1/green.gif","img/card_backs/set1/yellow.gif","img/card_backs/set1/red.gif","img/card_backs/set1/purple.gif","img/card_backs/set2/blue.gif","img/card_backs/set2/gray.gif","img/card_backs/set2/pink.gif","img/card_backs/set2/orange.gif","""event"",""trial"",""time""
""fullscreenenter"",""1"",""4348""
","
","
","""event"",""trial"",""time""
""fullscreenenter"",""1"",""4348""
","
","","1296.0150000290014","","","","real_trial","2021-04-02 16:55:26.622","img/card_backs/set1/purple.gif","1","-100","1","",""
"casino-fixation","86","383615","0.0-25.0-0.8","245","true","img/card_backs/set1/green.gif","img/card_backs/set1/yellow.gif","img/card_backs/set1/red.gif","img/card_backs/set1/purple.gif","img/card_backs/set2/blue.gif","img/card_backs/set2/gray.gif","img/card_backs/set2/pink.gif","img/card_backs/set2/orange.gif","""event"",""trial"",""time""
""fullscreenenter"",""1"",""4348""
","
","
","""event"",""trial"",""time""
""fullscreenenter"",""1"",""4348""
","
","","null","","null","","fixation","2021-04-02 16:55:27.141","","","","","",""
"card-selection-trial","87","387113","0.0-25.0-1.8","245","true","img/card_backs/set1/green.gif","img/card_backs/set1/yellow.gif","img/card_backs/set1/red.gif","img/card_backs/set1/purple.gif","img/card_backs/set2/blue.gif","img/card_backs/set2/gray.gif","img/card_backs/set2/pink.gif","img/card_backs/set2/orange.gif","""event"",""trial"",""time""
""fullscreenenter"",""1"",""4348""
","
","
","""event"",""trial"",""time""
""fullscreenenter"",""1"",""4348""
","
","","1481.8100000265986","","","","real_trial","2021-04-02 16:55:30.638","img/card_backs/set1/purple.gif","0","-110","1","",""
"casino-fixation","88","387619","0.0-25.0-0.9","245","true","img/card_backs/set1/green.gif","img/card_backs/set1/yellow.gif","img/card_backs/set1/red.gif","img/card_backs/set1/purple.gif","img/card_backs/set2/blue.gif","img/card_backs/set2/gray.gif","img/card_backs/set2/pink.gif","img/card_backs/set2/orange.gif","""event"",""trial"",""time""
""fullscreenenter"",""1"",""4348""
","
","
","""event"",""trial"",""time""
""fullscreenenter"",""1"",""4348""
","
","","null","","null","","fixation","2021-04-02 16:55:31.144","","","","","",""
"card-selection-trial","89","390705","0.0-25.0-1.9","245","true","img/card_backs/set1/green.gif","img/card_backs/set1/yellow.gif","img/card_backs/set1/red.gif","img/card_backs/set1/purple.gif","img/card_backs/set2/blue.gif","img/card_backs/set2/gray.gif","img/card_backs/set2/pink.gif","img/card_backs/set2/orange.gif","""event"",""trial"",""time""
""fullscreenenter"",""1"",""4348""
","
","
","""event"",""trial"",""time""
""fullscreenenter"",""1"",""4348""
","
","","1071.5199999976903","","","","real_trial","2021-04-02 16:55:34.230","img/card_backs/set1/red.gif","1","50","1","",""
"casino-fixation","90","391209","0.0-25.0-0.10","245","true","img/card_backs/set1/green.gif","img/card_backs/set1/yellow.gif","img/card_backs/set1/red.gif","img/card_backs/set1/purple.gif","img/card_backs/set2/blue.gif","img/card_backs/set2/gray.gif","img/card_backs/set2/pink.gif","img/card_backs/set2/orange.gif","""event"",""trial"",""time""
""fullscreenenter"",""1"",""4348""
","
","
","""event"",""trial"",""time""
""fullscreenenter"",""1"",""4348""
","
","","null","","null","","fixation","2021-04-02 16:55:34.734","","","","","",""
"card-selection-trial","91","394622","0.0-25.0-1.10","245","true","img/card_backs/set1/green.gif","img/card_backs/set1/yellow.gif","img/card_backs/set1/red.gif","img/card_backs/set1/purple.gif","img/card_backs/set2/blue.gif","img/card_backs/set2/gray.gif","img/card_backs/set2/pink.gif","img/card_backs/set2/orange.gif","""event"",""trial"",""time""
""fullscreenenter"",""1"",""4348""
","
","
","""event"",""trial"",""time""
""fullscreenenter"",""1"",""4348""
","
","","1398.2449999894015","","","","real_trial","2021-04-02 16:55:38.148","img/card_backs/set1/red.gif","2","-100","1","",""
"casino-fixation","92","395126","0.0-25.0-0.11","245","true","img/card_backs/set1/green.gif","img/card_backs/set1/yellow.gif","img/card_backs/set1/red.gif","img/card_backs/set1/purple.gif","img/card_backs/set2/blue.gif","img/card_backs/set2/gray.gif","img/card_backs/set2/pink.gif","img/card_backs/set2/orange.gif","""event"",""trial"",""time""
""fullscreenenter"",""1"",""4348""
","
","
","""event"",""trial"",""time""
""fullscreenenter"",""1"",""4348""
","
","","null","","null","","fixation","2021-04-02 16:55:38.652","","","","","",""
"card-selection-trial","93","398274","0.0-25.0-1.11","245","true","img/card_backs/set1/green.gif","img/card_backs/set1/yellow.gif","img/card_backs/set1/red.gif","img/card_backs/set1/purple.gif","img/card_backs/set2/blue.gif","img/card_backs/set2/gray.gif","img/card_backs/set2/pink.gif","img/card_backs/set2/orange.gif","""event"",""trial"",""time""
""fullscreenenter"",""1"",""4348""
","
","
","""event"",""trial"",""time""
""fullscreenenter"",""1"",""4348""
","
","","1133.4299999871291","","","","real_trial","2021-04-02 16:55:41.799","img/card_backs/set1/red.gif","0","-110","1","",""
"casino-fixation","94","398777","0.0-25.0-0.12","245","true","img/card_backs/set1/green.gif","img/card_backs/set1/yellow.gif","img/card_backs/set1/red.gif","img/card_backs/set1/purple.gif","img/card_backs/set2/blue.gif","img/card_backs/set2/gray.gif","img/card_backs/set2/pink.gif","img/card_backs/set2/orange.gif","""event"",""trial"",""time""
""fullscreenenter"",""1"",""4348""
","
","
","""event"",""trial"",""time""
""fullscreenenter"",""1"",""4348""
","
","","null","","null","","fixation","2021-04-02 16:55:42.302","","","","","",""
"card-selection-trial","95","401991","0.0-25.0-1.12","245","true","img/card_backs/set1/green.gif","img/card_backs/set1/yellow.gif","img/card_backs/set1/red.gif","img/card_backs/set1/purple.gif","img/card_backs/set2/blue.gif","img/card_backs/set2/gray.gif","img/card_backs/set2/pink.gif","img/card_backs/set2/orange.gif","""event"",""trial"",""time""
""fullscreenenter"",""1"",""4348""
","
","
","""event"",""trial"",""time""
""fullscreenenter"",""1"",""4348""
","
","","1206.4050000044517","","","","real_trial","2021-04-02 16:55:45.517","img/card_backs/set1/purple.gif","2","50","1","",""
"casino-fixation","96","402495","0.0-25.0-0.13","245","true","img/card_backs/set1/green.gif","img/card_backs/set1/yellow.gif","img/card_backs/set1/red.gif","img/card_backs/set1/purple.gif","img/card_backs/set2/blue.gif","img/card_backs/set2/gray.gif","img/card_backs/set2/pink.gif","img/card_backs/set2/orange.gif","""event"",""trial"",""time""
""fullscreenenter"",""1"",""4348""
","
","
","""event"",""trial"",""time""
""fullscreenenter"",""1"",""4348""
","
","","null","","null","","fixation","2021-04-02 16:55:46.020","","","","","",""
"card-selection-trial","97","405003","0.0-25.0-1.13","245","true","img/card_backs/set1/green.gif","img/card_backs/set1/yellow.gif","img/card_backs/set1/red.gif","img/card_backs/set1/purple.gif","img/card_backs/set2/blue.gif","img/card_backs/set2/gray.gif","img/card_backs/set2/pink.gif","img/card_backs/set2/orange.gif","""event"",""trial"",""time""
""fullscreenenter"",""1"",""4348""
","
","
","""event"",""trial"",""time""
""fullscreenenter"",""1"",""4348""
","
","","495.88499998208135","","","","real_trial","2021-04-02 16:55:48.528","img/card_backs/set1/purple.gif","2","40","1","",""
"casino-fixation","98","405508","0.0-25.0-0.14","245","true","img/card_backs/set1/green.gif","img/card_backs/set1/yellow.gif","img/card_backs/set1/red.gif","img/card_backs/set1/purple.gif","img/card_backs/set2/blue.gif","img/card_backs/set2/gray.gif","img/card_backs/set2/pink.gif","img/card_backs/set2/orange.gif","""event"",""trial"",""time""
""fullscreenenter"",""1"",""4348""
","
","
","""event"",""trial"",""time""
""fullscreenenter"",""1"",""4348""
","
","","null","","null","","fixation","2021-04-02 16:55:49.034","","","","","",""
"card-selection-trial","99","408734","0.0-25.0-1.14","245","true","img/card_backs/set1/green.gif","img/card_backs/set1/yellow.gif","img/card_backs/set1/red.gif","img/card_backs/set1/purple.gif","img/card_backs/set2/blue.gif","img/card_backs/set2/gray.gif","img/card_backs/set2/pink.gif","img/card_backs/set2/orange.gif","""event"",""trial"",""time""
""fullscreenenter"",""1"",""4348""
","
","
","""event"",""trial"",""time""
""fullscreenenter"",""1"",""4348""
","
","","1214.194999949541","","","","real_trial","2021-04-02 16:55:52.259","img/card_backs/set1/purple.gif","1","-90","1","",""
"casino-fixation","100","409236","0.0-25.0-0.15","245","true","img/card_backs/set1/green.gif","img/card_backs/set1/yellow.gif","img/card_backs/set1/red.gif","img/card_backs/set1/purple.gif","img/card_backs/set2/blue.gif","img/card_backs/set2/gray.gif","img/card_backs/set2/pink.gif","img/card_backs/set2/orange.gif","""event"",""trial"",""time""
""fullscreenenter"",""1"",""4348""
","
","
","""event"",""trial"",""time""
""fullscreenenter"",""1"",""4348""
","
","","null","","null","","fixation","2021-04-02 16:55:52.762","","","","","",""
"card-selection-trial","101","412312","0.0-25.0-1.15","245","true","img/card_backs/set1/green.gif","img/card_backs/set1/yellow.gif","img/card_backs/set1/red.gif","img/card_backs/set1/purple.gif","img/card_backs/set2/blue.gif","img/card_backs/set2/gray.gif","img/card_backs/set2/pink.gif","img/card_backs/set2/orange.gif","""event"",""trial"",""time""
""fullscreenenter"",""1"",""4348""
","
","
","""event"",""trial"",""time""
""fullscreenenter"",""1"",""4348""
","
","","1063.4900000295602","","","","real_trial","2021-04-02 16:55:55.837","img/card_backs/set1/purple.gif","1","60","1","",""
"casino-fixation","102","412813","0.0-25.0-0.16","245","true","img/card_backs/set1/green.gif","img/card_backs/set1/yellow.gif","img/card_backs/set1/red.gif","img/card_backs/set1/purple.gif","img/card_backs/set2/blue.gif","img/card_backs/set2/gray.gif","img/card_backs/set2/pink.gif","img/card_backs/set2/orange.gif","""event"",""trial"",""time""
""fullscreenenter"",""1"",""4348""
","
","
","""event"",""trial"",""time""
""fullscreenenter"",""1"",""4348""
","
","","null","","null","","fixation","2021-04-02 16:55:56.339","","","","","",""
"card-selection-trial","103","415960","0.0-25.0-1.16","245","true","img/card_backs/set1/green.gif","img/card_backs/set1/yellow.gif","img/card_backs/set1/red.gif","img/card_backs/set1/purple.gif","img/card_backs/set2/blue.gif","img/card_backs/set2/gray.gif","img/card_backs/set2/pink.gif","img/card_backs/set2/orange.gif","""event"",""trial"",""time""
""fullscreenenter"",""1"",""4348""
","
","
","""event"",""trial"",""time""
""fullscreenenter"",""1"",""4348""
","
","","1127.8499999898486","","","","real_trial","2021-04-02 16:55:59.486","img/card_backs/set1/purple.gif","0","-110","1","",""
"casino-fixation","104","416465","0.0-25.0-0.17","245","true","img/card_backs/set1/green.gif","img/card_backs/set1/yellow.gif","img/card_backs/set1/red.gif","img/card_backs/set1/purple.gif","img/card_backs/set2/blue.gif","img/card_backs/set2/gray.gif","img/card_backs/set2/pink.gif","img/card_backs/set2/orange.gif","""event"",""trial"",""time""
""fullscreenenter"",""1"",""4348""
","
","
","""event"",""trial"",""time""
""fullscreenenter"",""1"",""4348""
","
","","null","","null","","fixation","2021-04-02 16:55:59.991","","","","","",""
"card-selection-trial","105","419667","0.0-25.0-1.17","245","true","img/card_backs/set1/green.gif","img/card_backs/set1/yellow.gif","img/card_backs/set1/red.gif","img/card_backs/set1/purple.gif","img/card_backs/set2/blue.gif","img/card_backs/set2/gray.gif","img/card_backs/set2/pink.gif","img/card_backs/set2/orange.gif","""event"",""trial"",""time""
""fullscreenenter"",""1"",""4348""
","
","
","""event"",""trial"",""time""
""fullscreenenter"",""1"",""4348""
","
","","1184.6549999900162","","","","real_trial","2021-04-02 16:56:03.192","img/card_backs/set1/red.gif","3","40","1","",""
"casino-fixation","106","420168","0.0-25.0-0.18","245","true","img/card_backs/set1/green.gif","img/card_backs/set1/yellow.gif","img/card_backs/set1/red.gif","img/card_backs/set1/purple.gif","img/card_backs/set2/blue.gif","img/card_backs/set2/gray.gif","img/card_backs/set2/pink.gif","img/card_backs/set2/orange.gif","""event"",""trial"",""time""
""fullscreenenter"",""1"",""4348""
","
","
","""event"",""trial"",""time""
""fullscreenenter"",""1"",""4348""
","
","","null","","null","","fixation","2021-04-02 16:56:03.694","","","","","",""
"card-selection-trial","107","423179","0.0-25.0-1.18","245","true","img/card_backs/set1/green.gif","img/card_backs/set1/yellow.gif","img/card_backs/set1/red.gif","img/card_backs/set1/purple.gif","img/card_backs/set2/blue.gif","img/card_backs/set2/gray.gif","img/card_backs/set2/pink.gif","img/card_backs/set2/orange.gif","""event"",""trial"",""time""
""fullscreenenter"",""1"",""4348""
","
","
","""event"",""trial"",""time""
""fullscreenenter"",""1"",""4348""
","
","","1001.3899999903515","","","","real_trial","2021-04-02 16:56:06.704","img/card_backs/set1/red.gif","0","40","1","",""
"casino-fixation","108","423682","0.0-25.0-0.19","245","true","img/card_backs/set1/green.gif","img/card_backs/set1/yellow.gif","img/card_backs/set1/red.gif","img/card_backs/set1/purple.gif","img/card_backs/set2/blue.gif","img/card_backs/set2/gray.gif","img/card_backs/set2/pink.gif","img/card_backs/set2/orange.gif","""event"",""trial"",""time""
""fullscreenenter"",""1"",""4348""
","
","
","""event"",""trial"",""time""
""fullscreenenter"",""1"",""4348""
","
","","null","","null","","fixation","2021-04-02 16:56:07.208","","","","","",""
"card-selection-trial","109","426739","0.0-25.0-1.19","245","true","img/card_backs/set1/green.gif","img/card_backs/set1/yellow.gif","img/card_backs/set1/red.gif","img/card_backs/set1/purple.gif","img/card_backs/set2/blue.gif","img/card_backs/set2/gray.gif","img/card_backs/set2/pink.gif","img/card_backs/set2/orange.gif","""event"",""trial"",""time""
""fullscreenenter"",""1"",""4348""
","
","
","""event"",""trial"",""time""
""fullscreenenter"",""1"",""4348""
","
","","1050.4249999648891","","","","real_trial","2021-04-02 16:56:10.264","img/card_backs/set1/purple.gif","0","-110","1","",""
"casino-fixation","110","427243","0.0-25.0-0.20","245","true","img/card_backs/set1/green.gif","img/card_backs/set1/yellow.gif","img/card_backs/set1/red.gif","img/card_backs/set1/purple.gif","img/card_backs/set2/blue.gif","img/card_backs/set2/gray.gif","img/card_backs/set2/pink.gif","img/card_backs/set2/orange.gif","""event"",""trial"",""time""
""fullscreenenter"",""1"",""4348""
","
","
","""event"",""trial"",""time""
""fullscreenenter"",""1"",""4348""
","
","","null","","null","","fixation","2021-04-02 16:56:10.768","","","","","",""
"card-selection-trial","111","430417","0.0-25.0-1.20","245","true","img/card_backs/set1/green.gif","img/card_backs/set1/yellow.gif","img/card_backs/set1/red.gif","img/card_backs/set1/purple.gif","img/card_backs/set2/blue.gif","img/card_backs/set2/gray.gif","img/card_backs/set2/pink.gif","img/card_backs/set2/orange.gif","""event"",""trial"",""time""
""fullscreenenter"",""1"",""4348""
","
","
","""event"",""trial"",""time""
""fullscreenenter"",""1"",""4348""
","
","","1166.3649999536574","","","","real_trial","2021-04-02 16:56:13.942","img/card_backs/set1/red.gif","3","-110","1","",""
"casino-fixation","112","430919","0.0-25.0-0.21","245","true","img/card_backs/set1/green.gif","img/card_backs/set1/yellow.gif","img/card_backs/set1/red.gif","img/card_backs/set1/purple.gif","img/card_backs/set2/blue.gif","img/card_backs/set2/gray.gif","img/card_backs/set2/pink.gif","img/card_backs/set2/orange.gif","""event"",""trial"",""time""
""fullscreenenter"",""1"",""4348""
","
","
","""event"",""trial"",""time""
""fullscreenenter"",""1"",""4348""
","
","","null","","null","","fixation","2021-04-02 16:56:14.444","","","","","",""
"card-selection-trial","113","433990","0.0-25.0-1.21","245","true","img/card_backs/set1/green.gif","img/card_backs/set1/yellow.gif","img/card_backs/set1/red.gif","img/card_backs/set1/purple.gif","img/card_backs/set2/blue.gif","img/card_backs/set2/gray.gif","img/card_backs/set2/pink.gif","img/card_backs/set2/orange.gif","""event"",""trial"",""time""
""fullscreenenter"",""1"",""4348""
","
","
","""event"",""trial"",""time""
""fullscreenenter"",""1"",""4348""
","
","","1058.7500000256114","","","","real_trial","2021-04-02 16:56:17.515","img/card_backs/set1/green.gif","0","-200","1","",""
"casino-fixation","114","434492","0.0-25.0-0.22","245","true","img/card_backs/set1/green.gif","img/card_backs/set1/yellow.gif","img/card_backs/set1/red.gif","img/card_backs/set1/purple.gif","img/card_backs/set2/blue.gif","img/card_backs/set2/gray.gif","img/card_backs/set2/pink.gif","img/card_backs/set2/orange.gif","""event"",""trial"",""time""
""fullscreenenter"",""1"",""4348""
","
","
","""event"",""trial"",""time""
""fullscreenenter"",""1"",""4348""
","
","","null","","null","","fixation","2021-04-02 16:56:18.018","","","","","",""
"card-selection-trial","115","437529","0.0-25.0-1.22","245","true","img/card_backs/set1/green.gif","img/card_backs/set1/yellow.gif","img/card_backs/set1/red.gif","img/card_backs/set1/purple.gif","img/card_backs/set2/blue.gif","img/card_backs/set2/gray.gif","img/card_backs/set2/pink.gif","img/card_backs/set2/orange.gif","""event"",""trial"",""time""
""fullscreenenter"",""1"",""4348""
","
","
","""event"",""trial"",""time""
""fullscreenenter"",""1"",""4348""
","
","","1026.674999971874","","","","real_trial","2021-04-02 16:56:21.054","img/card_backs/set1/green.gif","1","-190","1","",""
"casino-fixation","116","438034","0.0-25.0-0.23","245","true","img/card_backs/set1/green.gif","img/card_backs/set1/yellow.gif","img/card_backs/set1/red.gif","img/card_backs/set1/purple.gif","img/card_backs/set2/blue.gif","img/card_backs/set2/gray.gif","img/card_backs/set2/pink.gif","img/card_backs/set2/orange.gif","""event"",""trial"",""time""
""fullscreenenter"",""1"",""4348""
","
","
","""event"",""trial"",""time""
""fullscreenenter"",""1"",""4348""
","
","","null","","null","","fixation","2021-04-02 16:56:21.559","","","","","",""
"card-selection-trial","117","441019","0.0-25.0-1.23","245","true","img/card_backs/set1/green.gif","img/card_backs/set1/yellow.gif","img/card_backs/set1/red.gif","img/card_backs/set1/purple.gif","img/card_backs/set2/blue.gif","img/card_backs/set2/gray.gif","img/card_backs/set2/pink.gif","img/card_backs/set2/orange.gif","""event"",""trial"",""time""
""fullscreenenter"",""1"",""4348""
","
","
","""event"",""trial"",""time""
""fullscreenenter"",""1"",""4348""
","
","","975.3900000359863","","","","real_trial","2021-04-02 16:56:24.544","img/card_backs/set1/green.gif","1","250","1","",""
"casino-fixation","118","441524","0.0-25.0-0.24","245","true","img/card_backs/set1/green.gif","img/card_backs/set1/yellow.gif","img/card_backs/set1/red.gif","img/card_backs/set1/purple.gif","img/card_backs/set2/blue.gif","img/card_backs/set2/gray.gif","img/card_backs/set2/pink.gif","img/card_backs/set2/orange.gif","""event"",""trial"",""time""
""fullscreenenter"",""1"",""4348""
","
","
","""event"",""trial"",""time""
""fullscreenenter"",""1"",""4348""
","
","","null","","null","","fixation","2021-04-02 16:56:25.049","","","","","",""
"card-selection-trial","119","444870","0.0-25.0-1.24","245","true","img/card_backs/set1/green.gif","img/card_backs/set1/yellow.gif","img/card_backs/set1/red.gif","img/card_backs/set1/purple.gif","img/card_backs/set2/blue.gif","img/card_backs/set2/gray.gif","img/card_backs/set2/pink.gif","img/card_backs/set2/orange.gif","""event"",""trial"",""time""
""fullscreenenter"",""1"",""4348""
","
","
","""event"",""trial"",""time""
""fullscreenenter"",""1"",""4348""
","
","","1334.3100000056438","","","","real_trial","2021-04-02 16:56:28.395","img/card_backs/set1/green.gif","3","250","1","",""
"casino-fixation","120","445372","0.0-25.0-0.25","245","true","img/card_backs/set1/green.gif","img/card_backs/set1/yellow.gif","img/card_backs/set1/red.gif","img/card_backs/set1/purple.gif","img/card_backs/set2/blue.gif","img/card_backs/set2/gray.gif","img/card_backs/set2/pink.gif","img/card_backs/set2/orange.gif","""event"",""trial"",""time""
""fullscreenenter"",""1"",""4348""
","
","
","""event"",""trial"",""time""
""fullscreenenter"",""1"",""4348""
","
","","null","","null","","fixation","2021-04-02 16:56:28.898","","","","","",""
"card-selection-trial","121","448739","0.0-25.0-1.25","245","true","img/card_backs/set1/green.gif","img/card_backs/set1/yellow.gif","img/card_backs/set1/red.gif","img/card_backs/set1/purple.gif","img/card_backs/set2/blue.gif","img/card_backs/set2/gray.gif","img/card_backs/set2/pink.gif","img/card_backs/set2/orange.gif","""event"",""trial"",""time""
""fullscreenenter"",""1"",""4348""
","
","
","""event"",""trial"",""time""
""fullscreenenter"",""1"",""4348""
","
","","1358.3099999814294","","","","real_trial","2021-04-02 16:56:32.264","img/card_backs/set1/green.gif","1","250","1","",""
"casino-fixation","122","449242","0.0-25.0-0.26","245","true","img/card_backs/set1/green.gif","img/card_backs/set1/yellow.gif","img/card_backs/set1/red.gif","img/card_backs/set1/purple.gif","img/card_backs/set2/blue.gif","img/card_backs/set2/gray.gif","img/card_backs/set2/pink.gif","img/card_backs/set2/orange.gif","""event"",""trial"",""time""
""fullscreenenter"",""1"",""4348""
","
","
","""event"",""trial"",""time""
""fullscreenenter"",""1"",""4348""
","
","","null","","null","","fixation","2021-04-02 16:56:32.767","","","","","",""
"card-selection-trial","123","452218","0.0-25.0-1.26","245","true","img/card_backs/set1/green.gif","img/card_backs/set1/yellow.gif","img/card_backs/set1/red.gif","img/card_backs/set1/purple.gif","img/card_backs/set2/blue.gif","img/card_backs/set2/gray.gif","img/card_backs/set2/pink.gif","img/card_backs/set2/orange.gif","""event"",""trial"",""time""
""fullscreenenter"",""1"",""4348""
","
","
","""event"",""trial"",""time""
""fullscreenenter"",""1"",""4348""
","
","","968.2349999784492","","","","real_trial","2021-04-02 16:56:35.744","img/card_backs/set1/green.gif","0","240","1","",""
"casino-fixation","124","452721","0.0-25.0-0.27","245","true","img/card_backs/set1/green.gif","img/card_backs/set1/yellow.gif","img/card_backs/set1/red.gif","img/card_backs/set1/purple.gif","img/card_backs/set2/blue.gif","img/card_backs/set2/gray.gif","img/card_backs/set2/pink.gif","img/card_backs/set2/orange.gif","""event"",""trial"",""time""
""fullscreenenter"",""1"",""4348""
","
","
","""event"",""trial"",""time""
""fullscreenenter"",""1"",""4348""
","
","","null","","null","","fixation","2021-04-02 16:56:36.247","","","","","",""
"card-selection-trial","125","455590","0.0-25.0-1.27","245","true","img/card_backs/set1/green.gif","img/card_backs/set1/yellow.gif","img/card_backs/set1/red.gif","img/card_backs/set1/purple.gif","img/card_backs/set2/blue.gif","img/card_backs/set2/gray.gif","img/card_backs/set2/pink.gif","img/card_backs/set2/orange.gif","""event"",""trial"",""time""
""fullscreenenter"",""1"",""4348""
","
","
","""event"",""trial"",""time""
""fullscreenenter"",""1"",""4348""
","
","","856.4699999988079","","","","real_trial","2021-04-02 16:56:39.115","img/card_backs/set1/green.gif","1","240","1","",""
"casino-fixation","126","456094","0.0-25.0-0.28","245","true","img/card_backs/set1/green.gif","img/card_backs/set1/yellow.gif","img/card_backs/set1/red.gif","img/card_backs/set1/purple.gif","img/card_backs/set2/blue.gif","img/card_backs/set2/gray.gif","img/card_backs/set2/pink.gif","img/card_backs/set2/orange.gif","""event"",""trial"",""time""
""fullscreenenter"",""1"",""4348""
","
","
","""event"",""trial"",""time""
""fullscreenenter"",""1"",""4348""
","
","","null","","null","","fixation","2021-04-02 16:56:39.619","","","","","",""
"card-selection-trial","127","459497","0.0-25.0-1.28","245","true","img/card_backs/set1/green.gif","img/card_backs/set1/yellow.gif","img/card_backs/set1/red.gif","img/card_backs/set1/purple.gif","img/card_backs/set2/blue.gif","img/card_backs/set2/gray.gif","img/card_backs/set2/pink.gif","img/card_backs/set2/orange.gif","""event"",""trial"",""time""
""fullscreenenter"",""1"",""4348""
","
","
","""event"",""trial"",""time""
""fullscreenenter"",""1"",""4348""
","
","","1387.7949999878183","","","","real_trial","2021-04-02 16:56:43.022","img/card_backs/set1/green.gif","2","260","1","",""
"casino-fixation","128","460001","0.0-25.0-0.29","245","true","img/card_backs/set1/green.gif","img/card_backs/set1/yellow.gif","img/card_backs/set1/red.gif","img/card_backs/set1/purple.gif","img/card_backs/set2/blue.gif","img/card_backs/set2/gray.gif","img/card_backs/set2/pink.gif","img/card_backs/set2/orange.gif","""event"",""trial"",""time""
""fullscreenenter"",""1"",""4348""
","
","
","""event"",""trial"",""time""
""fullscreenenter"",""1"",""4348""
","
","","null","","null","","fixation","2021-04-02 16:56:43.526","","","","","",""
"card-selection-trial","129","462929","0.0-25.0-1.29","245","true","img/card_backs/set1/green.gif","img/card_backs/set1/yellow.gif","img/card_backs/set1/red.gif","img/card_backs/set1/purple.gif","img/card_backs/set2/blue.gif","img/card_backs/set2/gray.gif","img/card_backs/set2/pink.gif","img/card_backs/set2/orange.gif","""event"",""trial"",""time""
""fullscreenenter"",""1"",""4348""
","
","
","""event"",""trial"",""time""
""fullscreenenter"",""1"",""4348""
","
","","918.7599999713711","","","","real_trial","2021-04-02 16:56:46.454","img/card_backs/set1/green.gif","0","260","1","",""
"casino-fixation","130","463432","0.0-25.0-0.30","245","true","img/card_backs/set1/green.gif","img/card_backs/set1/yellow.gif","img/card_backs/set1/red.gif","img/card_backs/set1/purple.gif","img/card_backs/set2/blue.gif","img/card_backs/set2/gray.gif","img/card_backs/set2/pink.gif","img/card_backs/set2/orange.gif","""event"",""trial"",""time""
""fullscreenenter"",""1"",""4348""
","
","
","""event"",""trial"",""time""
""fullscreenenter"",""1"",""4348""
","
","","null","","null","","fixation","2021-04-02 16:56:46.958","","","","","",""
"card-selection-trial","131","466559","0.0-25.0-1.30","245","true","img/card_backs/set1/green.gif","img/card_backs/set1/yellow.gif","img/card_backs/set1/red.gif","img/card_backs/set1/purple.gif","img/card_backs/set2/blue.gif","img/card_backs/set2/gray.gif","img/card_backs/set2/pink.gif","img/card_backs/set2/orange.gif","""event"",""trial"",""time""
""fullscreenenter"",""1"",""4348""
","
","
","""event"",""trial"",""time""
""fullscreenenter"",""1"",""4348""
","
","","1120.9249999956228","","","","real_trial","2021-04-02 16:56:50.084","img/card_backs/set1/green.gif","1","-190","1","",""
"casino-fixation","132","467062","0.0-25.0-0.31","245","true","img/card_backs/set1/green.gif","img/card_backs/set1/yellow.gif","img/card_backs/set1/red.gif","img/card_backs/set1/purple.gif","img/card_backs/set2/blue.gif","img/card_backs/set2/gray.gif","img/card_backs/set2/pink.gif","img/card_backs/set2/orange.gif","""event"",""trial"",""time""
""fullscreenenter"",""1"",""4348""
","
","
","""event"",""trial"",""time""
""fullscreenenter"",""1"",""4348""
","
","","null","","null","","fixation","2021-04-02 16:56:50.588","","","","","",""
"card-selection-trial","133","470346","0.0-25.0-1.31","245","true","img/card_backs/set1/green.gif","img/card_backs/set1/yellow.gif","img/card_backs/set1/red.gif","img/card_backs/set1/purple.gif","img/card_backs/set2/blue.gif","img/card_backs/set2/gray.gif","img/card_backs/set2/pink.gif","img/card_backs/set2/orange.gif","""event"",""trial"",""time""
""fullscreenenter"",""1"",""4348""
","
","
","""event"",""trial"",""time""
""fullscreenenter"",""1"",""4348""
","
","","1272.2699999576434","","","","real_trial","2021-04-02 16:56:53.871","img/card_backs/set1/green.gif","2","-190","1","",""
"casino-fixation","134","470847","0.0-25.0-0.32","245","true","img/card_backs/set1/green.gif","img/card_backs/set1/yellow.gif","img/card_backs/set1/red.gif","img/card_backs/set1/purple.gif","img/card_backs/set2/blue.gif","img/card_backs/set2/gray.gif","img/card_backs/set2/pink.gif","img/card_backs/set2/orange.gif","""event"",""trial"",""time""
""fullscreenenter"",""1"",""4348""
","
","
","""event"",""trial"",""time""
""fullscreenenter"",""1"",""4348""
","
","","null","","null","","fixation","2021-04-02 16:56:54.373","","","","","",""
"card-selection-trial","135","473828","0.0-25.0-1.32","245","true","img/card_backs/set1/green.gif","img/card_backs/set1/yellow.gif","img/card_backs/set1/red.gif","img/card_backs/set1/purple.gif","img/card_backs/set2/blue.gif","img/card_backs/set2/gray.gif","img/card_backs/set2/pink.gif","img/card_backs/set2/orange.gif","""event"",""trial"",""time""
""fullscreenenter"",""1"",""4348""
","
","
","""event"",""trial"",""time""
""fullscreenenter"",""1"",""4348""
","
","","966.6200000210665","","","","real_trial","2021-04-02 16:56:57.354","img/card_backs/set1/green.gif","0","260","1","",""
"casino-fixation","136","474333","0.0-25.0-0.33","245","true","img/card_backs/set1/green.gif","img/card_backs/set1/yellow.gif","img/card_backs/set1/red.gif","img/card_backs/set1/purple.gif","img/card_backs/set2/blue.gif","img/card_backs/set2/gray.gif","img/card_backs/set2/pink.gif","img/card_backs/set2/orange.gif","""event"",""trial"",""time""
""fullscreenenter"",""1"",""4348""
","
","
","""event"",""trial"",""time""
""fullscreenenter"",""1"",""4348""
","
","","null","","null","","fixation","2021-04-02 16:56:57.858","","","","","",""
"card-selection-trial","137","477760","0.0-25.0-1.33","245","true","img/card_backs/set1/green.gif","img/card_backs/set1/yellow.gif","img/card_backs/set1/red.gif","img/card_backs/set1/purple.gif","img/card_backs/set2/blue.gif","img/card_backs/set2/gray.gif","img/card_backs/set2/pink.gif","img/card_backs/set2/orange.gif","""event"",""trial"",""time""
""fullscreenenter"",""1"",""4348""
","
","
","""event"",""trial"",""time""
""fullscreenenter"",""1"",""4348""
","
","","1419.820000010077","","","","real_trial","2021-04-02 16:57:01.285","img/card_backs/set1/green.gif","2","250","1","",""
"casino-fixation","138","478266","0.0-25.0-0.34","245","true","img/card_backs/set1/green.gif","img/card_backs/set1/yellow.gif","img/card_backs/set1/red.gif","img/card_backs/set1/purple.gif","img/card_backs/set2/blue.gif","img/card_backs/set2/gray.gif","img/card_backs/set2/pink.gif","img/card_backs/set2/orange.gif","""event"",""trial"",""time""
""fullscreenenter"",""1"",""4348""
","
","
","""event"",""trial"",""time""
""fullscreenenter"",""1"",""4348""
","
","","null","","null","","fixation","2021-04-02 16:57:01.791","","","","","",""
"card-selection-trial","139","481376","0.0-25.0-1.34","245","true","img/card_backs/set1/green.gif","img/card_backs/set1/yellow.gif","img/card_backs/set1/red.gif","img/card_backs/set1/purple.gif","img/card_backs/set2/blue.gif","img/card_backs/set2/gray.gif","img/card_backs/set2/pink.gif","img/card_backs/set2/orange.gif","""event"",""trial"",""time""
""fullscreenenter"",""1"",""4348""
","
","
","""event"",""trial"",""time""
""fullscreenenter"",""1"",""4348""
","
","","1105.4449999937788","","","","real_trial","2021-04-02 16:57:04.901","img/card_backs/set1/green.gif","2","-190","1","",""
"casino-fixation","140","481878","0.0-25.0-0.35","245","true","img/card_backs/set1/green.gif","img/card_backs/set1/yellow.gif","img/card_backs/set1/red.gif","img/card_backs/set1/purple.gif","img/card_backs/set2/blue.gif","img/card_backs/set2/gray.gif","img/card_backs/set2/pink.gif","img/card_backs/set2/orange.gif","""event"",""trial"",""time""
""fullscreenenter"",""1"",""4348""
","
","
","""event"",""trial"",""time""
""fullscreenenter"",""1"",""4348""
","
","","null","","null","","fixation","2021-04-02 16:57:05.403","","","","","",""
"card-selection-trial","141","485469","0.0-25.0-1.35","245","true","img/card_backs/set1/green.gif","img/card_backs/set1/yellow.gif","img/card_backs/set1/red.gif","img/card_backs/set1/purple.gif","img/card_backs/set2/blue.gif","img/card_backs/set2/gray.gif","img/card_backs/set2/pink.gif","img/card_backs/set2/orange.gif","""event"",""trial"",""time""
""fullscreenenter"",""1"",""4348""
","
","
","""event"",""trial"",""time""
""fullscreenenter"",""1"",""4348""
","
","","1573.934999993071","","","","real_trial","2021-04-02 16:57:08.994","img/card_backs/set1/purple.gif","3","-110","1","",""
"casino-fixation","142","485970","0.0-25.0-0.36","245","true","img/card_backs/set1/green.gif","img/card_backs/set1/yellow.gif","img/card_backs/set1/red.gif","img/card_backs/set1/purple.gif","img/card_backs/set2/blue.gif","img/card_backs/set2/gray.gif","img/card_backs/set2/pink.gif","img/card_backs/set2/orange.gif","""event"",""trial"",""time""
""fullscreenenter"",""1"",""4348""
","
","
","""event"",""trial"",""time""
""fullscreenenter"",""1"",""4348""
","
","","null","","null","","fixation","2021-04-02 16:57:09.496","","","","","",""
"card-selection-trial","143","489159","0.0-25.0-1.36","245","true","img/card_backs/set1/green.gif","img/card_backs/set1/yellow.gif","img/card_backs/set1/red.gif","img/card_backs/set1/purple.gif","img/card_backs/set2/blue.gif","img/card_backs/set2/gray.gif","img/card_backs/set2/pink.gif","img/card_backs/set2/orange.gif","""event"",""trial"",""time""
""fullscreenenter"",""1"",""4348""
","
","
","""event"",""trial"",""time""
""fullscreenenter"",""1"",""4348""
","
","","1179.7049999586307","","","","real_trial","2021-04-02 16:57:12.684","img/card_backs/set1/purple.gif","2","50","1","",""
"casino-fixation","144","489663","0.0-25.0-0.37","245","true","img/card_backs/set1/green.gif","img/card_backs/set1/yellow.gif","img/card_backs/set1/red.gif","img/card_backs/set1/purple.gif","img/card_backs/set2/blue.gif","img/card_backs/set2/gray.gif","img/card_backs/set2/pink.gif","img/card_backs/set2/orange.gif","""event"",""trial"",""time""
""fullscreenenter"",""1"",""4348""
","
","
","""event"",""trial"",""time""
""fullscreenenter"",""1"",""4348""
","
","","null","","null","","fixation","2021-04-02 16:57:13.188","","","","","",""
"card-selection-trial","145","492496","0.0-25.0-1.37","245","true","img/card_backs/set1/green.gif","img/card_backs/set1/yellow.gif","img/card_backs/set1/red.gif","img/card_backs/set1/purple.gif","img/card_backs/set2/blue.gif","img/card_backs/set2/gray.gif","img/card_backs/set2/pink.gif","img/card_backs/set2/orange.gif","""event"",""trial"",""time""
""fullscreenenter"",""1"",""4348""
","
","
","""event"",""trial"",""time""
""fullscreenenter"",""1"",""4348""
","
","","827.385000011418","","","","real_trial","2021-04-02 16:57:16.021","img/card_backs/set1/purple.gif","0","-110","1","",""
"casino-fixation","146","493003","0.0-25.0-0.38","245","true","img/card_backs/set1/green.gif","img/card_backs/set1/yellow.gif","img/card_backs/set1/red.gif","img/card_backs/set1/purple.gif","img/card_backs/set2/blue.gif","img/card_backs/set2/gray.gif","img/card_backs/set2/pink.gif","img/card_backs/set2/orange.gif","""event"",""trial"",""time""
""fullscreenenter"",""1"",""4348""
","
","
","""event"",""trial"",""time""
""fullscreenenter"",""1"",""4348""
","
","","null","","null","","fixation","2021-04-02 16:57:16.529","","","","","",""
"card-selection-trial","147","496638","0.0-25.0-1.38","245","true","img/card_backs/set1/green.gif","img/card_backs/set1/yellow.gif","img/card_backs/set1/red.gif","img/card_backs/set1/purple.gif","img/card_backs/set2/blue.gif","img/card_backs/set2/gray.gif","img/card_backs/set2/pink.gif","img/card_backs/set2/orange.gif","""event"",""trial"",""time""
""fullscreenenter"",""1"",""4348""
","
","
","""event"",""trial"",""time""
""fullscreenenter"",""1"",""4348""
","
","","1616.4100000169128","","","","real_trial","2021-04-02 16:57:20.163","img/card_backs/set1/yellow.gif","2","-190","1","",""
"casino-fixation","148","497140","0.0-25.0-0.39","245","true","img/card_backs/set1/green.gif","img/card_backs/set1/yellow.gif","img/card_backs/set1/red.gif","img/card_backs/set1/purple.gif","img/card_backs/set2/blue.gif","img/card_backs/set2/gray.gif","img/card_backs/set2/pink.gif","img/card_backs/set2/orange.gif","""event"",""trial"",""time""
""fullscreenenter"",""1"",""4348""
","
","
","""event"",""trial"",""time""
""fullscreenenter"",""1"",""4348""
","
","","null","","null","","fixation","2021-04-02 16:57:20.665","","","","","",""
"card-selection-trial","149","500037","0.0-25.0-1.39","245","true","img/card_backs/set1/green.gif","img/card_backs/set1/yellow.gif","img/card_backs/set1/red.gif","img/card_backs/set1/purple.gif","img/card_backs/set2/blue.gif","img/card_backs/set2/gray.gif","img/card_backs/set2/pink.gif","img/card_backs/set2/orange.gif","""event"",""trial"",""time""
""fullscreenenter"",""1"",""4348""
","
","
","""event"",""trial"",""time""
""fullscreenenter"",""1"",""4348""
","
","","884.3200000119396","","","","real_trial","2021-04-02 16:57:23.562","img/card_backs/set1/yellow.gif","0","260","1","",""
"casino-fixation","150","500538","0.0-25.0-0.40","245","true","img/card_backs/set1/green.gif","img/card_backs/set1/yellow.gif","img/card_backs/set1/red.gif","img/card_backs/set1/purple.gif","img/card_backs/set2/blue.gif","img/card_backs/set2/gray.gif","img/card_backs/set2/pink.gif","img/card_backs/set2/orange.gif","""event"",""trial"",""time""
""fullscreenenter"",""1"",""4348""
","
","
","""event"",""trial"",""time""
""fullscreenenter"",""1"",""4348""
","
","","null","","null","","fixation","2021-04-02 16:57:24.064","","","","","",""
"card-selection-trial","151","503590","0.0-25.0-1.40","245","true","img/card_backs/set1/green.gif","img/card_backs/set1/yellow.gif","img/card_backs/set1/red.gif","img/card_backs/set1/purple.gif","img/card_backs/set2/blue.gif","img/card_backs/set2/gray.gif","img/card_backs/set2/pink.gif","img/card_backs/set2/orange.gif","""event"",""trial"",""time""
""fullscreenenter"",""1"",""4348""
","
","
","""event"",""trial"",""time""
""fullscreenenter"",""1"",""4348""
","
","","1045.200000051409","","","","real_trial","2021-04-02 16:57:27.115","img/card_backs/set1/yellow.gif","1","-190","1","",""
"casino-fixation","152","504096","0.0-25.0-0.41","245","true","img/card_backs/set1/green.gif","img/card_backs/set1/yellow.gif","img/card_backs/set1/red.gif","img/card_backs/set1/purple.gif","img/card_backs/set2/blue.gif","img/card_backs/set2/gray.gif","img/card_backs/set2/pink.gif","img/card_backs/set2/orange.gif","""event"",""trial"",""time""
""fullscreenenter"",""1"",""4348""
","
","
","""event"",""trial"",""time""
""fullscreenenter"",""1"",""4348""
","
","","null","","null","","fixation","2021-04-02 16:57:27.622","","","","","",""
"card-selection-trial","153","507168","0.0-25.0-1.41","245","true","img/card_backs/set1/green.gif","img/card_backs/set1/yellow.gif","img/card_backs/set1/red.gif","img/card_backs/set1/purple.gif","img/card_backs/set2/blue.gif","img/card_backs/set2/gray.gif","img/card_backs/set2/pink.gif","img/card_backs/set2/orange.gif","""event"",""trial"",""time""
""fullscreenenter"",""1"",""4348""
","
","
","""event"",""trial"",""time""
""fullscreenenter"",""1"",""4348""
","
","","1061.9300000253133","","","","real_trial","2021-04-02 16:57:30.693","img/card_backs/set1/yellow.gif","3","-210","1","",""
"casino-fixation","154","507672","0.0-25.0-0.42","245","true","img/card_backs/set1/green.gif","img/card_backs/set1/yellow.gif","img/card_backs/set1/red.gif","img/card_backs/set1/purple.gif","img/card_backs/set2/blue.gif","img/card_backs/set2/gray.gif","img/card_backs/set2/pink.gif","img/card_backs/set2/orange.gif","""event"",""trial"",""time""
""fullscreenenter"",""1"",""4348""
","
","
","""event"",""trial"",""time""
""fullscreenenter"",""1"",""4348""
","
","","null","","null","","fixation","2021-04-02 16:57:31.197","","","","","",""
"card-selection-trial","155","511446","0.0-25.0-1.42","245","true","img/card_backs/set1/green.gif","img/card_backs/set1/yellow.gif","img/card_backs/set1/red.gif","img/card_backs/set1/purple.gif","img/card_backs/set2/blue.gif","img/card_backs/set2/gray.gif","img/card_backs/set2/pink.gif","img/card_backs/set2/orange.gif","""event"",""trial"",""time""
""fullscreenenter"",""1"",""4348""
","
","
","""event"",""trial"",""time""
""fullscreenenter"",""1"",""4348""
","
","","1769.060000020545","","","","real_trial","2021-04-02 16:57:34.971","img/card_backs/set1/green.gif","2","-190","1","",""
"casino-fixation","156","511948","0.0-25.0-0.43","245","true","img/card_backs/set1/green.gif","img/card_backs/set1/yellow.gif","img/card_backs/set1/red.gif","img/card_backs/set1/purple.gif","img/card_backs/set2/blue.gif","img/card_backs/set2/gray.gif","img/card_backs/set2/pink.gif","img/card_backs/set2/orange.gif","""event"",""trial"",""time""
""fullscreenenter"",""1"",""4348""
","
","
","""event"",""trial"",""time""
""fullscreenenter"",""1"",""4348""
","
","","null","","null","","fixation","2021-04-02 16:57:35.473","","","","","",""
"card-selection-trial","157","515306","0.0-25.0-1.43","245","true","img/card_backs/set1/green.gif","img/card_backs/set1/yellow.gif","img/card_backs/set1/red.gif","img/card_backs/set1/purple.gif","img/card_backs/set2/blue.gif","img/card_backs/set2/gray.gif","img/card_backs/set2/pink.gif","img/card_backs/set2/orange.gif","""event"",""trial"",""time""
""fullscreenenter"",""1"",""4348""
","
","
","""event"",""trial"",""time""
""fullscreenenter"",""1"",""4348""
","
","","1352.5749999680556","","","","real_trial","2021-04-02 16:57:38.831","img/card_backs/set1/red.gif","2","50","1","",""
"casino-fixation","158","515808","0.0-25.0-0.44","245","true","img/card_backs/set1/green.gif","img/card_backs/set1/yellow.gif","img/card_backs/set1/red.gif","img/card_backs/set1/purple.gif","img/card_backs/set2/blue.gif","img/card_backs/set2/gray.gif","img/card_backs/set2/pink.gif","img/card_backs/set2/orange.gif","""event"",""trial"",""time""
""fullscreenenter"",""1"",""4348""
","
","
","""event"",""trial"",""time""
""fullscreenenter"",""1"",""4348""
","
","","null","","null","","fixation","2021-04-02 16:57:39.333","","","","","",""
"card-selection-trial","159","518825","0.0-25.0-1.44","245","true","img/card_backs/set1/green.gif","img/card_backs/set1/yellow.gif","img/card_backs/set1/red.gif","img/card_backs/set1/purple.gif","img/card_backs/set2/blue.gif","img/card_backs/set2/gray.gif","img/card_backs/set2/pink.gif","img/card_backs/set2/orange.gif","""event"",""trial"",""time""
""fullscreenenter"",""1"",""4348""
","
","
","""event"",""trial"",""time""
""fullscreenenter"",""1"",""4348""
","
","","1013.1149999797344","","","","real_trial","2021-04-02 16:57:42.350","img/card_backs/set1/red.gif","3","-90","1","",""
"casino-fixation","160","519326","0.0-25.0-0.45","245","true","img/card_backs/set1/green.gif","img/card_backs/set1/yellow.gif","img/card_backs/set1/red.gif","img/card_backs/set1/purple.gif","img/card_backs/set2/blue.gif","img/card_backs/set2/gray.gif","img/card_backs/set2/pink.gif","img/card_backs/set2/orange.gif","""event"",""trial"",""time""
""fullscreenenter"",""1"",""4348""
","
","
","""event"",""trial"",""time""
""fullscreenenter"",""1"",""4348""
","
","","null","","null","","fixation","2021-04-02 16:57:42.852","","","","","",""
"card-selection-trial","161","523025","0.0-25.0-1.45","245","true","img/card_backs/set1/green.gif","img/card_backs/set1/yellow.gif","img/card_backs/set1/red.gif","img/card_backs/set1/purple.gif","img/card_backs/set2/blue.gif","img/card_backs/set2/gray.gif","img/card_backs/set2/pink.gif","img/card_backs/set2/orange.gif","""event"",""trial"",""time""
""fullscreenenter"",""1"",""4348""
","
","
","""event"",""trial"",""time""
""fullscreenenter"",""1"",""4348""
","
","","1694.145000015851","","","","real_trial","2021-04-02 16:57:46.550","img/card_backs/set1/red.gif","1","-100","1","",""
"casino-fixation","162","523527","0.0-25.0-0.46","245","true","img/card_backs/set1/green.gif","img/card_backs/set1/yellow.gif","img/card_backs/set1/red.gif","img/card_backs/set1/purple.gif","img/card_backs/set2/blue.gif","img/card_backs/set2/gray.gif","img/card_backs/set2/pink.gif","img/card_backs/set2/orange.gif","""event"",""trial"",""time""
""fullscreenenter"",""1"",""4348""
","
","
","""event"",""trial"",""time""
""fullscreenenter"",""1"",""4348""
","
","","null","","null","","fixation","2021-04-02 16:57:47.053","","","","","",""
"card-selection-trial","163","526648","0.0-25.0-1.46","245","true","img/card_backs/set1/green.gif","img/card_backs/set1/yellow.gif","img/card_backs/set1/red.gif","img/card_backs/set1/purple.gif","img/card_backs/set2/blue.gif","img/card_backs/set2/gray.gif","img/card_backs/set2/pink.gif","img/card_backs/set2/orange.gif","""event"",""trial"",""time""
""fullscreenenter"",""1"",""4348""
","
","
","""event"",""trial"",""time""
""fullscreenenter"",""1"",""4348""
","
","","1109.920000017155","","","","real_trial","2021-04-02 16:57:50.173","img/card_backs/set1/green.gif","1","260","1","",""
"casino-fixation","164","527151","0.0-25.0-0.47","245","true","img/card_backs/set1/green.gif","img/card_backs/set1/yellow.gif","img/card_backs/set1/red.gif","img/card_backs/set1/purple.gif","img/card_backs/set2/blue.gif","img/card_backs/set2/gray.gif","img/card_backs/set2/pink.gif","img/card_backs/set2/orange.gif","""event"",""trial"",""time""
""fullscreenenter"",""1"",""4348""
","
","
","""event"",""trial"",""time""
""fullscreenenter"",""1"",""4348""
","
","","null","","null","","fixation","2021-04-02 16:57:50.676","","","","","",""
"card-selection-trial","165","530249","0.0-25.0-1.47","245","true","img/card_backs/set1/green.gif","img/card_backs/set1/yellow.gif","img/card_backs/set1/red.gif","img/card_backs/set1/purple.gif","img/card_backs/set2/blue.gif","img/card_backs/set2/gray.gif","img/card_backs/set2/pink.gif","img/card_backs/set2/orange.gif","""event"",""trial"",""time""
""fullscreenenter"",""1"",""4348""
","
","
","""event"",""trial"",""time""
""fullscreenenter"",""1"",""4348""
","
","","1088.3400000166148","","","","real_trial","2021-04-02 16:57:53.774","img/card_backs/set1/green.gif","1","-190","1","",""
"casino-fixation","166","530752","0.0-25.0-0.48","245","true","img/card_backs/set1/green.gif","img/card_backs/set1/yellow.gif","img/card_backs/set1/red.gif","img/card_backs/set1/purple.gif","img/card_backs/set2/blue.gif","img/card_backs/set2/gray.gif","img/card_backs/set2/pink.gif","img/card_backs/set2/orange.gif","""event"",""trial"",""time""
""fullscreenenter"",""1"",""4348""
","
","
","""event"",""trial"",""time""
""fullscreenenter"",""1"",""4348""
","
","","null","","null","","fixation","2021-04-02 16:57:54.278","","","","","",""
"card-selection-trial","167","533688","0.0-25.0-1.48","245","true","img/card_backs/set1/green.gif","img/card_backs/set1/yellow.gif","img/card_backs/set1/red.gif","img/card_backs/set1/purple.gif","img/card_backs/set2/blue.gif","img/card_backs/set2/gray.gif","img/card_backs/set2/pink.gif","img/card_backs/set2/orange.gif","""event"",""trial"",""time""
""fullscreenenter"",""1"",""4348""
","
","
","""event"",""trial"",""time""
