"trial_type","trial_index","time_elapsed","internal_node_id","sub_id","risk_good_first","block1_A","block1_B","block1_C","block1_D","block2_A","block2_B","block2_C","block2_D","interactions","blur_events","focus_events","fullscreenenter_events","fullscreenexit_events","success","rt","stimulus","key_press","button_pressed","task_part","timestamp","card_choice","choice_position","points_earned","block","correct","response"
"pavlovia","0","4","0.0-0.0","A1161","true","img/card_backs/set1/purple.gif","img/card_backs/set1/green.gif","img/card_backs/set1/yellow.gif","img/card_backs/set1/red.gif","img/card_backs/set2/pink.gif","img/card_backs/set2/gray.gif","img/card_backs/set2/orange.gif","img/card_backs/set2/blue.gif","""event"",""trial"",""time""
""fullscreenenter"",""1"",""1530""
","
","
","""event"",""trial"",""time""
""fullscreenenter"",""1"",""1530""
","
","","","","","","","","","","","","",""
"fullscreen","1","2518","0.0-1.0","A1161","true","img/card_backs/set1/purple.gif","img/card_backs/set1/green.gif","img/card_backs/set1/yellow.gif","img/card_backs/set1/red.gif","img/card_backs/set2/pink.gif","img/card_backs/set2/gray.gif","img/card_backs/set2/orange.gif","img/card_backs/set2/blue.gif","""event"",""trial"",""time""
""fullscreenenter"",""1"",""1530""
","
","
","""event"",""trial"",""time""
""fullscreenenter"",""1"",""1530""
","
","true","","","","","","","","","","","",""
"audio-keyboard-response","2","4678","0.0-2.0","A1161","true","img/card_backs/set1/purple.gif","img/card_backs/set1/green.gif","img/card_backs/set1/yellow.gif","img/card_backs/set1/red.gif","img/card_backs/set2/pink.gif","img/card_backs/set2/gray.gif","img/card_backs/set2/orange.gif","img/card_backs/set2/blue.gif","""event"",""trial"",""time""
""fullscreenenter"",""1"",""1530""
","
","
","""event"",""trial"",""time""
""fullscreenenter"",""1"",""1530""
","
","","1920","audio/beep_loop.wav","32","","","","","","","","",""
"audio-button-response","3","6593","0.0-3.0","A1161","true","img/card_backs/set1/purple.gif","img/card_backs/set1/green.gif","img/card_backs/set1/yellow.gif","img/card_backs/set1/red.gif","img/card_backs/set2/pink.gif","img/card_backs/set2/gray.gif","img/card_backs/set2/orange.gif","img/card_backs/set2/blue.gif","""event"",""trial"",""time""
""fullscreenenter"",""1"",""1530""
","
","
","""event"",""trial"",""time""
""fullscreenenter"",""1"",""1530""
","
","","NaN","audio/turtle.mp3","","3","","","","","","","",""
"audio-button-response","4","9005","0.0-4.0","A1161","true","img/card_backs/set1/purple.gif","img/card_backs/set1/green.gif","img/card_backs/set1/yellow.gif","img/card_backs/set1/red.gif","img/card_backs/set2/pink.gif","img/card_backs/set2/gray.gif","img/card_backs/set2/orange.gif","img/card_backs/set2/blue.gif","""event"",""trial"",""time""
""fullscreenenter"",""1"",""1530""
","
","
","""event"",""trial"",""time""
""fullscreenenter"",""1"",""1530""
","
","","NaN","audio/shark.mp3","","2","","","","","","","",""
"fullscreen","5","12632","0.0-5.0","A1161","true","img/card_backs/set1/purple.gif","img/card_backs/set1/green.gif","img/card_backs/set1/yellow.gif","img/card_backs/set1/red.gif","img/card_backs/set2/pink.gif","img/card_backs/set2/gray.gif","img/card_backs/set2/orange.gif","img/card_backs/set2/blue.gif","""event"",""trial"",""time""
""fullscreenenter"",""1"",""1530""
","
","
","""event"",""trial"",""time""
""fullscreenenter"",""1"",""1530""
","
","true","","","","","","","","","","","",""
"casino-keyboard-response","6","15522","0.0-6.0-0.0","A1161","true","img/card_backs/set1/purple.gif","img/card_backs/set1/green.gif","img/card_backs/set1/yellow.gif","img/card_backs/set1/red.gif","img/card_backs/set2/pink.gif","img/card_backs/set2/gray.gif","img/card_backs/set2/orange.gif","img/card_backs/set2/blue.gif","""event"",""trial"",""time""
""fullscreenenter"",""1"",""1530""
","
","
","""event"",""trial"",""time""
""fullscreenenter"",""1"",""1530""
","
","","2887.5","Welcome to the casino!","71","","instructions","2021-06-23 22:24:04.362","","","","","",""
"casino-keyboard-response","7","25067","0.0-6.0-0.1","A1161","true","img/card_backs/set1/purple.gif","img/card_backs/set1/green.gif","img/card_backs/set1/yellow.gif","img/card_backs/set1/red.gif","img/card_backs/set2/pink.gif","img/card_backs/set2/gray.gif","img/card_backs/set2/orange.gif","img/card_backs/set2/blue.gif","""event"",""trial"",""time""
""fullscreenenter"",""1"",""1530""
","
","
","""event"",""trial"",""time""
""fullscreenenter"",""1"",""1530""
","
","","9543.59999999404","Today you will be playing a game to earn tokens. </br> At the end of the experiment, you will be paid a bonus based on how many tokens you win. ","69","","instructions","2021-06-23 22:24:13.907","","","","","",""
"casino-keyboard-response","8","32786","0.0-6.0-0.2","A1161","true","img/card_backs/set1/purple.gif","img/card_backs/set1/green.gif","img/card_backs/set1/yellow.gif","img/card_backs/set1/red.gif","img/card_backs/set2/pink.gif","img/card_backs/set2/gray.gif","img/card_backs/set2/orange.gif","img/card_backs/set2/blue.gif","""event"",""trial"",""time""
""fullscreenenter"",""1"",""1530""
","
","
","""event"",""trial"",""time""
""fullscreenenter"",""1"",""1530""
","
","","7715.70000000298","On every turn, you will be shown four different decks of cards. </br> You need to select a card from one of the four decks.  ","75","","instructions","2021-06-23 22:24:21.626","","","","","",""
"casino-keyboard-response","9","37595","0.0-6.0-0.3","A1161","true","img/card_backs/set1/purple.gif","img/card_backs/set1/green.gif","img/card_backs/set1/yellow.gif","img/card_backs/set1/red.gif","img/card_backs/set2/pink.gif","img/card_backs/set2/gray.gif","img/card_backs/set2/orange.gif","img/card_backs/set2/blue.gif","""event"",""trial"",""time""
""fullscreenenter"",""1"",""1530""
","
","
","""event"",""trial"",""time""
""fullscreenenter"",""1"",""1530""
","
","","4805.79999999702","On the next screen, you will see what the decks will look like. ","66","","instructions","2021-06-23 22:24:26.435","","","","","",""
"card-selection-trial","10","41613","0.0-7.0-0.0","A1161","true","img/card_backs/set1/purple.gif","img/card_backs/set1/green.gif","img/card_backs/set1/yellow.gif","img/card_backs/set1/red.gif","img/card_backs/set2/pink.gif","img/card_backs/set2/gray.gif","img/card_backs/set2/orange.gif","img/card_backs/set2/blue.gif","""event"",""trial"",""time""
""fullscreenenter"",""1"",""1530""
","
","
","""event"",""trial"",""time""
""fullscreenenter"",""1"",""1530""
","
","","null","","","","practice","2021-06-23 22:24:30.453","null","null","null","0","",""
"casino-keyboard-response","11","49103","0.0-8.0-0.0","A1161","true","img/card_backs/set1/purple.gif","img/card_backs/set1/green.gif","img/card_backs/set1/yellow.gif","img/card_backs/set1/red.gif","img/card_backs/set2/pink.gif","img/card_backs/set2/gray.gif","img/card_backs/set2/orange.gif","img/card_backs/set2/blue.gif","""event"",""trial"",""time""
""fullscreenenter"",""1"",""1530""
","
","
","""event"",""trial"",""time""
""fullscreenenter"",""1"",""1530""
","
","","7487.5","You should pick a card from a deck using the '2', '4', '6', and '8' keys at the top of the keyboard.","85","","instructions","2021-06-23 22:24:37.943","","","","","",""
"casino-keyboard-response","12","54278","0.0-8.0-0.1","A1161","true","img/card_backs/set1/purple.gif","img/card_backs/set1/green.gif","img/card_backs/set1/yellow.gif","img/card_backs/set1/red.gif","img/card_backs/set2/pink.gif","img/card_backs/set2/gray.gif","img/card_backs/set2/orange.gif","img/card_backs/set2/blue.gif","""event"",""trial"",""time""
""fullscreenenter"",""1"",""1530""
","
","
","""event"",""trial"",""time""
""fullscreenenter"",""1"",""1530""
","
","","5171.899999991059","Once you select a card, it will turn over and you will see how many tokens you earned.","83","","instructions","2021-06-23 22:24:43.119","","","","","",""
"casino-keyboard-response","13","70271","0.0-8.0-0.2","A1161","true","img/card_backs/set1/purple.gif","img/card_backs/set1/green.gif","img/card_backs/set1/yellow.gif","img/card_backs/set1/red.gif","img/card_backs/set2/pink.gif","img/card_backs/set2/gray.gif","img/card_backs/set2/orange.gif","img/card_backs/set2/blue.gif","""event"",""trial"",""time""
""fullscreenenter"",""1"",""1530""
","
","
","""event"",""trial"",""time""
""fullscreenenter"",""1"",""1530""
","
","","15988.59999999404","Let's try practicing that! </br> First, try to put your fingers over the '2', '4', '6', and '8' keys. </br>  You can use whatever fingers are most comfortable for you. Try to find a comfortable position now. ","50","","instructions","2021-06-23 22:24:59.111","","","","","",""
"casino-keyboard-response","14","75854","0.0-8.0-0.3","A1161","true","img/card_backs/set1/purple.gif","img/card_backs/set1/green.gif","img/card_backs/set1/yellow.gif","img/card_backs/set1/red.gif","img/card_backs/set2/pink.gif","img/card_backs/set2/gray.gif","img/card_backs/set2/orange.gif","img/card_backs/set2/blue.gif","""event"",""trial"",""time""
""fullscreenenter"",""1"",""1530""
","
","
","""event"",""trial"",""time""
""fullscreenenter"",""1"",""1530""
","
","","5580.5","Okay ready? </br> On the next screen, press '2' to select the left deck. ","50","","instructions","2021-06-23 22:25:04.695","","","","","",""
"card-selection-trial","15","78783","0.0-9.0-0.0","A1161","true","img/card_backs/set1/purple.gif","img/card_backs/set1/green.gif","img/card_backs/set1/yellow.gif","img/card_backs/set1/red.gif","img/card_backs/set2/pink.gif","img/card_backs/set2/gray.gif","img/card_backs/set2/orange.gif","img/card_backs/set2/blue.gif","""event"",""trial"",""time""
""fullscreenenter"",""1"",""1530""
","
","
","""event"",""trial"",""time""
""fullscreenenter"",""1"",""1530""
","
","","898.3999999910593","","","","practice_card_selection","2021-06-23 22:25:07.623","img/practice_cards/backs/brown.gif","0","-100","","",""
"casino-keyboard-response","16","84412","0.0-10.0-0.0","A1161","true","img/card_backs/set1/purple.gif","img/card_backs/set1/green.gif","img/card_backs/set1/yellow.gif","img/card_backs/set1/red.gif","img/card_backs/set2/pink.gif","img/card_backs/set2/gray.gif","img/card_backs/set2/orange.gif","img/card_backs/set2/blue.gif","""event"",""trial"",""time""
""fullscreenenter"",""1"",""1530""
","
","
","""event"",""trial"",""time""
""fullscreenenter"",""1"",""1530""
","
","","5625.70000000298","Great! Now on the next screen, try pressing '6' to select the third deck.","54","","instructions","2021-06-23 22:25:13.252","","","","","",""
"card-selection-trial","17","87143","0.0-11.0-0.0","A1161","true","img/card_backs/set1/purple.gif","img/card_backs/set1/green.gif","img/card_backs/set1/yellow.gif","img/card_backs/set1/red.gif","img/card_backs/set2/pink.gif","img/card_backs/set2/gray.gif","img/card_backs/set2/orange.gif","img/card_backs/set2/blue.gif","""event"",""trial"",""time""
""fullscreenenter"",""1"",""1530""
","
","
","""event"",""trial"",""time""
""fullscreenenter"",""1"",""1530""
","
","","712.2000000029802","","","","practice_card_selection","2021-06-23 22:25:15.983","img/practice_cards/backs/black.gif","2","-100","","",""
"casino-keyboard-response","18","91643","0.0-12.0-0.0","A1161","true","img/card_backs/set1/purple.gif","img/card_backs/set1/green.gif","img/card_backs/set1/yellow.gif","img/card_backs/set1/red.gif","img/card_backs/set2/pink.gif","img/card_backs/set2/gray.gif","img/card_backs/set2/orange.gif","img/card_backs/set2/blue.gif","""event"",""trial"",""time""
""fullscreenenter"",""1"",""1530""
","
","
","""event"",""trial"",""time""
""fullscreenenter"",""1"",""1530""
","
","","4499.29999999702","Now on the next screen, try pressing '4' to select the second deck.","52","","instructions","2021-06-23 22:25:20.484","","","","","",""
"card-selection-trial","19","94163","0.0-13.0-0.0","A1161","true","img/card_backs/set1/purple.gif","img/card_backs/set1/green.gif","img/card_backs/set1/yellow.gif","img/card_backs/set1/red.gif","img/card_backs/set2/pink.gif","img/card_backs/set2/gray.gif","img/card_backs/set2/orange.gif","img/card_backs/set2/blue.gif","""event"",""trial"",""time""
""fullscreenenter"",""1"",""1530""
","
","
","""event"",""trial"",""time""
""fullscreenenter"",""1"",""1530""
","
","","496.5","","","","practice_card_selection","2021-06-23 22:25:23.004","img/practice_cards/backs/black.gif","1","-100","","",""
"casino-keyboard-response","20","98063","0.0-14.0-0.0","A1161","true","img/card_backs/set1/purple.gif","img/card_backs/set1/green.gif","img/card_backs/set1/yellow.gif","img/card_backs/set1/red.gif","img/card_backs/set2/pink.gif","img/card_backs/set2/gray.gif","img/card_backs/set2/orange.gif","img/card_backs/set2/blue.gif","""event"",""trial"",""time""
""fullscreenenter"",""1"",""1530""
","
","
","""event"",""trial"",""time""
""fullscreenenter"",""1"",""1530""
","
","","3897.5999999940395","Finally, try pressing '8' to select the deck all the way on the right.","56","","instructions","2021-06-23 22:25:26.903","","","","","",""
"card-selection-trial","21","101083","0.0-15.0-0.0","A1161","true","img/card_backs/set1/purple.gif","img/card_backs/set1/green.gif","img/card_backs/set1/yellow.gif","img/card_backs/set1/red.gif","img/card_backs/set2/pink.gif","img/card_backs/set2/gray.gif","img/card_backs/set2/orange.gif","img/card_backs/set2/blue.gif","""event"",""trial"",""time""
""fullscreenenter"",""1"",""1530""
","
","
","""event"",""trial"",""time""
""fullscreenenter"",""1"",""1530""
","
","","1004.1000000089407","","","","practice_card_selection","2021-06-23 22:25:29.923","img/practice_cards/backs/brown.gif","3","-100","","",""
"casino-keyboard-response","22","104753","0.0-16.0-0.0","A1161","true","img/card_backs/set1/purple.gif","img/card_backs/set1/green.gif","img/card_backs/set1/yellow.gif","img/card_backs/set1/red.gif","img/card_backs/set2/pink.gif","img/card_backs/set2/gray.gif","img/card_backs/set2/orange.gif","img/card_backs/set2/blue.gif","""event"",""trial"",""time""
""fullscreenenter"",""1"",""1530""
","
","
","""event"",""trial"",""time""
""fullscreenenter"",""1"",""1530""
","
","","3667.5","Great! It seems like you are getting the hang of this.","80","","instructions","2021-06-23 22:25:33.594","","","","","",""
"casino-keyboard-response","23","112308","0.0-16.0-0.1","A1161","true","img/card_backs/set1/purple.gif","img/card_backs/set1/green.gif","img/card_backs/set1/yellow.gif","img/card_backs/set1/red.gif","img/card_backs/set2/pink.gif","img/card_backs/set2/gray.gif","img/card_backs/set2/orange.gif","img/card_backs/set2/blue.gif","""event"",""trial"",""time""
""fullscreenenter"",""1"",""1530""
","
","
","""event"",""trial"",""time""
""fullscreenenter"",""1"",""1530""
","
","","7551.20000000298","You may have noticed that some cards will cause you to <b> win </b> tokens while other cards will cause you to <b> lose </b>  tokens.","70","","instructions","2021-06-23 22:25:41.148","","","","","",""
"casino-keyboard-response","24","120634","0.0-16.0-0.2","A1161","true","img/card_backs/set1/purple.gif","img/card_backs/set1/green.gif","img/card_backs/set1/yellow.gif","img/card_backs/set1/red.gif","img/card_backs/set2/pink.gif","img/card_backs/set2/gray.gif","img/card_backs/set2/orange.gif","img/card_backs/set2/blue.gif","""event"",""trial"",""time""
""fullscreenenter"",""1"",""1530""
","
","
","""event"",""trial"",""time""
""fullscreenenter"",""1"",""1530""
","
","","8323","Each deck has a mix of cards that will cause you to win and lose tokens. </br> However, the cards in each colored deck are different.","73","","instructions","2021-06-23 22:25:49.474","","","","","",""
"casino-keyboard-response","25","129133","0.0-16.0-0.3","A1161","true","img/card_backs/set1/purple.gif","img/card_backs/set1/green.gif","img/card_backs/set1/yellow.gif","img/card_backs/set1/red.gif","img/card_backs/set2/pink.gif","img/card_backs/set2/gray.gif","img/card_backs/set2/orange.gif","img/card_backs/set2/blue.gif","""event"",""trial"",""time""
""fullscreenenter"",""1"",""1530""
","
","
","""event"",""trial"",""time""
""fullscreenenter"",""1"",""1530""
","
","","8497.300000011921","Some colored decks are luckier than others. </br> If you choose the lucky decks, you will earn more tokens than if you choose the unlucky decks.","69","","instructions","2021-06-23 22:25:57.973","","","","","",""
"casino-keyboard-response","26","136149","0.0-16.0-0.4","A1161","true","img/card_backs/set1/purple.gif","img/card_backs/set1/green.gif","img/card_backs/set1/yellow.gif","img/card_backs/set1/red.gif","img/card_backs/set2/pink.gif","img/card_backs/set2/gray.gif","img/card_backs/set2/orange.gif","img/card_backs/set2/blue.gif","""event"",""trial"",""time""
""fullscreenenter"",""1"",""1530""
","
","
","""event"",""trial"",""time""
""fullscreenenter"",""1"",""1530""
","
","","7013.9000000059605","You should try to figure out which decks are lucky. </br> Then, try to choose the lucky decks so you can win the most tokens.","87","","instructions","2021-06-23 22:26:04.989","","","","","",""
"casino-keyboard-response","27","147347","0.0-16.0-0.5","A1161","true","img/card_backs/set1/purple.gif","img/card_backs/set1/green.gif","img/card_backs/set1/yellow.gif","img/card_backs/set1/red.gif","img/card_backs/set2/pink.gif","img/card_backs/set2/gray.gif","img/card_backs/set2/orange.gif","img/card_backs/set2/blue.gif","""event"",""trial"",""time""
""fullscreenenter"",""1"",""1530""
","
","
","""event"",""trial"",""time""
""fullscreenenter"",""1"",""1530""
","
","","11194.20000000298","To make it trickier, the casino dealer will switch the locations of the decks on every turn. </br> The color of the deck determines how lucky it is. The location does not matter.","88","","instructions","2021-06-23 22:26:16.187","","","","","",""
"casino-keyboard-response","28","156777","0.0-16.0-0.6","A1161","true","img/card_backs/set1/purple.gif","img/card_backs/set1/green.gif","img/card_backs/set1/yellow.gif","img/card_backs/set1/red.gif","img/card_backs/set2/pink.gif","img/card_backs/set2/gray.gif","img/card_backs/set2/orange.gif","img/card_backs/set2/blue.gif","""event"",""trial"",""time""
""fullscreenenter"",""1"",""1530""
","
","
","""event"",""trial"",""time""
""fullscreenenter"",""1"",""1530""
","
","","9427.199999988079","The mix of cards in each colored deck will stay the same throughout the game. </br> That means that a deck that is lucky early on will stay lucky.","79","","instructions","2021-06-23 22:26:25.617","","","","","",""
"casino-keyboard-response","29","164895","0.0-16.0-0.7","A1161","true","img/card_backs/set1/purple.gif","img/card_backs/set1/green.gif","img/card_backs/set1/yellow.gif","img/card_backs/set1/red.gif","img/card_backs/set2/pink.gif","img/card_backs/set2/gray.gif","img/card_backs/set2/orange.gif","img/card_backs/set2/blue.gif","""event"",""trial"",""time""
""fullscreenenter"",""1"",""1530""
","
","
","""event"",""trial"",""time""
""fullscreenenter"",""1"",""1530""
","
","","8115.20000000298","Remember though, all the decks have a <b> mix </b> of both <b> good </b> and <b> bad </b> cards so it may take a couple of turns to figure out if a deck is lucky.","69","","instructions","2021-06-23 22:26:33.735","","","","","",""
"casino-keyboard-response","30","172919","0.0-16.0-0.8","A1161","true","img/card_backs/set1/purple.gif","img/card_backs/set1/green.gif","img/card_backs/set1/yellow.gif","img/card_backs/set1/red.gif","img/card_backs/set2/pink.gif","img/card_backs/set2/gray.gif","img/card_backs/set2/orange.gif","img/card_backs/set2/blue.gif","""event"",""trial"",""time""
""fullscreenenter"",""1"",""1530""
","
","
","""event"",""trial"",""time""
""fullscreenenter"",""1"",""1530""
","
","","8020.399999991059","At the end of the game, you will be paid bonus money based on how many tokens you win. </br> If you win more tokens, you will earn more money!","72","","instructions","2021-06-23 22:26:41.759","","","","","",""
"casino-keyboard-response","31","183025","0.0-16.0-0.9","A1161","true","img/card_backs/set1/purple.gif","img/card_backs/set1/green.gif","img/card_backs/set1/yellow.gif","img/card_backs/set1/red.gif","img/card_backs/set2/pink.gif","img/card_backs/set2/gray.gif","img/card_backs/set2/orange.gif","img/card_backs/set2/blue.gif","""event"",""trial"",""time""
""fullscreenenter"",""1"",""1530""
","
","
","""event"",""trial"",""time""
""fullscreenenter"",""1"",""1530""
","
","","10102.70000000298","You will never <b> lose </b> money. </br> If you end up with fewer than 0 tokens, you will earn $0 of bonus money, but you will still be paid for playing the game.","83","","instructions","2021-06-23 22:26:51.865","","","","","",""
"casino-keyboard-response","32","187920","0.0-16.0-0.10","A1161","true","img/card_backs/set1/purple.gif","img/card_backs/set1/green.gif","img/card_backs/set1/yellow.gif","img/card_backs/set1/red.gif","img/card_backs/set2/pink.gif","img/card_backs/set2/gray.gif","img/card_backs/set2/orange.gif","img/card_backs/set2/blue.gif","""event"",""trial"",""time""
""fullscreenenter"",""1"",""1530""
","
","
","""event"",""trial"",""time""
""fullscreenenter"",""1"",""1530""
","
","","4893.9000000059605","You will have 10 seconds to make each choice.","82","","instructions","2021-06-23 22:26:56.760","","","","","",""
"casino-keyboard-response","33","196138","0.0-16.0-0.11","A1161","true","img/card_backs/set1/purple.gif","img/card_backs/set1/green.gif","img/card_backs/set1/yellow.gif","img/card_backs/set1/red.gif","img/card_backs/set2/pink.gif","img/card_backs/set2/gray.gif","img/card_backs/set2/orange.gif","img/card_backs/set2/blue.gif","""event"",""trial"",""time""
""fullscreenenter"",""1"",""1530""
","
","
","""event"",""trial"",""time""
""fullscreenenter"",""1"",""1530""
","
","","8212","Before you play the game for real, you will play with practice decks. </br> The tokens you earn during practice won't count toward your total.","86","","instructions","2021-06-23 22:27:04.978","","","","","",""
"casino-keyboard-response","34","208385","0.0-16.0-0.12","A1161","true","img/card_backs/set1/purple.gif","img/card_backs/set1/green.gif","img/card_backs/set1/yellow.gif","img/card_backs/set1/red.gif","img/card_backs/set2/pink.gif","img/card_backs/set2/gray.gif","img/card_backs/set2/orange.gif","img/card_backs/set2/blue.gif","""event"",""trial"",""time""
""fullscreenenter"",""1"",""1530""
","
","
","""event"",""trial"",""time""
""fullscreenenter"",""1"",""1530""
","
","","12245.79999999702","Ready? Remember, use the '2', '4', '6', and '8' keys to select the decks. </br> Put your fingers on those keys now and then press '2' to begin.","50","","instructions","2021-06-23 22:27:17.225","","","","","",""
"casino-fixation","35","208903","0.0-17.0-0.0","A1161","true","img/card_backs/set1/purple.gif","img/card_backs/set1/green.gif","img/card_backs/set1/yellow.gif","img/card_backs/set1/red.gif","img/card_backs/set2/pink.gif","img/card_backs/set2/gray.gif","img/card_backs/set2/orange.gif","img/card_backs/set2/blue.gif","""event"",""trial"",""time""
""fullscreenenter"",""1"",""1530""
","
","
","""event"",""trial"",""time""
""fullscreenenter"",""1"",""1530""
","
","","null","","null","","fixation","2021-06-23 22:27:17.743","","","","","",""
"card-selection-trial","36","212863","0.0-17.0-1.0","A1161","true","img/card_backs/set1/purple.gif","img/card_backs/set1/green.gif","img/card_backs/set1/yellow.gif","img/card_backs/set1/red.gif","img/card_backs/set2/pink.gif","img/card_backs/set2/gray.gif","img/card_backs/set2/orange.gif","img/card_backs/set2/blue.gif","""event"",""trial"",""time""
""fullscreenenter"",""1"",""1530""
","
","
","""event"",""trial"",""time""
""fullscreenenter"",""1"",""1530""
","
","","1946","","","","practice","2021-06-23 22:27:21.703","img/practice_cards/backs/black.gif","1","-100","0","",""
"casino-fixation","37","213373","0.0-17.0-0.1","A1161","true","img/card_backs/set1/purple.gif","img/card_backs/set1/green.gif","img/card_backs/set1/yellow.gif","img/card_backs/set1/red.gif","img/card_backs/set2/pink.gif","img/card_backs/set2/gray.gif","img/card_backs/set2/orange.gif","img/card_backs/set2/blue.gif","""event"",""trial"",""time""
""fullscreenenter"",""1"",""1530""
","
","
","""event"",""trial"",""time""
""fullscreenenter"",""1"",""1530""
","
","","null","","null","","fixation","2021-06-23 22:27:22.213","","","","","",""
"card-selection-trial","38","217662","0.0-17.0-1.1","A1161","true","img/card_backs/set1/purple.gif","img/card_backs/set1/green.gif","img/card_backs/set1/yellow.gif","img/card_backs/set1/red.gif","img/card_backs/set2/pink.gif","img/card_backs/set2/gray.gif","img/card_backs/set2/orange.gif","img/card_backs/set2/blue.gif","""event"",""trial"",""time""
""fullscreenenter"",""1"",""1530""
","
","
","""event"",""trial"",""time""
""fullscreenenter"",""1"",""1530""
","
","","2276.0999999940395","","","","practice","2021-06-23 22:27:26.502","img/practice_cards/backs/dark_blue.gif","2","200","0","",""
"casino-fixation","39","218183","0.0-17.0-0.2","A1161","true","img/card_backs/set1/purple.gif","img/card_backs/set1/green.gif","img/card_backs/set1/yellow.gif","img/card_backs/set1/red.gif","img/card_backs/set2/pink.gif","img/card_backs/set2/gray.gif","img/card_backs/set2/orange.gif","img/card_backs/set2/blue.gif","""event"",""trial"",""time""
""fullscreenenter"",""1"",""1530""
","
","
","""event"",""trial"",""time""
""fullscreenenter"",""1"",""1530""
","
","","null","","null","","fixation","2021-06-23 22:27:27.023","","","","","",""
"card-selection-trial","40","222219","0.0-17.0-1.2","A1161","true","img/card_backs/set1/purple.gif","img/card_backs/set1/green.gif","img/card_backs/set1/yellow.gif","img/card_backs/set1/red.gif","img/card_backs/set2/pink.gif","img/card_backs/set2/gray.gif","img/card_backs/set2/orange.gif","img/card_backs/set2/blue.gif","""event"",""trial"",""time""
""fullscreenenter"",""1"",""1530""
","
","
","""event"",""trial"",""time""
""fullscreenenter"",""1"",""1530""
","
","","2019.1000000089407","","","","practice","2021-06-23 22:27:31.059","img/practice_cards/backs/dark_blue.gif","1","-200","0","",""
"casino-fixation","41","222733","0.0-17.0-0.3","A1161","true","img/card_backs/set1/purple.gif","img/card_backs/set1/green.gif","img/card_backs/set1/yellow.gif","img/card_backs/set1/red.gif","img/card_backs/set2/pink.gif","img/card_backs/set2/gray.gif","img/card_backs/set2/orange.gif","img/card_backs/set2/blue.gif","""event"",""trial"",""time""
""fullscreenenter"",""1"",""1530""
","
","
","""event"",""trial"",""time""
""fullscreenenter"",""1"",""1530""
","
","","null","","null","","fixation","2021-06-23 22:27:31.573","","","","","",""
"card-selection-trial","42","225914","0.0-17.0-1.3","A1161","true","img/card_backs/set1/purple.gif","img/card_backs/set1/green.gif","img/card_backs/set1/yellow.gif","img/card_backs/set1/red.gif","img/card_backs/set2/pink.gif","img/card_backs/set2/gray.gif","img/card_backs/set2/orange.gif","img/card_backs/set2/blue.gif","""event"",""trial"",""time""
""fullscreenenter"",""1"",""1530""
","
","
","""event"",""trial"",""time""
""fullscreenenter"",""1"",""1530""
","
","","1165.8999999910593","","","","practice","2021-06-23 22:27:34.754","img/practice_cards/backs/brown.gif","0","100","0","",""
"casino-fixation","43","226423","0.0-17.0-0.4","A1161","true","img/card_backs/set1/purple.gif","img/card_backs/set1/green.gif","img/card_backs/set1/yellow.gif","img/card_backs/set1/red.gif","img/card_backs/set2/pink.gif","img/card_backs/set2/gray.gif","img/card_backs/set2/orange.gif","img/card_backs/set2/blue.gif","""event"",""trial"",""time""
""fullscreenenter"",""1"",""1530""
","
","
","""event"",""trial"",""time""
""fullscreenenter"",""1"",""1530""
","
","","null","","null","","fixation","2021-06-23 22:27:35.263","","","","","",""
"card-selection-trial","44","229353","0.0-17.0-1.4","A1161","true","img/card_backs/set1/purple.gif","img/card_backs/set1/green.gif","img/card_backs/set1/yellow.gif","img/card_backs/set1/red.gif","img/card_backs/set2/pink.gif","img/card_backs/set2/gray.gif","img/card_backs/set2/orange.gif","img/card_backs/set2/blue.gif","""event"",""trial"",""time""
""fullscreenenter"",""1"",""1530""
","
","
","""event"",""trial"",""time""
""fullscreenenter"",""1"",""1530""
","
","","919.8999999910593","","","","practice","2021-06-23 22:27:38.193","img/practice_cards/backs/brown.gif","0","-100","0","",""
"casino-fixation","45","229872","0.0-17.0-0.5","A1161","true","img/card_backs/set1/purple.gif","img/card_backs/set1/green.gif","img/card_backs/set1/yellow.gif","img/card_backs/set1/red.gif","img/card_backs/set2/pink.gif","img/card_backs/set2/gray.gif","img/card_backs/set2/orange.gif","img/card_backs/set2/blue.gif","""event"",""trial"",""time""
""fullscreenenter"",""1"",""1530""
","
","
","""event"",""trial"",""time""
""fullscreenenter"",""1"",""1530""
","
","","null","","null","","fixation","2021-06-23 22:27:38.712","","","","","",""
"card-selection-trial","46","234032","0.0-17.0-1.5","A1161","true","img/card_backs/set1/purple.gif","img/card_backs/set1/green.gif","img/card_backs/set1/yellow.gif","img/card_backs/set1/red.gif","img/card_backs/set2/pink.gif","img/card_backs/set2/gray.gif","img/card_backs/set2/orange.gif","img/card_backs/set2/blue.gif","""event"",""trial"",""time""
""fullscreenenter"",""1"",""1530""
","
","
","""event"",""trial"",""time""
""fullscreenenter"",""1"",""1530""
","
","","2147.9000000059605","","","","practice","2021-06-23 22:27:42.873","img/practice_cards/backs/brown.gif","1","-100","0","",""
"casino-fixation","47","234553","0.0-17.0-0.6","A1161","true","img/card_backs/set1/purple.gif","img/card_backs/set1/green.gif","img/card_backs/set1/yellow.gif","img/card_backs/set1/red.gif","img/card_backs/set2/pink.gif","img/card_backs/set2/gray.gif","img/card_backs/set2/orange.gif","img/card_backs/set2/blue.gif","""event"",""trial"",""time""
""fullscreenenter"",""1"",""1530""
","
","
","""event"",""trial"",""time""
""fullscreenenter"",""1"",""1530""
","
","","null","","null","","fixation","2021-06-23 22:27:43.393","","","","","",""
"card-selection-trial","48","236993","0.0-17.0-1.6","A1161","true","img/card_backs/set1/purple.gif","img/card_backs/set1/green.gif","img/card_backs/set1/yellow.gif","img/card_backs/set1/red.gif","img/card_backs/set2/pink.gif","img/card_backs/set2/gray.gif","img/card_backs/set2/orange.gif","img/card_backs/set2/blue.gif","""event"",""trial"",""time""
""fullscreenenter"",""1"",""1530""
","
","
","""event"",""trial"",""time""
""fullscreenenter"",""1"",""1530""
","
","","417.09999999403954","","","","practice","2021-06-23 22:27:45.833","img/practice_cards/backs/black.gif","1","100","0","",""
"casino-fixation","49","237496","0.0-17.0-0.7","A1161","true","img/card_backs/set1/purple.gif","img/card_backs/set1/green.gif","img/card_backs/set1/yellow.gif","img/card_backs/set1/red.gif","img/card_backs/set2/pink.gif","img/card_backs/set2/gray.gif","img/card_backs/set2/orange.gif","img/card_backs/set2/blue.gif","""event"",""trial"",""time""
""fullscreenenter"",""1"",""1530""
","
","
","""event"",""trial"",""time""
""fullscreenenter"",""1"",""1530""
","
","","null","","null","","fixation","2021-06-23 22:27:46.336","","","","","",""
"card-selection-trial","50","242471","0.0-17.0-1.7","A1161","true","img/card_backs/set1/purple.gif","img/card_backs/set1/green.gif","img/card_backs/set1/yellow.gif","img/card_backs/set1/red.gif","img/card_backs/set2/pink.gif","img/card_backs/set2/gray.gif","img/card_backs/set2/orange.gif","img/card_backs/set2/blue.gif","""event"",""trial"",""time""
""fullscreenenter"",""1"",""1530""
","
","
","""event"",""trial"",""time""
""fullscreenenter"",""1"",""1530""
","
","","2965.0999999940395","","","","practice","2021-06-23 22:27:51.311","img/practice_cards/backs/brown.gif","2","-100","0","",""
"casino-fixation","51","242975","0.0-17.0-0.8","A1161","true","img/card_backs/set1/purple.gif","img/card_backs/set1/green.gif","img/card_backs/set1/yellow.gif","img/card_backs/set1/red.gif","img/card_backs/set2/pink.gif","img/card_backs/set2/gray.gif","img/card_backs/set2/orange.gif","img/card_backs/set2/blue.gif","""event"",""trial"",""time""
""fullscreenenter"",""1"",""1530""
","
","
","""event"",""trial"",""time""
""fullscreenenter"",""1"",""1530""
","
","","null","","null","","fixation","2021-06-23 22:27:51.815","","","","","",""
"card-selection-trial","52","248411","0.0-17.0-1.8","A1161","true","img/card_backs/set1/purple.gif","img/card_backs/set1/green.gif","img/card_backs/set1/yellow.gif","img/card_backs/set1/red.gif","img/card_backs/set2/pink.gif","img/card_backs/set2/gray.gif","img/card_backs/set2/orange.gif","img/card_backs/set2/blue.gif","""event"",""trial"",""time""
""fullscreenenter"",""1"",""1530""
","
","
","""event"",""trial"",""time""
""fullscreenenter"",""1"",""1530""
","
","","3432.2999999970198","","","","practice","2021-06-23 22:27:57.252","img/practice_cards/backs/dark_green.gif","1","-200","0","",""
"casino-fixation","53","248915","0.0-17.0-0.9","A1161","true","img/card_backs/set1/purple.gif","img/card_backs/set1/green.gif","img/card_backs/set1/yellow.gif","img/card_backs/set1/red.gif","img/card_backs/set2/pink.gif","img/card_backs/set2/gray.gif","img/card_backs/set2/orange.gif","img/card_backs/set2/blue.gif","""event"",""trial"",""time""
""fullscreenenter"",""1"",""1530""
","
","
","""event"",""trial"",""time""
""fullscreenenter"",""1"",""1530""
","
","","null","","null","","fixation","2021-06-23 22:27:57.756","","","","","",""
"card-selection-trial","54","252896","0.0-17.0-1.9","A1161","true","img/card_backs/set1/purple.gif","img/card_backs/set1/green.gif","img/card_backs/set1/yellow.gif","img/card_backs/set1/red.gif","img/card_backs/set2/pink.gif","img/card_backs/set2/gray.gif","img/card_backs/set2/orange.gif","img/card_backs/set2/blue.gif","""event"",""trial"",""time""
""fullscreenenter"",""1"",""1530""
","
","
","""event"",""trial"",""time""
""fullscreenenter"",""1"",""1530""
","
","","1972.5","","","","practice","2021-06-23 22:28:01.736","img/practice_cards/backs/dark_green.gif","0","200","0","",""
"casino-keyboard-response","55","305429","0.0-18.0","A1161","true","img/card_backs/set1/purple.gif","img/card_backs/set1/green.gif","img/card_backs/set1/yellow.gif","img/card_backs/set1/red.gif","img/card_backs/set2/pink.gif","img/card_backs/set2/gray.gif","img/card_backs/set2/orange.gif","img/card_backs/set2/blue.gif","""event"",""trial"",""time""
""fullscreenenter"",""1"",""1530""
","
","
","""event"",""trial"",""time""
""fullscreenenter"",""1"",""1530""
","
","","52531.20000000298","You earned -200 tokens during the practice round!","82","","","2021-06-23 22:28:54.269","","","","","",""
"casino-keyboard-response","56","310104","0.0-19.0-0.0","A1161","true","img/card_backs/set1/purple.gif","img/card_backs/set1/green.gif","img/card_backs/set1/yellow.gif","img/card_backs/set1/red.gif","img/card_backs/set2/pink.gif","img/card_backs/set2/gray.gif","img/card_backs/set2/orange.gif","img/card_backs/set2/blue.gif","""event"",""trial"",""time""
""fullscreenenter"",""1"",""1530""
","
","
","""event"",""trial"",""time""
""fullscreenenter"",""1"",""1530""
","
","","4672.20000000298","Nice job! You are almost ready to play the real game.","86","","instructions","2021-06-23 22:28:58.944","","","","","",""
"casino-keyboard-response","57","316648","0.0-19.0-0.1","A1161","true","img/card_backs/set1/purple.gif","img/card_backs/set1/green.gif","img/card_backs/set1/yellow.gif","img/card_backs/set1/red.gif","img/card_backs/set2/pink.gif","img/card_backs/set2/gray.gif","img/card_backs/set2/orange.gif","img/card_backs/set2/blue.gif","""event"",""trial"",""time""
""fullscreenenter"",""1"",""1530""
","
","
","""event"",""trial"",""time""
""fullscreenenter"",""1"",""1530""
","
","","6542","You will play two rounds of the real game. In each round, you will pick 100 cards in total.","73","","instructions","2021-06-23 22:29:05.488","","","","","",""
"casino-keyboard-response","58","320744","0.0-19.0-0.2","A1161","true","img/card_backs/set1/purple.gif","img/card_backs/set1/green.gif","img/card_backs/set1/yellow.gif","img/card_backs/set1/red.gif","img/card_backs/set2/pink.gif","img/card_backs/set2/gray.gif","img/card_backs/set2/orange.gif","img/card_backs/set2/blue.gif","""event"",""trial"",""time""
""fullscreenenter"",""1"",""1530""
","
","
","""event"",""trial"",""time""
""fullscreenenter"",""1"",""1530""
","
","","4093.0999999940395","We are now going to ask you some questions about how the game works.","66","","instructions","2021-06-23 22:29:09.584","","","","","",""
"casino-keyboard-response","59","326783","0.0-19.0-0.3","A1161","true","img/card_backs/set1/purple.gif","img/card_backs/set1/green.gif","img/card_backs/set1/yellow.gif","img/card_backs/set1/red.gif","img/card_backs/set2/pink.gif","img/card_backs/set2/gray.gif","img/card_backs/set2/orange.gif","img/card_backs/set2/blue.gif","""event"",""trial"",""time""
""fullscreenenter"",""1"",""1530""
","
","
","""event"",""trial"",""time""
""fullscreenenter"",""1"",""1530""
","
","","6036.4000000059605","Answer carefully. You will not be able to begin the game until you answer them correctly.","67","","instructions","2021-06-23 22:29:15.624","","","","","",""
"casino-comp_q","60","330949","0.0-20.0-0.0","A1161","true","img/card_backs/set1/purple.gif","img/card_backs/set1/green.gif","img/card_backs/set1/yellow.gif","img/card_backs/set1/red.gif","img/card_backs/set2/pink.gif","img/card_backs/set2/gray.gif","img/card_backs/set2/orange.gif","img/card_backs/set2/blue.gif","""event"",""trial"",""time""
""fullscreenenter"",""1"",""1530""
","
","
","""event"",""trial"",""time""
""fullscreenenter"",""1"",""1530""
","
","","4162.20000000298","True or False: All the decks have some cards that cause you to win tokens and some cards that cause you to lose tokens.","84","","","2021-06-23 22:29:19.790","","","","","",""
"casino-keyboard-response","61","333963","0.0-20.0-1.0","A1161","true","img/card_backs/set1/purple.gif","img/card_backs/set1/green.gif","img/card_backs/set1/yellow.gif","img/card_backs/set1/red.gif","img/card_backs/set2/pink.gif","img/card_backs/set2/gray.gif","img/card_backs/set2/orange.gif","img/card_backs/set2/blue.gif","""event"",""trial"",""time""
""fullscreenenter"",""1"",""1530""
","
","
","""event"",""trial"",""time""
""fullscreenenter"",""1"",""1530""
","
","","3011.2000000029802","True is correct! All the decks have a mix of winning and losing cards.","77","","","2021-06-23 22:29:22.804","","","","","true",""
"casino-comp_q","62","337281","0.0-21.0-0.0","A1161","true","img/card_backs/set1/purple.gif","img/card_backs/set1/green.gif","img/card_backs/set1/yellow.gif","img/card_backs/set1/red.gif","img/card_backs/set2/pink.gif","img/card_backs/set2/gray.gif","img/card_backs/set2/orange.gif","img/card_backs/set2/blue.gif","""event"",""trial"",""time""
""fullscreenenter"",""1"",""1530""
","
","
","""event"",""trial"",""time""
""fullscreenenter"",""1"",""1530""
","
","","3314","True or False: You will have as much time as you want to make your response.","70","","","2021-06-23 22:29:26.121","","","","","",""
"casino-keyboard-response","63","340369","0.0-21.0-1.0","A1161","true","img/card_backs/set1/purple.gif","img/card_backs/set1/green.gif","img/card_backs/set1/yellow.gif","img/card_backs/set1/red.gif","img/card_backs/set2/pink.gif","img/card_backs/set2/gray.gif","img/card_backs/set2/orange.gif","img/card_backs/set2/blue.gif","""event"",""trial"",""time""
""fullscreenenter"",""1"",""1530""
","
","
","""event"",""trial"",""time""
""fullscreenenter"",""1"",""1530""
","
","","3085","False is correct! You will only have 10 seconds to make each choice.","75","","","2021-06-23 22:29:29.209","","","","","true",""
"casino-comp_q","64","343908","0.0-22.0-0.0","A1161","true","img/card_backs/set1/purple.gif","img/card_backs/set1/green.gif","img/card_backs/set1/yellow.gif","img/card_backs/set1/red.gif","img/card_backs/set2/pink.gif","img/card_backs/set2/gray.gif","img/card_backs/set2/orange.gif","img/card_backs/set2/blue.gif","""event"",""trial"",""time""
""fullscreenenter"",""1"",""1530""
","
","
","""event"",""trial"",""time""
""fullscreenenter"",""1"",""1530""
","
","","3536","True or False: The location of the deck determines how lucky it is.","70","","","2021-06-23 22:29:32.748","","","","","",""
"casino-keyboard-response","65","349670","0.0-22.0-1.0","A1161","true","img/card_backs/set1/purple.gif","img/card_backs/set1/green.gif","img/card_backs/set1/yellow.gif","img/card_backs/set1/red.gif","img/card_backs/set2/pink.gif","img/card_backs/set2/gray.gif","img/card_backs/set2/orange.gif","img/card_backs/set2/blue.gif","""event"",""trial"",""time""
""fullscreenenter"",""1"",""1530""
","
","
","""event"",""trial"",""time""
""fullscreenenter"",""1"",""1530""
","
","","5759.199999988079","False is correct! The <i>color</i>  of the deck determines how lucky or unlucky it is.","68","","","2021-06-23 22:29:38.510","","","","","true",""
"casino-keyboard-response","66","354639","0.0-23.0-0.0","A1161","true","img/card_backs/set1/purple.gif","img/card_backs/set1/green.gif","img/card_backs/set1/yellow.gif","img/card_backs/set1/red.gif","img/card_backs/set2/pink.gif","img/card_backs/set2/gray.gif","img/card_backs/set2/orange.gif","img/card_backs/set2/blue.gif","""event"",""trial"",""time""
""fullscreenenter"",""1"",""1530""
","
","
","""event"",""trial"",""time""
""fullscreenenter"",""1"",""1530""
","
","","4965.5999999940395","Great job! Now it's time to start the real game.","82","","instructions","2021-06-23 22:29:43.479","","","","","",""
"casino-keyboard-response","67","359837","0.0-23.0-0.1","A1161","true","img/card_backs/set1/purple.gif","img/card_backs/set1/green.gif","img/card_backs/set1/yellow.gif","img/card_backs/set1/red.gif","img/card_backs/set2/pink.gif","img/card_backs/set2/gray.gif","img/card_backs/set2/orange.gif","img/card_backs/set2/blue.gif","""event"",""trial"",""time""
""fullscreenenter"",""1"",""1530""
","
","
","""event"",""trial"",""time""
""fullscreenenter"",""1"",""1530""
","
","","5195.9000000059605","Before we start, we're going to head into a new room of the casino.","86","","instructions","2021-06-23 22:29:48.677","","","","","",""
"casino-keyboard-response","68","365957","0.0-24.0-0.0","A1161","true","img/card_backs/set1/purple.gif","img/card_backs/set1/green.gif","img/card_backs/set1/yellow.gif","img/card_backs/set1/red.gif","img/card_backs/set2/pink.gif","img/card_backs/set2/gray.gif","img/card_backs/set2/orange.gif","img/card_backs/set2/blue.gif","""event"",""trial"",""time""
""fullscreenenter"",""1"",""1530""
","
","
","""event"",""trial"",""time""
""fullscreenenter"",""1"",""1530""
","
","","6123.5999999940395","Here we are! The real game will use different cards, but the rules will be the same.","71","","instructions","2021-06-23 22:29:54.797","","","","","",""
"casino-keyboard-response","69","378217","0.0-24.0-0.1","A1161","true","img/card_backs/set1/purple.gif","img/card_backs/set1/green.gif","img/card_backs/set1/yellow.gif","img/card_backs/set1/red.gif","img/card_backs/set2/pink.gif","img/card_backs/set2/gray.gif","img/card_backs/set2/orange.gif","img/card_backs/set2/blue.gif","""event"",""trial"",""time""
""fullscreenenter"",""1"",""1530""
","
","
","""event"",""trial"",""time""
""fullscreenenter"",""1"",""1530""
","
","","12257.29999999702","Ready? Put your fingers over the '2', '4', 6', and '8' keys so you are ready to play the game. </br> Then press 2 to start.","50","","instructions","2021-06-23 22:30:07.057","","","","","",""
"casino-fixation","70","378721","0.0-25.0-0.0","A1161","true","img/card_backs/set1/purple.gif","img/card_backs/set1/green.gif","img/card_backs/set1/yellow.gif","img/card_backs/set1/red.gif","img/card_backs/set2/pink.gif","img/card_backs/set2/gray.gif","img/card_backs/set2/orange.gif","img/card_backs/set2/blue.gif","""event"",""trial"",""time""
""fullscreenenter"",""1"",""1530""
","
","
","""event"",""trial"",""time""
""fullscreenenter"",""1"",""1530""
","
","","null","","null","","fixation","2021-06-23 22:30:07.561","","","","","",""
"card-selection-trial","71","384480","0.0-25.0-1.0","A1161","true","img/card_backs/set1/purple.gif","img/card_backs/set1/green.gif","img/card_backs/set1/yellow.gif","img/card_backs/set1/red.gif","img/card_backs/set2/pink.gif","img/card_backs/set2/gray.gif","img/card_backs/set2/orange.gif","img/card_backs/set2/blue.gif","""event"",""trial"",""time""
""fullscreenenter"",""1"",""1530""
","
","
","""event"",""trial"",""time""
""fullscreenenter"",""1"",""1530""
","
","","3742.7000000029802","","","","real_trial","2021-06-23 22:30:13.321","img/card_backs/set1/green.gif","0","240","1","",""
"casino-fixation","72","384990","0.0-25.0-0.1","A1161","true","img/card_backs/set1/purple.gif","img/card_backs/set1/green.gif","img/card_backs/set1/yellow.gif","img/card_backs/set1/red.gif","img/card_backs/set2/pink.gif","img/card_backs/set2/gray.gif","img/card_backs/set2/orange.gif","img/card_backs/set2/blue.gif","""event"",""trial"",""time""
""fullscreenenter"",""1"",""1530""
","
","
","""event"",""trial"",""time""
""fullscreenenter"",""1"",""1530""
","
","","null","","null","","fixation","2021-06-23 22:30:13.830","","","","","",""
"card-selection-trial","73","389881","0.0-25.0-1.1","A1161","true","img/card_backs/set1/purple.gif","img/card_backs/set1/green.gif","img/card_backs/set1/yellow.gif","img/card_backs/set1/red.gif","img/card_backs/set2/pink.gif","img/card_backs/set2/gray.gif","img/card_backs/set2/orange.gif","img/card_backs/set2/blue.gif","""event"",""trial"",""time""
""fullscreenenter"",""1"",""1530""
","
","
","""event"",""trial"",""time""
""fullscreenenter"",""1"",""1530""
","
","","2874.2000000029802","","","","real_trial","2021-06-23 22:30:18.721","img/card_backs/set1/green.gif","1","250","1","",""
"casino-fixation","74","390389","0.0-25.0-0.2","A1161","true","img/card_backs/set1/purple.gif","img/card_backs/set1/green.gif","img/card_backs/set1/yellow.gif","img/card_backs/set1/red.gif","img/card_backs/set2/pink.gif","img/card_backs/set2/gray.gif","img/card_backs/set2/orange.gif","img/card_backs/set2/blue.gif","""event"",""trial"",""time""
""fullscreenenter"",""1"",""1530""
","
","
","""event"",""trial"",""time""
""fullscreenenter"",""1"",""1530""
","
","","null","","null","","fixation","2021-06-23 22:30:19.230","","","","","",""
"card-selection-trial","75","396091","0.0-25.0-1.2","A1161","true","img/card_backs/set1/purple.gif","img/card_backs/set1/green.gif","img/card_backs/set1/yellow.gif","img/card_backs/set1/red.gif","img/card_backs/set2/pink.gif","img/card_backs/set2/gray.gif","img/card_backs/set2/orange.gif","img/card_backs/set2/blue.gif","""event"",""trial"",""time""
""fullscreenenter"",""1"",""1530""
","
","
","""event"",""trial"",""time""
""fullscreenenter"",""1"",""1530""
","
","","3679.2999999970198","","","","real_trial","2021-06-23 22:30:24.932","img/card_backs/set1/green.gif","1","250","1","",""
"casino-fixation","76","396606","0.0-25.0-0.3","A1161","true","img/card_backs/set1/purple.gif","img/card_backs/set1/green.gif","img/card_backs/set1/yellow.gif","img/card_backs/set1/red.gif","img/card_backs/set2/pink.gif","img/card_backs/set2/gray.gif","img/card_backs/set2/orange.gif","img/card_backs/set2/blue.gif","""event"",""trial"",""time""
""fullscreenenter"",""1"",""1530""
","
","
","""event"",""trial"",""time""
""fullscreenenter"",""1"",""1530""
","
","","null","","null","","fixation","2021-06-23 22:30:25.446","","","","","",""
"card-selection-trial","77","399740","0.0-25.0-1.3","A1161","true","img/card_backs/set1/purple.gif","img/card_backs/set1/green.gif","img/card_backs/set1/yellow.gif","img/card_backs/set1/red.gif","img/card_backs/set2/pink.gif","img/card_backs/set2/gray.gif","img/card_backs/set2/orange.gif","img/card_backs/set2/blue.gif","""event"",""trial"",""time""
""fullscreenenter"",""1"",""1530""
","
","
","""event"",""trial"",""time""
""fullscreenenter"",""1"",""1530""
","
","","1125.1000000089407","","","","real_trial","2021-06-23 22:30:28.581","img/card_backs/set1/green.gif","2","250","1","",""
"casino-fixation","78","400260","0.0-25.0-0.4","A1161","true","img/card_backs/set1/purple.gif","img/card_backs/set1/green.gif","img/card_backs/set1/yellow.gif","img/card_backs/set1/red.gif","img/card_backs/set2/pink.gif","img/card_backs/set2/gray.gif","img/card_backs/set2/orange.gif","img/card_backs/set2/blue.gif","""event"",""trial"",""time""
""fullscreenenter"",""1"",""1530""
","
","
","""event"",""trial"",""time""
""fullscreenenter"",""1"",""1530""
","
","","null","","null","","fixation","2021-06-23 22:30:29.100","","","","","",""
"card-selection-trial","79","403301","0.0-25.0-1.4","A1161","true","img/card_backs/set1/purple.gif","img/card_backs/set1/green.gif","img/card_backs/set1/yellow.gif","img/card_backs/set1/red.gif","img/card_backs/set2/pink.gif","img/card_backs/set2/gray.gif","img/card_backs/set2/orange.gif","img/card_backs/set2/blue.gif","""event"",""trial"",""time""
""fullscreenenter"",""1"",""1530""
","
","
","""event"",""trial"",""time""
""fullscreenenter"",""1"",""1530""
","
","","1027.2000000029802","","","","real_trial","2021-06-23 22:30:32.141","img/card_backs/set1/green.gif","0","-210","1","",""
"casino-fixation","80","403821","0.0-25.0-0.5","A1161","true","img/card_backs/set1/purple.gif","img/card_backs/set1/green.gif","img/card_backs/set1/yellow.gif","img/card_backs/set1/red.gif","img/card_backs/set2/pink.gif","img/card_backs/set2/gray.gif","img/card_backs/set2/orange.gif","img/card_backs/set2/blue.gif","""event"",""trial"",""time""
""fullscreenenter"",""1"",""1530""
","
","
","""event"",""trial"",""time""
""fullscreenenter"",""1"",""1530""
","
","","null","","null","","fixation","2021-06-23 22:30:32.661","","","","","",""
"card-selection-trial","81","406742","0.0-25.0-1.5","A1161","true","img/card_backs/set1/purple.gif","img/card_backs/set1/green.gif","img/card_backs/set1/yellow.gif","img/card_backs/set1/red.gif","img/card_backs/set2/pink.gif","img/card_backs/set2/gray.gif","img/card_backs/set2/orange.gif","img/card_backs/set2/blue.gif","""event"",""trial"",""time""
""fullscreenenter"",""1"",""1530""
","
","
","""event"",""trial"",""time""
""fullscreenenter"",""1"",""1530""
","
","","912","","","","real_trial","2021-06-23 22:30:35.582","img/card_backs/set1/green.gif","0","260","1","",""
"casino-fixation","82","407245","0.0-25.0-0.6","A1161","true","img/card_backs/set1/purple.gif","img/card_backs/set1/green.gif","img/card_backs/set1/yellow.gif","img/card_backs/set1/red.gif","img/card_backs/set2/pink.gif","img/card_backs/set2/gray.gif","img/card_backs/set2/orange.gif","img/card_backs/set2/blue.gif","""event"",""trial"",""time""
""fullscreenenter"",""1"",""1530""
","
","
","""event"",""trial"",""time""
""fullscreenenter"",""1"",""1530""
","
","","null","","null","","fixation","2021-06-23 22:30:36.085","","","","","",""
"card-selection-trial","83","410182","0.0-25.0-1.6","A1161","true","img/card_backs/set1/purple.gif","img/card_backs/set1/green.gif","img/card_backs/set1/yellow.gif","img/card_backs/set1/red.gif","img/card_backs/set2/pink.gif","img/card_backs/set2/gray.gif","img/card_backs/set2/orange.gif","img/card_backs/set2/blue.gif","""event"",""trial"",""time""
""fullscreenenter"",""1"",""1530""
","
","
","""event"",""trial"",""time""
""fullscreenenter"",""1"",""1530""
","
","","917.2999999970198","","","","real_trial","2021-06-23 22:30:39.022","img/card_backs/set1/green.gif","2","-190","1","",""
"casino-fixation","84","410688","0.0-25.0-0.7","A1161","true","img/card_backs/set1/purple.gif","img/card_backs/set1/green.gif","img/card_backs/set1/yellow.gif","img/card_backs/set1/red.gif","img/card_backs/set2/pink.gif","img/card_backs/set2/gray.gif","img/card_backs/set2/orange.gif","img/card_backs/set2/blue.gif","""event"",""trial"",""time""
""fullscreenenter"",""1"",""1530""
","
","
","""event"",""trial"",""time""
""fullscreenenter"",""1"",""1530""
","
","","null","","null","","fixation","2021-06-23 22:30:39.528","","","","","",""
"card-selection-trial","85","414405","0.0-25.0-1.7","A1161","true","img/card_backs/set1/purple.gif","img/card_backs/set1/green.gif","img/card_backs/set1/yellow.gif","img/card_backs/set1/red.gif","img/card_backs/set2/pink.gif","img/card_backs/set2/gray.gif","img/card_backs/set2/orange.gif","img/card_backs/set2/blue.gif","""event"",""trial"",""time""
""fullscreenenter"",""1"",""1530""
","
","
","""event"",""trial"",""time""
""fullscreenenter"",""1"",""1530""
","
","","1707.9000000059605","","","","real_trial","2021-06-23 22:30:43.245","img/card_backs/set1/green.gif","0","-210","1","",""
"casino-fixation","86","414918","0.0-25.0-0.8","A1161","true","img/card_backs/set1/purple.gif","img/card_backs/set1/green.gif","img/card_backs/set1/yellow.gif","img/card_backs/set1/red.gif","img/card_backs/set2/pink.gif","img/card_backs/set2/gray.gif","img/card_backs/set2/orange.gif","img/card_backs/set2/blue.gif","""event"",""trial"",""time""
""fullscreenenter"",""1"",""1530""
","
","
","""event"",""trial"",""time""
""fullscreenenter"",""1"",""1530""
","
","","null","","null","","fixation","2021-06-23 22:30:43.758","","","","","",""
"card-selection-trial","87","418767","0.0-25.0-1.8","A1161","true","img/card_backs/set1/purple.gif","img/card_backs/set1/green.gif","img/card_backs/set1/yellow.gif","img/card_backs/set1/red.gif","img/card_backs/set2/pink.gif","img/card_backs/set2/gray.gif","img/card_backs/set2/orange.gif","img/card_backs/set2/blue.gif","""event"",""trial"",""time""
""fullscreenenter"",""1"",""1530""
","
","
","""event"",""trial"",""time""
""fullscreenenter"",""1"",""1530""
","
","","1841.7000000029802","","","","real_trial","2021-06-23 22:30:47.607","img/card_backs/set1/green.gif","0","-190","1","",""
"casino-fixation","88","419282","0.0-25.0-0.9","A1161","true","img/card_backs/set1/purple.gif","img/card_backs/set1/green.gif","img/card_backs/set1/yellow.gif","img/card_backs/set1/red.gif","img/card_backs/set2/pink.gif","img/card_backs/set2/gray.gif","img/card_backs/set2/orange.gif","img/card_backs/set2/blue.gif","""event"",""trial"",""time""
""fullscreenenter"",""1"",""1530""
","
","
","""event"",""trial"",""time""
""fullscreenenter"",""1"",""1530""
","
","","null","","null","","fixation","2021-06-23 22:30:48.122","","","","","",""
"card-selection-trial","89","422284","0.0-25.0-1.9","A1161","true","img/card_backs/set1/purple.gif","img/card_backs/set1/green.gif","img/card_backs/set1/yellow.gif","img/card_backs/set1/red.gif","img/card_backs/set2/pink.gif","img/card_backs/set2/gray.gif","img/card_backs/set2/orange.gif","img/card_backs/set2/blue.gif","""event"",""trial"",""time""
""fullscreenenter"",""1"",""1530""
","
","
","""event"",""trial"",""time""
""fullscreenenter"",""1"",""1530""
","
","","993.5","","","","real_trial","2021-06-23 22:30:51.124","img/card_backs/set1/green.gif","2","-190","1","",""
"casino-fixation","90","422786","0.0-25.0-0.10","A1161","true","img/card_backs/set1/purple.gif","img/card_backs/set1/green.gif","img/card_backs/set1/yellow.gif","img/card_backs/set1/red.gif","img/card_backs/set2/pink.gif","img/card_backs/set2/gray.gif","img/card_backs/set2/orange.gif","img/card_backs/set2/blue.gif","""event"",""trial"",""time""
""fullscreenenter"",""1"",""1530""
","
","
","""event"",""trial"",""time""
""fullscreenenter"",""1"",""1530""
","
","","null","","null","","fixation","2021-06-23 22:30:51.627","","","","","",""
"card-selection-trial","91","425649","0.0-25.0-1.10","A1161","true","img/card_backs/set1/purple.gif","img/card_backs/set1/green.gif","img/card_backs/set1/yellow.gif","img/card_backs/set1/red.gif","img/card_backs/set2/pink.gif","img/card_backs/set2/gray.gif","img/card_backs/set2/orange.gif","img/card_backs/set2/blue.gif","""event"",""trial"",""time""
""fullscreenenter"",""1"",""1530""
","
","
","""event"",""trial"",""time""
""fullscreenenter"",""1"",""1530""
","
","","856","","","","real_trial","2021-06-23 22:30:54.490","img/card_backs/set1/green.gif","3","-190","1","",""
"casino-fixation","92","426158","0.0-25.0-0.11","A1161","true","img/card_backs/set1/purple.gif","img/card_backs/set1/green.gif","img/card_backs/set1/yellow.gif","img/card_backs/set1/red.gif","img/card_backs/set2/pink.gif","img/card_backs/set2/gray.gif","img/card_backs/set2/orange.gif","img/card_backs/set2/blue.gif","""event"",""trial"",""time""
""fullscreenenter"",""1"",""1530""
","
","
","""event"",""trial"",""time""
""fullscreenenter"",""1"",""1530""
","
","","null","","null","","fixation","2021-06-23 22:30:54.998","","","","","",""
"card-selection-trial","93","431244","0.0-25.0-1.11","A1161","true","img/card_backs/set1/purple.gif","img/card_backs/set1/green.gif","img/card_backs/set1/yellow.gif","img/card_backs/set1/red.gif","img/card_backs/set2/pink.gif","img/card_backs/set2/gray.gif","img/card_backs/set2/orange.gif","img/card_backs/set2/blue.gif","""event"",""trial"",""time""
""fullscreenenter"",""1"",""1530""
","
","
","""event"",""trial"",""time""
""fullscreenenter"",""1"",""1530""
","
","","3079.3999999910593","","","","real_trial","2021-06-23 22:31:00.085","img/card_backs/set1/yellow.gif","0","-110","1","",""
"casino-fixation","94","431749","0.0-25.0-0.12","A1161","true","img/card_backs/set1/purple.gif","img/card_backs/set1/green.gif","img/card_backs/set1/yellow.gif","img/card_backs/set1/red.gif","img/card_backs/set2/pink.gif","img/card_backs/set2/gray.gif","img/card_backs/set2/orange.gif","img/card_backs/set2/blue.gif","""event"",""trial"",""time""
""fullscreenenter"",""1"",""1530""
","
","
","""event"",""trial"",""time""
""fullscreenenter"",""1"",""1530""
","
","","null","","null","","fixation","2021-06-23 22:31:00.589","","","","","",""
"card-selection-trial","95","434749","0.0-25.0-1.12","A1161","true","img/card_backs/set1/purple.gif","img/card_backs/set1/green.gif","img/card_backs/set1/yellow.gif","img/card_backs/set1/red.gif","img/card_backs/set2/pink.gif","img/card_backs/set2/gray.gif","img/card_backs/set2/orange.gif","img/card_backs/set2/blue.gif","""event"",""trial"",""time""
""fullscreenenter"",""1"",""1530""
","
","
","""event"",""trial"",""time""
""fullscreenenter"",""1"",""1530""
","
","","992.9000000059605","","","","real_trial","2021-06-23 22:31:03.589","img/card_backs/set1/yellow.gif","1","-110","1","",""
"casino-fixation","96","435253","0.0-25.0-0.13","A1161","true","img/card_backs/set1/purple.gif","img/card_backs/set1/green.gif","img/card_backs/set1/yellow.gif","img/card_backs/set1/red.gif","img/card_backs/set2/pink.gif","img/card_backs/set2/gray.gif","img/card_backs/set2/orange.gif","img/card_backs/set2/blue.gif","""event"",""trial"",""time""
""fullscreenenter"",""1"",""1530""
","
","
","""event"",""trial"",""time""
""fullscreenenter"",""1"",""1530""
","
","","null","","null","","fixation","2021-06-23 22:31:04.093","","","","","",""
"card-selection-trial","97","438374","0.0-25.0-1.13","A1161","true","img/card_backs/set1/purple.gif","img/card_backs/set1/green.gif","img/card_backs/set1/yellow.gif","img/card_backs/set1/red.gif","img/card_backs/set2/pink.gif","img/card_backs/set2/gray.gif","img/card_backs/set2/orange.gif","img/card_backs/set2/blue.gif","""event"",""trial"",""time""
""fullscreenenter"",""1"",""1530""
","
","
","""event"",""trial"",""time""
""fullscreenenter"",""1"",""1530""
","
","","1115","","","","real_trial","2021-06-23 22:31:07.214","img/card_backs/set1/yellow.gif","0","60","1","",""
"casino-fixation","98","438883","0.0-25.0-0.14","A1161","true","img/card_backs/set1/purple.gif","img/card_backs/set1/green.gif","img/card_backs/set1/yellow.gif","img/card_backs/set1/red.gif","img/card_backs/set2/pink.gif","img/card_backs/set2/gray.gif","img/card_backs/set2/orange.gif","img/card_backs/set2/blue.gif","""event"",""trial"",""time""
""fullscreenenter"",""1"",""1530""
","
","
","""event"",""trial"",""time""
""fullscreenenter"",""1"",""1530""
","
","","null","","null","","fixation","2021-06-23 22:31:07.723","","","","","",""
"card-selection-trial","99","441451","0.0-25.0-1.14","A1161","true","img/card_backs/set1/purple.gif","img/card_backs/set1/green.gif","img/card_backs/set1/yellow.gif","img/card_backs/set1/red.gif","img/card_backs/set2/pink.gif","img/card_backs/set2/gray.gif","img/card_backs/set2/orange.gif","img/card_backs/set2/blue.gif","""event"",""trial"",""time""
""fullscreenenter"",""1"",""1530""
","
","
","""event"",""trial"",""time""
""fullscreenenter"",""1"",""1530""
","
","","562","","","","real_trial","2021-06-23 22:31:10.291","img/card_backs/set1/yellow.gif","0","-110","1","",""
"casino-fixation","100","441968","0.0-25.0-0.15","A1161","true","img/card_backs/set1/purple.gif","img/card_backs/set1/green.gif","img/card_backs/set1/yellow.gif","img/card_backs/set1/red.gif","img/card_backs/set2/pink.gif","img/card_backs/set2/gray.gif","img/card_backs/set2/orange.gif","img/card_backs/set2/blue.gif","""event"",""trial"",""time""
""fullscreenenter"",""1"",""1530""
","
","
","""event"",""trial"",""time""
""fullscreenenter"",""1"",""1530""
","
","","null","","null","","fixation","2021-06-23 22:31:10.808","","","","","",""
"card-selection-trial","101","446607","0.0-25.0-1.15","A1161","true","img/card_backs/set1/purple.gif","img/card_backs/set1/green.gif","img/card_backs/set1/yellow.gif","img/card_backs/set1/red.gif","img/card_backs/set2/pink.gif","img/card_backs/set2/gray.gif","img/card_backs/set2/orange.gif","img/card_backs/set2/blue.gif","""event"",""trial"",""time""
""fullscreenenter"",""1"",""1530""
","
","
","""event"",""trial"",""time""
""fullscreenenter"",""1"",""1530""
","
","","2625.5999999940395","","","","real_trial","2021-06-23 22:31:15.447","img/card_backs/set1/purple.gif","1","250","1","",""
"casino-fixation","102","447120","0.0-25.0-0.16","A1161","true","img/card_backs/set1/purple.gif","img/card_backs/set1/green.gif","img/card_backs/set1/yellow.gif","img/card_backs/set1/red.gif","img/card_backs/set2/pink.gif","img/card_backs/set2/gray.gif","img/card_backs/set2/orange.gif","img/card_backs/set2/blue.gif","""event"",""trial"",""time""
""fullscreenenter"",""1"",""1530""
","
","
","""event"",""trial"",""time""
""fullscreenenter"",""1"",""1530""
","
","","null","","null","","fixation","2021-06-23 22:31:15.960","","","","","",""
"card-selection-trial","103","449842","0.0-25.0-1.16","A1161","true","img/card_backs/set1/purple.gif","img/card_backs/set1/green.gif","img/card_backs/set1/yellow.gif","img/card_backs/set1/red.gif","img/card_backs/set2/pink.gif","img/card_backs/set2/gray.gif","img/card_backs/set2/orange.gif","img/card_backs/set2/blue.gif","""event"",""trial"",""time""
""fullscreenenter"",""1"",""1530""
","
","
","""event"",""trial"",""time""
""fullscreenenter"",""1"",""1530""
","
","","713.3999999910593","","","","real_trial","2021-06-23 22:31:18.682","img/card_backs/set1/purple.gif","1","260","1","",""
"casino-fixation","104","450345","0.0-25.0-0.17","A1161","true","img/card_backs/set1/purple.gif","img/card_backs/set1/green.gif","img/card_backs/set1/yellow.gif","img/card_backs/set1/red.gif","img/card_backs/set2/pink.gif","img/card_backs/set2/gray.gif","img/card_backs/set2/orange.gif","img/card_backs/set2/blue.gif","""event"",""trial"",""time""
""fullscreenenter"",""1"",""1530""
","
","
","""event"",""trial"",""time""
""fullscreenenter"",""1"",""1530""
","
","","null","","null","","fixation","2021-06-23 22:31:19.185","","","","","",""
"card-selection-trial","105","453321","0.0-25.0-1.17","A1161","true","img/card_backs/set1/purple.gif","img/card_backs/set1/green.gif","img/card_backs/set1/yellow.gif","img/card_backs/set1/red.gif","img/card_backs/set2/pink.gif","img/card_backs/set2/gray.gif","img/card_backs/set2/orange.gif","img/card_backs/set2/blue.gif","""event"",""trial"",""time""
""fullscreenenter"",""1"",""1530""
","
","
","""event"",""trial"",""time""
""fullscreenenter"",""1"",""1530""
","
","","969.1999999880791","","","","real_trial","2021-06-23 22:31:22.161","img/card_backs/set1/purple.gif","0","-200","1","",""
"casino-fixation","106","453826","0.0-25.0-0.18","A1161","true","img/card_backs/set1/purple.gif","img/card_backs/set1/green.gif","img/card_backs/set1/yellow.gif","img/card_backs/set1/red.gif","img/card_backs/set2/pink.gif","img/card_backs/set2/gray.gif","img/card_backs/set2/orange.gif","img/card_backs/set2/blue.gif","""event"",""trial"",""time""
""fullscreenenter"",""1"",""1530""
","
","
","""event"",""trial"",""time""
""fullscreenenter"",""1"",""1530""
","
","","null","","null","","fixation","2021-06-23 22:31:22.666","","","","","",""
"card-selection-trial","107","457489","0.0-25.0-1.18","A1161","true","img/card_backs/set1/purple.gif","img/card_backs/set1/green.gif","img/card_backs/set1/yellow.gif","img/card_backs/set1/red.gif","img/card_backs/set2/pink.gif","img/card_backs/set2/gray.gif","img/card_backs/set2/orange.gif","img/card_backs/set2/blue.gif","""event"",""trial"",""time""
""fullscreenenter"",""1"",""1530""
","
","
","""event"",""trial"",""time""
""fullscreenenter"",""1"",""1530""
","
","","1639.5","","","","real_trial","2021-06-23 22:31:26.329","img/card_backs/set1/purple.gif","1","260","1","",""
"casino-fixation","108","457995","0.0-25.0-0.19","A1161","true","img/card_backs/set1/purple.gif","img/card_backs/set1/green.gif","img/card_backs/set1/yellow.gif","img/card_backs/set1/red.gif","img/card_backs/set2/pink.gif","img/card_backs/set2/gray.gif","img/card_backs/set2/orange.gif","img/card_backs/set2/blue.gif","""event"",""trial"",""time""
""fullscreenenter"",""1"",""1530""
","
","
","""event"",""trial"",""time""
""fullscreenenter"",""1"",""1530""
","
","","null","","null","","fixation","2021-06-23 22:31:26.835","","","","","",""
"card-selection-trial","109","461818","0.0-25.0-1.19","A1161","true","img/card_backs/set1/purple.gif","img/card_backs/set1/green.gif","img/card_backs/set1/yellow.gif","img/card_backs/set1/red.gif","img/card_backs/set2/pink.gif","img/card_backs/set2/gray.gif","img/card_backs/set2/orange.gif","img/card_backs/set2/blue.gif","""event"",""trial"",""time""
""fullscreenenter"",""1"",""1530""
","
","
","""event"",""trial"",""time""
""fullscreenenter"",""1"",""1530""
","
","","1806.7999999970198","","","","real_trial","2021-06-23 22:31:30.658","img/card_backs/set1/purple.gif","2","250","1","",""
"casino-fixation","110","462323","0.0-25.0-0.20","A1161","true","img/card_backs/set1/purple.gif","img/card_backs/set1/green.gif","img/card_backs/set1/yellow.gif","img/card_backs/set1/red.gif","img/card_backs/set2/pink.gif","img/card_backs/set2/gray.gif","img/card_backs/set2/orange.gif","img/card_backs/set2/blue.gif","""event"",""trial"",""time""
""fullscreenenter"",""1"",""1530""
","
","
","""event"",""trial"",""time""
""fullscreenenter"",""1"",""1530""
","
","","null","","null","","fixation","2021-06-23 22:31:31.163","","","","","",""
"card-selection-trial","111","465175","0.0-25.0-1.20","A1161","true","img/card_backs/set1/purple.gif","img/card_backs/set1/green.gif","img/card_backs/set1/yellow.gif","img/card_backs/set1/red.gif","img/card_backs/set2/pink.gif","img/card_backs/set2/gray.gif","img/card_backs/set2/orange.gif","img/card_backs/set2/blue.gif","""event"",""trial"",""time""
""fullscreenenter"",""1"",""1530""
","
","
","""event"",""trial"",""time""
""fullscreenenter"",""1"",""1530""
","
","","835.4000000059605","","","","real_trial","2021-06-23 22:31:34.015","img/card_backs/set1/purple.gif","2","-210","1","",""
"casino-fixation","112","465679","0.0-25.0-0.21","A1161","true","img/card_backs/set1/purple.gif","img/card_backs/set1/green.gif","img/card_backs/set1/yellow.gif","img/card_backs/set1/red.gif","img/card_backs/set2/pink.gif","img/card_backs/set2/gray.gif","img/card_backs/set2/orange.gif","img/card_backs/set2/blue.gif","""event"",""trial"",""time""
""fullscreenenter"",""1"",""1530""
","
","
","""event"",""trial"",""time""
""fullscreenenter"",""1"",""1530""
","
","","null","","null","","fixation","2021-06-23 22:31:34.519","","","","","",""
"card-selection-trial","113","468789","0.0-25.0-1.21","A1161","true","img/card_backs/set1/purple.gif","img/card_backs/set1/green.gif","img/card_backs/set1/yellow.gif","img/card_backs/set1/red.gif","img/card_backs/set2/pink.gif","img/card_backs/set2/gray.gif","img/card_backs/set2/orange.gif","img/card_backs/set2/blue.gif","""event"",""trial"",""time""
""fullscreenenter"",""1"",""1530""
","
","
","""event"",""trial"",""time""
""fullscreenenter"",""1"",""1530""
","
","","1102.5999999940395","","","","real_trial","2021-06-23 22:31:37.630","img/card_backs/set1/purple.gif","0","260","1","",""
"casino-fixation","114","469294","0.0-25.0-0.22","A1161","true","img/card_backs/set1/purple.gif","img/card_backs/set1/green.gif","img/card_backs/set1/yellow.gif","img/card_backs/set1/red.gif","img/card_backs/set2/pink.gif","img/card_backs/set2/gray.gif","img/card_backs/set2/orange.gif","img/card_backs/set2/blue.gif","""event"",""trial"",""time""
""fullscreenenter"",""1"",""1530""
","
","
","""event"",""trial"",""time""
""fullscreenenter"",""1"",""1530""
","
","","null","","null","","fixation","2021-06-23 22:31:38.134","","","","","",""
"card-selection-trial","115","472288","0.0-25.0-1.22","A1161","true","img/card_backs/set1/purple.gif","img/card_backs/set1/green.gif","img/card_backs/set1/yellow.gif","img/card_backs/set1/red.gif","img/card_backs/set2/pink.gif","img/card_backs/set2/gray.gif","img/card_backs/set2/orange.gif","img/card_backs/set2/blue.gif","""event"",""trial"",""time""
""fullscreenenter"",""1"",""1530""
","
","
","""event"",""trial"",""time""
""fullscreenenter"",""1"",""1530""
","
","","987.2999999970198","","","","real_trial","2021-06-23 22:31:41.128","img/card_backs/set1/purple.gif","2","-190","1","",""
"casino-fixation","116","472791","0.0-25.0-0.23","A1161","true","img/card_backs/set1/purple.gif","img/card_backs/set1/green.gif","img/card_backs/set1/yellow.gif","img/card_backs/set1/red.gif","img/card_backs/set2/pink.gif","img/card_backs/set2/gray.gif","img/card_backs/set2/orange.gif","img/card_backs/set2/blue.gif","""event"",""trial"",""time""
""fullscreenenter"",""1"",""1530""
","
","
","""event"",""trial"",""time""
""fullscreenenter"",""1"",""1530""
","
","","null","","null","","fixation","2021-06-23 22:31:41.631","","","","","",""
"card-selection-trial","117","475662","0.0-25.0-1.23","A1161","true","img/card_backs/set1/purple.gif","img/card_backs/set1/green.gif","img/card_backs/set1/yellow.gif","img/card_backs/set1/red.gif","img/card_backs/set2/pink.gif","img/card_backs/set2/gray.gif","img/card_backs/set2/orange.gif","img/card_backs/set2/blue.gif","""event"",""trial"",""time""
""fullscreenenter"",""1"",""1530""
","
","
","""event"",""trial"",""time""
""fullscreenenter"",""1"",""1530""
","
","","864.5","","","","real_trial","2021-06-23 22:31:44.502","img/card_backs/set1/purple.gif","3","-210","1","",""
"casino-fixation","118","476165","0.0-25.0-0.24","A1161","true","img/card_backs/set1/purple.gif","img/card_backs/set1/green.gif","img/card_backs/set1/yellow.gif","img/card_backs/set1/red.gif","img/card_backs/set2/pink.gif","img/card_backs/set2/gray.gif","img/card_backs/set2/orange.gif","img/card_backs/set2/blue.gif","""event"",""trial"",""time""
""fullscreenenter"",""1"",""1530""
","
","
","""event"",""trial"",""time""
""fullscreenenter"",""1"",""1530""
","
","","null","","null","","fixation","2021-06-23 22:31:45.005","","","","","",""
"card-selection-trial","119","479101","0.0-25.0-1.24","A1161","true","img/card_backs/set1/purple.gif","img/card_backs/set1/green.gif","img/card_backs/set1/yellow.gif","img/card_backs/set1/red.gif","img/card_backs/set2/pink.gif","img/card_backs/set2/gray.gif","img/card_backs/set2/orange.gif","img/card_backs/set2/blue.gif","""event"",""trial"",""time""
""fullscreenenter"",""1"",""1530""
","
","
","""event"",""trial"",""time""
""fullscreenenter"",""1"",""1530""
","
","","913.0999999940395","","","","real_trial","2021-06-23 22:31:47.941","img/card_backs/set1/purple.gif","0","250","1","",""
"casino-fixation","120","479612","0.0-25.0-0.25","A1161","true","img/card_backs/set1/purple.gif","img/card_backs/set1/green.gif","img/card_backs/set1/yellow.gif","img/card_backs/set1/red.gif","img/card_backs/set2/pink.gif","img/card_backs/set2/gray.gif","img/card_backs/set2/orange.gif","img/card_backs/set2/blue.gif","""event"",""trial"",""time""
""fullscreenenter"",""1"",""1530""
","
","
","""event"",""trial"",""time""
""fullscreenenter"",""1"",""1530""
","
","","null","","null","","fixation","2021-06-23 22:31:48.452","","","","","",""
"card-selection-trial","121","482454","0.0-25.0-1.25","A1161","true","img/card_backs/set1/purple.gif","img/card_backs/set1/green.gif","img/card_backs/set1/yellow.gif","img/card_backs/set1/red.gif","img/card_backs/set2/pink.gif","img/card_backs/set2/gray.gif","img/card_backs/set2/orange.gif","img/card_backs/set2/blue.gif","""event"",""trial"",""time""
""fullscreenenter"",""1"",""1530""
","
","
","""event"",""trial"",""time""
""fullscreenenter"",""1"",""1530""
","
","","822.8999999910593","","","","real_trial","2021-06-23 22:31:51.294","img/card_backs/set1/purple.gif","0","-200","1","",""
"casino-fixation","122","482961","0.0-25.0-0.26","A1161","true","img/card_backs/set1/purple.gif","img/card_backs/set1/green.gif","img/card_backs/set1/yellow.gif","img/card_backs/set1/red.gif","img/card_backs/set2/pink.gif","img/card_backs/set2/gray.gif","img/card_backs/set2/orange.gif","img/card_backs/set2/blue.gif","""event"",""trial"",""time""
""fullscreenenter"",""1"",""1530""
","
","
","""event"",""trial"",""time""
""fullscreenenter"",""1"",""1530""
","
","","null","","null","","fixation","2021-06-23 22:31:51.802","","","","","",""
"card-selection-trial","123","488925","0.0-25.0-1.26","A1161","true","img/card_backs/set1/purple.gif","img/card_backs/set1/green.gif","img/card_backs/set1/yellow.gif","img/card_backs/set1/red.gif","img/card_backs/set2/pink.gif","img/card_backs/set2/gray.gif","img/card_backs/set2/orange.gif","img/card_backs/set2/blue.gif","""event"",""trial"",""time""
""fullscreenenter"",""1"",""1530""
","
","
","""event"",""trial"",""time""
""fullscreenenter"",""1"",""1530""
","
","","3940.8999999910593","","","","real_trial","2021-06-23 22:31:57.765","img/card_backs/set1/red.gif","3","-100","1","",""
"casino-fixation","124","489429","0.0-25.0-0.27","A1161","true","img/card_backs/set1/purple.gif","img/card_backs/set1/green.gif","img/card_backs/set1/yellow.gif","img/card_backs/set1/red.gif","img/card_backs/set2/pink.gif","img/card_backs/set2/gray.gif","img/card_backs/set2/orange.gif","img/card_backs/set2/blue.gif","""event"",""trial"",""time""
""fullscreenenter"",""1"",""1530""
","
","
","""event"",""trial"",""time""
""fullscreenenter"",""1"",""1530""
","
","","null","","null","","fixation","2021-06-23 22:31:58.269","","","","","",""
"card-selection-trial","125","492437","0.0-25.0-1.27","A1161","true","img/card_backs/set1/purple.gif","img/card_backs/set1/green.gif","img/card_backs/set1/yellow.gif","img/card_backs/set1/red.gif","img/card_backs/set2/pink.gif","img/card_backs/set2/gray.gif","img/card_backs/set2/orange.gif","img/card_backs/set2/blue.gif","""event"",""trial"",""time""
""fullscreenenter"",""1"",""1530""
","
","
","""event"",""trial"",""time""
""fullscreenenter"",""1"",""1530""
","
","","984.3000000119209","","","","real_trial","2021-06-23 22:32:01.278","img/card_backs/set1/red.gif","1","-90","1","",""
"casino-fixation","126","492944","0.0-25.0-0.28","A1161","true","img/card_backs/set1/purple.gif","img/card_backs/set1/green.gif","img/card_backs/set1/yellow.gif","img/card_backs/set1/red.gif","img/card_backs/set2/pink.gif","img/card_backs/set2/gray.gif","img/card_backs/set2/orange.gif","img/card_backs/set2/blue.gif","""event"",""trial"",""time""
""fullscreenenter"",""1"",""1530""
","
","
","""event"",""trial"",""time""
""fullscreenenter"",""1"",""1530""
","
","","null","","null","","fixation","2021-06-23 22:32:01.784","","","","","",""
"card-selection-trial","127","496359","0.0-25.0-1.28","A1161","true","img/card_backs/set1/purple.gif","img/card_backs/set1/green.gif","img/card_backs/set1/yellow.gif","img/card_backs/set1/red.gif","img/card_backs/set2/pink.gif","img/card_backs/set2/gray.gif","img/card_backs/set2/orange.gif","img/card_backs/set2/blue.gif","""event"",""trial"",""time""
""fullscreenenter"",""1"",""1530""
","
","
","""event"",""trial"",""time""
""fullscreenenter"",""1"",""1530""
","
","","1408.5999999940395","","","","real_trial","2021-06-23 22:32:05.199","img/card_backs/set1/red.gif","3","60","1","",""
"casino-fixation","128","496864","0.0-25.0-0.29","A1161","true","img/card_backs/set1/purple.gif","img/card_backs/set1/green.gif","img/card_backs/set1/yellow.gif","img/card_backs/set1/red.gif","img/card_backs/set2/pink.gif","img/card_backs/set2/gray.gif","img/card_backs/set2/orange.gif","img/card_backs/set2/blue.gif","""event"",""trial"",""time""
""fullscreenenter"",""1"",""1530""
","
","
","""event"",""trial"",""time""
""fullscreenenter"",""1"",""1530""
","
","","null","","null","","fixation","2021-06-23 22:32:05.704","","","","","",""
"card-selection-trial","129","500134","0.0-25.0-1.29","A1161","true","img/card_backs/set1/purple.gif","img/card_backs/set1/green.gif","img/card_backs/set1/yellow.gif","img/card_backs/set1/red.gif","img/card_backs/set2/pink.gif","img/card_backs/set2/gray.gif","img/card_backs/set2/orange.gif","img/card_backs/set2/blue.gif","""event"",""trial"",""time""
""fullscreenenter"",""1"",""1530""
","
","
","""event"",""trial"",""time""
""fullscreenenter"",""1"",""1530""
","
","","1257.1000000089407","","","","real_trial","2021-06-23 22:32:08.975","img/card_backs/set1/red.gif","1","-90","1","",""
"casino-fixation","130","500637","0.0-25.0-0.30","A1161","true","img/card_backs/set1/purple.gif","img/card_backs/set1/green.gif","img/card_backs/set1/yellow.gif","img/card_backs/set1/red.gif","img/card_backs/set2/pink.gif","img/card_backs/set2/gray.gif","img/card_backs/set2/orange.gif","img/card_backs/set2/blue.gif","""event"",""trial"",""time""
""fullscreenenter"",""1"",""1530""
","
","
","""event"",""trial"",""time""
""fullscreenenter"",""1"",""1530""
","
","","null","","null","","fixation","2021-06-23 22:32:09.478","","","","","",""
"card-selection-trial","131","505290","0.0-25.0-1.30","A1161","true","img/card_backs/set1/purple.gif","img/card_backs/set1/green.gif","img/card_backs/set1/yellow.gif","img/card_backs/set1/red.gif","img/card_backs/set2/pink.gif","img/card_backs/set2/gray.gif","img/card_backs/set2/orange.gif","img/card_backs/set2/blue.gif","""event"",""trial"",""time""
""fullscreenenter"",""1"",""1530""
","
","
","""event"",""trial"",""time""
""fullscreenenter"",""1"",""1530""
","
","","2644.5","","","","real_trial","2021-06-23 22:32:14.131","img/card_backs/set1/purple.gif","3","-210","1","",""
"casino-fixation","132","505794","0.0-25.0-0.31","A1161","true","img/card_backs/set1/purple.gif","img/card_backs/set1/green.gif","img/card_backs/set1/yellow.gif","img/card_backs/set1/red.gif","img/card_backs/set2/pink.gif","img/card_backs/set2/gray.gif","img/card_backs/set2/orange.gif","img/card_backs/set2/blue.gif","""event"",""trial"",""time""
""fullscreenenter"",""1"",""1530""
","
","
","""event"",""trial"",""time""
""fullscreenenter"",""1"",""1530""
","
","","null","","null","","fixation","2021-06-23 22:32:14.634","","","","","",""
"card-selection-trial","133","508761","0.0-25.0-1.31","A1161","true","img/card_backs/set1/purple.gif","img/card_backs/set1/green.gif","img/card_backs/set1/yellow.gif","img/card_backs/set1/red.gif","img/card_backs/set2/pink.gif","img/card_backs/set2/gray.gif","img/card_backs/set2/orange.gif","img/card_backs/set2/blue.gif","""event"",""trial"",""time""
""fullscreenenter"",""1"",""1530""
","
","
","""event"",""trial"",""time""
""fullscreenenter"",""1"",""1530""
","
","","960.7999999970198","","","","real_trial","2021-06-23 22:32:17.601","img/card_backs/set1/purple.gif","0","260","1","",""
"casino-fixation","134","509275","0.0-25.0-0.32","A1161","true","img/card_backs/set1/purple.gif","img/card_backs/set1/green.gif","img/card_backs/set1/yellow.gif","img/card_backs/set1/red.gif","img/card_backs/set2/pink.gif","img/card_backs/set2/gray.gif","img/card_backs/set2/orange.gif","img/card_backs/set2/blue.gif","""event"",""trial"",""time""
""fullscreenenter"",""1"",""1530""
","
","
","""event"",""trial"",""time""
""fullscreenenter"",""1"",""1530""
","
","","null","","null","","fixation","2021-06-23 22:32:18.115","","","","","",""
"card-selection-trial","135","512078","0.0-25.0-1.32","A1161","true","img/card_backs/set1/purple.gif","img/card_backs/set1/green.gif","img/card_backs/set1/yellow.gif","img/card_backs/set1/red.gif","img/card_backs/set2/pink.gif","img/card_backs/set2/gray.gif","img/card_backs/set2/orange.gif","img/card_backs/set2/blue.gif","""event"",""trial"",""time""
""fullscreenenter"",""1"",""1530""
","
","
","""event"",""trial"",""time""
""fullscreenenter"",""1"",""1530""
","
","","789.6999999880791","","","","real_trial","2021-06-23 22:32:20.918","img/card_backs/set1/purple.gif","3","240","1","",""
"casino-fixation","136","512581","0.0-25.0-0.33","A1161","true","img/card_backs/set1/purple.gif","img/card_backs/set1/green.gif","img/card_backs/set1/yellow.gif","img/card_backs/set1/red.gif","img/card_backs/set2/pink.gif","img/card_backs/set2/gray.gif","img/card_backs/set2/orange.gif","img/card_backs/set2/blue.gif","""event"",""trial"",""time""
""fullscreenenter"",""1"",""1530""
","
","
","""event"",""trial"",""time""
""fullscreenenter"",""1"",""1530""
","
","","null","","null","","fixation","2021-06-23 22:32:21.421","","","","","",""
"card-selection-trial","137","515353","0.0-25.0-1.33","A1161","true","img/card_backs/set1/purple.gif","img/card_backs/set1/green.gif","img/card_backs/set1/yellow.gif","img/card_backs/set1/red.gif","img/card_backs/set2/pink.gif","img/card_backs/set2/gray.gif","img/card_backs/set2/orange.gif","img/card_backs/set2/blue.gif","""event"",""trial"",""time""
""fullscreenenter"",""1"",""1530""
","
","
","""event"",""trial"",""time""
""fullscreenenter"",""1"",""1530""
","
","","762.8000000119209","","","","real_trial","2021-06-23 22:32:24.193","img/card_backs/set1/purple.gif","0","-210","1","",""
"casino-fixation","138","515869","0.0-25.0-0.34","A1161","true","img/card_backs/set1/purple.gif","img/card_backs/set1/green.gif","img/card_backs/set1/yellow.gif","img/card_backs/set1/red.gif","img/card_backs/set2/pink.gif","img/card_backs/set2/gray.gif","img/card_backs/set2/orange.gif","img/card_backs/set2/blue.gif","""event"",""trial"",""time""
""fullscreenenter"",""1"",""1530""
","
","
","""event"",""trial"",""time""
""fullscreenenter"",""1"",""1530""
","
","","null","","null","","fixation","2021-06-23 22:32:24.709","","","","","",""
"card-selection-trial","139","518729","0.0-25.0-1.34","A1161","true","img/card_backs/set1/purple.gif","img/card_backs/set1/green.gif","img/card_backs/set1/yellow.gif","img/card_backs/set1/red.gif","img/card_backs/set2/pink.gif","img/card_backs/set2/gray.gif","img/card_backs/set2/orange.gif","img/card_backs/set2/blue.gif","""event"",""trial"",""time""
""fullscreenenter"",""1"",""1530""
","
","
","""event"",""trial"",""time""
""fullscreenenter"",""1"",""1530""
","
","","847.1999999880791","","","","real_trial","2021-06-23 22:32:27.569","img/card_backs/set1/purple.gif","3","-200","1","",""
"casino-fixation","140","519233","0.0-25.0-0.35","A1161","true","img/card_backs/set1/purple.gif","img/card_backs/set1/green.gif","img/card_backs/set1/yellow.gif","img/card_backs/set1/red.gif","img/card_backs/set2/pink.gif","img/card_backs/set2/gray.gif","img/card_backs/set2/orange.gif","img/card_backs/set2/blue.gif","""event"",""trial"",""time""
""fullscreenenter"",""1"",""1530""
","
","
","""event"",""trial"",""time""
""fullscreenenter"",""1"",""1530""
","
","","null","","null","","fixation","2021-06-23 22:32:28.073","","","","","",""
"card-selection-trial","141","522265","0.0-25.0-1.35","A1161","true","img/card_backs/set1/purple.gif","img/card_backs/set1/green.gif","img/card_backs/set1/yellow.gif","img/card_backs/set1/red.gif","img/card_backs/set2/pink.gif","img/card_backs/set2/gray.gif","img/card_backs/set2/orange.gif","img/card_backs/set2/blue.gif","""event"",""trial"",""time""
""fullscreenenter"",""1"",""1530""
","
","
","""event"",""trial"",""time""
""fullscreenenter"",""1"",""1530""
","
","","1024.2000000029802","","","","real_trial","2021-06-23 22:32:31.105","img/card_backs/set1/purple.gif","2","250","1","",""
"casino-fixation","142","522769","0.0-25.0-0.36","A1161","true","img/card_backs/set1/purple.gif","img/card_backs/set1/green.gif","img/card_backs/set1/yellow.gif","img/card_backs/set1/red.gif","img/card_backs/set2/pink.gif","img/card_backs/set2/gray.gif","img/card_backs/set2/orange.gif","img/card_backs/set2/blue.gif","""event"",""trial"",""time""
""fullscreenenter"",""1"",""1530""
","
","
","""event"",""trial"",""time""
""fullscreenenter"",""1"",""1530""
","
","","null","","null","","fixation","2021-06-23 22:32:31.609","","","","","",""
"card-selection-trial","143","525610","0.0-25.0-1.36","A1161","true","img/card_backs/set1/purple.gif","img/card_backs/set1/green.gif","img/card_backs/set1/yellow.gif","img/card_backs/set1/red.gif","img/card_backs/set2/pink.gif","img/card_backs/set2/gray.gif","img/card_backs/set2/orange.gif","img/card_backs/set2/blue.gif","""event"",""trial"",""time""
""fullscreenenter"",""1"",""1530""
","
","
","""event"",""trial"",""time""
""fullscreenenter"",""1"",""1530""
","
","","834.5999999940395","","","","real_trial","2021-06-23 22:32:34.450","img/card_backs/set1/purple.gif","3","-210","1","",""
"casino-fixation","144","526116","0.0-25.0-0.37","A1161","true","img/card_backs/set1/purple.gif","img/card_backs/set1/green.gif","img/card_backs/set1/yellow.gif","img/card_backs/set1/red.gif","img/card_backs/set2/pink.gif","img/card_backs/set2/gray.gif","img/card_backs/set2/orange.gif","img/card_backs/set2/blue.gif","""event"",""trial"",""time""
""fullscreenenter"",""1"",""1530""
","
","
","""event"",""trial"",""time""
""fullscreenenter"",""1"",""1530""
","
","","null","","null","","fixation","2021-06-23 22:32:34.956","","","","","",""
"card-selection-trial","145","528904","0.0-25.0-1.37","A1161","true","img/card_backs/set1/purple.gif","img/card_backs/set1/green.gif","img/card_backs/set1/yellow.gif","img/card_backs/set1/red.gif","img/card_backs/set2/pink.gif","img/card_backs/set2/gray.gif","img/card_backs/set2/orange.gif","img/card_backs/set2/blue.gif","""event"",""trial"",""time""
""fullscreenenter"",""1"",""1530""
","
","
","""event"",""trial"",""time""
""fullscreenenter"",""1"",""1530""
","
","","777.5","","","","real_trial","2021-06-23 22:32:37.745","img/card_backs/set1/purple.gif","0","260","1","",""
"casino-fixation","146","529408","0.0-25.0-0.38","A1161","true","img/card_backs/set1/purple.gif","img/card_backs/set1/green.gif","img/card_backs/set1/yellow.gif","img/card_backs/set1/red.gif","img/card_backs/set2/pink.gif","img/card_backs/set2/gray.gif","img/card_backs/set2/orange.gif","img/card_backs/set2/blue.gif","""event"",""trial"",""time""
""fullscreenenter"",""1"",""1530""
","
","
","""event"",""trial"",""time""
""fullscreenenter"",""1"",""1530""
","
","","null","","null","","fixation","2021-06-23 22:32:38.248","","","","","",""
"card-selection-trial","147","532189","0.0-25.0-1.38","A1161","true","img/card_backs/set1/purple.gif","img/card_backs/set1/green.gif","img/card_backs/set1/yellow.gif","img/card_backs/set1/red.gif","img/card_backs/set2/pink.gif","img/card_backs/set2/gray.gif","img/card_backs/set2/orange.gif","img/card_backs/set2/blue.gif","""event"",""trial"",""time""
""fullscreenenter"",""1"",""1530""
","
","
","""event"",""trial"",""time""
""fullscreenenter"",""1"",""1530""
","
","","773.3000000119209","","","","real_trial","2021-06-23 22:32:41.029","img/card_backs/set1/purple.gif","3","-200","1","",""
"casino-fixation","148","532693","0.0-25.0-0.39","A1161","true","img/card_backs/set1/purple.gif","img/card_backs/set1/green.gif","img/card_backs/set1/yellow.gif","img/card_backs/set1/red.gif","img/card_backs/set2/pink.gif","img/card_backs/set2/gray.gif","img/card_backs/set2/orange.gif","img/card_backs/set2/blue.gif","""event"",""trial"",""time""
""fullscreenenter"",""1"",""1530""
","
","
","""event"",""trial"",""time""
""fullscreenenter"",""1"",""1530""
","
","","null","","null","","fixation","2021-06-23 22:32:41.533","","","","","",""
"card-selection-trial","149","535647","0.0-25.0-1.39","A1161","true","img/card_backs/set1/purple.gif","img/card_backs/set1/green.gif","img/card_backs/set1/yellow.gif","img/card_backs/set1/red.gif","img/card_backs/set2/pink.gif","img/card_backs/set2/gray.gif","img/card_backs/set2/orange.gif","img/card_backs/set2/blue.gif","""event"",""trial"",""time""
""fullscreenenter"",""1"",""1530""
","
","
","""event"",""trial"",""time""
""fullscreenenter"",""1"",""1530""
","
","","944.7000000029802","","","","real_trial","2021-06-23 22:32:44.487","img/card_backs/set1/purple.gif","1","240","1","",""
"casino-fixation","150","536149","0.0-25.0-0.40","A1161","true","img/card_backs/set1/purple.gif","img/card_backs/set1/green.gif","img/card_backs/set1/yellow.gif","img/card_backs/set1/red.gif","img/card_backs/set2/pink.gif","img/card_backs/set2/gray.gif","img/card_backs/set2/orange.gif","img/card_backs/set2/blue.gif","""event"",""trial"",""time""
""fullscreenenter"",""1"",""1530""
","
","
","""event"",""trial"",""time""
""fullscreenenter"",""1"",""1530""
","
","","null","","null","","fixation","2021-06-23 22:32:44.989","","","","","",""
"card-selection-trial","151","539489","0.0-25.0-1.40","A1161","true","img/card_backs/set1/purple.gif","img/card_backs/set1/green.gif","img/card_backs/set1/yellow.gif","img/card_backs/set1/red.gif","img/card_backs/set2/pink.gif","img/card_backs/set2/gray.gif","img/card_backs/set2/orange.gif","img/card_backs/set2/blue.gif","""event"",""trial"",""time""
""fullscreenenter"",""1"",""1530""
","
","
","""event"",""trial"",""time""
""fullscreenenter"",""1"",""1530""
","
","","1334.0999999940395","","","","real_trial","2021-06-23 22:32:48.329","img/card_backs/set1/green.gif","0","260","1","",""
"casino-fixation","152","539992","0.0-25.0-0.41","A1161","true","img/card_backs/set1/purple.gif","img/card_backs/set1/green.gif","img/card_backs/set1/yellow.gif","img/card_backs/set1/red.gif","img/card_backs/set2/pink.gif","img/card_backs/set2/gray.gif","img/card_backs/set2/orange.gif","img/card_backs/set2/blue.gif","""event"",""trial"",""time""
""fullscreenenter"",""1"",""1530""
","
","
","""event"",""trial"",""time""
""fullscreenenter"",""1"",""1530""
","
","","null","","null","","fixation","2021-06-23 22:32:48.833","","","","","",""
"card-selection-trial","153","542920","0.0-25.0-1.41","A1161","true","img/card_backs/set1/purple.gif","img/card_backs/set1/green.gif","img/card_backs/set1/yellow.gif","img/card_backs/set1/red.gif","img/card_backs/set2/pink.gif","img/card_backs/set2/gray.gif","img/card_backs/set2/orange.gif","img/card_backs/set2/blue.gif","""event"",""trial"",""time""
""fullscreenenter"",""1"",""1530""
","
","
","""event"",""trial"",""time""
""fullscreenenter"",""1"",""1530""
","
","","914.4000000059605","","","","real_trial","2021-06-23 22:32:51.760","img/card_backs/set1/purple.gif","2","-210","1","",""
"casino-fixation","154","543423","0.0-25.0-0.42","A1161","true","img/card_backs/set1/purple.gif","img/card_backs/set1/green.gif","img/card_backs/set1/yellow.gif","img/card_backs/set1/red.gif","img/card_backs/set2/pink.gif","img/card_backs/set2/gray.gif","img/card_backs/set2/orange.gif","img/card_backs/set2/blue.gif","""event"",""trial"",""time""
""fullscreenenter"",""1"",""1530""
","
","
","""event"",""trial"",""time""
""fullscreenenter"",""1"",""1530""
","
","","null","","null","","fixation","2021-06-23 22:32:52.263","","","","","",""
"card-selection-trial","155","546491","0.0-25.0-1.42","A1161","true","img/card_backs/set1/purple.gif","img/card_backs/set1/green.gif","img/card_backs/set1/yellow.gif","img/card_backs/set1/red.gif","img/card_backs/set2/pink.gif","img/card_backs/set2/gray.gif","img/card_backs/set2/orange.gif","img/card_backs/set2/blue.gif","""event"",""trial"",""time""
""fullscreenenter"",""1"",""1530""
","
","
","""event"",""trial"",""time""
""fullscreenenter"",""1"",""1530""
","
","","1062","","","","real_trial","2021-06-23 22:32:55.331","img/card_backs/set1/green.gif","1","-190","1","",""
"casino-fixation","156","546995","0.0-25.0-0.43","A1161","true","img/card_backs/set1/purple.gif","img/card_backs/set1/green.gif","img/card_backs/set1/yellow.gif","img/card_backs/set1/red.gif","img/card_backs/set2/pink.gif","img/card_backs/set2/gray.gif","img/card_backs/set2/orange.gif","img/card_backs/set2/blue.gif","""event"",""trial"",""time""
""fullscreenenter"",""1"",""1530""
","
","
","""event"",""trial"",""time""
""fullscreenenter"",""1"",""1530""
","
","","null","","null","","fixation","2021-06-23 22:32:55.835","","","","","",""
"card-selection-trial","157","550475","0.0-25.0-1.43","A1161","true","img/card_backs/set1/purple.gif","img/card_backs/set1/green.gif","img/card_backs/set1/yellow.gif","img/card_backs/set1/red.gif","img/card_backs/set2/pink.gif","img/card_backs/set2/gray.gif","img/card_backs/set2/orange.gif","img/card_backs/set2/blue.gif","""event"",""trial"",""time""
""fullscreenenter"",""1"",""1530""
","
","
","""event"",""trial"",""time""
""fullscreenenter"",""1"",""1530""
","
","","1474","","","","real_trial","2021-06-23 22:32:59.315","img/card_backs/set1/green.gif","0","-200","1","",""
"casino-fixation","158","550978","0.0-25.0-0.44","A1161","true","img/card_backs/set1/purple.gif","img/card_backs/set1/green.gif","img/card_backs/set1/yellow.gif","img/card_backs/set1/red.gif","img/card_backs/set2/pink.gif","img/card_backs/set2/gray.gif","img/card_backs/set2/orange.gif","img/card_backs/set2/blue.gif","""event"",""trial"",""time""
""fullscreenenter"",""1"",""1530""
","
","
","""event"",""trial"",""time""
""fullscreenenter"",""1"",""1530""
","
","","null","","null","","fixation","2021-06-23 22:32:59.818","","","","","",""
"card-selection-trial","159","555424","0.0-25.0-1.44","A1161","true","img/card_backs/set1/purple.gif","img/card_backs/set1/green.gif","img/card_backs/set1/yellow.gif","img/card_backs/set1/red.gif","img/card_backs/set2/pink.gif","img/card_backs/set2/gray.gif","img/card_backs/set2/orange.gif","img/card_backs/set2/blue.gif","""event"",""trial"",""time""
""fullscreenenter"",""1"",""1530""
","
","
","""event"",""trial"",""time""
""fullscreenenter"",""1"",""1530""
","
","","2424.6000000089407","","","","real_trial","2021-06-23 22:33:04.264","img/card_backs/set1/green.gif","2","-210","1","",""
"casino-fixation","160","555927","0.0-25.0-0.45","A1161","true","img/card_backs/set1/purple.gif","img/card_backs/set1/green.gif","img/card_backs/set1/yellow.gif","img/card_backs/set1/red.gif","img/card_backs/set2/pink.gif","img/card_backs/set2/gray.gif","img/card_backs/set2/orange.gif","img/card_backs/set2/blue.gif","""event"",""trial"",""time""
""fullscreenenter"",""1"",""1530""
","
","
","""event"",""trial"",""time""
""fullscreenenter"",""1"",""1530""
","
","","null","","null","","fixation","2021-06-23 22:33:04.767","","","","","",""
"card-selection-trial","161","558832","0.0-25.0-1.45","A1161","true","img/card_backs/set1/purple.gif","img/card_backs/set1/green.gif","img/card_backs/set1/yellow.gif","img/card_backs/set1/red.gif","img/card_backs/set2/pink.gif","img/card_backs/set2/gray.gif","img/card_backs/set2/orange.gif","img/card_backs/set2/blue.gif","""event"",""trial"",""time""
""fullscreenenter"",""1"",""1530""
","
","
","""event"",""trial"",""time""
""fullscreenenter"",""1"",""1530""
","
","","902","","","","real_trial","2021-06-23 22:33:07.672","img/card_backs/set1/green.gif","0","-200","1","",""
"casino-fixation","162","559336","0.0-25.0-0.46","A1161","true","img/card_backs/set1/purple.gif","img/card_backs/set1/green.gif","img/card_backs/set1/yellow.gif","img/card_backs/set1/red.gif","img/card_backs/set2/pink.gif","img/card_backs/set2/gray.gif","img/card_backs/set2/orange.gif","img/card_backs/set2/blue.gif","""event"",""trial"",""time""
""fullscreenenter"",""1"",""1530""
","
","
","""event"",""trial"",""time""
""fullscreenenter"",""1"",""1530""
","
","","null","","null","","fixation","2021-06-23 22:33:08.176","","","","","",""
"card-selection-trial","163","562216","0.0-25.0-1.46","A1161","true","img/card_backs/set1/purple.gif","img/card_backs/set1/green.gif","img/card_backs/set1/yellow.gif","img/card_backs/set1/red.gif","img/card_backs/set2/pink.gif","img/card_backs/set2/gray.gif","img/card_backs/set2/orange.gif","img/card_backs/set2/blue.gif","""event"",""trial"",""time""
""fullscreenenter"",""1"",""1530""
","
","
","""event"",""trial"",""time""
""fullscreenenter"",""1"",""1530""
","
","","872.7000000029802","","","","real_trial","2021-06-23 22:33:11.056","img/card_backs/set1/purple.gif","0","-200","1","",""
"casino-fixation","164","562719","0.0-25.0-0.47","A1161","true","img/card_backs/set1/purple.gif","img/card_backs/set1/green.gif","img/card_backs/set1/yellow.gif","img/card_backs/set1/red.gif","img/card_backs/set2/pink.gif","img/card_backs/set2/gray.gif","img/card_backs/set2/orange.gif","img/card_backs/set2/blue.gif","""event"",""trial"",""time""
""fullscreenenter"",""1"",""1530""
","
","
","""event"",""trial"",""time""
""fullscreenenter"",""1"",""1530""
","
","","null","","null","","fixation","2021-06-23 22:33:11.560","","","","","",""
"card-selection-trial","165","565625","0.0-25.0-1.47","A1161","true","img/card_backs/set1/purple.gif","img/card_backs/set1/green.gif","img/card_backs/set1/yellow.gif","img/card_backs/set1/red.gif","img/card_backs/set2/pink.gif","img/card_backs/set2/gray.gif","img/card_backs/set2/orange.gif","img/card_backs/set2/blue.gif","""event"",""trial"",""time""
""fullscreenenter"",""1"",""1530""
","
","
","""event"",""trial"",""time""
""fullscreenenter"",""1"",""1530""
","
","","893.2999999970198","","","","real_trial","2021-06-23 22:33:14.465","img/card_backs/set1/purple.gif","1","240","1","",""
"casino-fixation","166","566128","0.0-25.0-0.48","A1161","true","img/card_backs/set1/purple.gif","img/card_backs/set1/green.gif","img/card_backs/set1/yellow.gif","img/card_backs/set1/red.gif","img/card_backs/set2/pink.gif","img/card_backs/set2/gray.gif","img/card_backs/set2/orange.gif","img/card_backs/set2/blue.gif","""event"",""trial"",""time""
""fullscreenenter"",""1"",""1530""
","
","
","""event"",""trial"",""time""
""fullscreenenter"",""1"",""1530""
","
","","null","","null","","fixation","2021-06-23 22:33:14.968","","","","","",""
"card-selection-trial","167","568992","0.0-25.0-1.48","A1161","true","img/card_backs/set1/purple.gif","img/card_backs/set1/green.gif","img/card_backs/set1/yellow.gif","img/card_backs/set1/red.gif","img/card_backs/set2/pink.gif","img/card_backs/set2/gray.gif","img/card_backs/set2/orange.gif","img/card_backs/set2/blue.gif","""event"",""trial"",""time""
""fullscreenenter"",""1"",""1530""
","
","
