"trial_type","trial_index","time_elapsed","internal_node_id","sub_id","risk_good_first","block1_A","block1_B","block1_C","block1_D","block2_A","block2_B","block2_C","block2_D","interactions","blur_events","focus_events","fullscreenenter_events","fullscreenexit_events","success","rt","stimulus","key_press","button_pressed","task_part","timestamp","card_choice","choice_position","points_earned","block","correct","response"
"pavlovia","0","10","0.0-0.0","957","false","img/card_backs/set1/red.gif","img/card_backs/set1/green.gif","img/card_backs/set1/purple.gif","img/card_backs/set1/yellow.gif","img/card_backs/set2/pink.gif","img/card_backs/set2/gray.gif","img/card_backs/set2/orange.gif","img/card_backs/set2/blue.gif","""event"",""trial"",""time""
""fullscreenenter"",""1"",""5913""
","
","
","""event"",""trial"",""time""
""fullscreenenter"",""1"",""5913""
","
","","","","","","","","","","","","",""
"fullscreen","1","6809","0.0-1.0","957","false","img/card_backs/set1/red.gif","img/card_backs/set1/green.gif","img/card_backs/set1/purple.gif","img/card_backs/set1/yellow.gif","img/card_backs/set2/pink.gif","img/card_backs/set2/gray.gif","img/card_backs/set2/orange.gif","img/card_backs/set2/blue.gif","""event"",""trial"",""time""
""fullscreenenter"",""1"",""5913""
","
","
","""event"",""trial"",""time""
""fullscreenenter"",""1"",""5913""
","
","true","","","","","","","","","","","",""
"audio-keyboard-response","2","9145","0.0-2.0","957","false","img/card_backs/set1/red.gif","img/card_backs/set1/green.gif","img/card_backs/set1/purple.gif","img/card_backs/set1/yellow.gif","img/card_backs/set2/pink.gif","img/card_backs/set2/gray.gif","img/card_backs/set2/orange.gif","img/card_backs/set2/blue.gif","""event"",""trial"",""time""
""fullscreenenter"",""1"",""5913""
","
","
","""event"",""trial"",""time""
""fullscreenenter"",""1"",""5913""
","
","","0","audio/beep_loop.wav","32","","","","","","","","",""
"audio-button-response","3","12228","0.0-3.0","957","false","img/card_backs/set1/red.gif","img/card_backs/set1/green.gif","img/card_backs/set1/purple.gif","img/card_backs/set1/yellow.gif","img/card_backs/set2/pink.gif","img/card_backs/set2/gray.gif","img/card_backs/set2/orange.gif","img/card_backs/set2/blue.gif","""event"",""trial"",""time""
""fullscreenenter"",""1"",""5913""
","
","
","""event"",""trial"",""time""
""fullscreenenter"",""1"",""5913""
","
","","NaN","audio/turtle.mp3","","3","","","","","","","",""
"audio-button-response","4","15448","0.0-4.0","957","false","img/card_backs/set1/red.gif","img/card_backs/set1/green.gif","img/card_backs/set1/purple.gif","img/card_backs/set1/yellow.gif","img/card_backs/set2/pink.gif","img/card_backs/set2/gray.gif","img/card_backs/set2/orange.gif","img/card_backs/set2/blue.gif","""event"",""trial"",""time""
""fullscreenenter"",""1"",""5913""
","
","
","""event"",""trial"",""time""
""fullscreenenter"",""1"",""5913""
","
","","NaN","audio/shark.mp3","","2","","","","","","","",""
"fullscreen","5","19626","0.0-5.0","957","false","img/card_backs/set1/red.gif","img/card_backs/set1/green.gif","img/card_backs/set1/purple.gif","img/card_backs/set1/yellow.gif","img/card_backs/set2/pink.gif","img/card_backs/set2/gray.gif","img/card_backs/set2/orange.gif","img/card_backs/set2/blue.gif","""event"",""trial"",""time""
""fullscreenenter"",""1"",""5913""
","
","
","""event"",""trial"",""time""
""fullscreenenter"",""1"",""5913""
","
","true","","","","","","","","","","","",""
"casino-keyboard-response","6","43563","0.0-6.0-0.0","957","false","img/card_backs/set1/red.gif","img/card_backs/set1/green.gif","img/card_backs/set1/purple.gif","img/card_backs/set1/yellow.gif","img/card_backs/set2/pink.gif","img/card_backs/set2/gray.gif","img/card_backs/set2/orange.gif","img/card_backs/set2/blue.gif","""event"",""trial"",""time""
""fullscreenenter"",""1"",""5913""
","
","
","""event"",""trial"",""time""
""fullscreenenter"",""1"",""5913""
","
","","23934.000000000007","Welcome to the casino!","71","","instructions","2021-07-01 03:51:14.613","","","","","",""
"casino-keyboard-response","7","55195","0.0-6.0-0.1","957","false","img/card_backs/set1/red.gif","img/card_backs/set1/green.gif","img/card_backs/set1/purple.gif","img/card_backs/set1/yellow.gif","img/card_backs/set2/pink.gif","img/card_backs/set2/gray.gif","img/card_backs/set2/orange.gif","img/card_backs/set2/blue.gif","""event"",""trial"",""time""
""fullscreenenter"",""1"",""5913""
","
","
","""event"",""trial"",""time""
""fullscreenenter"",""1"",""5913""
","
","","11629.999999999993","Today you will be playing a game to earn tokens. </br> At the end of the experiment, you will be paid a bonus based on how many tokens you win. ","69","","instructions","2021-07-01 03:51:26.245","","","","","",""
"casino-keyboard-response","8","62793","0.0-6.0-0.2","957","false","img/card_backs/set1/red.gif","img/card_backs/set1/green.gif","img/card_backs/set1/purple.gif","img/card_backs/set1/yellow.gif","img/card_backs/set2/pink.gif","img/card_backs/set2/gray.gif","img/card_backs/set2/orange.gif","img/card_backs/set2/blue.gif","""event"",""trial"",""time""
""fullscreenenter"",""1"",""5913""
","
","
","""event"",""trial"",""time""
""fullscreenenter"",""1"",""5913""
","
","","7597","On every turn, you will be shown four different decks of cards. </br> You need to select a card from one of the four decks.  ","75","","instructions","2021-07-01 03:51:33.843","","","","","",""
"casino-keyboard-response","9","67647","0.0-6.0-0.3","957","false","img/card_backs/set1/red.gif","img/card_backs/set1/green.gif","img/card_backs/set1/purple.gif","img/card_backs/set1/yellow.gif","img/card_backs/set2/pink.gif","img/card_backs/set2/gray.gif","img/card_backs/set2/orange.gif","img/card_backs/set2/blue.gif","""event"",""trial"",""time""
""fullscreenenter"",""1"",""5913""
","
","
","""event"",""trial"",""time""
""fullscreenenter"",""1"",""5913""
","
","","4852.999999999985","On the next screen, you will see what the decks will look like. ","66","","instructions","2021-07-01 03:51:38.697","","","","","",""
"card-selection-trial","10","71652","0.0-7.0-0.0","957","false","img/card_backs/set1/red.gif","img/card_backs/set1/green.gif","img/card_backs/set1/purple.gif","img/card_backs/set1/yellow.gif","img/card_backs/set2/pink.gif","img/card_backs/set2/gray.gif","img/card_backs/set2/orange.gif","img/card_backs/set2/blue.gif","""event"",""trial"",""time""
""fullscreenenter"",""1"",""5913""
","
","
","""event"",""trial"",""time""
""fullscreenenter"",""1"",""5913""
","
","","null","","","","practice","2021-07-01 03:51:42.702","null","null","null","0","",""
"casino-keyboard-response","11","79910","0.0-8.0-0.0","957","false","img/card_backs/set1/red.gif","img/card_backs/set1/green.gif","img/card_backs/set1/purple.gif","img/card_backs/set1/yellow.gif","img/card_backs/set2/pink.gif","img/card_backs/set2/gray.gif","img/card_backs/set2/orange.gif","img/card_backs/set2/blue.gif","""event"",""trial"",""time""
""fullscreenenter"",""1"",""5913""
","
","
","""event"",""trial"",""time""
""fullscreenenter"",""1"",""5913""
","
","","8257.000000000015","You should pick a card from a deck using the '2', '4', '6', and '8' keys at the top of the keyboard.","85","","instructions","2021-07-01 03:51:50.960","","","","","",""
"casino-keyboard-response","12","85306","0.0-8.0-0.1","957","false","img/card_backs/set1/red.gif","img/card_backs/set1/green.gif","img/card_backs/set1/purple.gif","img/card_backs/set1/yellow.gif","img/card_backs/set2/pink.gif","img/card_backs/set2/gray.gif","img/card_backs/set2/orange.gif","img/card_backs/set2/blue.gif","""event"",""trial"",""time""
""fullscreenenter"",""1"",""5913""
","
","
","""event"",""trial"",""time""
""fullscreenenter"",""1"",""5913""
","
","","5395.000000000015","Once you select a card, it will turn over and you will see how many tokens you earned.","83","","instructions","2021-07-01 03:51:56.356","","","","","",""
"casino-keyboard-response","13","97242","0.0-8.0-0.2","957","false","img/card_backs/set1/red.gif","img/card_backs/set1/green.gif","img/card_backs/set1/purple.gif","img/card_backs/set1/yellow.gif","img/card_backs/set2/pink.gif","img/card_backs/set2/gray.gif","img/card_backs/set2/orange.gif","img/card_backs/set2/blue.gif","""event"",""trial"",""time""
""fullscreenenter"",""1"",""5913""
","
","
","""event"",""trial"",""time""
""fullscreenenter"",""1"",""5913""
","
","","11934","Let's try practicing that! </br> First, try to put your fingers over the '2', '4', '6', and '8' keys. </br>  You can use whatever fingers are most comfortable for you. Try to find a comfortable position now. ","50","","instructions","2021-07-01 03:52:08.292","","","","","",""
"casino-keyboard-response","14","103623","0.0-8.0-0.3","957","false","img/card_backs/set1/red.gif","img/card_backs/set1/green.gif","img/card_backs/set1/purple.gif","img/card_backs/set1/yellow.gif","img/card_backs/set2/pink.gif","img/card_backs/set2/gray.gif","img/card_backs/set2/orange.gif","img/card_backs/set2/blue.gif","""event"",""trial"",""time""
""fullscreenenter"",""1"",""5913""
","
","
","""event"",""trial"",""time""
""fullscreenenter"",""1"",""5913""
","
","","6380","Okay ready? </br> On the next screen, press '2' to select the left deck. ","50","","instructions","2021-07-01 03:52:14.673","","","","","",""
"card-selection-trial","15","107181","0.0-9.0-0.0","957","false","img/card_backs/set1/red.gif","img/card_backs/set1/green.gif","img/card_backs/set1/purple.gif","img/card_backs/set1/yellow.gif","img/card_backs/set2/pink.gif","img/card_backs/set2/gray.gif","img/card_backs/set2/orange.gif","img/card_backs/set2/blue.gif","""event"",""trial"",""time""
""fullscreenenter"",""1"",""5913""
","
","
","""event"",""trial"",""time""
""fullscreenenter"",""1"",""5913""
","
","","1485","","","","practice_card_selection","2021-07-01 03:52:18.231","img/practice_cards/backs/brown.gif","0","-100","","",""
"casino-keyboard-response","16","113611","0.0-10.0-0.0","957","false","img/card_backs/set1/red.gif","img/card_backs/set1/green.gif","img/card_backs/set1/purple.gif","img/card_backs/set1/yellow.gif","img/card_backs/set2/pink.gif","img/card_backs/set2/gray.gif","img/card_backs/set2/orange.gif","img/card_backs/set2/blue.gif","""event"",""trial"",""time""
""fullscreenenter"",""1"",""5913""
","
","
","""event"",""trial"",""time""
""fullscreenenter"",""1"",""5913""
","
","","6429","Great! Now on the next screen, try pressing '6' to select the third deck.","54","","instructions","2021-07-01 03:52:24.661","","","","","",""
"card-selection-trial","17","116446","0.0-11.0-0.0","957","false","img/card_backs/set1/red.gif","img/card_backs/set1/green.gif","img/card_backs/set1/purple.gif","img/card_backs/set1/yellow.gif","img/card_backs/set2/pink.gif","img/card_backs/set2/gray.gif","img/card_backs/set2/orange.gif","img/card_backs/set2/blue.gif","""event"",""trial"",""time""
""fullscreenenter"",""1"",""5913""
","
","
","""event"",""trial"",""time""
""fullscreenenter"",""1"",""5913""
","
","","783.0000000000146","","","","practice_card_selection","2021-07-01 03:52:27.496","img/practice_cards/backs/dark_green.gif","2","200","","",""
"casino-keyboard-response","18","121572","0.0-12.0-0.0","957","false","img/card_backs/set1/red.gif","img/card_backs/set1/green.gif","img/card_backs/set1/purple.gif","img/card_backs/set1/yellow.gif","img/card_backs/set2/pink.gif","img/card_backs/set2/gray.gif","img/card_backs/set2/orange.gif","img/card_backs/set2/blue.gif","""event"",""trial"",""time""
""fullscreenenter"",""1"",""5913""
","
","
","""event"",""trial"",""time""
""fullscreenenter"",""1"",""5913""
","
","","5124","Now on the next screen, try pressing '4' to select the second deck.","52","","instructions","2021-07-01 03:52:32.622","","","","","",""
"card-selection-trial","19","124224","0.0-13.0-0.0","957","false","img/card_backs/set1/red.gif","img/card_backs/set1/green.gif","img/card_backs/set1/purple.gif","img/card_backs/set1/yellow.gif","img/card_backs/set2/pink.gif","img/card_backs/set2/gray.gif","img/card_backs/set2/orange.gif","img/card_backs/set2/blue.gif","""event"",""trial"",""time""
""fullscreenenter"",""1"",""5913""
","
","
","""event"",""trial"",""time""
""fullscreenenter"",""1"",""5913""
","
","","599","","","","practice_card_selection","2021-07-01 03:52:35.274","img/practice_cards/backs/dark_blue.gif","1","-200","","",""
"casino-keyboard-response","20","128763","0.0-14.0-0.0","957","false","img/card_backs/set1/red.gif","img/card_backs/set1/green.gif","img/card_backs/set1/purple.gif","img/card_backs/set1/yellow.gif","img/card_backs/set2/pink.gif","img/card_backs/set2/gray.gif","img/card_backs/set2/orange.gif","img/card_backs/set2/blue.gif","""event"",""trial"",""time""
""fullscreenenter"",""1"",""5913""
","
","
","""event"",""trial"",""time""
""fullscreenenter"",""1"",""5913""
","
","","4539.000000000029","Finally, try pressing '8' to select the deck all the way on the right.","56","","instructions","2021-07-01 03:52:39.813","","","","","",""
"card-selection-trial","21","131589","0.0-15.0-0.0","957","false","img/card_backs/set1/red.gif","img/card_backs/set1/green.gif","img/card_backs/set1/purple.gif","img/card_backs/set1/yellow.gif","img/card_backs/set2/pink.gif","img/card_backs/set2/gray.gif","img/card_backs/set2/orange.gif","img/card_backs/set2/blue.gif","""event"",""trial"",""time""
""fullscreenenter"",""1"",""5913""
","
","
","""event"",""trial"",""time""
""fullscreenenter"",""1"",""5913""
","
","","768","","","","practice_card_selection","2021-07-01 03:52:42.640","img/practice_cards/backs/dark_green.gif","3","200","","",""
"casino-keyboard-response","22","135158","0.0-16.0-0.0","957","false","img/card_backs/set1/red.gif","img/card_backs/set1/green.gif","img/card_backs/set1/purple.gif","img/card_backs/set1/yellow.gif","img/card_backs/set2/pink.gif","img/card_backs/set2/gray.gif","img/card_backs/set2/orange.gif","img/card_backs/set2/blue.gif","""event"",""trial"",""time""
""fullscreenenter"",""1"",""5913""
","
","
","""event"",""trial"",""time""
""fullscreenenter"",""1"",""5913""
","
","","3565","Great! It seems like you are getting the hang of this.","80","","instructions","2021-07-01 03:52:46.208","","","","","",""
"casino-keyboard-response","23","142879","0.0-16.0-0.1","957","false","img/card_backs/set1/red.gif","img/card_backs/set1/green.gif","img/card_backs/set1/purple.gif","img/card_backs/set1/yellow.gif","img/card_backs/set2/pink.gif","img/card_backs/set2/gray.gif","img/card_backs/set2/orange.gif","img/card_backs/set2/blue.gif","""event"",""trial"",""time""
""fullscreenenter"",""1"",""5913""
","
","
","""event"",""trial"",""time""
""fullscreenenter"",""1"",""5913""
","
","","7719","You may have noticed that some cards will cause you to <b> win </b> tokens while other cards will cause you to <b> lose </b>  tokens.","70","","instructions","2021-07-01 03:52:53.929","","","","","",""
"casino-keyboard-response","24","151259","0.0-16.0-0.2","957","false","img/card_backs/set1/red.gif","img/card_backs/set1/green.gif","img/card_backs/set1/purple.gif","img/card_backs/set1/yellow.gif","img/card_backs/set2/pink.gif","img/card_backs/set2/gray.gif","img/card_backs/set2/orange.gif","img/card_backs/set2/blue.gif","""event"",""trial"",""time""
""fullscreenenter"",""1"",""5913""
","
","
","""event"",""trial"",""time""
""fullscreenenter"",""1"",""5913""
","
","","8378","Each deck has a mix of cards that will cause you to win and lose tokens. </br> However, the cards in each colored deck are different.","73","","instructions","2021-07-01 03:53:02.309","","","","","",""
"casino-keyboard-response","25","159527","0.0-16.0-0.3","957","false","img/card_backs/set1/red.gif","img/card_backs/set1/green.gif","img/card_backs/set1/purple.gif","img/card_backs/set1/yellow.gif","img/card_backs/set2/pink.gif","img/card_backs/set2/gray.gif","img/card_backs/set2/orange.gif","img/card_backs/set2/blue.gif","""event"",""trial"",""time""
""fullscreenenter"",""1"",""5913""
","
","
","""event"",""trial"",""time""
""fullscreenenter"",""1"",""5913""
","
","","8267","Some colored decks are luckier than others. </br> If you choose the lucky decks, you will earn more tokens than if you choose the unlucky decks.","69","","instructions","2021-07-01 03:53:10.577","","","","","",""
"casino-keyboard-response","26","166665","0.0-16.0-0.4","957","false","img/card_backs/set1/red.gif","img/card_backs/set1/green.gif","img/card_backs/set1/purple.gif","img/card_backs/set1/yellow.gif","img/card_backs/set2/pink.gif","img/card_backs/set2/gray.gif","img/card_backs/set2/orange.gif","img/card_backs/set2/blue.gif","""event"",""trial"",""time""
""fullscreenenter"",""1"",""5913""
","
","
","""event"",""trial"",""time""
""fullscreenenter"",""1"",""5913""
","
","","7136","You should try to figure out which decks are lucky. </br> Then, try to choose the lucky decks so you can win the most tokens.","87","","instructions","2021-07-01 03:53:17.715","","","","","",""
"casino-keyboard-response","27","177920","0.0-16.0-0.5","957","false","img/card_backs/set1/red.gif","img/card_backs/set1/green.gif","img/card_backs/set1/purple.gif","img/card_backs/set1/yellow.gif","img/card_backs/set2/pink.gif","img/card_backs/set2/gray.gif","img/card_backs/set2/orange.gif","img/card_backs/set2/blue.gif","""event"",""trial"",""time""
""fullscreenenter"",""1"",""5913""
","
","
","""event"",""trial"",""time""
""fullscreenenter"",""1"",""5913""
","
","","11254","To make it trickier, the casino dealer will switch the locations of the decks on every turn. </br> The color of the deck determines how lucky it is. The location does not matter.","88","","instructions","2021-07-01 03:53:28.970","","","","","",""
"casino-keyboard-response","28","187138","0.0-16.0-0.6","957","false","img/card_backs/set1/red.gif","img/card_backs/set1/green.gif","img/card_backs/set1/purple.gif","img/card_backs/set1/yellow.gif","img/card_backs/set2/pink.gif","img/card_backs/set2/gray.gif","img/card_backs/set2/orange.gif","img/card_backs/set2/blue.gif","""event"",""trial"",""time""
""fullscreenenter"",""1"",""5913""
","
","
","""event"",""trial"",""time""
""fullscreenenter"",""1"",""5913""
","
","","9217.00000000003","The mix of cards in each colored deck will stay the same throughout the game. </br> That means that a deck that is lucky early on will stay lucky.","79","","instructions","2021-07-01 03:53:38.188","","","","","",""
"casino-keyboard-response","29","195581","0.0-16.0-0.7","957","false","img/card_backs/set1/red.gif","img/card_backs/set1/green.gif","img/card_backs/set1/purple.gif","img/card_backs/set1/yellow.gif","img/card_backs/set2/pink.gif","img/card_backs/set2/gray.gif","img/card_backs/set2/orange.gif","img/card_backs/set2/blue.gif","""event"",""trial"",""time""
""fullscreenenter"",""1"",""5913""
","
","
","""event"",""trial"",""time""
""fullscreenenter"",""1"",""5913""
","
","","8442","Remember though, all the decks have a <b> mix </b> of both <b> good </b> and <b> bad </b> cards so it may take a couple of turns to figure out if a deck is lucky.","69","","instructions","2021-07-01 03:53:46.631","","","","","",""
"casino-keyboard-response","30","203890","0.0-16.0-0.8","957","false","img/card_backs/set1/red.gif","img/card_backs/set1/green.gif","img/card_backs/set1/purple.gif","img/card_backs/set1/yellow.gif","img/card_backs/set2/pink.gif","img/card_backs/set2/gray.gif","img/card_backs/set2/orange.gif","img/card_backs/set2/blue.gif","""event"",""trial"",""time""
""fullscreenenter"",""1"",""5913""
","
","
","""event"",""trial"",""time""
""fullscreenenter"",""1"",""5913""
","
","","8308","At the end of the game, you will be paid bonus money based on how many tokens you win. </br> If you win more tokens, you will earn more money!","72","","instructions","2021-07-01 03:53:54.941","","","","","",""
"casino-keyboard-response","31","213951","0.0-16.0-0.9","957","false","img/card_backs/set1/red.gif","img/card_backs/set1/green.gif","img/card_backs/set1/purple.gif","img/card_backs/set1/yellow.gif","img/card_backs/set2/pink.gif","img/card_backs/set2/gray.gif","img/card_backs/set2/orange.gif","img/card_backs/set2/blue.gif","""event"",""trial"",""time""
""fullscreenenter"",""1"",""5913""
","
","
","""event"",""trial"",""time""
""fullscreenenter"",""1"",""5913""
","
","","10058","You will never <b> lose </b> money. </br> If you end up with fewer than 0 tokens, you will earn $0 of bonus money, but you will still be paid for playing the game.","83","","instructions","2021-07-01 03:54:05.001","","","","","",""
"casino-keyboard-response","32","219242","0.0-16.0-0.10","957","false","img/card_backs/set1/red.gif","img/card_backs/set1/green.gif","img/card_backs/set1/purple.gif","img/card_backs/set1/yellow.gif","img/card_backs/set2/pink.gif","img/card_backs/set2/gray.gif","img/card_backs/set2/orange.gif","img/card_backs/set2/blue.gif","""event"",""trial"",""time""
""fullscreenenter"",""1"",""5913""
","
","
","""event"",""trial"",""time""
""fullscreenenter"",""1"",""5913""
","
","","5290","You will have 10 seconds to make each choice.","82","","instructions","2021-07-01 03:54:10.292","","","","","",""
"casino-keyboard-response","33","230177","0.0-16.0-0.11","957","false","img/card_backs/set1/red.gif","img/card_backs/set1/green.gif","img/card_backs/set1/purple.gif","img/card_backs/set1/yellow.gif","img/card_backs/set2/pink.gif","img/card_backs/set2/gray.gif","img/card_backs/set2/orange.gif","img/card_backs/set2/blue.gif","""event"",""trial"",""time""
""fullscreenenter"",""1"",""5913""
","
","
","""event"",""trial"",""time""
""fullscreenenter"",""1"",""5913""
","
","","10933","Before you play the game for real, you will play with practice decks. </br> The tokens you earn during practice won't count toward your total.","86","","instructions","2021-07-01 03:54:21.227","","","","","",""
"casino-keyboard-response","34","241465","0.0-16.0-0.12","957","false","img/card_backs/set1/red.gif","img/card_backs/set1/green.gif","img/card_backs/set1/purple.gif","img/card_backs/set1/yellow.gif","img/card_backs/set2/pink.gif","img/card_backs/set2/gray.gif","img/card_backs/set2/orange.gif","img/card_backs/set2/blue.gif","""event"",""trial"",""time""
""fullscreenenter"",""1"",""5913""
","
","
","""event"",""trial"",""time""
""fullscreenenter"",""1"",""5913""
","
","","11287","Ready? Remember, use the '2', '4', '6', and '8' keys to select the decks. </br> Put your fingers on those keys now and then press '2' to begin.","50","","instructions","2021-07-01 03:54:32.515","","","","","",""
"casino-fixation","35","241968","0.0-17.0-0.0","957","false","img/card_backs/set1/red.gif","img/card_backs/set1/green.gif","img/card_backs/set1/purple.gif","img/card_backs/set1/yellow.gif","img/card_backs/set2/pink.gif","img/card_backs/set2/gray.gif","img/card_backs/set2/orange.gif","img/card_backs/set2/blue.gif","""event"",""trial"",""time""
""fullscreenenter"",""1"",""5913""
","
","
","""event"",""trial"",""time""
""fullscreenenter"",""1"",""5913""
","
","","null","","null","","fixation","2021-07-01 03:54:33.018","","","","","",""
"card-selection-trial","36","248772","0.0-17.0-1.0","957","false","img/card_backs/set1/red.gif","img/card_backs/set1/green.gif","img/card_backs/set1/purple.gif","img/card_backs/set1/yellow.gif","img/card_backs/set2/pink.gif","img/card_backs/set2/gray.gif","img/card_backs/set2/orange.gif","img/card_backs/set2/blue.gif","""event"",""trial"",""time""
""fullscreenenter"",""1"",""5913""
","
","
","""event"",""trial"",""time""
""fullscreenenter"",""1"",""5913""
","
","","4798.999999999971","","","","practice","2021-07-01 03:54:39.822","img/practice_cards/backs/dark_blue.gif","3","-200","0","",""
"casino-fixation","37","249274","0.0-17.0-0.1","957","false","img/card_backs/set1/red.gif","img/card_backs/set1/green.gif","img/card_backs/set1/purple.gif","img/card_backs/set1/yellow.gif","img/card_backs/set2/pink.gif","img/card_backs/set2/gray.gif","img/card_backs/set2/orange.gif","img/card_backs/set2/blue.gif","""event"",""trial"",""time""
""fullscreenenter"",""1"",""5913""
","
","
","""event"",""trial"",""time""
""fullscreenenter"",""1"",""5913""
","
","","null","","null","","fixation","2021-07-01 03:54:40.324","","","","","",""
"card-selection-trial","38","254138","0.0-17.0-1.1","957","false","img/card_backs/set1/red.gif","img/card_backs/set1/green.gif","img/card_backs/set1/purple.gif","img/card_backs/set1/yellow.gif","img/card_backs/set2/pink.gif","img/card_backs/set2/gray.gif","img/card_backs/set2/orange.gif","img/card_backs/set2/blue.gif","""event"",""trial"",""time""
""fullscreenenter"",""1"",""5913""
","
","
","""event"",""trial"",""time""
""fullscreenenter"",""1"",""5913""
","
","","2860","","","","practice","2021-07-01 03:54:45.189","img/practice_cards/backs/dark_green.gif","0","200","0","",""
"casino-fixation","39","254640","0.0-17.0-0.2","957","false","img/card_backs/set1/red.gif","img/card_backs/set1/green.gif","img/card_backs/set1/purple.gif","img/card_backs/set1/yellow.gif","img/card_backs/set2/pink.gif","img/card_backs/set2/gray.gif","img/card_backs/set2/orange.gif","img/card_backs/set2/blue.gif","""event"",""trial"",""time""
""fullscreenenter"",""1"",""5913""
","
","
","""event"",""trial"",""time""
""fullscreenenter"",""1"",""5913""
","
","","null","","null","","fixation","2021-07-01 03:54:45.690","","","","","",""
"card-selection-trial","40","259381","0.0-17.0-1.2","957","false","img/card_backs/set1/red.gif","img/card_backs/set1/green.gif","img/card_backs/set1/purple.gif","img/card_backs/set1/yellow.gif","img/card_backs/set2/pink.gif","img/card_backs/set2/gray.gif","img/card_backs/set2/orange.gif","img/card_backs/set2/blue.gif","""event"",""trial"",""time""
""fullscreenenter"",""1"",""5913""
","
","
","""event"",""trial"",""time""
""fullscreenenter"",""1"",""5913""
","
","","2738","","","","practice","2021-07-01 03:54:50.431","img/practice_cards/backs/brown.gif","1","100","0","",""
"casino-fixation","41","259883","0.0-17.0-0.3","957","false","img/card_backs/set1/red.gif","img/card_backs/set1/green.gif","img/card_backs/set1/purple.gif","img/card_backs/set1/yellow.gif","img/card_backs/set2/pink.gif","img/card_backs/set2/gray.gif","img/card_backs/set2/orange.gif","img/card_backs/set2/blue.gif","""event"",""trial"",""time""
""fullscreenenter"",""1"",""5913""
","
","
","""event"",""trial"",""time""
""fullscreenenter"",""1"",""5913""
","
","","null","","null","","fixation","2021-07-01 03:54:50.933","","","","","",""
"card-selection-trial","42","264237","0.0-17.0-1.3","957","false","img/card_backs/set1/red.gif","img/card_backs/set1/green.gif","img/card_backs/set1/purple.gif","img/card_backs/set1/yellow.gif","img/card_backs/set2/pink.gif","img/card_backs/set2/gray.gif","img/card_backs/set2/orange.gif","img/card_backs/set2/blue.gif","""event"",""trial"",""time""
""fullscreenenter"",""1"",""5913""
","
","
","""event"",""trial"",""time""
""fullscreenenter"",""1"",""5913""
","
","","2351","","","","practice","2021-07-01 03:54:55.287","img/practice_cards/backs/dark_green.gif","2","-200","0","",""
"casino-fixation","43","264740","0.0-17.0-0.4","957","false","img/card_backs/set1/red.gif","img/card_backs/set1/green.gif","img/card_backs/set1/purple.gif","img/card_backs/set1/yellow.gif","img/card_backs/set2/pink.gif","img/card_backs/set2/gray.gif","img/card_backs/set2/orange.gif","img/card_backs/set2/blue.gif","""event"",""trial"",""time""
""fullscreenenter"",""1"",""5913""
","
","
","""event"",""trial"",""time""
""fullscreenenter"",""1"",""5913""
","
","","null","","null","","fixation","2021-07-01 03:54:55.790","","","","","",""
"card-selection-trial","44","269753","0.0-17.0-1.4","957","false","img/card_backs/set1/red.gif","img/card_backs/set1/green.gif","img/card_backs/set1/purple.gif","img/card_backs/set1/yellow.gif","img/card_backs/set2/pink.gif","img/card_backs/set2/gray.gif","img/card_backs/set2/orange.gif","img/card_backs/set2/blue.gif","""event"",""trial"",""time""
""fullscreenenter"",""1"",""5913""
","
","
","""event"",""trial"",""time""
""fullscreenenter"",""1"",""5913""
","
","","3010","","","","practice","2021-07-01 03:55:00.803","img/practice_cards/backs/black.gif","3","100","0","",""
"casino-fixation","45","270254","0.0-17.0-0.5","957","false","img/card_backs/set1/red.gif","img/card_backs/set1/green.gif","img/card_backs/set1/purple.gif","img/card_backs/set1/yellow.gif","img/card_backs/set2/pink.gif","img/card_backs/set2/gray.gif","img/card_backs/set2/orange.gif","img/card_backs/set2/blue.gif","""event"",""trial"",""time""
""fullscreenenter"",""1"",""5913""
","
","
","""event"",""trial"",""time""
""fullscreenenter"",""1"",""5913""
","
","","null","","null","","fixation","2021-07-01 03:55:01.304","","","","","",""
"card-selection-trial","46","279094","0.0-17.0-1.5","957","false","img/card_backs/set1/red.gif","img/card_backs/set1/green.gif","img/card_backs/set1/purple.gif","img/card_backs/set1/yellow.gif","img/card_backs/set2/pink.gif","img/card_backs/set2/gray.gif","img/card_backs/set2/orange.gif","img/card_backs/set2/blue.gif","""event"",""trial"",""time""
""fullscreenenter"",""1"",""5913""
","
","
","""event"",""trial"",""time""
""fullscreenenter"",""1"",""5913""
","
","","6835","","","","practice","2021-07-01 03:55:10.144","img/practice_cards/backs/dark_green.gif","2","200","0","",""
"casino-fixation","47","279595","0.0-17.0-0.6","957","false","img/card_backs/set1/red.gif","img/card_backs/set1/green.gif","img/card_backs/set1/purple.gif","img/card_backs/set1/yellow.gif","img/card_backs/set2/pink.gif","img/card_backs/set2/gray.gif","img/card_backs/set2/orange.gif","img/card_backs/set2/blue.gif","""event"",""trial"",""time""
""fullscreenenter"",""1"",""5913""
","
","
","""event"",""trial"",""time""
""fullscreenenter"",""1"",""5913""
","
","","null","","null","","fixation","2021-07-01 03:55:10.645","","","","","",""
"card-selection-trial","48","281532","0.0-17.0-1.6","957","false","img/card_backs/set1/red.gif","img/card_backs/set1/green.gif","img/card_backs/set1/purple.gif","img/card_backs/set1/yellow.gif","img/card_backs/set2/pink.gif","img/card_backs/set2/gray.gif","img/card_backs/set2/orange.gif","img/card_backs/set2/blue.gif","""event"",""trial"",""time""
""fullscreenenter"",""1"",""5913""
","
","
","""event"",""trial"",""time""
""fullscreenenter"",""1"",""5913""
","
","","2683","","","","practice","2021-07-01 03:55:12.582","img/practice_cards/backs/brown.gif","0","-100","0","",""
"casino-fixation","49","282033","0.0-17.0-0.7","957","false","img/card_backs/set1/red.gif","img/card_backs/set1/green.gif","img/card_backs/set1/purple.gif","img/card_backs/set1/yellow.gif","img/card_backs/set2/pink.gif","img/card_backs/set2/gray.gif","img/card_backs/set2/orange.gif","img/card_backs/set2/blue.gif","""event"",""trial"",""time""
""fullscreenenter"",""1"",""5913""
","
","
","""event"",""trial"",""time""
""fullscreenenter"",""1"",""5913""
","
","","null","","null","","fixation","2021-07-01 03:55:13.083","","","","","",""
"card-selection-trial","50","285934","0.0-17.0-1.7","957","false","img/card_backs/set1/red.gif","img/card_backs/set1/green.gif","img/card_backs/set1/purple.gif","img/card_backs/set1/yellow.gif","img/card_backs/set2/pink.gif","img/card_backs/set2/gray.gif","img/card_backs/set2/orange.gif","img/card_backs/set2/blue.gif","""event"",""trial"",""time""
""fullscreenenter"",""1"",""5913""
","
","
","""event"",""trial"",""time""
""fullscreenenter"",""1"",""5913""
","
","","1897.0000000000582","","","","practice","2021-07-01 03:55:16.984","img/practice_cards/backs/dark_blue.gif","0","200","0","",""
"casino-fixation","51","286436","0.0-17.0-0.8","957","false","img/card_backs/set1/red.gif","img/card_backs/set1/green.gif","img/card_backs/set1/purple.gif","img/card_backs/set1/yellow.gif","img/card_backs/set2/pink.gif","img/card_backs/set2/gray.gif","img/card_backs/set2/orange.gif","img/card_backs/set2/blue.gif","""event"",""trial"",""time""
""fullscreenenter"",""1"",""5913""
","
","
","""event"",""trial"",""time""
""fullscreenenter"",""1"",""5913""
","
","","null","","null","","fixation","2021-07-01 03:55:17.486","","","","","",""
"card-selection-trial","52","292205","0.0-17.0-1.8","957","false","img/card_backs/set1/red.gif","img/card_backs/set1/green.gif","img/card_backs/set1/purple.gif","img/card_backs/set1/yellow.gif","img/card_backs/set2/pink.gif","img/card_backs/set2/gray.gif","img/card_backs/set2/orange.gif","img/card_backs/set2/blue.gif","""event"",""trial"",""time""
""fullscreenenter"",""1"",""5913""
","
","
","""event"",""trial"",""time""
""fullscreenenter"",""1"",""5913""
","
","","3765","","","","practice","2021-07-01 03:55:23.255","img/practice_cards/backs/black.gif","3","100","0","",""
"casino-fixation","53","292707","0.0-17.0-0.9","957","false","img/card_backs/set1/red.gif","img/card_backs/set1/green.gif","img/card_backs/set1/purple.gif","img/card_backs/set1/yellow.gif","img/card_backs/set2/pink.gif","img/card_backs/set2/gray.gif","img/card_backs/set2/orange.gif","img/card_backs/set2/blue.gif","""event"",""trial"",""time""
""fullscreenenter"",""1"",""5913""
","
","
","""event"",""trial"",""time""
""fullscreenenter"",""1"",""5913""
","
","","null","","null","","fixation","2021-07-01 03:55:23.757","","","","","",""
"card-selection-trial","54","302941","0.0-17.0-1.9","957","false","img/card_backs/set1/red.gif","img/card_backs/set1/green.gif","img/card_backs/set1/purple.gif","img/card_backs/set1/yellow.gif","img/card_backs/set2/pink.gif","img/card_backs/set2/gray.gif","img/card_backs/set2/orange.gif","img/card_backs/set2/blue.gif","""event"",""trial"",""time""
""fullscreenenter"",""1"",""5913""
","
","
","""event"",""trial"",""time""
""fullscreenenter"",""1"",""5913""
","
","","8230","","","","practice","2021-07-01 03:55:33.991","img/practice_cards/backs/dark_blue.gif","1","200","0","",""
"casino-keyboard-response","55","305971","0.0-18.0","957","false","img/card_backs/set1/red.gif","img/card_backs/set1/green.gif","img/card_backs/set1/purple.gif","img/card_backs/set1/yellow.gif","img/card_backs/set2/pink.gif","img/card_backs/set2/gray.gif","img/card_backs/set2/orange.gif","img/card_backs/set2/blue.gif","""event"",""trial"",""time""
""fullscreenenter"",""1"",""5913""
","
","
","""event"",""trial"",""time""
""fullscreenenter"",""1"",""5913""
","
","","3029","You earned 600 tokens during the practice round!","82","","","2021-07-01 03:55:37.021","","","","","",""
"casino-keyboard-response","56","310458","0.0-19.0-0.0","957","false","img/card_backs/set1/red.gif","img/card_backs/set1/green.gif","img/card_backs/set1/purple.gif","img/card_backs/set1/yellow.gif","img/card_backs/set2/pink.gif","img/card_backs/set2/gray.gif","img/card_backs/set2/orange.gif","img/card_backs/set2/blue.gif","""event"",""trial"",""time""
""fullscreenenter"",""1"",""5913""
","
","
","""event"",""trial"",""time""
""fullscreenenter"",""1"",""5913""
","
","","4485","Nice job! You are almost ready to play the real game.","86","","instructions","2021-07-01 03:55:41.508","","","","","",""
"casino-keyboard-response","57","317047","0.0-19.0-0.1","957","false","img/card_backs/set1/red.gif","img/card_backs/set1/green.gif","img/card_backs/set1/purple.gif","img/card_backs/set1/yellow.gif","img/card_backs/set2/pink.gif","img/card_backs/set2/gray.gif","img/card_backs/set2/orange.gif","img/card_backs/set2/blue.gif","""event"",""trial"",""time""
""fullscreenenter"",""1"",""5913""
","
","
","""event"",""trial"",""time""
""fullscreenenter"",""1"",""5913""
","
","","6587","You will play two rounds of the real game. In each round, you will pick 100 cards in total.","73","","instructions","2021-07-01 03:55:48.097","","","","","",""
"casino-keyboard-response","58","321399","0.0-19.0-0.2","957","false","img/card_backs/set1/red.gif","img/card_backs/set1/green.gif","img/card_backs/set1/purple.gif","img/card_backs/set1/yellow.gif","img/card_backs/set2/pink.gif","img/card_backs/set2/gray.gif","img/card_backs/set2/orange.gif","img/card_backs/set2/blue.gif","""event"",""trial"",""time""
""fullscreenenter"",""1"",""5913""
","
","
","""event"",""trial"",""time""
""fullscreenenter"",""1"",""5913""
","
","","4351","We are now going to ask you some questions about how the game works.","66","","instructions","2021-07-01 03:55:52.450","","","","","",""
"casino-keyboard-response","59","327889","0.0-19.0-0.3","957","false","img/card_backs/set1/red.gif","img/card_backs/set1/green.gif","img/card_backs/set1/purple.gif","img/card_backs/set1/yellow.gif","img/card_backs/set2/pink.gif","img/card_backs/set2/gray.gif","img/card_backs/set2/orange.gif","img/card_backs/set2/blue.gif","""event"",""trial"",""time""
""fullscreenenter"",""1"",""5913""
","
","
","""event"",""trial"",""time""
""fullscreenenter"",""1"",""5913""
","
","","6488","Answer carefully. You will not be able to begin the game until you answer them correctly.","67","","instructions","2021-07-01 03:55:58.940","","","","","",""
"casino-comp_q","60","334892","0.0-20.0-0.0","957","false","img/card_backs/set1/red.gif","img/card_backs/set1/green.gif","img/card_backs/set1/purple.gif","img/card_backs/set1/yellow.gif","img/card_backs/set2/pink.gif","img/card_backs/set2/gray.gif","img/card_backs/set2/orange.gif","img/card_backs/set2/blue.gif","""event"",""trial"",""time""
""fullscreenenter"",""1"",""5913""
","
","
","""event"",""trial"",""time""
""fullscreenenter"",""1"",""5913""
","
","","7000","True or False: All the decks have some cards that cause you to win tokens and some cards that cause you to lose tokens.","84","","","2021-07-01 03:56:05.942","","","","","",""
"casino-keyboard-response","61","339414","0.0-20.0-1.0","957","false","img/card_backs/set1/red.gif","img/card_backs/set1/green.gif","img/card_backs/set1/purple.gif","img/card_backs/set1/yellow.gif","img/card_backs/set2/pink.gif","img/card_backs/set2/gray.gif","img/card_backs/set2/orange.gif","img/card_backs/set2/blue.gif","""event"",""trial"",""time""
""fullscreenenter"",""1"",""5913""
","
","
","""event"",""trial"",""time""
""fullscreenenter"",""1"",""5913""
","
","","4520","True is correct! All the decks have a mix of winning and losing cards.","77","","","2021-07-01 03:56:10.465","","","","","true",""
"casino-comp_q","62","343814","0.0-21.0-0.0","957","false","img/card_backs/set1/red.gif","img/card_backs/set1/green.gif","img/card_backs/set1/purple.gif","img/card_backs/set1/yellow.gif","img/card_backs/set2/pink.gif","img/card_backs/set2/gray.gif","img/card_backs/set2/orange.gif","img/card_backs/set2/blue.gif","""event"",""trial"",""time""
""fullscreenenter"",""1"",""5913""
","
","
","""event"",""trial"",""time""
""fullscreenenter"",""1"",""5913""
","
","","4398","True or False: You will have as much time as you want to make your response.","70","","","2021-07-01 03:56:14.864","","","","","",""
"casino-keyboard-response","63","347718","0.0-21.0-1.0","957","false","img/card_backs/set1/red.gif","img/card_backs/set1/green.gif","img/card_backs/set1/purple.gif","img/card_backs/set1/yellow.gif","img/card_backs/set2/pink.gif","img/card_backs/set2/gray.gif","img/card_backs/set2/orange.gif","img/card_backs/set2/blue.gif","""event"",""trial"",""time""
""fullscreenenter"",""1"",""5913""
","
","
","""event"",""trial"",""time""
""fullscreenenter"",""1"",""5913""
","
","","3902","False is correct! You will only have 10 seconds to make each choice.","75","","","2021-07-01 03:56:18.768","","","","","true",""
"casino-comp_q","64","355165","0.0-22.0-0.0","957","false","img/card_backs/set1/red.gif","img/card_backs/set1/green.gif","img/card_backs/set1/purple.gif","img/card_backs/set1/yellow.gif","img/card_backs/set2/pink.gif","img/card_backs/set2/gray.gif","img/card_backs/set2/orange.gif","img/card_backs/set2/blue.gif","""event"",""trial"",""time""
""fullscreenenter"",""1"",""5913""
","
","
","""event"",""trial"",""time""
""fullscreenenter"",""1"",""5913""
","
","","7443","True or False: The location of the deck determines how lucky it is.","70","","","2021-07-01 03:56:26.215","","","","","",""
"casino-keyboard-response","65","360087","0.0-22.0-1.0","957","false","img/card_backs/set1/red.gif","img/card_backs/set1/green.gif","img/card_backs/set1/purple.gif","img/card_backs/set1/yellow.gif","img/card_backs/set2/pink.gif","img/card_backs/set2/gray.gif","img/card_backs/set2/orange.gif","img/card_backs/set2/blue.gif","""event"",""trial"",""time""
""fullscreenenter"",""1"",""5913""
","
","
","""event"",""trial"",""time""
""fullscreenenter"",""1"",""5913""
","
","","4920","False is correct! The <i>color</i>  of the deck determines how lucky or unlucky it is.","68","","","2021-07-01 03:56:31.137","","","","","true",""
"casino-keyboard-response","66","364855","0.0-23.0-0.0","957","false","img/card_backs/set1/red.gif","img/card_backs/set1/green.gif","img/card_backs/set1/purple.gif","img/card_backs/set1/yellow.gif","img/card_backs/set2/pink.gif","img/card_backs/set2/gray.gif","img/card_backs/set2/orange.gif","img/card_backs/set2/blue.gif","""event"",""trial"",""time""
""fullscreenenter"",""1"",""5913""
","
","
","""event"",""trial"",""time""
""fullscreenenter"",""1"",""5913""
","
","","4766","Great job! Now it's time to start the real game.","82","","instructions","2021-07-01 03:56:35.905","","","","","",""
"casino-keyboard-response","67","370099","0.0-23.0-0.1","957","false","img/card_backs/set1/red.gif","img/card_backs/set1/green.gif","img/card_backs/set1/purple.gif","img/card_backs/set1/yellow.gif","img/card_backs/set2/pink.gif","img/card_backs/set2/gray.gif","img/card_backs/set2/orange.gif","img/card_backs/set2/blue.gif","""event"",""trial"",""time""
""fullscreenenter"",""1"",""5913""
","
","
","""event"",""trial"",""time""
""fullscreenenter"",""1"",""5913""
","
","","5242.999999999942","Before we start, we're going to head into a new room of the casino.","86","","instructions","2021-07-01 03:56:41.149","","","","","",""
"casino-keyboard-response","68","376500","0.0-24.0-0.0","957","false","img/card_backs/set1/red.gif","img/card_backs/set1/green.gif","img/card_backs/set1/purple.gif","img/card_backs/set1/yellow.gif","img/card_backs/set2/pink.gif","img/card_backs/set2/gray.gif","img/card_backs/set2/orange.gif","img/card_backs/set2/blue.gif","""event"",""trial"",""time""
""fullscreenenter"",""1"",""5913""
","
","
","""event"",""trial"",""time""
""fullscreenenter"",""1"",""5913""
","
","","6400","Here we are! The real game will use different cards, but the rules will be the same.","71","","instructions","2021-07-01 03:56:47.550","","","","","",""
"casino-keyboard-response","69","384722","0.0-24.0-0.1","957","false","img/card_backs/set1/red.gif","img/card_backs/set1/green.gif","img/card_backs/set1/purple.gif","img/card_backs/set1/yellow.gif","img/card_backs/set2/pink.gif","img/card_backs/set2/gray.gif","img/card_backs/set2/orange.gif","img/card_backs/set2/blue.gif","""event"",""trial"",""time""
""fullscreenenter"",""1"",""5913""
","
","
","""event"",""trial"",""time""
""fullscreenenter"",""1"",""5913""
","
","","8222","Ready? Put your fingers over the '2', '4', 6', and '8' keys so you are ready to play the game. </br> Then press 2 to start.","50","","instructions","2021-07-01 03:56:55.773","","","","","",""
"casino-fixation","70","385224","0.0-25.0-0.0","957","false","img/card_backs/set1/red.gif","img/card_backs/set1/green.gif","img/card_backs/set1/purple.gif","img/card_backs/set1/yellow.gif","img/card_backs/set2/pink.gif","img/card_backs/set2/gray.gif","img/card_backs/set2/orange.gif","img/card_backs/set2/blue.gif","""event"",""trial"",""time""
""fullscreenenter"",""1"",""5913""
","
","
","""event"",""trial"",""time""
""fullscreenenter"",""1"",""5913""
","
","","null","","null","","fixation","2021-07-01 03:56:56.274","","","","","",""
"card-selection-trial","71","389004","0.0-25.0-1.0","957","false","img/card_backs/set1/red.gif","img/card_backs/set1/green.gif","img/card_backs/set1/purple.gif","img/card_backs/set1/yellow.gif","img/card_backs/set2/pink.gif","img/card_backs/set2/gray.gif","img/card_backs/set2/orange.gif","img/card_backs/set2/blue.gif","""event"",""trial"",""time""
""fullscreenenter"",""1"",""5913""
","
","
","""event"",""trial"",""time""
""fullscreenenter"",""1"",""5913""
","
","","1775","","","","real_trial","2021-07-01 03:57:00.054","img/card_backs/set1/purple.gif","1","100","1","",""
"casino-fixation","72","389505","0.0-25.0-0.1","957","false","img/card_backs/set1/red.gif","img/card_backs/set1/green.gif","img/card_backs/set1/purple.gif","img/card_backs/set1/yellow.gif","img/card_backs/set2/pink.gif","img/card_backs/set2/gray.gif","img/card_backs/set2/orange.gif","img/card_backs/set2/blue.gif","""event"",""trial"",""time""
""fullscreenenter"",""1"",""5913""
","
","
","""event"",""trial"",""time""
""fullscreenenter"",""1"",""5913""
","
","","null","","null","","fixation","2021-07-01 03:57:00.555","","","","","",""
"card-selection-trial","73","393172","0.0-25.0-1.1","957","false","img/card_backs/set1/red.gif","img/card_backs/set1/green.gif","img/card_backs/set1/purple.gif","img/card_backs/set1/yellow.gif","img/card_backs/set2/pink.gif","img/card_backs/set2/gray.gif","img/card_backs/set2/orange.gif","img/card_backs/set2/blue.gif","""event"",""trial"",""time""
""fullscreenenter"",""1"",""5913""
","
","
","""event"",""trial"",""time""
""fullscreenenter"",""1"",""5913""
","
","","1663.0000000000582","","","","real_trial","2021-07-01 03:57:04.222","img/card_backs/set1/yellow.gif","0","-50","1","",""
"casino-fixation","74","393674","0.0-25.0-0.2","957","false","img/card_backs/set1/red.gif","img/card_backs/set1/green.gif","img/card_backs/set1/purple.gif","img/card_backs/set1/yellow.gif","img/card_backs/set2/pink.gif","img/card_backs/set2/gray.gif","img/card_backs/set2/orange.gif","img/card_backs/set2/blue.gif","""event"",""trial"",""time""
""fullscreenenter"",""1"",""5913""
","
","
","""event"",""trial"",""time""
""fullscreenenter"",""1"",""5913""
","
","","null","","null","","fixation","2021-07-01 03:57:04.725","","","","","",""
"card-selection-trial","75","397291","0.0-25.0-1.2","957","false","img/card_backs/set1/red.gif","img/card_backs/set1/green.gif","img/card_backs/set1/purple.gif","img/card_backs/set1/yellow.gif","img/card_backs/set2/pink.gif","img/card_backs/set2/gray.gif","img/card_backs/set2/orange.gif","img/card_backs/set2/blue.gif","""event"",""trial"",""time""
""fullscreenenter"",""1"",""5913""
","
","
","""event"",""trial"",""time""
""fullscreenenter"",""1"",""5913""
","
","","1609.9999999999418","","","","real_trial","2021-07-01 03:57:08.341","img/card_backs/set1/green.gif","3","-230","1","",""
"casino-fixation","76","397792","0.0-25.0-0.3","957","false","img/card_backs/set1/red.gif","img/card_backs/set1/green.gif","img/card_backs/set1/purple.gif","img/card_backs/set1/yellow.gif","img/card_backs/set2/pink.gif","img/card_backs/set2/gray.gif","img/card_backs/set2/orange.gif","img/card_backs/set2/blue.gif","""event"",""trial"",""time""
""fullscreenenter"",""1"",""5913""
","
","
","""event"",""trial"",""time""
""fullscreenenter"",""1"",""5913""
","
","","null","","null","","fixation","2021-07-01 03:57:08.842","","","","","",""
"card-selection-trial","77","403679","0.0-25.0-1.3","957","false","img/card_backs/set1/red.gif","img/card_backs/set1/green.gif","img/card_backs/set1/purple.gif","img/card_backs/set1/yellow.gif","img/card_backs/set2/pink.gif","img/card_backs/set2/gray.gif","img/card_backs/set2/orange.gif","img/card_backs/set2/blue.gif","""event"",""trial"",""time""
""fullscreenenter"",""1"",""5913""
","
","
","""event"",""trial"",""time""
""fullscreenenter"",""1"",""5913""
","
","","3883.000000000058","","","","real_trial","2021-07-01 03:57:14.729","img/card_backs/set1/red.gif","2","-250","1","",""
"casino-fixation","78","404180","0.0-25.0-0.4","957","false","img/card_backs/set1/red.gif","img/card_backs/set1/green.gif","img/card_backs/set1/purple.gif","img/card_backs/set1/yellow.gif","img/card_backs/set2/pink.gif","img/card_backs/set2/gray.gif","img/card_backs/set2/orange.gif","img/card_backs/set2/blue.gif","""event"",""trial"",""time""
""fullscreenenter"",""1"",""5913""
","
","
","""event"",""trial"",""time""
""fullscreenenter"",""1"",""5913""
","
","","null","","null","","fixation","2021-07-01 03:57:15.231","","","","","",""
"card-selection-trial","79","408124","0.0-25.0-1.4","957","false","img/card_backs/set1/red.gif","img/card_backs/set1/green.gif","img/card_backs/set1/purple.gif","img/card_backs/set1/yellow.gif","img/card_backs/set2/pink.gif","img/card_backs/set2/gray.gif","img/card_backs/set2/orange.gif","img/card_backs/set2/blue.gif","""event"",""trial"",""time""
""fullscreenenter"",""1"",""5913""
","
","
","""event"",""trial"",""time""
""fullscreenenter"",""1"",""5913""
","
","","1939.0000000000582","","","","real_trial","2021-07-01 03:57:19.174","img/card_backs/set1/red.gif","2","-240","1","",""
"casino-fixation","80","408625","0.0-25.0-0.5","957","false","img/card_backs/set1/red.gif","img/card_backs/set1/green.gif","img/card_backs/set1/purple.gif","img/card_backs/set1/yellow.gif","img/card_backs/set2/pink.gif","img/card_backs/set2/gray.gif","img/card_backs/set2/orange.gif","img/card_backs/set2/blue.gif","""event"",""trial"",""time""
""fullscreenenter"",""1"",""5913""
","
","
","""event"",""trial"",""time""
""fullscreenenter"",""1"",""5913""
","
","","null","","null","","fixation","2021-07-01 03:57:19.676","","","","","",""
"card-selection-trial","81","412850","0.0-25.0-1.5","957","false","img/card_backs/set1/red.gif","img/card_backs/set1/green.gif","img/card_backs/set1/purple.gif","img/card_backs/set1/yellow.gif","img/card_backs/set2/pink.gif","img/card_backs/set2/gray.gif","img/card_backs/set2/orange.gif","img/card_backs/set2/blue.gif","""event"",""trial"",""time""
""fullscreenenter"",""1"",""5913""
","
","
","""event"",""trial"",""time""
""fullscreenenter"",""1"",""5913""
","
","","2221","","","","real_trial","2021-07-01 03:57:23.900","img/card_backs/set1/yellow.gif","0","-70","1","",""
"casino-fixation","82","413351","0.0-25.0-0.6","957","false","img/card_backs/set1/red.gif","img/card_backs/set1/green.gif","img/card_backs/set1/purple.gif","img/card_backs/set1/yellow.gif","img/card_backs/set2/pink.gif","img/card_backs/set2/gray.gif","img/card_backs/set2/orange.gif","img/card_backs/set2/blue.gif","""event"",""trial"",""time""
""fullscreenenter"",""1"",""5913""
","
","
","""event"",""trial"",""time""
""fullscreenenter"",""1"",""5913""
","
","","null","","null","","fixation","2021-07-01 03:57:24.401","","","","","",""
"card-selection-trial","83","416672","0.0-25.0-1.6","957","false","img/card_backs/set1/red.gif","img/card_backs/set1/green.gif","img/card_backs/set1/purple.gif","img/card_backs/set1/yellow.gif","img/card_backs/set2/pink.gif","img/card_backs/set2/gray.gif","img/card_backs/set2/orange.gif","img/card_backs/set2/blue.gif","""event"",""trial"",""time""
""fullscreenenter"",""1"",""5913""
","
","
","""event"",""trial"",""time""
""fullscreenenter"",""1"",""5913""
","
","","1316.0000000000582","","","","real_trial","2021-07-01 03:57:27.722","img/card_backs/set1/yellow.gif","1","-50","1","",""
"casino-fixation","84","417173","0.0-25.0-0.7","957","false","img/card_backs/set1/red.gif","img/card_backs/set1/green.gif","img/card_backs/set1/purple.gif","img/card_backs/set1/yellow.gif","img/card_backs/set2/pink.gif","img/card_backs/set2/gray.gif","img/card_backs/set2/orange.gif","img/card_backs/set2/blue.gif","""event"",""trial"",""time""
""fullscreenenter"",""1"",""5913""
","
","
","""event"",""trial"",""time""
""fullscreenenter"",""1"",""5913""
","
","","null","","null","","fixation","2021-07-01 03:57:28.223","","","","","",""
"card-selection-trial","85","420447","0.0-25.0-1.7","957","false","img/card_backs/set1/red.gif","img/card_backs/set1/green.gif","img/card_backs/set1/purple.gif","img/card_backs/set1/yellow.gif","img/card_backs/set2/pink.gif","img/card_backs/set2/gray.gif","img/card_backs/set2/orange.gif","img/card_backs/set2/blue.gif","""event"",""trial"",""time""
""fullscreenenter"",""1"",""5913""
","
","
","""event"",""trial"",""time""
""fullscreenenter"",""1"",""5913""
","
","","1270","","","","real_trial","2021-07-01 03:57:31.497","img/card_backs/set1/purple.gif","3","-70","1","",""
"casino-fixation","86","420948","0.0-25.0-0.8","957","false","img/card_backs/set1/red.gif","img/card_backs/set1/green.gif","img/card_backs/set1/purple.gif","img/card_backs/set1/yellow.gif","img/card_backs/set2/pink.gif","img/card_backs/set2/gray.gif","img/card_backs/set2/orange.gif","img/card_backs/set2/blue.gif","""event"",""trial"",""time""
""fullscreenenter"",""1"",""5913""
","
","
","""event"",""trial"",""time""
""fullscreenenter"",""1"",""5913""
","
","","null","","null","","fixation","2021-07-01 03:57:31.999","","","","","",""
"card-selection-trial","87","424752","0.0-25.0-1.8","957","false","img/card_backs/set1/red.gif","img/card_backs/set1/green.gif","img/card_backs/set1/purple.gif","img/card_backs/set1/yellow.gif","img/card_backs/set2/pink.gif","img/card_backs/set2/gray.gif","img/card_backs/set2/orange.gif","img/card_backs/set2/blue.gif","""event"",""trial"",""time""
""fullscreenenter"",""1"",""5913""
","
","
","""event"",""trial"",""time""
""fullscreenenter"",""1"",""5913""
","
","","1798","","","","real_trial","2021-07-01 03:57:35.802","img/card_backs/set1/yellow.gif","3","100","1","",""
"casino-fixation","88","425253","0.0-25.0-0.9","957","false","img/card_backs/set1/red.gif","img/card_backs/set1/green.gif","img/card_backs/set1/purple.gif","img/card_backs/set1/yellow.gif","img/card_backs/set2/pink.gif","img/card_backs/set2/gray.gif","img/card_backs/set2/orange.gif","img/card_backs/set2/blue.gif","""event"",""trial"",""time""
""fullscreenenter"",""1"",""5913""
","
","
","""event"",""trial"",""time""
""fullscreenenter"",""1"",""5913""
","
","","null","","null","","fixation","2021-07-01 03:57:36.304","","","","","",""
"card-selection-trial","89","429451","0.0-25.0-1.9","957","false","img/card_backs/set1/red.gif","img/card_backs/set1/green.gif","img/card_backs/set1/purple.gif","img/card_backs/set1/yellow.gif","img/card_backs/set2/pink.gif","img/card_backs/set2/gray.gif","img/card_backs/set2/orange.gif","img/card_backs/set2/blue.gif","""event"",""trial"",""time""
""fullscreenenter"",""1"",""5913""
","
","
","""event"",""trial"",""time""
""fullscreenenter"",""1"",""5913""
","
","","2193","","","","real_trial","2021-07-01 03:57:40.501","img/card_backs/set1/green.gif","0","190","1","",""
"casino-fixation","90","429953","0.0-25.0-0.10","957","false","img/card_backs/set1/red.gif","img/card_backs/set1/green.gif","img/card_backs/set1/purple.gif","img/card_backs/set1/yellow.gif","img/card_backs/set2/pink.gif","img/card_backs/set2/gray.gif","img/card_backs/set2/orange.gif","img/card_backs/set2/blue.gif","""event"",""trial"",""time""
""fullscreenenter"",""1"",""5913""
","
","
","""event"",""trial"",""time""
""fullscreenenter"",""1"",""5913""
","
","","null","","null","","fixation","2021-07-01 03:57:41.003","","","","","",""
"card-selection-trial","91","434832","0.0-25.0-1.10","957","false","img/card_backs/set1/red.gif","img/card_backs/set1/green.gif","img/card_backs/set1/purple.gif","img/card_backs/set1/yellow.gif","img/card_backs/set2/pink.gif","img/card_backs/set2/gray.gif","img/card_backs/set2/orange.gif","img/card_backs/set2/blue.gif","""event"",""trial"",""time""
""fullscreenenter"",""1"",""5913""
","
","
","""event"",""trial"",""time""
""fullscreenenter"",""1"",""5913""
","
","","2876.000000000058","","","","real_trial","2021-07-01 03:57:45.882","img/card_backs/set1/yellow.gif","1","-60","1","",""
"casino-fixation","92","435333","0.0-25.0-0.11","957","false","img/card_backs/set1/red.gif","img/card_backs/set1/green.gif","img/card_backs/set1/purple.gif","img/card_backs/set1/yellow.gif","img/card_backs/set2/pink.gif","img/card_backs/set2/gray.gif","img/card_backs/set2/orange.gif","img/card_backs/set2/blue.gif","""event"",""trial"",""time""
""fullscreenenter"",""1"",""5913""
","
","
","""event"",""trial"",""time""
""fullscreenenter"",""1"",""5913""
","
","","null","","null","","fixation","2021-07-01 03:57:46.383","","","","","",""
"card-selection-trial","93","438339","0.0-25.0-1.11","957","false","img/card_backs/set1/red.gif","img/card_backs/set1/green.gif","img/card_backs/set1/purple.gif","img/card_backs/set1/yellow.gif","img/card_backs/set2/pink.gif","img/card_backs/set2/gray.gif","img/card_backs/set2/orange.gif","img/card_backs/set2/blue.gif","""event"",""trial"",""time""
""fullscreenenter"",""1"",""5913""
","
","
","""event"",""trial"",""time""
""fullscreenenter"",""1"",""5913""
","
","","1002","","","","real_trial","2021-07-01 03:57:49.389","img/card_backs/set1/yellow.gif","1","-60","1","",""
"casino-fixation","94","438841","0.0-25.0-0.12","957","false","img/card_backs/set1/red.gif","img/card_backs/set1/green.gif","img/card_backs/set1/purple.gif","img/card_backs/set1/yellow.gif","img/card_backs/set2/pink.gif","img/card_backs/set2/gray.gif","img/card_backs/set2/orange.gif","img/card_backs/set2/blue.gif","""event"",""trial"",""time""
""fullscreenenter"",""1"",""5913""
","
","
","""event"",""trial"",""time""
""fullscreenenter"",""1"",""5913""
","
","","null","","null","","fixation","2021-07-01 03:57:49.891","","","","","",""
"card-selection-trial","95","441748","0.0-25.0-1.12","957","false","img/card_backs/set1/red.gif","img/card_backs/set1/green.gif","img/card_backs/set1/purple.gif","img/card_backs/set1/yellow.gif","img/card_backs/set2/pink.gif","img/card_backs/set2/gray.gif","img/card_backs/set2/orange.gif","img/card_backs/set2/blue.gif","""event"",""trial"",""time""
""fullscreenenter"",""1"",""5913""
","
","
","""event"",""trial"",""time""
""fullscreenenter"",""1"",""5913""
","
","","904","","","","real_trial","2021-07-01 03:57:52.798","img/card_backs/set1/green.gif","1","200","1","",""
"casino-fixation","96","442249","0.0-25.0-0.13","957","false","img/card_backs/set1/red.gif","img/card_backs/set1/green.gif","img/card_backs/set1/purple.gif","img/card_backs/set1/yellow.gif","img/card_backs/set2/pink.gif","img/card_backs/set2/gray.gif","img/card_backs/set2/orange.gif","img/card_backs/set2/blue.gif","""event"",""trial"",""time""
""fullscreenenter"",""1"",""5913""
","
","
","""event"",""trial"",""time""
""fullscreenenter"",""1"",""5913""
","
","","null","","null","","fixation","2021-07-01 03:57:53.300","","","","","",""
"card-selection-trial","97","445404","0.0-25.0-1.13","957","false","img/card_backs/set1/red.gif","img/card_backs/set1/green.gif","img/card_backs/set1/purple.gif","img/card_backs/set1/yellow.gif","img/card_backs/set2/pink.gif","img/card_backs/set2/gray.gif","img/card_backs/set2/orange.gif","img/card_backs/set2/blue.gif","""event"",""trial"",""time""
""fullscreenenter"",""1"",""5913""
","
","
","""event"",""trial"",""time""
""fullscreenenter"",""1"",""5913""
","
","","1151.0000000000582","","","","real_trial","2021-07-01 03:57:56.454","img/card_backs/set1/red.gif","2","-250","1","",""
"casino-fixation","98","445906","0.0-25.0-0.14","957","false","img/card_backs/set1/red.gif","img/card_backs/set1/green.gif","img/card_backs/set1/purple.gif","img/card_backs/set1/yellow.gif","img/card_backs/set2/pink.gif","img/card_backs/set2/gray.gif","img/card_backs/set2/orange.gif","img/card_backs/set2/blue.gif","""event"",""trial"",""time""
""fullscreenenter"",""1"",""5913""
","
","
","""event"",""trial"",""time""
""fullscreenenter"",""1"",""5913""
","
","","null","","null","","fixation","2021-07-01 03:57:56.956","","","","","",""
"card-selection-trial","99","453254","0.0-25.0-1.14","957","false","img/card_backs/set1/red.gif","img/card_backs/set1/green.gif","img/card_backs/set1/purple.gif","img/card_backs/set1/yellow.gif","img/card_backs/set2/pink.gif","img/card_backs/set2/gray.gif","img/card_backs/set2/orange.gif","img/card_backs/set2/blue.gif","""event"",""trial"",""time""
""fullscreenenter"",""1"",""5913""
","
","
","""event"",""trial"",""time""
""fullscreenenter"",""1"",""5913""
","
","","5344.999999999942","","","","real_trial","2021-07-01 03:58:04.305","img/card_backs/set1/green.gif","3","-230","1","",""
"casino-fixation","100","453757","0.0-25.0-0.15","957","false","img/card_backs/set1/red.gif","img/card_backs/set1/green.gif","img/card_backs/set1/purple.gif","img/card_backs/set1/yellow.gif","img/card_backs/set2/pink.gif","img/card_backs/set2/gray.gif","img/card_backs/set2/orange.gif","img/card_backs/set2/blue.gif","""event"",""trial"",""time""
""fullscreenenter"",""1"",""5913""
","
","
","""event"",""trial"",""time""
""fullscreenenter"",""1"",""5913""
","
","","null","","null","","fixation","2021-07-01 03:58:04.808","","","","","",""
"card-selection-trial","101","460967","0.0-25.0-1.15","957","false","img/card_backs/set1/red.gif","img/card_backs/set1/green.gif","img/card_backs/set1/purple.gif","img/card_backs/set1/yellow.gif","img/card_backs/set2/pink.gif","img/card_backs/set2/gray.gif","img/card_backs/set2/orange.gif","img/card_backs/set2/blue.gif","""event"",""trial"",""time""
""fullscreenenter"",""1"",""5913""
","
","
","""event"",""trial"",""time""
""fullscreenenter"",""1"",""5913""
","
","","5206","","","","real_trial","2021-07-01 03:58:12.017","img/card_backs/set1/green.gif","2","180","1","",""
"casino-fixation","102","461469","0.0-25.0-0.16","957","false","img/card_backs/set1/red.gif","img/card_backs/set1/green.gif","img/card_backs/set1/purple.gif","img/card_backs/set1/yellow.gif","img/card_backs/set2/pink.gif","img/card_backs/set2/gray.gif","img/card_backs/set2/orange.gif","img/card_backs/set2/blue.gif","""event"",""trial"",""time""
""fullscreenenter"",""1"",""5913""
","
","
","""event"",""trial"",""time""
""fullscreenenter"",""1"",""5913""
","
","","null","","null","","fixation","2021-07-01 03:58:12.519","","","","","",""
"card-selection-trial","103","466807","0.0-25.0-1.16","957","false","img/card_backs/set1/red.gif","img/card_backs/set1/green.gif","img/card_backs/set1/purple.gif","img/card_backs/set1/yellow.gif","img/card_backs/set2/pink.gif","img/card_backs/set2/gray.gif","img/card_backs/set2/orange.gif","img/card_backs/set2/blue.gif","""event"",""trial"",""time""
""fullscreenenter"",""1"",""5913""
","
","
","""event"",""trial"",""time""
""fullscreenenter"",""1"",""5913""
","
","","3335","","","","real_trial","2021-07-01 03:58:17.857","img/card_backs/set1/purple.gif","3","-60","1","",""
"casino-fixation","104","467308","0.0-25.0-0.17","957","false","img/card_backs/set1/red.gif","img/card_backs/set1/green.gif","img/card_backs/set1/purple.gif","img/card_backs/set1/yellow.gif","img/card_backs/set2/pink.gif","img/card_backs/set2/gray.gif","img/card_backs/set2/orange.gif","img/card_backs/set2/blue.gif","""event"",""trial"",""time""
""fullscreenenter"",""1"",""5913""
","
","
","""event"",""trial"",""time""
""fullscreenenter"",""1"",""5913""
","
","","null","","null","","fixation","2021-07-01 03:58:18.358","","","","","",""
"card-selection-trial","105","471588","0.0-25.0-1.17","957","false","img/card_backs/set1/red.gif","img/card_backs/set1/green.gif","img/card_backs/set1/purple.gif","img/card_backs/set1/yellow.gif","img/card_backs/set2/pink.gif","img/card_backs/set2/gray.gif","img/card_backs/set2/orange.gif","img/card_backs/set2/blue.gif","""event"",""trial"",""time""
""fullscreenenter"",""1"",""5913""
","
","
","""event"",""trial"",""time""
""fullscreenenter"",""1"",""5913""
","
","","2276","","","","real_trial","2021-07-01 03:58:22.638","img/card_backs/set1/green.gif","3","-250","1","",""
"casino-fixation","106","472089","0.0-25.0-0.18","957","false","img/card_backs/set1/red.gif","img/card_backs/set1/green.gif","img/card_backs/set1/purple.gif","img/card_backs/set1/yellow.gif","img/card_backs/set2/pink.gif","img/card_backs/set2/gray.gif","img/card_backs/set2/orange.gif","img/card_backs/set2/blue.gif","""event"",""trial"",""time""
""fullscreenenter"",""1"",""5913""
","
","
","""event"",""trial"",""time""
""fullscreenenter"",""1"",""5913""
","
","","null","","null","","fixation","2021-07-01 03:58:23.139","","","","","",""
"card-selection-trial","107","475210","0.0-25.0-1.18","957","false","img/card_backs/set1/red.gif","img/card_backs/set1/green.gif","img/card_backs/set1/purple.gif","img/card_backs/set1/yellow.gif","img/card_backs/set2/pink.gif","img/card_backs/set2/gray.gif","img/card_backs/set2/orange.gif","img/card_backs/set2/blue.gif","""event"",""trial"",""time""
""fullscreenenter"",""1"",""5913""
","
","
","""event"",""trial"",""time""
""fullscreenenter"",""1"",""5913""
","
","","1118","","","","real_trial","2021-07-01 03:58:26.260","img/card_backs/set1/yellow.gif","3","120","1","",""
"casino-fixation","108","475712","0.0-25.0-0.19","957","false","img/card_backs/set1/red.gif","img/card_backs/set1/green.gif","img/card_backs/set1/purple.gif","img/card_backs/set1/yellow.gif","img/card_backs/set2/pink.gif","img/card_backs/set2/gray.gif","img/card_backs/set2/orange.gif","img/card_backs/set2/blue.gif","""event"",""trial"",""time""
""fullscreenenter"",""1"",""5913""
","
","
","""event"",""trial"",""time""
""fullscreenenter"",""1"",""5913""
","
","","null","","null","","fixation","2021-07-01 03:58:26.762","","","","","",""
"card-selection-trial","109","479099","0.0-25.0-1.19","957","false","img/card_backs/set1/red.gif","img/card_backs/set1/green.gif","img/card_backs/set1/purple.gif","img/card_backs/set1/yellow.gif","img/card_backs/set2/pink.gif","img/card_backs/set2/gray.gif","img/card_backs/set2/orange.gif","img/card_backs/set2/blue.gif","""event"",""trial"",""time""
""fullscreenenter"",""1"",""5913""
","
","
","""event"",""trial"",""time""
""fullscreenenter"",""1"",""5913""
","
","","1383","","","","real_trial","2021-07-01 03:58:30.149","img/card_backs/set1/yellow.gif","2","-60","1","",""
"casino-fixation","110","479601","0.0-25.0-0.20","957","false","img/card_backs/set1/red.gif","img/card_backs/set1/green.gif","img/card_backs/set1/purple.gif","img/card_backs/set1/yellow.gif","img/card_backs/set2/pink.gif","img/card_backs/set2/gray.gif","img/card_backs/set2/orange.gif","img/card_backs/set2/blue.gif","""event"",""trial"",""time""
""fullscreenenter"",""1"",""5913""
","
","
","""event"",""trial"",""time""
""fullscreenenter"",""1"",""5913""
","
","","null","","null","","fixation","2021-07-01 03:58:30.651","","","","","",""
"card-selection-trial","111","485258","0.0-25.0-1.20","957","false","img/card_backs/set1/red.gif","img/card_backs/set1/green.gif","img/card_backs/set1/purple.gif","img/card_backs/set1/yellow.gif","img/card_backs/set2/pink.gif","img/card_backs/set2/gray.gif","img/card_backs/set2/orange.gif","img/card_backs/set2/blue.gif","""event"",""trial"",""time""
""fullscreenenter"",""1"",""5913""
","
","
","""event"",""trial"",""time""
""fullscreenenter"",""1"",""5913""
","
","","3654","","","","real_trial","2021-07-01 03:58:36.308","img/card_backs/set1/green.gif","3","180","1","",""
"casino-fixation","112","485760","0.0-25.0-0.21","957","false","img/card_backs/set1/red.gif","img/card_backs/set1/green.gif","img/card_backs/set1/purple.gif","img/card_backs/set1/yellow.gif","img/card_backs/set2/pink.gif","img/card_backs/set2/gray.gif","img/card_backs/set2/orange.gif","img/card_backs/set2/blue.gif","""event"",""trial"",""time""
""fullscreenenter"",""1"",""5913""
","
","
","""event"",""trial"",""time""
""fullscreenenter"",""1"",""5913""
","
","","null","","null","","fixation","2021-07-01 03:58:36.810","","","","","",""
"card-selection-trial","113","490490","0.0-25.0-1.21","957","false","img/card_backs/set1/red.gif","img/card_backs/set1/green.gif","img/card_backs/set1/purple.gif","img/card_backs/set1/yellow.gif","img/card_backs/set2/pink.gif","img/card_backs/set2/gray.gif","img/card_backs/set2/orange.gif","img/card_backs/set2/blue.gif","""event"",""trial"",""time""
""fullscreenenter"",""1"",""5913""
","
","
","""event"",""trial"",""time""
""fullscreenenter"",""1"",""5913""
","
","","2726","","","","real_trial","2021-07-01 03:58:41.540","img/card_backs/set1/green.gif","0","-240","1","",""
"casino-fixation","114","490991","0.0-25.0-0.22","957","false","img/card_backs/set1/red.gif","img/card_backs/set1/green.gif","img/card_backs/set1/purple.gif","img/card_backs/set1/yellow.gif","img/card_backs/set2/pink.gif","img/card_backs/set2/gray.gif","img/card_backs/set2/orange.gif","img/card_backs/set2/blue.gif","""event"",""trial"",""time""
""fullscreenenter"",""1"",""5913""
","
","
","""event"",""trial"",""time""
""fullscreenenter"",""1"",""5913""
","
","","null","","null","","fixation","2021-07-01 03:58:42.041","","","","","",""
"card-selection-trial","115","495862","0.0-25.0-1.22","957","false","img/card_backs/set1/red.gif","img/card_backs/set1/green.gif","img/card_backs/set1/purple.gif","img/card_backs/set1/yellow.gif","img/card_backs/set2/pink.gif","img/card_backs/set2/gray.gif","img/card_backs/set2/orange.gif","img/card_backs/set2/blue.gif","""event"",""trial"",""time""
""fullscreenenter"",""1"",""5913""
","
","
","""event"",""trial"",""time""
""fullscreenenter"",""1"",""5913""
","
","","2866","","","","real_trial","2021-07-01 03:58:46.912","img/card_backs/set1/yellow.gif","2","110","1","",""
"casino-fixation","116","496364","0.0-25.0-0.23","957","false","img/card_backs/set1/red.gif","img/card_backs/set1/green.gif","img/card_backs/set1/purple.gif","img/card_backs/set1/yellow.gif","img/card_backs/set2/pink.gif","img/card_backs/set2/gray.gif","img/card_backs/set2/orange.gif","img/card_backs/set2/blue.gif","""event"",""trial"",""time""
""fullscreenenter"",""1"",""5913""
","
","
","""event"",""trial"",""time""
""fullscreenenter"",""1"",""5913""
","
","","null","","null","","fixation","2021-07-01 03:58:47.414","","","","","",""
"card-selection-trial","117","500057","0.0-25.0-1.23","957","false","img/card_backs/set1/red.gif","img/card_backs/set1/green.gif","img/card_backs/set1/purple.gif","img/card_backs/set1/yellow.gif","img/card_backs/set2/pink.gif","img/card_backs/set2/gray.gif","img/card_backs/set2/orange.gif","img/card_backs/set2/blue.gif","""event"",""trial"",""time""
""fullscreenenter"",""1"",""5913""
","
","
","""event"",""trial"",""time""
""fullscreenenter"",""1"",""5913""
","
","","1688.9999999999418","","","","real_trial","2021-07-01 03:58:51.107","img/card_backs/set1/red.gif","2","-250","1","",""
"casino-fixation","118","500559","0.0-25.0-0.24","957","false","img/card_backs/set1/red.gif","img/card_backs/set1/green.gif","img/card_backs/set1/purple.gif","img/card_backs/set1/yellow.gif","img/card_backs/set2/pink.gif","img/card_backs/set2/gray.gif","img/card_backs/set2/orange.gif","img/card_backs/set2/blue.gif","""event"",""trial"",""time""
""fullscreenenter"",""1"",""5913""
","
","
","""event"",""trial"",""time""
""fullscreenenter"",""1"",""5913""
","
","","null","","null","","fixation","2021-07-01 03:58:51.609","","","","","",""
"card-selection-trial","119","503558","0.0-25.0-1.24","957","false","img/card_backs/set1/red.gif","img/card_backs/set1/green.gif","img/card_backs/set1/purple.gif","img/card_backs/set1/yellow.gif","img/card_backs/set2/pink.gif","img/card_backs/set2/gray.gif","img/card_backs/set2/orange.gif","img/card_backs/set2/blue.gif","""event"",""trial"",""time""
""fullscreenenter"",""1"",""5913""
","
","
","""event"",""trial"",""time""
""fullscreenenter"",""1"",""5913""
","
","","995","","","","real_trial","2021-07-01 03:58:54.608","img/card_backs/set1/yellow.gif","1","-60","1","",""
"casino-fixation","120","504061","0.0-25.0-0.25","957","false","img/card_backs/set1/red.gif","img/card_backs/set1/green.gif","img/card_backs/set1/purple.gif","img/card_backs/set1/yellow.gif","img/card_backs/set2/pink.gif","img/card_backs/set2/gray.gif","img/card_backs/set2/orange.gif","img/card_backs/set2/blue.gif","""event"",""trial"",""time""
""fullscreenenter"",""1"",""5913""
","
","
","""event"",""trial"",""time""
""fullscreenenter"",""1"",""5913""
","
","","null","","null","","fixation","2021-07-01 03:58:55.111","","","","","",""
"card-selection-trial","121","508919","0.0-25.0-1.25","957","false","img/card_backs/set1/red.gif","img/card_backs/set1/green.gif","img/card_backs/set1/purple.gif","img/card_backs/set1/yellow.gif","img/card_backs/set2/pink.gif","img/card_backs/set2/gray.gif","img/card_backs/set2/orange.gif","img/card_backs/set2/blue.gif","""event"",""trial"",""time""
""fullscreenenter"",""1"",""5913""
","
","
","""event"",""trial"",""time""
""fullscreenenter"",""1"",""5913""
","
","","2852.999999999942","","","","real_trial","2021-07-01 03:58:59.969","img/card_backs/set1/yellow.gif","3","120","1","",""
"casino-fixation","122","509423","0.0-25.0-0.26","957","false","img/card_backs/set1/red.gif","img/card_backs/set1/green.gif","img/card_backs/set1/purple.gif","img/card_backs/set1/yellow.gif","img/card_backs/set2/pink.gif","img/card_backs/set2/gray.gif","img/card_backs/set2/orange.gif","img/card_backs/set2/blue.gif","""event"",""trial"",""time""
""fullscreenenter"",""1"",""5913""
","
","
","""event"",""trial"",""time""
""fullscreenenter"",""1"",""5913""
","
","","null","","null","","fixation","2021-07-01 03:59:00.473","","","","","",""
"card-selection-trial","123","514498","0.0-25.0-1.26","957","false","img/card_backs/set1/red.gif","img/card_backs/set1/green.gif","img/card_backs/set1/purple.gif","img/card_backs/set1/yellow.gif","img/card_backs/set2/pink.gif","img/card_backs/set2/gray.gif","img/card_backs/set2/orange.gif","img/card_backs/set2/blue.gif","""event"",""trial"",""time""
""fullscreenenter"",""1"",""5913""
","
","
","""event"",""trial"",""time""
""fullscreenenter"",""1"",""5913""
","
","","3072","","","","real_trial","2021-07-01 03:59:05.549","img/card_backs/set1/red.gif","0","180","1","",""
"casino-fixation","124","515001","0.0-25.0-0.27","957","false","img/card_backs/set1/red.gif","img/card_backs/set1/green.gif","img/card_backs/set1/purple.gif","img/card_backs/set1/yellow.gif","img/card_backs/set2/pink.gif","img/card_backs/set2/gray.gif","img/card_backs/set2/orange.gif","img/card_backs/set2/blue.gif","""event"",""trial"",""time""
""fullscreenenter"",""1"",""5913""
","
","
","""event"",""trial"",""time""
""fullscreenenter"",""1"",""5913""
","
","","null","","null","","fixation","2021-07-01 03:59:06.051","","","","","",""
"card-selection-trial","125","518817","0.0-25.0-1.27","957","false","img/card_backs/set1/red.gif","img/card_backs/set1/green.gif","img/card_backs/set1/purple.gif","img/card_backs/set1/yellow.gif","img/card_backs/set2/pink.gif","img/card_backs/set2/gray.gif","img/card_backs/set2/orange.gif","img/card_backs/set2/blue.gif","""event"",""trial"",""time""
""fullscreenenter"",""1"",""5913""
","
","
","""event"",""trial"",""time""
""fullscreenenter"",""1"",""5913""
","
","","1812","","","","real_trial","2021-07-01 03:59:09.867","img/card_backs/set1/green.gif","1","-240","1","",""
"casino-fixation","126","519319","0.0-25.0-0.28","957","false","img/card_backs/set1/red.gif","img/card_backs/set1/green.gif","img/card_backs/set1/purple.gif","img/card_backs/set1/yellow.gif","img/card_backs/set2/pink.gif","img/card_backs/set2/gray.gif","img/card_backs/set2/orange.gif","img/card_backs/set2/blue.gif","""event"",""trial"",""time""
""fullscreenenter"",""1"",""5913""
","
","
","""event"",""trial"",""time""
""fullscreenenter"",""1"",""5913""
","
","","null","","null","","fixation","2021-07-01 03:59:10.369","","","","","",""
"card-selection-trial","127","527964","0.0-25.0-1.28","957","false","img/card_backs/set1/red.gif","img/card_backs/set1/green.gif","img/card_backs/set1/purple.gif","img/card_backs/set1/yellow.gif","img/card_backs/set2/pink.gif","img/card_backs/set2/gray.gif","img/card_backs/set2/orange.gif","img/card_backs/set2/blue.gif","""event"",""trial"",""time""
""fullscreenenter"",""1"",""5913""
","
","
","""event"",""trial"",""time""
""fullscreenenter"",""1"",""5913""
","
","","6641","","","","real_trial","2021-07-01 03:59:19.014","img/card_backs/set1/yellow.gif","3","100","1","",""
"casino-fixation","128","528467","0.0-25.0-0.29","957","false","img/card_backs/set1/red.gif","img/card_backs/set1/green.gif","img/card_backs/set1/purple.gif","img/card_backs/set1/yellow.gif","img/card_backs/set2/pink.gif","img/card_backs/set2/gray.gif","img/card_backs/set2/orange.gif","img/card_backs/set2/blue.gif","""event"",""trial"",""time""
""fullscreenenter"",""1"",""5913""
","
","
","""event"",""trial"",""time""
""fullscreenenter"",""1"",""5913""
","
","","null","","null","","fixation","2021-07-01 03:59:19.517","","","","","",""
"card-selection-trial","129","534762","0.0-25.0-1.29","957","false","img/card_backs/set1/red.gif","img/card_backs/set1/green.gif","img/card_backs/set1/purple.gif","img/card_backs/set1/yellow.gif","img/card_backs/set2/pink.gif","img/card_backs/set2/gray.gif","img/card_backs/set2/orange.gif","img/card_backs/set2/blue.gif","""event"",""trial"",""time""
""fullscreenenter"",""1"",""5913""
","
","
","""event"",""trial"",""time""
""fullscreenenter"",""1"",""5913""
","
","","4291","","","","real_trial","2021-07-01 03:59:25.814","img/card_backs/set1/purple.gif","1","110","1","",""
"casino-fixation","130","535266","0.0-25.0-0.30","957","false","img/card_backs/set1/red.gif","img/card_backs/set1/green.gif","img/card_backs/set1/purple.gif","img/card_backs/set1/yellow.gif","img/card_backs/set2/pink.gif","img/card_backs/set2/gray.gif","img/card_backs/set2/orange.gif","img/card_backs/set2/blue.gif","""event"",""trial"",""time""
""fullscreenenter"",""1"",""5913""
","
","
","""event"",""trial"",""time""
""fullscreenenter"",""1"",""5913""
","
","","null","","null","","fixation","2021-07-01 03:59:26.316","","","","","",""
"card-selection-trial","131","538833","0.0-25.0-1.30","957","false","img/card_backs/set1/red.gif","img/card_backs/set1/green.gif","img/card_backs/set1/purple.gif","img/card_backs/set1/yellow.gif","img/card_backs/set2/pink.gif","img/card_backs/set2/gray.gif","img/card_backs/set2/orange.gif","img/card_backs/set2/blue.gif","""event"",""trial"",""time""
""fullscreenenter"",""1"",""5913""
","
","
","""event"",""trial"",""time""
""fullscreenenter"",""1"",""5913""
","
","","1563.0000000001164","","","","real_trial","2021-07-01 03:59:29.883","img/card_backs/set1/yellow.gif","3","-60","1","",""
"casino-fixation","132","539335","0.0-25.0-0.31","957","false","img/card_backs/set1/red.gif","img/card_backs/set1/green.gif","img/card_backs/set1/purple.gif","img/card_backs/set1/yellow.gif","img/card_backs/set2/pink.gif","img/card_backs/set2/gray.gif","img/card_backs/set2/orange.gif","img/card_backs/set2/blue.gif","""event"",""trial"",""time""
""fullscreenenter"",""1"",""5913""
","
","
","""event"",""trial"",""time""
""fullscreenenter"",""1"",""5913""
","
","","null","","null","","fixation","2021-07-01 03:59:30.385","","","","","",""
"card-selection-trial","133","541976","0.0-25.0-1.31","957","false","img/card_backs/set1/red.gif","img/card_backs/set1/green.gif","img/card_backs/set1/purple.gif","img/card_backs/set1/yellow.gif","img/card_backs/set2/pink.gif","img/card_backs/set2/gray.gif","img/card_backs/set2/orange.gif","img/card_backs/set2/blue.gif","""event"",""trial"",""time""
""fullscreenenter"",""1"",""5913""
","
","
","""event"",""trial"",""time""
""fullscreenenter"",""1"",""5913""
","
","","638.9999999998836","","","","real_trial","2021-07-01 03:59:33.026","img/card_backs/set1/yellow.gif","0","-70","1","",""
"casino-fixation","134","542478","0.0-25.0-0.32","957","false","img/card_backs/set1/red.gif","img/card_backs/set1/green.gif","img/card_backs/set1/purple.gif","img/card_backs/set1/yellow.gif","img/card_backs/set2/pink.gif","img/card_backs/set2/gray.gif","img/card_backs/set2/orange.gif","img/card_backs/set2/blue.gif","""event"",""trial"",""time""
""fullscreenenter"",""1"",""5913""
","
","
","""event"",""trial"",""time""
""fullscreenenter"",""1"",""5913""
","
","","null","","null","","fixation","2021-07-01 03:59:33.528","","","","","",""
"card-selection-trial","135","546994","0.0-25.0-1.32","957","false","img/card_backs/set1/red.gif","img/card_backs/set1/green.gif","img/card_backs/set1/purple.gif","img/card_backs/set1/yellow.gif","img/card_backs/set2/pink.gif","img/card_backs/set2/gray.gif","img/card_backs/set2/orange.gif","img/card_backs/set2/blue.gif","""event"",""trial"",""time""
""fullscreenenter"",""1"",""5913""
","
","
","""event"",""trial"",""time""
""fullscreenenter"",""1"",""5913""
","
","","2510.9999999998836","","","","real_trial","2021-07-01 03:59:38.044","img/card_backs/set1/purple.gif","2","110","1","",""
"casino-fixation","136","547495","0.0-25.0-0.33","957","false","img/card_backs/set1/red.gif","img/card_backs/set1/green.gif","img/card_backs/set1/purple.gif","img/card_backs/set1/yellow.gif","img/card_backs/set2/pink.gif","img/card_backs/set2/gray.gif","img/card_backs/set2/orange.gif","img/card_backs/set2/blue.gif","""event"",""trial"",""time""
""fullscreenenter"",""1"",""5913""
","
","
","""event"",""trial"",""time""
""fullscreenenter"",""1"",""5913""
","
","","null","","null","","fixation","2021-07-01 03:59:38.546","","","","","",""
"card-selection-trial","137","551143","0.0-25.0-1.33","957","false","img/card_backs/set1/red.gif","img/card_backs/set1/green.gif","img/card_backs/set1/purple.gif","img/card_backs/set1/yellow.gif","img/card_backs/set2/pink.gif","img/card_backs/set2/gray.gif","img/card_backs/set2/orange.gif","img/card_backs/set2/blue.gif","""event"",""trial"",""time""
""fullscreenenter"",""1"",""5913""
","
","
","""event"",""trial"",""time""
""fullscreenenter"",""1"",""5913""
","
","","1644","","","","real_trial","2021-07-01 03:59:42.193","img/card_backs/set1/purple.gif","1","-60","1","",""
"casino-fixation","138","551645","0.0-25.0-0.34","957","false","img/card_backs/set1/red.gif","img/card_backs/set1/green.gif","img/card_backs/set1/purple.gif","img/card_backs/set1/yellow.gif","img/card_backs/set2/pink.gif","img/card_backs/set2/gray.gif","img/card_backs/set2/orange.gif","img/card_backs/set2/blue.gif","""event"",""trial"",""time""
""fullscreenenter"",""1"",""5913""
","
","
","""event"",""trial"",""time""
""fullscreenenter"",""1"",""5913""
","
","","null","","null","","fixation","2021-07-01 03:59:42.695","","","","","",""
"card-selection-trial","139","555498","0.0-25.0-1.34","957","false","img/card_backs/set1/red.gif","img/card_backs/set1/green.gif","img/card_backs/set1/purple.gif","img/card_backs/set1/yellow.gif","img/card_backs/set2/pink.gif","img/card_backs/set2/gray.gif","img/card_backs/set2/orange.gif","img/card_backs/set2/blue.gif","""event"",""trial"",""time""
""fullscreenenter"",""1"",""5913""
","
","
","""event"",""trial"",""time""
""fullscreenenter"",""1"",""5913""
","
","","1850","","","","real_trial","2021-07-01 03:59:46.548","img/card_backs/set1/red.gif","3","-230","1","",""
"casino-fixation","140","556000","0.0-25.0-0.35","957","false","img/card_backs/set1/red.gif","img/card_backs/set1/green.gif","img/card_backs/set1/purple.gif","img/card_backs/set1/yellow.gif","img/card_backs/set2/pink.gif","img/card_backs/set2/gray.gif","img/card_backs/set2/orange.gif","img/card_backs/set2/blue.gif","""event"",""trial"",""time""
""fullscreenenter"",""1"",""5913""
","
","
","""event"",""trial"",""time""
""fullscreenenter"",""1"",""5913""
","
","","null","","null","","fixation","2021-07-01 03:59:47.050","","","","","",""
"card-selection-trial","141","561608","0.0-25.0-1.35","957","false","img/card_backs/set1/red.gif","img/card_backs/set1/green.gif","img/card_backs/set1/purple.gif","img/card_backs/set1/yellow.gif","img/card_backs/set2/pink.gif","img/card_backs/set2/gray.gif","img/card_backs/set2/orange.gif","img/card_backs/set2/blue.gif","""event"",""trial"",""time""
""fullscreenenter"",""1"",""5913""
","
","
","""event"",""trial"",""time""
""fullscreenenter"",""1"",""5913""
","
","","3604","","","","real_trial","2021-07-01 03:59:52.658","img/card_backs/set1/red.gif","3","190","1","",""
"casino-fixation","142","562110","0.0-25.0-0.36","957","false","img/card_backs/set1/red.gif","img/card_backs/set1/green.gif","img/card_backs/set1/purple.gif","img/card_backs/set1/yellow.gif","img/card_backs/set2/pink.gif","img/card_backs/set2/gray.gif","img/card_backs/set2/orange.gif","img/card_backs/set2/blue.gif","""event"",""trial"",""time""
""fullscreenenter"",""1"",""5913""
","
","
","""event"",""trial"",""time""
""fullscreenenter"",""1"",""5913""
","
","","null","","null","","fixation","2021-07-01 03:59:53.160","","","","","",""
"card-selection-trial","143","568445","0.0-25.0-1.36","957","false","img/card_backs/set1/red.gif","img/card_backs/set1/green.gif","img/card_backs/set1/purple.gif","img/card_backs/set1/yellow.gif","img/card_backs/set2/pink.gif","img/card_backs/set2/gray.gif","img/card_backs/set2/orange.gif","img/card_backs/set2/blue.gif","""event"",""trial"",""time""
""fullscreenenter"",""1"",""5913""
","
","
","""event"",""trial"",""time""
""fullscreenenter"",""1"",""5913""
","
","","4329","","","","real_trial","2021-07-01 03:59:59.495","img/card_backs/set1/yellow.gif","2","-70","1","",""
"casino-fixation","144","568947","0.0-25.0-0.37","957","false","img/card_backs/set1/red.gif","img/card_backs/set1/green.gif","img/card_backs/set1/purple.gif","img/card_backs/set1/yellow.gif","img/card_backs/set2/pink.gif","img/card_backs/set2/gray.gif","img/card_backs/set2/orange.gif","img/card_backs/set2/blue.gif","""event"",""trial"",""time""
""fullscreenenter"",""1"",""5913""
","
","
","""event"",""trial"",""time""
""fullscreenenter"",""1"",""5913""
","
","","null","","null","","fixation","2021-07-01 03:59:59.997","","","","","",""
"card-selection-trial","145","573127","0.0-25.0-1.37","957","false","img/card_backs/set1/red.gif","img/card_backs/set1/green.gif","img/card_backs/set1/purple.gif","img/card_backs/set1/yellow.gif","img/card_backs/set2/pink.gif","img/card_backs/set2/gray.gif","img/card_backs/set2/orange.gif","img/card_backs/set2/blue.gif","""event"",""trial"",""time""
""fullscreenenter"",""1"",""5913""
","
","
","""event"",""trial"",""time""
""fullscreenenter"",""1"",""5913""
","
","","2176","","","","real_trial","2021-07-01 04:00:04.177","img/card_backs/set1/green.gif","2","190","1","",""
"casino-fixation","146","573629","0.0-25.0-0.38","957","false","img/card_backs/set1/red.gif","img/card_backs/set1/green.gif","img/card_backs/set1/purple.gif","img/card_backs/set1/yellow.gif","img/card_backs/set2/pink.gif","img/card_backs/set2/gray.gif","img/card_backs/set2/orange.gif","img/card_backs/set2/blue.gif","""event"",""trial"",""time""
""fullscreenenter"",""1"",""5913""
","
","
","""event"",""trial"",""time""
""fullscreenenter"",""1"",""5913""
","
","","null","","null","","fixation","2021-07-01 04:00:04.680","","","","","",""
"card-selection-trial","147","577464","0.0-25.0-1.38","957","false","img/card_backs/set1/red.gif","img/card_backs/set1/green.gif","img/card_backs/set1/purple.gif","img/card_backs/set1/yellow.gif","img/card_backs/set2/pink.gif","img/card_backs/set2/gray.gif","img/card_backs/set2/orange.gif","img/card_backs/set2/blue.gif","""event"",""trial"",""time""
""fullscreenenter"",""1"",""5913""
","
","
","""event"",""trial"",""time""
""fullscreenenter"",""1"",""5913""
","
","","1831","","","","real_trial","2021-07-01 04:00:08.514","img/card_backs/set1/purple.gif","2","120","1","",""
"casino-fixation","148","577966","0.0-25.0-0.39","957","false","img/card_backs/set1/red.gif","img/card_backs/set1/green.gif","img/card_backs/set1/purple.gif","img/card_backs/set1/yellow.gif","img/card_backs/set2/pink.gif","img/card_backs/set2/gray.gif","img/card_backs/set2/orange.gif","img/card_backs/set2/blue.gif","""event"",""trial"",""time""
""fullscreenenter"",""1"",""5913""
","
","
","""event"",""trial"",""time""
""fullscreenenter"",""1"",""5913""
","
","","null","","null","","fixation","2021-07-01 04:00:09.016","","","","","",""
"card-selection-trial","149","581865","0.0-25.0-1.39","957","false","img/card_backs/set1/red.gif","img/card_backs/set1/green.gif","img/card_backs/set1/purple.gif","img/card_backs/set1/yellow.gif","img/card_backs/set2/pink.gif","img/card_backs/set2/gray.gif","img/card_backs/set2/orange.gif","img/card_backs/set2/blue.gif","""event"",""trial"",""time""
""fullscreenenter"",""1"",""5913""
","
","
","""event"",""trial"",""time""
""fullscreenenter"",""1"",""5913""
","
","","1896","","","","real_trial","2021-07-01 04:00:12.915","img/card_backs/set1/red.gif","1","180","1","",""
"casino-fixation","150","582368","0.0-25.0-0.40","957","false","img/card_backs/set1/red.gif","img/card_backs/set1/green.gif","img/card_backs/set1/purple.gif","img/card_backs/set1/yellow.gif","img/card_backs/set2/pink.gif","img/card_backs/set2/gray.gif","img/card_backs/set2/orange.gif","img/card_backs/set2/blue.gif","""event"",""trial"",""time""
""fullscreenenter"",""1"",""5913""
","
","
","""event"",""trial"",""time""
""fullscreenenter"",""1"",""5913""
","
","","null","","null","","fixation","2021-07-01 04:00:13.418","","","","","",""
"card-selection-trial","151","588251","0.0-25.0-1.40","957","false","img/card_backs/set1/red.gif","img/card_backs/set1/green.gif","img/card_backs/set1/purple.gif","img/card_backs/set1/yellow.gif","img/card_backs/set2/pink.gif","img/card_backs/set2/gray.gif","img/card_backs/set2/orange.gif","img/card_backs/set2/blue.gif","""event"",""trial"",""time""
""fullscreenenter"",""1"",""5913""
","
","
","""event"",""trial"",""time""
""fullscreenenter"",""1"",""5913""
","
","","3879","","","","real_trial","2021-07-01 04:00:19.303","img/card_backs/set1/purple.gif","3","-60","1","",""
"casino-fixation","152","588754","0.0-25.0-0.41","957","false","img/card_backs/set1/red.gif","img/card_backs/set1/green.gif","img/card_backs/set1/purple.gif","img/card_backs/set1/yellow.gif","img/card_backs/set2/pink.gif","img/card_backs/set2/gray.gif","img/card_backs/set2/orange.gif","img/card_backs/set2/blue.gif","""event"",""trial"",""time""
""fullscreenenter"",""1"",""5913""
","
","
","""event"",""trial"",""time""
""fullscreenenter"",""1"",""5913""
","
","","null","","null","","fixation","2021-07-01 04:00:19.805","","","","","",""
"card-selection-trial","153","593550","0.0-25.0-1.41","957","false","img/card_backs/set1/red.gif","img/card_backs/set1/green.gif","img/card_backs/set1/purple.gif","img/card_backs/set1/yellow.gif","img/card_backs/set2/pink.gif","img/card_backs/set2/gray.gif","img/card_backs/set2/orange.gif","img/card_backs/set2/blue.gif","""event"",""trial"",""time""
""fullscreenenter"",""1"",""5913""
","
","
","""event"",""trial"",""time""
""fullscreenenter"",""1"",""5913""
","
","","2791","","","","real_trial","2021-07-01 04:00:24.600","img/card_backs/set1/green.gif","3","180","1","",""
"casino-fixation","154","594051","0.0-25.0-0.42","957","false","img/card_backs/set1/red.gif","img/card_backs/set1/green.gif","img/card_backs/set1/purple.gif","img/card_backs/set1/yellow.gif","img/card_backs/set2/pink.gif","img/card_backs/set2/gray.gif","img/card_backs/set2/orange.gif","img/card_backs/set2/blue.gif","""event"",""trial"",""time""
""fullscreenenter"",""1"",""5913""
","
","
","""event"",""trial"",""time""
""fullscreenenter"",""1"",""5913""
","
","","null","","null","","fixation","2021-07-01 04:00:25.101","","","","","",""
"card-selection-trial","155","600885","0.0-25.0-1.42","957","false","img/card_backs/set1/red.gif","img/card_backs/set1/green.gif","img/card_backs/set1/purple.gif","img/card_backs/set1/yellow.gif","img/card_backs/set2/pink.gif","img/card_backs/set2/gray.gif","img/card_backs/set2/orange.gif","img/card_backs/set2/blue.gif","""event"",""trial"",""time""
""fullscreenenter"",""1"",""5913""
","
","
","""event"",""trial"",""time""
""fullscreenenter"",""1"",""5913""
","
","","4830","","","","real_trial","2021-07-01 04:00:31.935","img/card_backs/set1/green.gif","2","200","1","",""
"casino-fixation","156","601386","0.0-25.0-0.43","957","false","img/card_backs/set1/red.gif","img/card_backs/set1/green.gif","img/card_backs/set1/purple.gif","img/card_backs/set1/yellow.gif","img/card_backs/set2/pink.gif","img/card_backs/set2/gray.gif","img/card_backs/set2/orange.gif","img/card_backs/set2/blue.gif","""event"",""trial"",""time""
""fullscreenenter"",""1"",""5913""
","
","
","""event"",""trial"",""time""
""fullscreenenter"",""1"",""5913""
","
","","null","","null","","fixation","2021-07-01 04:00:32.436","","","","","",""
"card-selection-trial","157","604998","0.0-25.0-1.43","957","false","img/card_backs/set1/red.gif","img/card_backs/set1/green.gif","img/card_backs/set1/purple.gif","img/card_backs/set1/yellow.gif","img/card_backs/set2/pink.gif","img/card_backs/set2/gray.gif","img/card_backs/set2/orange.gif","img/card_backs/set2/blue.gif","""event"",""trial"",""time""
""fullscreenenter"",""1"",""5913""
","
","
","""event"",""trial"",""time""
""fullscreenenter"",""1"",""5913""
","
","","1608","","","","real_trial","2021-07-01 04:00:36.048","img/card_backs/set1/yellow.gif","2","110","1","",""
"casino-fixation","158","605500","0.0-25.0-0.44","957","false","img/card_backs/set1/red.gif","img/card_backs/set1/green.gif","img/card_backs/set1/purple.gif","img/card_backs/set1/yellow.gif","img/card_backs/set2/pink.gif","img/card_backs/set2/gray.gif","img/card_backs/set2/orange.gif","img/card_backs/set2/blue.gif","""event"",""trial"",""time""
""fullscreenenter"",""1"",""5913""
","
","
","""event"",""trial"",""time""
""fullscreenenter"",""1"",""5913""
","
","","null","","null","","fixation","2021-07-01 04:00:36.550","","","","","",""
"card-selection-trial","159","609634","0.0-25.0-1.44","957","false","img/card_backs/set1/red.gif","img/card_backs/set1/green.gif","img/card_backs/set1/purple.gif","img/card_backs/set1/yellow.gif","img/card_backs/set2/pink.gif","img/card_backs/set2/gray.gif","img/card_backs/set2/orange.gif","img/card_backs/set2/blue.gif","""event"",""trial"",""time""
""fullscreenenter"",""1"",""5913""
","
","
","""event"",""trial"",""time""
""fullscreenenter"",""1"",""5913""
","
","","2130","","","","real_trial","2021-07-01 04:00:40.684","img/card_backs/set1/yellow.gif","2","110","1","",""
"casino-fixation","160","610136","0.0-25.0-0.45","957","false","img/card_backs/set1/red.gif","img/card_backs/set1/green.gif","img/card_backs/set1/purple.gif","img/card_backs/set1/yellow.gif","img/card_backs/set2/pink.gif","img/card_backs/set2/gray.gif","img/card_backs/set2/orange.gif","img/card_backs/set2/blue.gif","""event"",""trial"",""time""
""fullscreenenter"",""1"",""5913""
","
","
","""event"",""trial"",""time""
""fullscreenenter"",""1"",""5913""
","
","","null","","null","","fixation","2021-07-01 04:00:41.186","","","","","",""
"card-selection-trial","161","615026","0.0-25.0-1.45","957","false","img/card_backs/set1/red.gif","img/card_backs/set1/green.gif","img/card_backs/set1/purple.gif","img/card_backs/set1/yellow.gif","img/card_backs/set2/pink.gif","img/card_backs/set2/gray.gif","img/card_backs/set2/orange.gif","img/card_backs/set2/blue.gif","""event"",""trial"",""time""
""fullscreenenter"",""1"",""5913""
","
","
","""event"",""trial"",""time""
""fullscreenenter"",""1"",""5913""
","
","","2886","","","","real_trial","2021-07-01 04:00:46.076","img/card_backs/set1/red.gif","0","180","1","",""
"casino-fixation","162","615527","0.0-25.0-0.46","957","false","img/card_backs/set1/red.gif","img/card_backs/set1/green.gif","img/card_backs/set1/purple.gif","img/card_backs/set1/yellow.gif","img/card_backs/set2/pink.gif","img/card_backs/set2/gray.gif","img/card_backs/set2/orange.gif","img/card_backs/set2/blue.gif","""event"",""trial"",""time""
""fullscreenenter"",""1"",""5913""
","
","
","""event"",""trial"",""time""
""fullscreenenter"",""1"",""5913""
","
","","null","","null","","fixation","2021-07-01 04:00:46.578","","","","","",""
"card-selection-trial","163","619638","0.0-25.0-1.46","957","false","img/card_backs/set1/red.gif","img/card_backs/set1/green.gif","img/card_backs/set1/purple.gif","img/card_backs/set1/yellow.gif","img/card_backs/set2/pink.gif","img/card_backs/set2/gray.gif","img/card_backs/set2/orange.gif","img/card_backs/set2/blue.gif","""event"",""trial"",""time""
""fullscreenenter"",""1"",""5913""
","
","
","""event"",""trial"",""time""
""fullscreenenter"",""1"",""5913""
","
","","2107","","","","real_trial","2021-07-01 04:00:50.688","img/card_backs/set1/green.gif","3","200","1","",""
"casino-fixation","164","620140","0.0-25.0-0.47","957","false","img/card_backs/set1/red.gif","img/card_backs/set1/green.gif","img/card_backs/set1/purple.gif","img/card_backs/set1/yellow.gif","img/card_backs/set2/pink.gif","img/card_backs/set2/gray.gif","img/card_backs/set2/orange.gif","img/card_backs/set2/blue.gif","""event"",""trial"",""time""
""fullscreenenter"",""1"",""5913""
","
","
","""event"",""trial"",""time""
""fullscreenenter"",""1"",""5913""
","
","","null","","null","","fixation","2021-07-01 04:00:51.190","","","","","",""
"card-selection-trial","165","624132","0.0-25.0-1.47","957","false","img/card_backs/set1/red.gif","img/card_backs/set1/green.gif","img/card_backs/set1/purple.gif","img/card_backs/set1/yellow.gif","img/card_backs/set2/pink.gif","img/card_backs/set2/gray.gif","img/card_backs/set2/orange.gif","img/card_backs/set2/blue.gif","""event"",""trial"",""time""
""fullscreenenter"",""1"",""5913""
","
","
","""event"",""trial"",""time""
""fullscreenenter"",""1"",""5913""
","
","","1986.0000000001164","","","","real_trial","2021-07-01 04:00:55.183","img/card_backs/set1/yellow.gif","3","-70","1","",""
"casino-fixation","166","624635","0.0-25.0-0.48","957","false","img/card_backs/set1/red.gif","img/card_backs/set1/green.gif","img/card_backs/set1/purple.gif","img/card_backs/set1/yellow.gif","img/card_backs/set2/pink.gif","img/card_backs/set2/gray.gif","img/card_backs/set2/orange.gif","img/card_backs/set2/blue.gif","""event"",""trial"",""time""
""fullscreenenter"",""1"",""5913""
","
","
","""event"",""trial"",""time""
""fullscreenenter"",""1"",""5913""
","
","","null","","null","","fixation","2021-07-01 04:00:55.685","","","","","",""
"card-selection-trial","167","627871","0.0-25.0-1.48","957","false","img/card_backs/set1/red.gif","img/card_backs/set1/green.gif","img/card_backs/set1/purple.gif","img/card_backs/set1/yellow.gif","img/card_backs/set2/pink.gif","img/card_backs/set2/gray.gif","img/card_backs/set2/orange.gif","img/card_backs/set2/blue.gif","""event"",""trial"",""time""
""fullscreenenter"",""1"",""5913""
","
","
","""event"",""trial"",""time""
""fullscreenenter"",""1"",""5913""
","
","","1233","","","","real_trial","2021-07-01 04:00:58.921","img/card_backs/set1/purple.gif","1","100","1","",""
"casino-fixation","168","628373","0.0-25.0-0.49","957","false","img/card_backs/set1/red.gif","img/card_backs/set1/green.gif","img/card_backs/set1/purple.gif","img/card_backs/set1/yellow.gif","img/card_backs/set2/pink.gif","img/card_backs/set2/gray.gif","img/card_backs/set2/orange.gif","img/card_backs/set2/blue.gif","""event"",""trial"",""time""
""fullscreenenter"",""1"",""5913""
","
","
","""event"",""trial"",""time""
""fullscreenenter"",""1"",""5913""
","
","","null","","null","","fixation","2021-07-01 04:00:59.423","","","","","",""
