"trial_type","trial_index","time_elapsed","internal_node_id","sub_id","risk_good_first","block1_A","block1_B","block1_C","block1_D","block2_A","block2_B","block2_C","block2_D","interactions","blur_events","focus_events","fullscreenenter_events","fullscreenexit_events","success","rt","stimulus","key_press","button_pressed","task_part","timestamp","card_choice","choice_position","points_earned","block","correct","response"
"pavlovia","0","16","0.0-0.0","1018","true","img/card_backs/set1/yellow.gif","img/card_backs/set1/purple.gif","img/card_backs/set1/red.gif","img/card_backs/set1/green.gif","img/card_backs/set2/orange.gif","img/card_backs/set2/pink.gif","img/card_backs/set2/blue.gif","img/card_backs/set2/gray.gif","""event"",""trial"",""time""
""fullscreenenter"",""1"",""4588""
","
","
","""event"",""trial"",""time""
""fullscreenenter"",""1"",""4588""
","
","","","","","","","","","","","","",""
"fullscreen","1","5566","0.0-1.0","1018","true","img/card_backs/set1/yellow.gif","img/card_backs/set1/purple.gif","img/card_backs/set1/red.gif","img/card_backs/set1/green.gif","img/card_backs/set2/orange.gif","img/card_backs/set2/pink.gif","img/card_backs/set2/blue.gif","img/card_backs/set2/gray.gif","""event"",""trial"",""time""
""fullscreenenter"",""1"",""4588""
","
","
","""event"",""trial"",""time""
""fullscreenenter"",""1"",""4588""
","
","true","","","","","","","","","","","",""
"audio-keyboard-response","2","11104","0.0-2.0","1018","true","img/card_backs/set1/yellow.gif","img/card_backs/set1/purple.gif","img/card_backs/set1/red.gif","img/card_backs/set1/green.gif","img/card_backs/set2/orange.gif","img/card_backs/set2/pink.gif","img/card_backs/set2/blue.gif","img/card_backs/set2/gray.gif","""event"",""trial"",""time""
""fullscreenenter"",""1"",""4588""
","
","
","""event"",""trial"",""time""
""fullscreenenter"",""1"",""4588""
","
","","5355","audio/beep_loop.wav","32","","","","","","","","",""
"audio-button-response","3","14197","0.0-3.0","1018","true","img/card_backs/set1/yellow.gif","img/card_backs/set1/purple.gif","img/card_backs/set1/red.gif","img/card_backs/set1/green.gif","img/card_backs/set2/orange.gif","img/card_backs/set2/pink.gif","img/card_backs/set2/blue.gif","img/card_backs/set2/gray.gif","""event"",""trial"",""time""
""fullscreenenter"",""1"",""4588""
","
","
","""event"",""trial"",""time""
""fullscreenenter"",""1"",""4588""
","
","","NaN","audio/turtle.mp3","","3","","","","","","","",""
"audio-button-response","4","17026","0.0-4.0","1018","true","img/card_backs/set1/yellow.gif","img/card_backs/set1/purple.gif","img/card_backs/set1/red.gif","img/card_backs/set1/green.gif","img/card_backs/set2/orange.gif","img/card_backs/set2/pink.gif","img/card_backs/set2/blue.gif","img/card_backs/set2/gray.gif","""event"",""trial"",""time""
""fullscreenenter"",""1"",""4588""
","
","
","""event"",""trial"",""time""
""fullscreenenter"",""1"",""4588""
","
","","NaN","audio/shark.mp3","","2","","","","","","","",""
"fullscreen","5","20703","0.0-5.0","1018","true","img/card_backs/set1/yellow.gif","img/card_backs/set1/purple.gif","img/card_backs/set1/red.gif","img/card_backs/set1/green.gif","img/card_backs/set2/orange.gif","img/card_backs/set2/pink.gif","img/card_backs/set2/blue.gif","img/card_backs/set2/gray.gif","""event"",""trial"",""time""
""fullscreenenter"",""1"",""4588""
","
","
","""event"",""trial"",""time""
""fullscreenenter"",""1"",""4588""
","
","true","","","","","","","","","","","",""
"casino-keyboard-response","6","30540","0.0-6.0-0.0","1018","true","img/card_backs/set1/yellow.gif","img/card_backs/set1/purple.gif","img/card_backs/set1/red.gif","img/card_backs/set1/green.gif","img/card_backs/set2/orange.gif","img/card_backs/set2/pink.gif","img/card_backs/set2/blue.gif","img/card_backs/set2/gray.gif","""event"",""trial"",""time""
""fullscreenenter"",""1"",""4588""
","
","
","""event"",""trial"",""time""
""fullscreenenter"",""1"",""4588""
","
","","9817.800000000745","Welcome to the casino!","71","","instructions","2021-08-09 20:15:18.571","","","","","",""
"casino-keyboard-response","7","41435","0.0-6.0-0.1","1018","true","img/card_backs/set1/yellow.gif","img/card_backs/set1/purple.gif","img/card_backs/set1/red.gif","img/card_backs/set1/green.gif","img/card_backs/set2/orange.gif","img/card_backs/set2/pink.gif","img/card_backs/set2/blue.gif","img/card_backs/set2/gray.gif","""event"",""trial"",""time""
""fullscreenenter"",""1"",""4588""
","
","
","""event"",""trial"",""time""
""fullscreenenter"",""1"",""4588""
","
","","10887.699999999255","Today you will be playing a game to earn tokens. </br> At the end of the experiment, you will be paid a bonus based on how many tokens you win. ","69","","instructions","2021-08-09 20:15:29.465","","","","","",""
"casino-keyboard-response","8","51875","0.0-6.0-0.2","1018","true","img/card_backs/set1/yellow.gif","img/card_backs/set1/purple.gif","img/card_backs/set1/red.gif","img/card_backs/set1/green.gif","img/card_backs/set2/orange.gif","img/card_backs/set2/pink.gif","img/card_backs/set2/blue.gif","img/card_backs/set2/gray.gif","""event"",""trial"",""time""
""fullscreenenter"",""1"",""4588""
","
","
","""event"",""trial"",""time""
""fullscreenenter"",""1"",""4588""
","
","","10432.60000000149","On every turn, you will be shown four different decks of cards. </br> You need to select a card from one of the four decks.  ","75","","instructions","2021-08-09 20:15:39.905","","","","","",""
"casino-keyboard-response","9","56709","0.0-6.0-0.3","1018","true","img/card_backs/set1/yellow.gif","img/card_backs/set1/purple.gif","img/card_backs/set1/red.gif","img/card_backs/set1/green.gif","img/card_backs/set2/orange.gif","img/card_backs/set2/pink.gif","img/card_backs/set2/blue.gif","img/card_backs/set2/gray.gif","""event"",""trial"",""time""
""fullscreenenter"",""1"",""4588""
","
","
","""event"",""trial"",""time""
""fullscreenenter"",""1"",""4588""
","
","","4827.300000000745","On the next screen, you will see what the decks will look like. ","66","","instructions","2021-08-09 20:15:44.739","","","","","",""
"card-selection-trial","10","60722","0.0-7.0-0.0","1018","true","img/card_backs/set1/yellow.gif","img/card_backs/set1/purple.gif","img/card_backs/set1/red.gif","img/card_backs/set1/green.gif","img/card_backs/set2/orange.gif","img/card_backs/set2/pink.gif","img/card_backs/set2/blue.gif","img/card_backs/set2/gray.gif","""event"",""trial"",""time""
""fullscreenenter"",""1"",""4588""
","
","
","""event"",""trial"",""time""
""fullscreenenter"",""1"",""4588""
","
","","null","","","","practice","2021-08-09 20:15:48.753","null","null","null","0","",""
"casino-keyboard-response","11","68559","0.0-8.0-0.0","1018","true","img/card_backs/set1/yellow.gif","img/card_backs/set1/purple.gif","img/card_backs/set1/red.gif","img/card_backs/set1/green.gif","img/card_backs/set2/orange.gif","img/card_backs/set2/pink.gif","img/card_backs/set2/blue.gif","img/card_backs/set2/gray.gif","""event"",""trial"",""time""
""fullscreenenter"",""1"",""4588""
","
","
","""event"",""trial"",""time""
""fullscreenenter"",""1"",""4588""
","
","","7830","You should pick a card from a deck using the '2', '4', '6', and '8' keys at the top of the keyboard.","85","","instructions","2021-08-09 20:15:56.589","","","","","",""
"casino-keyboard-response","12","74080","0.0-8.0-0.1","1018","true","img/card_backs/set1/yellow.gif","img/card_backs/set1/purple.gif","img/card_backs/set1/red.gif","img/card_backs/set1/green.gif","img/card_backs/set2/orange.gif","img/card_backs/set2/pink.gif","img/card_backs/set2/blue.gif","img/card_backs/set2/gray.gif","""event"",""trial"",""time""
""fullscreenenter"",""1"",""4588""
","
","
","""event"",""trial"",""time""
""fullscreenenter"",""1"",""4588""
","
","","5515.60000000149","Once you select a card, it will turn over and you will see how many tokens you earned.","83","","instructions","2021-08-09 20:16:02.110","","","","","",""
"casino-keyboard-response","13","89799","0.0-8.0-0.2","1018","true","img/card_backs/set1/yellow.gif","img/card_backs/set1/purple.gif","img/card_backs/set1/red.gif","img/card_backs/set1/green.gif","img/card_backs/set2/orange.gif","img/card_backs/set2/pink.gif","img/card_backs/set2/blue.gif","img/card_backs/set2/gray.gif","""event"",""trial"",""time""
""fullscreenenter"",""1"",""4588""
","
","
","""event"",""trial"",""time""
""fullscreenenter"",""1"",""4588""
","
","","15711.800000000745","Let's try practicing that! </br> First, try to put your fingers over the '2', '4', '6', and '8' keys. </br>  You can use whatever fingers are most comfortable for you. Try to find a comfortable position now. ","50","","instructions","2021-08-09 20:16:17.830","","","","","",""
"casino-keyboard-response","14","96062","0.0-8.0-0.3","1018","true","img/card_backs/set1/yellow.gif","img/card_backs/set1/purple.gif","img/card_backs/set1/red.gif","img/card_backs/set1/green.gif","img/card_backs/set2/orange.gif","img/card_backs/set2/pink.gif","img/card_backs/set2/blue.gif","img/card_backs/set2/gray.gif","""event"",""trial"",""time""
""fullscreenenter"",""1"",""4588""
","
","
","""event"",""trial"",""time""
""fullscreenenter"",""1"",""4588""
","
","","6255.699999999255","Okay ready? </br> On the next screen, press '2' to select the left deck. ","50","","instructions","2021-08-09 20:16:24.093","","","","","",""
"card-selection-trial","15","99431","0.0-9.0-0.0","1018","true","img/card_backs/set1/yellow.gif","img/card_backs/set1/purple.gif","img/card_backs/set1/red.gif","img/card_backs/set1/green.gif","img/card_backs/set2/orange.gif","img/card_backs/set2/pink.gif","img/card_backs/set2/blue.gif","img/card_backs/set2/gray.gif","""event"",""trial"",""time""
""fullscreenenter"",""1"",""4588""
","
","
","""event"",""trial"",""time""
""fullscreenenter"",""1"",""4588""
","
","","1259.5","","","","practice_card_selection","2021-08-09 20:16:27.462","img/practice_cards/backs/brown.gif","0","-100","","",""
"casino-keyboard-response","16","105546","0.0-10.0-0.0","1018","true","img/card_backs/set1/yellow.gif","img/card_backs/set1/purple.gif","img/card_backs/set1/red.gif","img/card_backs/set1/green.gif","img/card_backs/set2/orange.gif","img/card_backs/set2/pink.gif","img/card_backs/set2/blue.gif","img/card_backs/set2/gray.gif","""event"",""trial"",""time""
""fullscreenenter"",""1"",""4588""
","
","
","""event"",""trial"",""time""
""fullscreenenter"",""1"",""4588""
","
","","6108.199999999255","Great! Now on the next screen, try pressing '6' to select the third deck.","54","","instructions","2021-08-09 20:16:33.576","","","","","",""
"card-selection-trial","17","108541","0.0-11.0-0.0","1018","true","img/card_backs/set1/yellow.gif","img/card_backs/set1/purple.gif","img/card_backs/set1/red.gif","img/card_backs/set1/green.gif","img/card_backs/set2/orange.gif","img/card_backs/set2/pink.gif","img/card_backs/set2/blue.gif","img/card_backs/set2/gray.gif","""event"",""trial"",""time""
""fullscreenenter"",""1"",""4588""
","
","
","""event"",""trial"",""time""
""fullscreenenter"",""1"",""4588""
","
","","975.2999999970198","","","","practice_card_selection","2021-08-09 20:16:36.572","img/practice_cards/backs/dark_blue.gif","2","-200","","",""
"casino-keyboard-response","18","113160","0.0-12.0-0.0","1018","true","img/card_backs/set1/yellow.gif","img/card_backs/set1/purple.gif","img/card_backs/set1/red.gif","img/card_backs/set1/green.gif","img/card_backs/set2/orange.gif","img/card_backs/set2/pink.gif","img/card_backs/set2/blue.gif","img/card_backs/set2/gray.gif","""event"",""trial"",""time""
""fullscreenenter"",""1"",""4588""
","
","
","""event"",""trial"",""time""
""fullscreenenter"",""1"",""4588""
","
","","4608.60000000149","Now on the next screen, try pressing '4' to select the second deck.","52","","instructions","2021-08-09 20:16:41.190","","","","","",""
"card-selection-trial","19","116046","0.0-13.0-0.0","1018","true","img/card_backs/set1/yellow.gif","img/card_backs/set1/purple.gif","img/card_backs/set1/red.gif","img/card_backs/set1/green.gif","img/card_backs/set2/orange.gif","img/card_backs/set2/pink.gif","img/card_backs/set2/blue.gif","img/card_backs/set2/gray.gif","""event"",""trial"",""time""
""fullscreenenter"",""1"",""4588""
","
","
","""event"",""trial"",""time""
""fullscreenenter"",""1"",""4588""
","
","","859.5","","","","practice_card_selection","2021-08-09 20:16:44.076","img/practice_cards/backs/dark_blue.gif","1","200","","",""
"casino-keyboard-response","20","120750","0.0-14.0-0.0","1018","true","img/card_backs/set1/yellow.gif","img/card_backs/set1/purple.gif","img/card_backs/set1/red.gif","img/card_backs/set1/green.gif","img/card_backs/set2/orange.gif","img/card_backs/set2/pink.gif","img/card_backs/set2/blue.gif","img/card_backs/set2/gray.gif","""event"",""trial"",""time""
""fullscreenenter"",""1"",""4588""
","
","
","""event"",""trial"",""time""
""fullscreenenter"",""1"",""4588""
","
","","4698","Finally, try pressing '8' to select the deck all the way on the right.","56","","instructions","2021-08-09 20:16:48.781","","","","","",""
"card-selection-trial","21","123513","0.0-15.0-0.0","1018","true","img/card_backs/set1/yellow.gif","img/card_backs/set1/purple.gif","img/card_backs/set1/red.gif","img/card_backs/set1/green.gif","img/card_backs/set2/orange.gif","img/card_backs/set2/pink.gif","img/card_backs/set2/blue.gif","img/card_backs/set2/gray.gif","""event"",""trial"",""time""
""fullscreenenter"",""1"",""4588""
","
","
","""event"",""trial"",""time""
""fullscreenenter"",""1"",""4588""
","
","","742.1000000014901","","","","practice_card_selection","2021-08-09 20:16:51.543","img/practice_cards/backs/brown.gif","3","100","","",""
"casino-keyboard-response","22","128287","0.0-16.0-0.0","1018","true","img/card_backs/set1/yellow.gif","img/card_backs/set1/purple.gif","img/card_backs/set1/red.gif","img/card_backs/set1/green.gif","img/card_backs/set2/orange.gif","img/card_backs/set2/pink.gif","img/card_backs/set2/blue.gif","img/card_backs/set2/gray.gif","""event"",""trial"",""time""
""fullscreenenter"",""1"",""4588""
","
","
","""event"",""trial"",""time""
""fullscreenenter"",""1"",""4588""
","
","","4768.60000000149","Great! It seems like you are getting the hang of this.","80","","instructions","2021-08-09 20:16:56.317","","","","","",""
"casino-keyboard-response","23","136360","0.0-16.0-0.1","1018","true","img/card_backs/set1/yellow.gif","img/card_backs/set1/purple.gif","img/card_backs/set1/red.gif","img/card_backs/set1/green.gif","img/card_backs/set2/orange.gif","img/card_backs/set2/pink.gif","img/card_backs/set2/blue.gif","img/card_backs/set2/gray.gif","""event"",""trial"",""time""
""fullscreenenter"",""1"",""4588""
","
","
","""event"",""trial"",""time""
""fullscreenenter"",""1"",""4588""
","
","","8062.5","You may have noticed that some cards will cause you to <b> win </b> tokens while other cards will cause you to <b> lose </b>  tokens.","70","","instructions","2021-08-09 20:17:04.390","","","","","",""
"casino-keyboard-response","24","145127","0.0-16.0-0.2","1018","true","img/card_backs/set1/yellow.gif","img/card_backs/set1/purple.gif","img/card_backs/set1/red.gif","img/card_backs/set1/green.gif","img/card_backs/set2/orange.gif","img/card_backs/set2/pink.gif","img/card_backs/set2/blue.gif","img/card_backs/set2/gray.gif","""event"",""trial"",""time""
""fullscreenenter"",""1"",""4588""
","
","
","""event"",""trial"",""time""
""fullscreenenter"",""1"",""4588""
","
","","8762.5","Each deck has a mix of cards that will cause you to win and lose tokens. </br> However, the cards in each colored deck are different.","73","","instructions","2021-08-09 20:17:13.157","","","","","",""
"casino-keyboard-response","25","155105","0.0-16.0-0.3","1018","true","img/card_backs/set1/yellow.gif","img/card_backs/set1/purple.gif","img/card_backs/set1/red.gif","img/card_backs/set1/green.gif","img/card_backs/set2/orange.gif","img/card_backs/set2/pink.gif","img/card_backs/set2/blue.gif","img/card_backs/set2/gray.gif","""event"",""trial"",""time""
""fullscreenenter"",""1"",""4588""
","
","
","""event"",""trial"",""time""
""fullscreenenter"",""1"",""4588""
","
","","9973.39999999851","Some colored decks are luckier than others. </br> If you choose the lucky decks, you will earn more tokens than if you choose the unlucky decks.","69","","instructions","2021-08-09 20:17:23.136","","","","","",""
"casino-keyboard-response","26","162566","0.0-16.0-0.4","1018","true","img/card_backs/set1/yellow.gif","img/card_backs/set1/purple.gif","img/card_backs/set1/red.gif","img/card_backs/set1/green.gif","img/card_backs/set2/orange.gif","img/card_backs/set2/pink.gif","img/card_backs/set2/blue.gif","img/card_backs/set2/gray.gif","""event"",""trial"",""time""
""fullscreenenter"",""1"",""4588""
","
","
","""event"",""trial"",""time""
""fullscreenenter"",""1"",""4588""
","
","","7453.300000000745","You should try to figure out which decks are lucky. </br> Then, try to choose the lucky decks so you can win the most tokens.","87","","instructions","2021-08-09 20:17:30.598","","","","","",""
"casino-keyboard-response","27","173896","0.0-16.0-0.5","1018","true","img/card_backs/set1/yellow.gif","img/card_backs/set1/purple.gif","img/card_backs/set1/red.gif","img/card_backs/set1/green.gif","img/card_backs/set2/orange.gif","img/card_backs/set2/pink.gif","img/card_backs/set2/blue.gif","img/card_backs/set2/gray.gif","""event"",""trial"",""time""
""fullscreenenter"",""1"",""4588""
","
","
","""event"",""trial"",""time""
""fullscreenenter"",""1"",""4588""
","
","","11325.10000000149","To make it trickier, the casino dealer will switch the locations of the decks on every turn. </br> The color of the deck determines how lucky it is. The location does not matter.","88","","instructions","2021-08-09 20:17:41.927","","","","","",""
"casino-keyboard-response","28","183453","0.0-16.0-0.6","1018","true","img/card_backs/set1/yellow.gif","img/card_backs/set1/purple.gif","img/card_backs/set1/red.gif","img/card_backs/set1/green.gif","img/card_backs/set2/orange.gif","img/card_backs/set2/pink.gif","img/card_backs/set2/blue.gif","img/card_backs/set2/gray.gif","""event"",""trial"",""time""
""fullscreenenter"",""1"",""4588""
","
","
","""event"",""trial"",""time""
""fullscreenenter"",""1"",""4588""
","
","","9550","The mix of cards in each colored deck will stay the same throughout the game. </br> That means that a deck that is lucky early on will stay lucky.","79","","instructions","2021-08-09 20:17:51.484","","","","","",""
"casino-keyboard-response","29","193140","0.0-16.0-0.7","1018","true","img/card_backs/set1/yellow.gif","img/card_backs/set1/purple.gif","img/card_backs/set1/red.gif","img/card_backs/set1/green.gif","img/card_backs/set2/orange.gif","img/card_backs/set2/pink.gif","img/card_backs/set2/blue.gif","img/card_backs/set2/gray.gif","""event"",""trial"",""time""
""fullscreenenter"",""1"",""4588""
","
","
","""event"",""trial"",""time""
""fullscreenenter"",""1"",""4588""
","
","","9682.599999997765","Remember though, all the decks have a <b> mix </b> of both <b> good </b> and <b> bad </b> cards so it may take a couple of turns to figure out if a deck is lucky.","69","","instructions","2021-08-09 20:18:01.170","","","","","",""
"casino-keyboard-response","30","201498","0.0-16.0-0.8","1018","true","img/card_backs/set1/yellow.gif","img/card_backs/set1/purple.gif","img/card_backs/set1/red.gif","img/card_backs/set1/green.gif","img/card_backs/set2/orange.gif","img/card_backs/set2/pink.gif","img/card_backs/set2/blue.gif","img/card_backs/set2/gray.gif","""event"",""trial"",""time""
""fullscreenenter"",""1"",""4588""
","
","
","""event"",""trial"",""time""
""fullscreenenter"",""1"",""4588""
","
","","8350.900000002235","At the end of the game, you will be paid bonus money based on how many tokens you win. </br> If you win more tokens, you will earn more money!","72","","instructions","2021-08-09 20:18:09.542","","","","","",""
"casino-keyboard-response","31","212410","0.0-16.0-0.9","1018","true","img/card_backs/set1/yellow.gif","img/card_backs/set1/purple.gif","img/card_backs/set1/red.gif","img/card_backs/set1/green.gif","img/card_backs/set2/orange.gif","img/card_backs/set2/pink.gif","img/card_backs/set2/blue.gif","img/card_backs/set2/gray.gif","""event"",""trial"",""time""
""fullscreenenter"",""1"",""4588""
","
","
","""event"",""trial"",""time""
""fullscreenenter"",""1"",""4588""
","
","","10893","You will never <b> lose </b> money. </br> If you end up with fewer than 0 tokens, you will earn $0 of bonus money, but you will still be paid for playing the game.","83","","instructions","2021-08-09 20:18:20.440","","","","","",""
"casino-keyboard-response","32","216964","0.0-16.0-0.10","1018","true","img/card_backs/set1/yellow.gif","img/card_backs/set1/purple.gif","img/card_backs/set1/red.gif","img/card_backs/set1/green.gif","img/card_backs/set2/orange.gif","img/card_backs/set2/pink.gif","img/card_backs/set2/blue.gif","img/card_backs/set2/gray.gif","""event"",""trial"",""time""
""fullscreenenter"",""1"",""4588""
","
","
","""event"",""trial"",""time""
""fullscreenenter"",""1"",""4588""
","
","","4548.5","You will have 10 seconds to make each choice.","82","","instructions","2021-08-09 20:18:24.995","","","","","",""
"casino-keyboard-response","33","225410","0.0-16.0-0.11","1018","true","img/card_backs/set1/yellow.gif","img/card_backs/set1/purple.gif","img/card_backs/set1/red.gif","img/card_backs/set1/green.gif","img/card_backs/set2/orange.gif","img/card_backs/set2/pink.gif","img/card_backs/set2/blue.gif","img/card_backs/set2/gray.gif","""event"",""trial"",""time""
""fullscreenenter"",""1"",""4588""
","
","
","""event"",""trial"",""time""
""fullscreenenter"",""1"",""4588""
","
","","8435.599999997765","Before you play the game for real, you will play with practice decks. </br> The tokens you earn during practice won't count toward your total.","86","","instructions","2021-08-09 20:18:33.441","","","","","",""
"casino-keyboard-response","34","237288","0.0-16.0-0.12","1018","true","img/card_backs/set1/yellow.gif","img/card_backs/set1/purple.gif","img/card_backs/set1/red.gif","img/card_backs/set1/green.gif","img/card_backs/set2/orange.gif","img/card_backs/set2/pink.gif","img/card_backs/set2/blue.gif","img/card_backs/set2/gray.gif","""event"",""trial"",""time""
""fullscreenenter"",""1"",""4588""
","
","
","""event"",""trial"",""time""
""fullscreenenter"",""1"",""4588""
","
","","11869.10000000149","Ready? Remember, use the '2', '4', '6', and '8' keys to select the decks. </br> Put your fingers on those keys now and then press '2' to begin.","50","","instructions","2021-08-09 20:18:45.318","","","","","",""
"casino-fixation","35","237793","0.0-17.0-0.0","1018","true","img/card_backs/set1/yellow.gif","img/card_backs/set1/purple.gif","img/card_backs/set1/red.gif","img/card_backs/set1/green.gif","img/card_backs/set2/orange.gif","img/card_backs/set2/pink.gif","img/card_backs/set2/blue.gif","img/card_backs/set2/gray.gif","""event"",""trial"",""time""
""fullscreenenter"",""1"",""4588""
","
","
","""event"",""trial"",""time""
""fullscreenenter"",""1"",""4588""
","
","","null","","null","","fixation","2021-08-09 20:18:45.823","","","","","",""
"card-selection-trial","36","243061","0.0-17.0-1.0","1018","true","img/card_backs/set1/yellow.gif","img/card_backs/set1/purple.gif","img/card_backs/set1/red.gif","img/card_backs/set1/green.gif","img/card_backs/set2/orange.gif","img/card_backs/set2/pink.gif","img/card_backs/set2/blue.gif","img/card_backs/set2/gray.gif","""event"",""trial"",""time""
""fullscreenenter"",""1"",""4588""
","
","
","""event"",""trial"",""time""
""fullscreenenter"",""1"",""4588""
","
","","3248.300000000745","","","","practice","2021-08-09 20:18:51.091","img/practice_cards/backs/black.gif","2","-100","0","",""
"casino-fixation","37","243571","0.0-17.0-0.1","1018","true","img/card_backs/set1/yellow.gif","img/card_backs/set1/purple.gif","img/card_backs/set1/red.gif","img/card_backs/set1/green.gif","img/card_backs/set2/orange.gif","img/card_backs/set2/pink.gif","img/card_backs/set2/blue.gif","img/card_backs/set2/gray.gif","""event"",""trial"",""time""
""fullscreenenter"",""1"",""4588""
","
","
","""event"",""trial"",""time""
""fullscreenenter"",""1"",""4588""
","
","","null","","null","","fixation","2021-08-09 20:18:51.601","","","","","",""
"card-selection-trial","38","250181","0.0-17.0-1.1","1018","true","img/card_backs/set1/yellow.gif","img/card_backs/set1/purple.gif","img/card_backs/set1/red.gif","img/card_backs/set1/green.gif","img/card_backs/set2/orange.gif","img/card_backs/set2/pink.gif","img/card_backs/set2/blue.gif","img/card_backs/set2/gray.gif","""event"",""trial"",""time""
""fullscreenenter"",""1"",""4588""
","
","
","""event"",""trial"",""time""
""fullscreenenter"",""1"",""4588""
","
","","4589.400000002235","","","","practice","2021-08-09 20:18:58.211","img/practice_cards/backs/brown.gif","2","100","0","",""
"casino-fixation","39","250685","0.0-17.0-0.2","1018","true","img/card_backs/set1/yellow.gif","img/card_backs/set1/purple.gif","img/card_backs/set1/red.gif","img/card_backs/set1/green.gif","img/card_backs/set2/orange.gif","img/card_backs/set2/pink.gif","img/card_backs/set2/blue.gif","img/card_backs/set2/gray.gif","""event"",""trial"",""time""
""fullscreenenter"",""1"",""4588""
","
","
","""event"",""trial"",""time""
""fullscreenenter"",""1"",""4588""
","
","","null","","null","","fixation","2021-08-09 20:18:58.716","","","","","",""
"card-selection-trial","40","254144","0.0-17.0-1.2","1018","true","img/card_backs/set1/yellow.gif","img/card_backs/set1/purple.gif","img/card_backs/set1/red.gif","img/card_backs/set1/green.gif","img/card_backs/set2/orange.gif","img/card_backs/set2/pink.gif","img/card_backs/set2/blue.gif","img/card_backs/set2/gray.gif","""event"",""trial"",""time""
""fullscreenenter"",""1"",""4588""
","
","
","""event"",""trial"",""time""
""fullscreenenter"",""1"",""4588""
","
","","1436.1000000014901","","","","practice","2021-08-09 20:19:02.174","img/practice_cards/backs/brown.gif","3","-100","0","",""
"casino-fixation","41","254652","0.0-17.0-0.3","1018","true","img/card_backs/set1/yellow.gif","img/card_backs/set1/purple.gif","img/card_backs/set1/red.gif","img/card_backs/set1/green.gif","img/card_backs/set2/orange.gif","img/card_backs/set2/pink.gif","img/card_backs/set2/blue.gif","img/card_backs/set2/gray.gif","""event"",""trial"",""time""
""fullscreenenter"",""1"",""4588""
","
","
","""event"",""trial"",""time""
""fullscreenenter"",""1"",""4588""
","
","","null","","null","","fixation","2021-08-09 20:19:02.682","","","","","",""
"card-selection-trial","42","259502","0.0-17.0-1.3","1018","true","img/card_backs/set1/yellow.gif","img/card_backs/set1/purple.gif","img/card_backs/set1/red.gif","img/card_backs/set1/green.gif","img/card_backs/set2/orange.gif","img/card_backs/set2/pink.gif","img/card_backs/set2/blue.gif","img/card_backs/set2/gray.gif","""event"",""trial"",""time""
""fullscreenenter"",""1"",""4588""
","
","
","""event"",""trial"",""time""
""fullscreenenter"",""1"",""4588""
","
","","2829.89999999851","","","","practice","2021-08-09 20:19:07.532","img/practice_cards/backs/black.gif","0","100","0","",""
"casino-fixation","43","260009","0.0-17.0-0.4","1018","true","img/card_backs/set1/yellow.gif","img/card_backs/set1/purple.gif","img/card_backs/set1/red.gif","img/card_backs/set1/green.gif","img/card_backs/set2/orange.gif","img/card_backs/set2/pink.gif","img/card_backs/set2/blue.gif","img/card_backs/set2/gray.gif","""event"",""trial"",""time""
""fullscreenenter"",""1"",""4588""
","
","
","""event"",""trial"",""time""
""fullscreenenter"",""1"",""4588""
","
","","null","","null","","fixation","2021-08-09 20:19:08.039","","","","","",""
"card-selection-trial","44","265007","0.0-17.0-1.4","1018","true","img/card_backs/set1/yellow.gif","img/card_backs/set1/purple.gif","img/card_backs/set1/red.gif","img/card_backs/set1/green.gif","img/card_backs/set2/orange.gif","img/card_backs/set2/pink.gif","img/card_backs/set2/blue.gif","img/card_backs/set2/gray.gif","""event"",""trial"",""time""
""fullscreenenter"",""1"",""4588""
","
","
","""event"",""trial"",""time""
""fullscreenenter"",""1"",""4588""
","
","","2975.800000000745","","","","practice","2021-08-09 20:19:13.038","img/practice_cards/backs/black.gif","1","-100","0","",""
"casino-fixation","45","265515","0.0-17.0-0.5","1018","true","img/card_backs/set1/yellow.gif","img/card_backs/set1/purple.gif","img/card_backs/set1/red.gif","img/card_backs/set1/green.gif","img/card_backs/set2/orange.gif","img/card_backs/set2/pink.gif","img/card_backs/set2/blue.gif","img/card_backs/set2/gray.gif","""event"",""trial"",""time""
""fullscreenenter"",""1"",""4588""
","
","
","""event"",""trial"",""time""
""fullscreenenter"",""1"",""4588""
","
","","null","","null","","fixation","2021-08-09 20:19:13.546","","","","","",""
"card-selection-trial","46","271554","0.0-17.0-1.5","1018","true","img/card_backs/set1/yellow.gif","img/card_backs/set1/purple.gif","img/card_backs/set1/red.gif","img/card_backs/set1/green.gif","img/card_backs/set2/orange.gif","img/card_backs/set2/pink.gif","img/card_backs/set2/blue.gif","img/card_backs/set2/gray.gif","""event"",""trial"",""time""
""fullscreenenter"",""1"",""4588""
","
","
","""event"",""trial"",""time""
""fullscreenenter"",""1"",""4588""
","
","","4020.800000000745","","","","practice","2021-08-09 20:19:19.584","img/practice_cards/backs/dark_blue.gif","0","200","0","",""
"casino-fixation","47","272064","0.0-17.0-0.6","1018","true","img/card_backs/set1/yellow.gif","img/card_backs/set1/purple.gif","img/card_backs/set1/red.gif","img/card_backs/set1/green.gif","img/card_backs/set2/orange.gif","img/card_backs/set2/pink.gif","img/card_backs/set2/blue.gif","img/card_backs/set2/gray.gif","""event"",""trial"",""time""
""fullscreenenter"",""1"",""4588""
","
","
","""event"",""trial"",""time""
""fullscreenenter"",""1"",""4588""
","
","","null","","null","","fixation","2021-08-09 20:19:20.095","","","","","",""
"card-selection-trial","48","279573","0.0-17.0-1.6","1018","true","img/card_backs/set1/yellow.gif","img/card_backs/set1/purple.gif","img/card_backs/set1/red.gif","img/card_backs/set1/green.gif","img/card_backs/set2/orange.gif","img/card_backs/set2/pink.gif","img/card_backs/set2/blue.gif","img/card_backs/set2/gray.gif","""event"",""trial"",""time""
""fullscreenenter"",""1"",""4588""
","
","
","""event"",""trial"",""time""
""fullscreenenter"",""1"",""4588""
","
","","5480.699999999255","","","","practice","2021-08-09 20:19:27.604","img/practice_cards/backs/dark_blue.gif","2","200","0","",""
"casino-fixation","49","280084","0.0-17.0-0.7","1018","true","img/card_backs/set1/yellow.gif","img/card_backs/set1/purple.gif","img/card_backs/set1/red.gif","img/card_backs/set1/green.gif","img/card_backs/set2/orange.gif","img/card_backs/set2/pink.gif","img/card_backs/set2/blue.gif","img/card_backs/set2/gray.gif","""event"",""trial"",""time""
""fullscreenenter"",""1"",""4588""
","
","
","""event"",""trial"",""time""
""fullscreenenter"",""1"",""4588""
","
","","null","","null","","fixation","2021-08-09 20:19:28.115","","","","","",""
"card-selection-trial","50","285175","0.0-17.0-1.7","1018","true","img/card_backs/set1/yellow.gif","img/card_backs/set1/purple.gif","img/card_backs/set1/red.gif","img/card_backs/set1/green.gif","img/card_backs/set2/orange.gif","img/card_backs/set2/pink.gif","img/card_backs/set2/blue.gif","img/card_backs/set2/gray.gif","""event"",""trial"",""time""
""fullscreenenter"",""1"",""4588""
","
","
","""event"",""trial"",""time""
""fullscreenenter"",""1"",""4588""
","
","","3063","","","","practice","2021-08-09 20:19:33.206","img/practice_cards/backs/dark_green.gif","3","200","0","",""
"casino-fixation","51","285687","0.0-17.0-0.8","1018","true","img/card_backs/set1/yellow.gif","img/card_backs/set1/purple.gif","img/card_backs/set1/red.gif","img/card_backs/set1/green.gif","img/card_backs/set2/orange.gif","img/card_backs/set2/pink.gif","img/card_backs/set2/blue.gif","img/card_backs/set2/gray.gif","""event"",""trial"",""time""
""fullscreenenter"",""1"",""4588""
","
","
","""event"",""trial"",""time""
""fullscreenenter"",""1"",""4588""
","
","","null","","null","","fixation","2021-08-09 20:19:33.717","","","","","",""
"card-selection-trial","52","293143","0.0-17.0-1.8","1018","true","img/card_backs/set1/yellow.gif","img/card_backs/set1/purple.gif","img/card_backs/set1/red.gif","img/card_backs/set1/green.gif","img/card_backs/set2/orange.gif","img/card_backs/set2/pink.gif","img/card_backs/set2/blue.gif","img/card_backs/set2/gray.gif","""event"",""trial"",""time""
""fullscreenenter"",""1"",""4588""
","
","
","""event"",""trial"",""time""
""fullscreenenter"",""1"",""4588""
","
","","5435.300000000745","","","","practice","2021-08-09 20:19:41.174","img/practice_cards/backs/brown.gif","0","100","0","",""
"casino-fixation","53","293653","0.0-17.0-0.9","1018","true","img/card_backs/set1/yellow.gif","img/card_backs/set1/purple.gif","img/card_backs/set1/red.gif","img/card_backs/set1/green.gif","img/card_backs/set2/orange.gif","img/card_backs/set2/pink.gif","img/card_backs/set2/blue.gif","img/card_backs/set2/gray.gif","""event"",""trial"",""time""
""fullscreenenter"",""1"",""4588""
","
","
","""event"",""trial"",""time""
""fullscreenenter"",""1"",""4588""
","
","","null","","null","","fixation","2021-08-09 20:19:41.684","","","","","",""
"card-selection-trial","54","303627","0.0-17.0-1.9","1018","true","img/card_backs/set1/yellow.gif","img/card_backs/set1/purple.gif","img/card_backs/set1/red.gif","img/card_backs/set1/green.gif","img/card_backs/set2/orange.gif","img/card_backs/set2/pink.gif","img/card_backs/set2/blue.gif","img/card_backs/set2/gray.gif","""event"",""trial"",""time""
""fullscreenenter"",""1"",""4588""
","
","
","""event"",""trial"",""time""
""fullscreenenter"",""1"",""4588""
","
","","7956.300000000745","","","","practice","2021-08-09 20:19:51.658","img/practice_cards/backs/dark_green.gif","1","200","0","",""
"casino-keyboard-response","55","306634","0.0-18.0","1018","true","img/card_backs/set1/yellow.gif","img/card_backs/set1/purple.gif","img/card_backs/set1/red.gif","img/card_backs/set1/green.gif","img/card_backs/set2/orange.gif","img/card_backs/set2/pink.gif","img/card_backs/set2/blue.gif","img/card_backs/set2/gray.gif","""event"",""trial"",""time""
""fullscreenenter"",""1"",""4588""
","
","
","""event"",""trial"",""time""
""fullscreenenter"",""1"",""4588""
","
","","3000.699999999255","You earned 800 tokens during the practice round!","82","","","2021-08-09 20:19:54.665","","","","","",""
"casino-keyboard-response","56","311400","0.0-19.0-0.0","1018","true","img/card_backs/set1/yellow.gif","img/card_backs/set1/purple.gif","img/card_backs/set1/red.gif","img/card_backs/set1/green.gif","img/card_backs/set2/orange.gif","img/card_backs/set2/pink.gif","img/card_backs/set2/blue.gif","img/card_backs/set2/gray.gif","""event"",""trial"",""time""
""fullscreenenter"",""1"",""4588""
","
","
","""event"",""trial"",""time""
""fullscreenenter"",""1"",""4588""
","
","","4759.800000000745","Nice job! You are almost ready to play the real game.","86","","instructions","2021-08-09 20:19:59.431","","","","","",""
"casino-keyboard-response","57","320319","0.0-19.0-0.1","1018","true","img/card_backs/set1/yellow.gif","img/card_backs/set1/purple.gif","img/card_backs/set1/red.gif","img/card_backs/set1/green.gif","img/card_backs/set2/orange.gif","img/card_backs/set2/pink.gif","img/card_backs/set2/blue.gif","img/card_backs/set2/gray.gif","""event"",""trial"",""time""
""fullscreenenter"",""1"",""4588""
","
","
","""event"",""trial"",""time""
""fullscreenenter"",""1"",""4588""
","
","","8913.5","You will play two rounds of the real game. In each round, you will pick 100 cards in total.","73","","instructions","2021-08-09 20:20:08.351","","","","","",""
"casino-keyboard-response","58","324600","0.0-19.0-0.2","1018","true","img/card_backs/set1/yellow.gif","img/card_backs/set1/purple.gif","img/card_backs/set1/red.gif","img/card_backs/set1/green.gif","img/card_backs/set2/orange.gif","img/card_backs/set2/pink.gif","img/card_backs/set2/blue.gif","img/card_backs/set2/gray.gif","""event"",""trial"",""time""
""fullscreenenter"",""1"",""4588""
","
","
","""event"",""trial"",""time""
""fullscreenenter"",""1"",""4588""
","
","","4275.5","We are now going to ask you some questions about how the game works.","66","","instructions","2021-08-09 20:20:12.631","","","","","",""
"casino-keyboard-response","59","331343","0.0-19.0-0.3","1018","true","img/card_backs/set1/yellow.gif","img/card_backs/set1/purple.gif","img/card_backs/set1/red.gif","img/card_backs/set1/green.gif","img/card_backs/set2/orange.gif","img/card_backs/set2/pink.gif","img/card_backs/set2/blue.gif","img/card_backs/set2/gray.gif","""event"",""trial"",""time""
""fullscreenenter"",""1"",""4588""
","
","
","""event"",""trial"",""time""
""fullscreenenter"",""1"",""4588""
","
","","6735.199999999255","Answer carefully. You will not be able to begin the game until you answer them correctly.","67","","instructions","2021-08-09 20:20:19.374","","","","","",""
"casino-comp_q","60","338527","0.0-20.0-0.0","1018","true","img/card_backs/set1/yellow.gif","img/card_backs/set1/purple.gif","img/card_backs/set1/red.gif","img/card_backs/set1/green.gif","img/card_backs/set2/orange.gif","img/card_backs/set2/pink.gif","img/card_backs/set2/blue.gif","img/card_backs/set2/gray.gif","""event"",""trial"",""time""
""fullscreenenter"",""1"",""4588""
","
","
","""event"",""trial"",""time""
""fullscreenenter"",""1"",""4588""
","
","","7174","True or False: All the decks have some cards that cause you to win tokens and some cards that cause you to lose tokens.","84","","","2021-08-09 20:20:26.557","","","","","",""
"casino-keyboard-response","61","342806","0.0-20.0-1.0","1018","true","img/card_backs/set1/yellow.gif","img/card_backs/set1/purple.gif","img/card_backs/set1/red.gif","img/card_backs/set1/green.gif","img/card_backs/set2/orange.gif","img/card_backs/set2/pink.gif","img/card_backs/set2/blue.gif","img/card_backs/set2/gray.gif","""event"",""trial"",""time""
""fullscreenenter"",""1"",""4588""
","
","
","""event"",""trial"",""time""
""fullscreenenter"",""1"",""4588""
","
","","4273.800000000745","True is correct! All the decks have a mix of winning and losing cards.","77","","","2021-08-09 20:20:30.837","","","","","true",""
"casino-comp_q","62","346702","0.0-21.0-0.0","1018","true","img/card_backs/set1/yellow.gif","img/card_backs/set1/purple.gif","img/card_backs/set1/red.gif","img/card_backs/set1/green.gif","img/card_backs/set2/orange.gif","img/card_backs/set2/pink.gif","img/card_backs/set2/blue.gif","img/card_backs/set2/gray.gif","""event"",""trial"",""time""
""fullscreenenter"",""1"",""4588""
","
","
","""event"",""trial"",""time""
""fullscreenenter"",""1"",""4588""
","
","","3889.800000000745","True or False: You will have as much time as you want to make your response.","70","","","2021-08-09 20:20:34.733","","","","","",""
"casino-keyboard-response","63","350078","0.0-21.0-1.0","1018","true","img/card_backs/set1/yellow.gif","img/card_backs/set1/purple.gif","img/card_backs/set1/red.gif","img/card_backs/set1/green.gif","img/card_backs/set2/orange.gif","img/card_backs/set2/pink.gif","img/card_backs/set2/blue.gif","img/card_backs/set2/gray.gif","""event"",""trial"",""time""
""fullscreenenter"",""1"",""4588""
","
","
","""event"",""trial"",""time""
""fullscreenenter"",""1"",""4588""
","
","","3354.800000000745","False is correct! You will only have 10 seconds to make each choice.","75","","","2021-08-09 20:20:38.108","","","","","true",""
"casino-comp_q","64","353997","0.0-22.0-0.0","1018","true","img/card_backs/set1/yellow.gif","img/card_backs/set1/purple.gif","img/card_backs/set1/red.gif","img/card_backs/set1/green.gif","img/card_backs/set2/orange.gif","img/card_backs/set2/pink.gif","img/card_backs/set2/blue.gif","img/card_backs/set2/gray.gif","""event"",""trial"",""time""
""fullscreenenter"",""1"",""4588""
","
","
","""event"",""trial"",""time""
""fullscreenenter"",""1"",""4588""
","
","","3913.300000000745","True or False: The location of the deck determines how lucky it is.","70","","","2021-08-09 20:20:42.027","","","","","",""
"casino-keyboard-response","65","356793","0.0-22.0-1.0","1018","true","img/card_backs/set1/yellow.gif","img/card_backs/set1/purple.gif","img/card_backs/set1/red.gif","img/card_backs/set1/green.gif","img/card_backs/set2/orange.gif","img/card_backs/set2/pink.gif","img/card_backs/set2/blue.gif","img/card_backs/set2/gray.gif","""event"",""trial"",""time""
""fullscreenenter"",""1"",""4588""
","
","
","""event"",""trial"",""time""
""fullscreenenter"",""1"",""4588""
","
","","2789.099999997765","False is correct! The <i>color</i>  of the deck determines how lucky or unlucky it is.","68","","","2021-08-09 20:20:44.823","","","","","true",""
"casino-keyboard-response","66","362352","0.0-23.0-0.0","1018","true","img/card_backs/set1/yellow.gif","img/card_backs/set1/purple.gif","img/card_backs/set1/red.gif","img/card_backs/set1/green.gif","img/card_backs/set2/orange.gif","img/card_backs/set2/pink.gif","img/card_backs/set2/blue.gif","img/card_backs/set2/gray.gif","""event"",""trial"",""time""
""fullscreenenter"",""1"",""4588""
","
","
","""event"",""trial"",""time""
""fullscreenenter"",""1"",""4588""
","
","","5550.199999999255","Great job! Now it's time to start the real game.","82","","instructions","2021-08-09 20:20:50.383","","","","","",""
"casino-keyboard-response","67","367402","0.0-23.0-0.1","1018","true","img/card_backs/set1/yellow.gif","img/card_backs/set1/purple.gif","img/card_backs/set1/red.gif","img/card_backs/set1/green.gif","img/card_backs/set2/orange.gif","img/card_backs/set2/pink.gif","img/card_backs/set2/blue.gif","img/card_backs/set2/gray.gif","""event"",""trial"",""time""
""fullscreenenter"",""1"",""4588""
","
","
","""event"",""trial"",""time""
""fullscreenenter"",""1"",""4588""
","
","","5044.800000000745","Before we start, we're going to head into a new room of the casino.","86","","instructions","2021-08-09 20:20:55.432","","","","","",""
"casino-keyboard-response","68","373576","0.0-24.0-0.0","1018","true","img/card_backs/set1/yellow.gif","img/card_backs/set1/purple.gif","img/card_backs/set1/red.gif","img/card_backs/set1/green.gif","img/card_backs/set2/orange.gif","img/card_backs/set2/pink.gif","img/card_backs/set2/blue.gif","img/card_backs/set2/gray.gif","""event"",""trial"",""time""
""fullscreenenter"",""1"",""4588""
","
","
","""event"",""trial"",""time""
""fullscreenenter"",""1"",""4588""
","
","","6168.400000002235","Here we are! The real game will use different cards, but the rules will be the same.","71","","instructions","2021-08-09 20:21:01.608","","","","","",""
"casino-keyboard-response","69","382543","0.0-24.0-0.1","1018","true","img/card_backs/set1/yellow.gif","img/card_backs/set1/purple.gif","img/card_backs/set1/red.gif","img/card_backs/set1/green.gif","img/card_backs/set2/orange.gif","img/card_backs/set2/pink.gif","img/card_backs/set2/blue.gif","img/card_backs/set2/gray.gif","""event"",""trial"",""time""
""fullscreenenter"",""1"",""4588""
","
","
","""event"",""trial"",""time""
""fullscreenenter"",""1"",""4588""
","
","","8960.199999999255","Ready? Put your fingers over the '2', '4', 6', and '8' keys so you are ready to play the game. </br> Then press 2 to start.","50","","instructions","2021-08-09 20:21:10.574","","","","","",""
"casino-fixation","70","383050","0.0-25.0-0.0","1018","true","img/card_backs/set1/yellow.gif","img/card_backs/set1/purple.gif","img/card_backs/set1/red.gif","img/card_backs/set1/green.gif","img/card_backs/set2/orange.gif","img/card_backs/set2/pink.gif","img/card_backs/set2/blue.gif","img/card_backs/set2/gray.gif","""event"",""trial"",""time""
""fullscreenenter"",""1"",""4588""
","
","
","""event"",""trial"",""time""
""fullscreenenter"",""1"",""4588""
","
","","null","","null","","fixation","2021-08-09 20:21:11.080","","","","","",""
"card-selection-trial","71","388538","0.0-25.0-1.0","1018","true","img/card_backs/set1/yellow.gif","img/card_backs/set1/purple.gif","img/card_backs/set1/red.gif","img/card_backs/set1/green.gif","img/card_backs/set2/orange.gif","img/card_backs/set2/pink.gif","img/card_backs/set2/blue.gif","img/card_backs/set2/gray.gif","""event"",""trial"",""time""
""fullscreenenter"",""1"",""4588""
","
","
","""event"",""trial"",""time""
""fullscreenenter"",""1"",""4588""
","
","","3466","","","","real_trial","2021-08-09 20:21:16.569","img/card_backs/set1/yellow.gif","2","240","1","",""
"casino-fixation","72","389047","0.0-25.0-0.1","1018","true","img/card_backs/set1/yellow.gif","img/card_backs/set1/purple.gif","img/card_backs/set1/red.gif","img/card_backs/set1/green.gif","img/card_backs/set2/orange.gif","img/card_backs/set2/pink.gif","img/card_backs/set2/blue.gif","img/card_backs/set2/gray.gif","""event"",""trial"",""time""
""fullscreenenter"",""1"",""4588""
","
","
","""event"",""trial"",""time""
""fullscreenenter"",""1"",""4588""
","
","","null","","null","","fixation","2021-08-09 20:21:17.077","","","","","",""
"card-selection-trial","73","394426","0.0-25.0-1.1","1018","true","img/card_backs/set1/yellow.gif","img/card_backs/set1/purple.gif","img/card_backs/set1/red.gif","img/card_backs/set1/green.gif","img/card_backs/set2/orange.gif","img/card_backs/set2/pink.gif","img/card_backs/set2/blue.gif","img/card_backs/set2/gray.gif","""event"",""trial"",""time""
""fullscreenenter"",""1"",""4588""
","
","
","""event"",""trial"",""time""
""fullscreenenter"",""1"",""4588""
","
","","3360.39999999851","","","","real_trial","2021-08-09 20:21:22.456","img/card_backs/set1/red.gif","3","60","1","",""
"casino-fixation","74","394935","0.0-25.0-0.2","1018","true","img/card_backs/set1/yellow.gif","img/card_backs/set1/purple.gif","img/card_backs/set1/red.gif","img/card_backs/set1/green.gif","img/card_backs/set2/orange.gif","img/card_backs/set2/pink.gif","img/card_backs/set2/blue.gif","img/card_backs/set2/gray.gif","""event"",""trial"",""time""
""fullscreenenter"",""1"",""4588""
","
","
","""event"",""trial"",""time""
""fullscreenenter"",""1"",""4588""
","
","","null","","null","","fixation","2021-08-09 20:21:22.965","","","","","",""
"card-selection-trial","75","400862","0.0-25.0-1.2","1018","true","img/card_backs/set1/yellow.gif","img/card_backs/set1/purple.gif","img/card_backs/set1/red.gif","img/card_backs/set1/green.gif","img/card_backs/set2/orange.gif","img/card_backs/set2/pink.gif","img/card_backs/set2/blue.gif","img/card_backs/set2/gray.gif","""event"",""trial"",""time""
""fullscreenenter"",""1"",""4588""
","
","
","""event"",""trial"",""time""
""fullscreenenter"",""1"",""4588""
","
","","3907.099999997765","","","","real_trial","2021-08-09 20:21:28.893","img/card_backs/set1/green.gif","0","50","1","",""
"casino-fixation","76","401368","0.0-25.0-0.3","1018","true","img/card_backs/set1/yellow.gif","img/card_backs/set1/purple.gif","img/card_backs/set1/red.gif","img/card_backs/set1/green.gif","img/card_backs/set2/orange.gif","img/card_backs/set2/pink.gif","img/card_backs/set2/blue.gif","img/card_backs/set2/gray.gif","""event"",""trial"",""time""
""fullscreenenter"",""1"",""4588""
","
","
","""event"",""trial"",""time""
""fullscreenenter"",""1"",""4588""
","
","","null","","null","","fixation","2021-08-09 20:21:29.399","","","","","",""
"card-selection-trial","77","405167","0.0-25.0-1.3","1018","true","img/card_backs/set1/yellow.gif","img/card_backs/set1/purple.gif","img/card_backs/set1/red.gif","img/card_backs/set1/green.gif","img/card_backs/set2/orange.gif","img/card_backs/set2/pink.gif","img/card_backs/set2/blue.gif","img/card_backs/set2/gray.gif","""event"",""trial"",""time""
""fullscreenenter"",""1"",""4588""
","
","
","""event"",""trial"",""time""
""fullscreenenter"",""1"",""4588""
","
","","1778.300000000745","","","","real_trial","2021-08-09 20:21:33.197","img/card_backs/set1/red.gif","2","40","1","",""
"casino-fixation","78","405675","0.0-25.0-0.4","1018","true","img/card_backs/set1/yellow.gif","img/card_backs/set1/purple.gif","img/card_backs/set1/red.gif","img/card_backs/set1/green.gif","img/card_backs/set2/orange.gif","img/card_backs/set2/pink.gif","img/card_backs/set2/blue.gif","img/card_backs/set2/gray.gif","""event"",""trial"",""time""
""fullscreenenter"",""1"",""4588""
","
","
","""event"",""trial"",""time""
""fullscreenenter"",""1"",""4588""
","
","","null","","null","","fixation","2021-08-09 20:21:33.706","","","","","",""
"card-selection-trial","79","409797","0.0-25.0-1.4","1018","true","img/card_backs/set1/yellow.gif","img/card_backs/set1/purple.gif","img/card_backs/set1/red.gif","img/card_backs/set1/green.gif","img/card_backs/set2/orange.gif","img/card_backs/set2/pink.gif","img/card_backs/set2/blue.gif","img/card_backs/set2/gray.gif","""event"",""trial"",""time""
""fullscreenenter"",""1"",""4588""
","
","
","""event"",""trial"",""time""
""fullscreenenter"",""1"",""4588""
","
","","2103.699999999255","","","","real_trial","2021-08-09 20:21:37.827","img/card_backs/set1/purple.gif","3","250","1","",""
"casino-fixation","80","410303","0.0-25.0-0.5","1018","true","img/card_backs/set1/yellow.gif","img/card_backs/set1/purple.gif","img/card_backs/set1/red.gif","img/card_backs/set1/green.gif","img/card_backs/set2/orange.gif","img/card_backs/set2/pink.gif","img/card_backs/set2/blue.gif","img/card_backs/set2/gray.gif","""event"",""trial"",""time""
""fullscreenenter"",""1"",""4588""
","
","
","""event"",""trial"",""time""
""fullscreenenter"",""1"",""4588""
","
","","null","","null","","fixation","2021-08-09 20:21:38.334","","","","","",""
"card-selection-trial","81","414572","0.0-25.0-1.5","1018","true","img/card_backs/set1/yellow.gif","img/card_backs/set1/purple.gif","img/card_backs/set1/red.gif","img/card_backs/set1/green.gif","img/card_backs/set2/orange.gif","img/card_backs/set2/pink.gif","img/card_backs/set2/blue.gif","img/card_backs/set2/gray.gif","""event"",""trial"",""time""
""fullscreenenter"",""1"",""4588""
","
","
","""event"",""trial"",""time""
""fullscreenenter"",""1"",""4588""
","
","","2247.300000000745","","","","real_trial","2021-08-09 20:21:42.602","img/card_backs/set1/purple.gif","1","250","1","",""
"casino-fixation","82","415078","0.0-25.0-0.6","1018","true","img/card_backs/set1/yellow.gif","img/card_backs/set1/purple.gif","img/card_backs/set1/red.gif","img/card_backs/set1/green.gif","img/card_backs/set2/orange.gif","img/card_backs/set2/pink.gif","img/card_backs/set2/blue.gif","img/card_backs/set2/gray.gif","""event"",""trial"",""time""
""fullscreenenter"",""1"",""4588""
","
","
","""event"",""trial"",""time""
""fullscreenenter"",""1"",""4588""
","
","","null","","null","","fixation","2021-08-09 20:21:43.109","","","","","",""
"card-selection-trial","83","418076","0.0-25.0-1.6","1018","true","img/card_backs/set1/yellow.gif","img/card_backs/set1/purple.gif","img/card_backs/set1/red.gif","img/card_backs/set1/green.gif","img/card_backs/set2/orange.gif","img/card_backs/set2/pink.gif","img/card_backs/set2/blue.gif","img/card_backs/set2/gray.gif","""event"",""trial"",""time""
""fullscreenenter"",""1"",""4588""
","
","
","""event"",""trial"",""time""
""fullscreenenter"",""1"",""4588""
","
","","976.8000000007451","","","","real_trial","2021-08-09 20:21:46.106","img/card_backs/set1/purple.gif","0","260","1","",""
"casino-fixation","84","418583","0.0-25.0-0.7","1018","true","img/card_backs/set1/yellow.gif","img/card_backs/set1/purple.gif","img/card_backs/set1/red.gif","img/card_backs/set1/green.gif","img/card_backs/set2/orange.gif","img/card_backs/set2/pink.gif","img/card_backs/set2/blue.gif","img/card_backs/set2/gray.gif","""event"",""trial"",""time""
""fullscreenenter"",""1"",""4588""
","
","
","""event"",""trial"",""time""
""fullscreenenter"",""1"",""4588""
","
","","null","","null","","fixation","2021-08-09 20:21:46.613","","","","","",""
"card-selection-trial","85","421610","0.0-25.0-1.7","1018","true","img/card_backs/set1/yellow.gif","img/card_backs/set1/purple.gif","img/card_backs/set1/red.gif","img/card_backs/set1/green.gif","img/card_backs/set2/orange.gif","img/card_backs/set2/pink.gif","img/card_backs/set2/blue.gif","img/card_backs/set2/gray.gif","""event"",""trial"",""time""
""fullscreenenter"",""1"",""4588""
","
","
","""event"",""trial"",""time""
""fullscreenenter"",""1"",""4588""
","
","","1006.2999999970198","","","","real_trial","2021-08-09 20:21:49.641","img/card_backs/set1/purple.gif","0","-190","1","",""
"casino-fixation","86","422117","0.0-25.0-0.8","1018","true","img/card_backs/set1/yellow.gif","img/card_backs/set1/purple.gif","img/card_backs/set1/red.gif","img/card_backs/set1/green.gif","img/card_backs/set2/orange.gif","img/card_backs/set2/pink.gif","img/card_backs/set2/blue.gif","img/card_backs/set2/gray.gif","""event"",""trial"",""time""
""fullscreenenter"",""1"",""4588""
","
","
","""event"",""trial"",""time""
""fullscreenenter"",""1"",""4588""
","
","","null","","null","","fixation","2021-08-09 20:21:50.148","","","","","",""
"card-selection-trial","87","425668","0.0-25.0-1.8","1018","true","img/card_backs/set1/yellow.gif","img/card_backs/set1/purple.gif","img/card_backs/set1/red.gif","img/card_backs/set1/green.gif","img/card_backs/set2/orange.gif","img/card_backs/set2/pink.gif","img/card_backs/set2/blue.gif","img/card_backs/set2/gray.gif","""event"",""trial"",""time""
""fullscreenenter"",""1"",""4588""
","
","
","""event"",""trial"",""time""
""fullscreenenter"",""1"",""4588""
","
","","1528","","","","real_trial","2021-08-09 20:21:53.698","img/card_backs/set1/green.gif","1","-90","1","",""
"casino-fixation","88","426172","0.0-25.0-0.9","1018","true","img/card_backs/set1/yellow.gif","img/card_backs/set1/purple.gif","img/card_backs/set1/red.gif","img/card_backs/set1/green.gif","img/card_backs/set2/orange.gif","img/card_backs/set2/pink.gif","img/card_backs/set2/blue.gif","img/card_backs/set2/gray.gif","""event"",""trial"",""time""
""fullscreenenter"",""1"",""4588""
","
","
","""event"",""trial"",""time""
""fullscreenenter"",""1"",""4588""
","
","","null","","null","","fixation","2021-08-09 20:21:54.203","","","","","",""
"card-selection-trial","89","430299","0.0-25.0-1.9","1018","true","img/card_backs/set1/yellow.gif","img/card_backs/set1/purple.gif","img/card_backs/set1/red.gif","img/card_backs/set1/green.gif","img/card_backs/set2/orange.gif","img/card_backs/set2/pink.gif","img/card_backs/set2/blue.gif","img/card_backs/set2/gray.gif","""event"",""trial"",""time""
""fullscreenenter"",""1"",""4588""
","
","
","""event"",""trial"",""time""
""fullscreenenter"",""1"",""4588""
","
","","2108.5","","","","real_trial","2021-08-09 20:21:58.329","img/card_backs/set1/yellow.gif","2","-200","1","",""
"casino-fixation","90","430808","0.0-25.0-0.10","1018","true","img/card_backs/set1/yellow.gif","img/card_backs/set1/purple.gif","img/card_backs/set1/red.gif","img/card_backs/set1/green.gif","img/card_backs/set2/orange.gif","img/card_backs/set2/pink.gif","img/card_backs/set2/blue.gif","img/card_backs/set2/gray.gif","""event"",""trial"",""time""
""fullscreenenter"",""1"",""4588""
","
","
","""event"",""trial"",""time""
""fullscreenenter"",""1"",""4588""
","
","","null","","null","","fixation","2021-08-09 20:21:58.839","","","","","",""
"card-selection-trial","91","436281","0.0-25.0-1.10","1018","true","img/card_backs/set1/yellow.gif","img/card_backs/set1/purple.gif","img/card_backs/set1/red.gif","img/card_backs/set1/green.gif","img/card_backs/set2/orange.gif","img/card_backs/set2/pink.gif","img/card_backs/set2/blue.gif","img/card_backs/set2/gray.gif","""event"",""trial"",""time""
""fullscreenenter"",""1"",""4588""
","
","
","""event"",""trial"",""time""
""fullscreenenter"",""1"",""4588""
","
","","3451.900000002235","","","","real_trial","2021-08-09 20:22:04.311","img/card_backs/set1/purple.gif","0","250","1","",""
"casino-fixation","92","436790","0.0-25.0-0.11","1018","true","img/card_backs/set1/yellow.gif","img/card_backs/set1/purple.gif","img/card_backs/set1/red.gif","img/card_backs/set1/green.gif","img/card_backs/set2/orange.gif","img/card_backs/set2/pink.gif","img/card_backs/set2/blue.gif","img/card_backs/set2/gray.gif","""event"",""trial"",""time""
""fullscreenenter"",""1"",""4588""
","
","
","""event"",""trial"",""time""
""fullscreenenter"",""1"",""4588""
","
","","null","","null","","fixation","2021-08-09 20:22:04.820","","","","","",""
"card-selection-trial","93","440835","0.0-25.0-1.11","1018","true","img/card_backs/set1/yellow.gif","img/card_backs/set1/purple.gif","img/card_backs/set1/red.gif","img/card_backs/set1/green.gif","img/card_backs/set2/orange.gif","img/card_backs/set2/pink.gif","img/card_backs/set2/blue.gif","img/card_backs/set2/gray.gif","""event"",""trial"",""time""
""fullscreenenter"",""1"",""4588""
","
","
","""event"",""trial"",""time""
""fullscreenenter"",""1"",""4588""
","
","","2027.8999999985099","","","","real_trial","2021-08-09 20:22:08.865","img/card_backs/set1/red.gif","1","60","1","",""
"casino-fixation","94","441341","0.0-25.0-0.12","1018","true","img/card_backs/set1/yellow.gif","img/card_backs/set1/purple.gif","img/card_backs/set1/red.gif","img/card_backs/set1/green.gif","img/card_backs/set2/orange.gif","img/card_backs/set2/pink.gif","img/card_backs/set2/blue.gif","img/card_backs/set2/gray.gif","""event"",""trial"",""time""
""fullscreenenter"",""1"",""4588""
","
","
","""event"",""trial"",""time""
""fullscreenenter"",""1"",""4588""
","
","","null","","null","","fixation","2021-08-09 20:22:09.371","","","","","",""
"card-selection-trial","95","445386","0.0-25.0-1.12","1018","true","img/card_backs/set1/yellow.gif","img/card_backs/set1/purple.gif","img/card_backs/set1/red.gif","img/card_backs/set1/green.gif","img/card_backs/set2/orange.gif","img/card_backs/set2/pink.gif","img/card_backs/set2/blue.gif","img/card_backs/set2/gray.gif","""event"",""trial"",""time""
""fullscreenenter"",""1"",""4588""
","
","
","""event"",""trial"",""time""
""fullscreenenter"",""1"",""4588""
","
","","2024.0999999977648","","","","real_trial","2021-08-09 20:22:13.416","img/card_backs/set1/yellow.gif","2","250","1","",""
"casino-fixation","96","445896","0.0-25.0-0.13","1018","true","img/card_backs/set1/yellow.gif","img/card_backs/set1/purple.gif","img/card_backs/set1/red.gif","img/card_backs/set1/green.gif","img/card_backs/set2/orange.gif","img/card_backs/set2/pink.gif","img/card_backs/set2/blue.gif","img/card_backs/set2/gray.gif","""event"",""trial"",""time""
""fullscreenenter"",""1"",""4588""
","
","
","""event"",""trial"",""time""
""fullscreenenter"",""1"",""4588""
","
","","null","","null","","fixation","2021-08-09 20:22:13.927","","","","","",""
"card-selection-trial","97","449824","0.0-25.0-1.13","1018","true","img/card_backs/set1/yellow.gif","img/card_backs/set1/purple.gif","img/card_backs/set1/red.gif","img/card_backs/set1/green.gif","img/card_backs/set2/orange.gif","img/card_backs/set2/pink.gif","img/card_backs/set2/blue.gif","img/card_backs/set2/gray.gif","""event"",""trial"",""time""
""fullscreenenter"",""1"",""4588""
","
","
","""event"",""trial"",""time""
""fullscreenenter"",""1"",""4588""
","
","","1907.699999999255","","","","real_trial","2021-08-09 20:22:17.854","img/card_backs/set1/red.gif","1","60","1","",""
"casino-fixation","98","450333","0.0-25.0-0.14","1018","true","img/card_backs/set1/yellow.gif","img/card_backs/set1/purple.gif","img/card_backs/set1/red.gif","img/card_backs/set1/green.gif","img/card_backs/set2/orange.gif","img/card_backs/set2/pink.gif","img/card_backs/set2/blue.gif","img/card_backs/set2/gray.gif","""event"",""trial"",""time""
""fullscreenenter"",""1"",""4588""
","
","
","""event"",""trial"",""time""
""fullscreenenter"",""1"",""4588""
","
","","null","","null","","fixation","2021-08-09 20:22:18.364","","","","","",""
"card-selection-trial","99","454221","0.0-25.0-1.14","1018","true","img/card_backs/set1/yellow.gif","img/card_backs/set1/purple.gif","img/card_backs/set1/red.gif","img/card_backs/set1/green.gif","img/card_backs/set2/orange.gif","img/card_backs/set2/pink.gif","img/card_backs/set2/blue.gif","img/card_backs/set2/gray.gif","""event"",""trial"",""time""
""fullscreenenter"",""1"",""4588""
","
","
","""event"",""trial"",""time""
""fullscreenenter"",""1"",""4588""
","
","","1867","","","","real_trial","2021-08-09 20:22:22.251","img/card_backs/set1/purple.gif","2","260","1","",""
"casino-fixation","100","454727","0.0-25.0-0.15","1018","true","img/card_backs/set1/yellow.gif","img/card_backs/set1/purple.gif","img/card_backs/set1/red.gif","img/card_backs/set1/green.gif","img/card_backs/set2/orange.gif","img/card_backs/set2/pink.gif","img/card_backs/set2/blue.gif","img/card_backs/set2/gray.gif","""event"",""trial"",""time""
""fullscreenenter"",""1"",""4588""
","
","
","""event"",""trial"",""time""
""fullscreenenter"",""1"",""4588""
","
","","null","","null","","fixation","2021-08-09 20:22:22.758","","","","","",""
"card-selection-trial","101","459372","0.0-25.0-1.15","1018","true","img/card_backs/set1/yellow.gif","img/card_backs/set1/purple.gif","img/card_backs/set1/red.gif","img/card_backs/set1/green.gif","img/card_backs/set2/orange.gif","img/card_backs/set2/pink.gif","img/card_backs/set2/blue.gif","img/card_backs/set2/gray.gif","""event"",""trial"",""time""
""fullscreenenter"",""1"",""4588""
","
","
","""event"",""trial"",""time""
""fullscreenenter"",""1"",""4588""
","
","","2625.699999999255","","","","real_trial","2021-08-09 20:22:27.402","img/card_backs/set1/yellow.gif","1","250","1","",""
"casino-fixation","102","459877","0.0-25.0-0.16","1018","true","img/card_backs/set1/yellow.gif","img/card_backs/set1/purple.gif","img/card_backs/set1/red.gif","img/card_backs/set1/green.gif","img/card_backs/set2/orange.gif","img/card_backs/set2/pink.gif","img/card_backs/set2/blue.gif","img/card_backs/set2/gray.gif","""event"",""trial"",""time""
""fullscreenenter"",""1"",""4588""
","
","
","""event"",""trial"",""time""
""fullscreenenter"",""1"",""4588""
","
","","null","","null","","fixation","2021-08-09 20:22:27.907","","","","","",""
"card-selection-trial","103","464151","0.0-25.0-1.16","1018","true","img/card_backs/set1/yellow.gif","img/card_backs/set1/purple.gif","img/card_backs/set1/red.gif","img/card_backs/set1/green.gif","img/card_backs/set2/orange.gif","img/card_backs/set2/pink.gif","img/card_backs/set2/blue.gif","img/card_backs/set2/gray.gif","""event"",""trial"",""time""
""fullscreenenter"",""1"",""4588""
","
","
","""event"",""trial"",""time""
""fullscreenenter"",""1"",""4588""
","
","","2255.89999999851","","","","real_trial","2021-08-09 20:22:32.181","img/card_backs/set1/red.gif","2","50","1","",""
"casino-fixation","104","464657","0.0-25.0-0.17","1018","true","img/card_backs/set1/yellow.gif","img/card_backs/set1/purple.gif","img/card_backs/set1/red.gif","img/card_backs/set1/green.gif","img/card_backs/set2/orange.gif","img/card_backs/set2/pink.gif","img/card_backs/set2/blue.gif","img/card_backs/set2/gray.gif","""event"",""trial"",""time""
""fullscreenenter"",""1"",""4588""
","
","
","""event"",""trial"",""time""
""fullscreenenter"",""1"",""4588""
","
","","null","","null","","fixation","2021-08-09 20:22:32.688","","","","","",""
"card-selection-trial","105","470031","0.0-25.0-1.17","1018","true","img/card_backs/set1/yellow.gif","img/card_backs/set1/purple.gif","img/card_backs/set1/red.gif","img/card_backs/set1/green.gif","img/card_backs/set2/orange.gif","img/card_backs/set2/pink.gif","img/card_backs/set2/blue.gif","img/card_backs/set2/gray.gif","""event"",""trial"",""time""
""fullscreenenter"",""1"",""4588""
","
","
","""event"",""trial"",""time""
""fullscreenenter"",""1"",""4588""
","
","","3353.300000000745","","","","real_trial","2021-08-09 20:22:38.061","img/card_backs/set1/yellow.gif","2","-200","1","",""
"casino-fixation","106","470537","0.0-25.0-0.18","1018","true","img/card_backs/set1/yellow.gif","img/card_backs/set1/purple.gif","img/card_backs/set1/red.gif","img/card_backs/set1/green.gif","img/card_backs/set2/orange.gif","img/card_backs/set2/pink.gif","img/card_backs/set2/blue.gif","img/card_backs/set2/gray.gif","""event"",""trial"",""time""
""fullscreenenter"",""1"",""4588""
","
","
","""event"",""trial"",""time""
""fullscreenenter"",""1"",""4588""
","
","","null","","null","","fixation","2021-08-09 20:22:38.567","","","","","",""
"card-selection-trial","107","475148","0.0-25.0-1.18","1018","true","img/card_backs/set1/yellow.gif","img/card_backs/set1/purple.gif","img/card_backs/set1/red.gif","img/card_backs/set1/green.gif","img/card_backs/set2/orange.gif","img/card_backs/set2/pink.gif","img/card_backs/set2/blue.gif","img/card_backs/set2/gray.gif","""event"",""trial"",""time""
""fullscreenenter"",""1"",""4588""
","
","
","""event"",""trial"",""time""
""fullscreenenter"",""1"",""4588""
","
","","2590.5","","","","real_trial","2021-08-09 20:22:43.179","img/card_backs/set1/red.gif","1","50","1","",""
"casino-fixation","108","475654","0.0-25.0-0.19","1018","true","img/card_backs/set1/yellow.gif","img/card_backs/set1/purple.gif","img/card_backs/set1/red.gif","img/card_backs/set1/green.gif","img/card_backs/set2/orange.gif","img/card_backs/set2/pink.gif","img/card_backs/set2/blue.gif","img/card_backs/set2/gray.gif","""event"",""trial"",""time""
""fullscreenenter"",""1"",""4588""
","
","
","""event"",""trial"",""time""
""fullscreenenter"",""1"",""4588""
","
","","null","","null","","fixation","2021-08-09 20:22:43.684","","","","","",""
"card-selection-trial","109","478900","0.0-25.0-1.19","1018","true","img/card_backs/set1/yellow.gif","img/card_backs/set1/purple.gif","img/card_backs/set1/red.gif","img/card_backs/set1/green.gif","img/card_backs/set2/orange.gif","img/card_backs/set2/pink.gif","img/card_backs/set2/blue.gif","img/card_backs/set2/gray.gif","""event"",""trial"",""time""
""fullscreenenter"",""1"",""4588""
","
","
","""event"",""trial"",""time""
""fullscreenenter"",""1"",""4588""
","
","","1228.199999999255","","","","real_trial","2021-08-09 20:22:46.930","img/card_backs/set1/purple.gif","2","-210","1","",""
"casino-fixation","110","479408","0.0-25.0-0.20","1018","true","img/card_backs/set1/yellow.gif","img/card_backs/set1/purple.gif","img/card_backs/set1/red.gif","img/card_backs/set1/green.gif","img/card_backs/set2/orange.gif","img/card_backs/set2/pink.gif","img/card_backs/set2/blue.gif","img/card_backs/set2/gray.gif","""event"",""trial"",""time""
""fullscreenenter"",""1"",""4588""
","
","
","""event"",""trial"",""time""
""fullscreenenter"",""1"",""4588""
","
","","null","","null","","fixation","2021-08-09 20:22:47.438","","","","","",""
"card-selection-trial","111","483635","0.0-25.0-1.20","1018","true","img/card_backs/set1/yellow.gif","img/card_backs/set1/purple.gif","img/card_backs/set1/red.gif","img/card_backs/set1/green.gif","img/card_backs/set2/orange.gif","img/card_backs/set2/pink.gif","img/card_backs/set2/blue.gif","img/card_backs/set2/gray.gif","""event"",""trial"",""time""
""fullscreenenter"",""1"",""4588""
","
","
","""event"",""trial"",""time""
""fullscreenenter"",""1"",""4588""
","
","","2212.400000002235","","","","real_trial","2021-08-09 20:22:51.666","img/card_backs/set1/green.gif","2","-100","1","",""
"casino-fixation","112","484143","0.0-25.0-0.21","1018","true","img/card_backs/set1/yellow.gif","img/card_backs/set1/purple.gif","img/card_backs/set1/red.gif","img/card_backs/set1/green.gif","img/card_backs/set2/orange.gif","img/card_backs/set2/pink.gif","img/card_backs/set2/blue.gif","img/card_backs/set2/gray.gif","""event"",""trial"",""time""
""fullscreenenter"",""1"",""4588""
","
","
","""event"",""trial"",""time""
""fullscreenenter"",""1"",""4588""
","
","","null","","null","","fixation","2021-08-09 20:22:52.173","","","","","",""
"card-selection-trial","113","487635","0.0-25.0-1.21","1018","true","img/card_backs/set1/yellow.gif","img/card_backs/set1/purple.gif","img/card_backs/set1/red.gif","img/card_backs/set1/green.gif","img/card_backs/set2/orange.gif","img/card_backs/set2/pink.gif","img/card_backs/set2/blue.gif","img/card_backs/set2/gray.gif","""event"",""trial"",""time""
""fullscreenenter"",""1"",""4588""
","
","
","""event"",""trial"",""time""
""fullscreenenter"",""1"",""4588""
","
","","1471.8999999985099","","","","real_trial","2021-08-09 20:22:55.666","img/card_backs/set1/yellow.gif","1","-190","1","",""
"casino-fixation","114","488142","0.0-25.0-0.22","1018","true","img/card_backs/set1/yellow.gif","img/card_backs/set1/purple.gif","img/card_backs/set1/red.gif","img/card_backs/set1/green.gif","img/card_backs/set2/orange.gif","img/card_backs/set2/pink.gif","img/card_backs/set2/blue.gif","img/card_backs/set2/gray.gif","""event"",""trial"",""time""
""fullscreenenter"",""1"",""4588""
","
","
","""event"",""trial"",""time""
""fullscreenenter"",""1"",""4588""
","
","","null","","null","","fixation","2021-08-09 20:22:56.173","","","","","",""
"card-selection-trial","115","492969","0.0-25.0-1.22","1018","true","img/card_backs/set1/yellow.gif","img/card_backs/set1/purple.gif","img/card_backs/set1/red.gif","img/card_backs/set1/green.gif","img/card_backs/set2/orange.gif","img/card_backs/set2/pink.gif","img/card_backs/set2/blue.gif","img/card_backs/set2/gray.gif","""event"",""trial"",""time""
""fullscreenenter"",""1"",""4588""
","
","
","""event"",""trial"",""time""
""fullscreenenter"",""1"",""4588""
","
","","2806.39999999851","","","","real_trial","2021-08-09 20:23:00.999","img/card_backs/set1/purple.gif","2","240","1","",""
"casino-fixation","116","493476","0.0-25.0-0.23","1018","true","img/card_backs/set1/yellow.gif","img/card_backs/set1/purple.gif","img/card_backs/set1/red.gif","img/card_backs/set1/green.gif","img/card_backs/set2/orange.gif","img/card_backs/set2/pink.gif","img/card_backs/set2/blue.gif","img/card_backs/set2/gray.gif","""event"",""trial"",""time""
""fullscreenenter"",""1"",""4588""
","
","
","""event"",""trial"",""time""
""fullscreenenter"",""1"",""4588""
","
","","null","","null","","fixation","2021-08-09 20:23:01.506","","","","","",""
"card-selection-trial","117","496816","0.0-25.0-1.23","1018","true","img/card_backs/set1/yellow.gif","img/card_backs/set1/purple.gif","img/card_backs/set1/red.gif","img/card_backs/set1/green.gif","img/card_backs/set2/orange.gif","img/card_backs/set2/pink.gif","img/card_backs/set2/blue.gif","img/card_backs/set2/gray.gif","""event"",""trial"",""time""
""fullscreenenter"",""1"",""4588""
","
","
","""event"",""trial"",""time""
""fullscreenenter"",""1"",""4588""
","
","","1319.1000000014901","","","","real_trial","2021-08-09 20:23:04.846","img/card_backs/set1/red.gif","2","-90","1","",""
"casino-fixation","118","497320","0.0-25.0-0.24","1018","true","img/card_backs/set1/yellow.gif","img/card_backs/set1/purple.gif","img/card_backs/set1/red.gif","img/card_backs/set1/green.gif","img/card_backs/set2/orange.gif","img/card_backs/set2/pink.gif","img/card_backs/set2/blue.gif","img/card_backs/set2/gray.gif","""event"",""trial"",""time""
""fullscreenenter"",""1"",""4588""
","
","
","""event"",""trial"",""time""
""fullscreenenter"",""1"",""4588""
","
","","null","","null","","fixation","2021-08-09 20:23:05.350","","","","","",""
"card-selection-trial","119","502737","0.0-25.0-1.24","1018","true","img/card_backs/set1/yellow.gif","img/card_backs/set1/purple.gif","img/card_backs/set1/red.gif","img/card_backs/set1/green.gif","img/card_backs/set2/orange.gif","img/card_backs/set2/pink.gif","img/card_backs/set2/blue.gif","img/card_backs/set2/gray.gif","""event"",""trial"",""time""
""fullscreenenter"",""1"",""4588""
","
","
","""event"",""trial"",""time""
""fullscreenenter"",""1"",""4588""
","
","","3396.800000000745","","","","real_trial","2021-08-09 20:23:10.768","img/card_backs/set1/yellow.gif","2","240","1","",""
"casino-fixation","120","503247","0.0-25.0-0.25","1018","true","img/card_backs/set1/yellow.gif","img/card_backs/set1/purple.gif","img/card_backs/set1/red.gif","img/card_backs/set1/green.gif","img/card_backs/set2/orange.gif","img/card_backs/set2/pink.gif","img/card_backs/set2/blue.gif","img/card_backs/set2/gray.gif","""event"",""trial"",""time""
""fullscreenenter"",""1"",""4588""
","
","
","""event"",""trial"",""time""
""fullscreenenter"",""1"",""4588""
","
","","null","","null","","fixation","2021-08-09 20:23:11.277","","","","","",""
"card-selection-trial","121","508943","0.0-25.0-1.25","1018","true","img/card_backs/set1/yellow.gif","img/card_backs/set1/purple.gif","img/card_backs/set1/red.gif","img/card_backs/set1/green.gif","img/card_backs/set2/orange.gif","img/card_backs/set2/pink.gif","img/card_backs/set2/blue.gif","img/card_backs/set2/gray.gif","""event"",""trial"",""time""
""fullscreenenter"",""1"",""4588""
","
","
","""event"",""trial"",""time""
""fullscreenenter"",""1"",""4588""
","
","","3676.699999999255","","","","real_trial","2021-08-09 20:23:16.973","img/card_backs/set1/purple.gif","1","-190","1","",""
"casino-fixation","122","509450","0.0-25.0-0.26","1018","true","img/card_backs/set1/yellow.gif","img/card_backs/set1/purple.gif","img/card_backs/set1/red.gif","img/card_backs/set1/green.gif","img/card_backs/set2/orange.gif","img/card_backs/set2/pink.gif","img/card_backs/set2/blue.gif","img/card_backs/set2/gray.gif","""event"",""trial"",""time""
""fullscreenenter"",""1"",""4588""
","
","
","""event"",""trial"",""time""
""fullscreenenter"",""1"",""4588""
","
","","null","","null","","fixation","2021-08-09 20:23:17.481","","","","","",""
"card-selection-trial","123","515137","0.0-25.0-1.26","1018","true","img/card_backs/set1/yellow.gif","img/card_backs/set1/purple.gif","img/card_backs/set1/red.gif","img/card_backs/set1/green.gif","img/card_backs/set2/orange.gif","img/card_backs/set2/pink.gif","img/card_backs/set2/blue.gif","img/card_backs/set2/gray.gif","""event"",""trial"",""time""
""fullscreenenter"",""1"",""4588""
","
","
","""event"",""trial"",""time""
""fullscreenenter"",""1"",""4588""
","
","","3670.699999999255","","","","real_trial","2021-08-09 20:23:23.167","img/card_backs/set1/green.gif","3","60","1","",""
"casino-fixation","124","515644","0.0-25.0-0.27","1018","true","img/card_backs/set1/yellow.gif","img/card_backs/set1/purple.gif","img/card_backs/set1/red.gif","img/card_backs/set1/green.gif","img/card_backs/set2/orange.gif","img/card_backs/set2/pink.gif","img/card_backs/set2/blue.gif","img/card_backs/set2/gray.gif","""event"",""trial"",""time""
""fullscreenenter"",""1"",""4588""
","
","
","""event"",""trial"",""time""
""fullscreenenter"",""1"",""4588""
","
","","null","","null","","fixation","2021-08-09 20:23:23.675","","","","","",""
"card-selection-trial","125","523084","0.0-25.0-1.27","1018","true","img/card_backs/set1/yellow.gif","img/card_backs/set1/purple.gif","img/card_backs/set1/red.gif","img/card_backs/set1/green.gif","img/card_backs/set2/orange.gif","img/card_backs/set2/pink.gif","img/card_backs/set2/blue.gif","img/card_backs/set2/gray.gif","""event"",""trial"",""time""
""fullscreenenter"",""1"",""4588""
","
","
","""event"",""trial"",""time""
""fullscreenenter"",""1"",""4588""
","
","","5423.400000002235","","","","real_trial","2021-08-09 20:23:31.114","img/card_backs/set1/purple.gif","2","-190","1","",""
"casino-fixation","126","523593","0.0-25.0-0.28","1018","true","img/card_backs/set1/yellow.gif","img/card_backs/set1/purple.gif","img/card_backs/set1/red.gif","img/card_backs/set1/green.gif","img/card_backs/set2/orange.gif","img/card_backs/set2/pink.gif","img/card_backs/set2/blue.gif","img/card_backs/set2/gray.gif","""event"",""trial"",""time""
""fullscreenenter"",""1"",""4588""
","
","
","""event"",""trial"",""time""
""fullscreenenter"",""1"",""4588""
","
","","null","","null","","fixation","2021-08-09 20:23:31.624","","","","","",""
"card-selection-trial","127","527511","0.0-25.0-1.28","1018","true","img/card_backs/set1/yellow.gif","img/card_backs/set1/purple.gif","img/card_backs/set1/red.gif","img/card_backs/set1/green.gif","img/card_backs/set2/orange.gif","img/card_backs/set2/pink.gif","img/card_backs/set2/blue.gif","img/card_backs/set2/gray.gif","""event"",""trial"",""time""
""fullscreenenter"",""1"",""4588""
","
","
","""event"",""trial"",""time""
""fullscreenenter"",""1"",""4588""
","
","","1899.2000000029802","","","","real_trial","2021-08-09 20:23:35.542","img/card_backs/set1/yellow.gif","1","-190","1","",""
"casino-fixation","128","528017","0.0-25.0-0.29","1018","true","img/card_backs/set1/yellow.gif","img/card_backs/set1/purple.gif","img/card_backs/set1/red.gif","img/card_backs/set1/green.gif","img/card_backs/set2/orange.gif","img/card_backs/set2/pink.gif","img/card_backs/set2/blue.gif","img/card_backs/set2/gray.gif","""event"",""trial"",""time""
""fullscreenenter"",""1"",""4588""
","
","
","""event"",""trial"",""time""
""fullscreenenter"",""1"",""4588""
","
","","null","","null","","fixation","2021-08-09 20:23:36.048","","","","","",""
"card-selection-trial","129","530980","0.0-25.0-1.29","1018","true","img/card_backs/set1/yellow.gif","img/card_backs/set1/purple.gif","img/card_backs/set1/red.gif","img/card_backs/set1/green.gif","img/card_backs/set2/orange.gif","img/card_backs/set2/pink.gif","img/card_backs/set2/blue.gif","img/card_backs/set2/gray.gif","""event"",""trial"",""time""
""fullscreenenter"",""1"",""4588""
","
","
","""event"",""trial"",""time""
""fullscreenenter"",""1"",""4588""
","
","","941","","","","real_trial","2021-08-09 20:23:39.010","img/card_backs/set1/purple.gif","0","240","1","",""
"casino-fixation","130","531486","0.0-25.0-0.30","1018","true","img/card_backs/set1/yellow.gif","img/card_backs/set1/purple.gif","img/card_backs/set1/red.gif","img/card_backs/set1/green.gif","img/card_backs/set2/orange.gif","img/card_backs/set2/pink.gif","img/card_backs/set2/blue.gif","img/card_backs/set2/gray.gif","""event"",""trial"",""time""
""fullscreenenter"",""1"",""4588""
","
","
","""event"",""trial"",""time""
""fullscreenenter"",""1"",""4588""
","
","","null","","null","","fixation","2021-08-09 20:23:39.517","","","","","",""
"card-selection-trial","131","534516","0.0-25.0-1.30","1018","true","img/card_backs/set1/yellow.gif","img/card_backs/set1/purple.gif","img/card_backs/set1/red.gif","img/card_backs/set1/green.gif","img/card_backs/set2/orange.gif","img/card_backs/set2/pink.gif","img/card_backs/set2/blue.gif","img/card_backs/set2/gray.gif","""event"",""trial"",""time""
""fullscreenenter"",""1"",""4588""
","
","
","""event"",""trial"",""time""
""fullscreenenter"",""1"",""4588""
","
","","1011.1999999992549","","","","real_trial","2021-08-09 20:23:42.547","img/card_backs/set1/green.gif","2","-100","1","",""
"casino-fixation","132","535022","0.0-25.0-0.31","1018","true","img/card_backs/set1/yellow.gif","img/card_backs/set1/purple.gif","img/card_backs/set1/red.gif","img/card_backs/set1/green.gif","img/card_backs/set2/orange.gif","img/card_backs/set2/pink.gif","img/card_backs/set2/blue.gif","img/card_backs/set2/gray.gif","""event"",""trial"",""time""
""fullscreenenter"",""1"",""4588""
","
","
","""event"",""trial"",""time""
""fullscreenenter"",""1"",""4588""
","
","","null","","null","","fixation","2021-08-09 20:23:43.053","","","","","",""
"card-selection-trial","133","537571","0.0-25.0-1.31","1018","true","img/card_backs/set1/yellow.gif","img/card_backs/set1/purple.gif","img/card_backs/set1/red.gif","img/card_backs/set1/green.gif","img/card_backs/set2/orange.gif","img/card_backs/set2/pink.gif","img/card_backs/set2/blue.gif","img/card_backs/set2/gray.gif","""event"",""trial"",""time""
""fullscreenenter"",""1"",""4588""
","
","
","""event"",""trial"",""time""
""fullscreenenter"",""1"",""4588""
","
","","527.1000000014901","","","","real_trial","2021-08-09 20:23:45.601","img/card_backs/set1/red.gif","0","40","1","",""
"casino-fixation","134","538074","0.0-25.0-0.32","1018","true","img/card_backs/set1/yellow.gif","img/card_backs/set1/purple.gif","img/card_backs/set1/red.gif","img/card_backs/set1/green.gif","img/card_backs/set2/orange.gif","img/card_backs/set2/pink.gif","img/card_backs/set2/blue.gif","img/card_backs/set2/gray.gif","""event"",""trial"",""time""
""fullscreenenter"",""1"",""4588""
","
","
","""event"",""trial"",""time""
""fullscreenenter"",""1"",""4588""
","
","","null","","null","","fixation","2021-08-09 20:23:46.108","","","","","",""
"card-selection-trial","135","540724","0.0-25.0-1.32","1018","true","img/card_backs/set1/yellow.gif","img/card_backs/set1/purple.gif","img/card_backs/set1/red.gif","img/card_backs/set1/green.gif","img/card_backs/set2/orange.gif","img/card_backs/set2/pink.gif","img/card_backs/set2/blue.gif","img/card_backs/set2/gray.gif","""event"",""trial"",""time""
""fullscreenenter"",""1"",""4588""
","
","
","""event"",""trial"",""time""
""fullscreenenter"",""1"",""4588""
","
","","627","","","","real_trial","2021-08-09 20:23:48.754","img/card_backs/set1/yellow.gif","0","-210","1","",""
"casino-fixation","136","541229","0.0-25.0-0.33","1018","true","img/card_backs/set1/yellow.gif","img/card_backs/set1/purple.gif","img/card_backs/set1/red.gif","img/card_backs/set1/green.gif","img/card_backs/set2/orange.gif","img/card_backs/set2/pink.gif","img/card_backs/set2/blue.gif","img/card_backs/set2/gray.gif","""event"",""trial"",""time""
""fullscreenenter"",""1"",""4588""
","
","
","""event"",""trial"",""time""
""fullscreenenter"",""1"",""4588""
","
","","null","","null","","fixation","2021-08-09 20:23:49.260","","","","","",""
"card-selection-trial","137","544176","0.0-25.0-1.33","1018","true","img/card_backs/set1/yellow.gif","img/card_backs/set1/purple.gif","img/card_backs/set1/red.gif","img/card_backs/set1/green.gif","img/card_backs/set2/orange.gif","img/card_backs/set2/pink.gif","img/card_backs/set2/blue.gif","img/card_backs/set2/gray.gif","""event"",""trial"",""time""
""fullscreenenter"",""1"",""4588""
","
","
","""event"",""trial"",""time""
""fullscreenenter"",""1"",""4588""
","
","","928.1999999992549","","","","real_trial","2021-08-09 20:23:52.207","img/card_backs/set1/purple.gif","0","-190","1","",""
"casino-fixation","138","544682","0.0-25.0-0.34","1018","true","img/card_backs/set1/yellow.gif","img/card_backs/set1/purple.gif","img/card_backs/set1/red.gif","img/card_backs/set1/green.gif","img/card_backs/set2/orange.gif","img/card_backs/set2/pink.gif","img/card_backs/set2/blue.gif","img/card_backs/set2/gray.gif","""event"",""trial"",""time""
""fullscreenenter"",""1"",""4588""
","
","
","""event"",""trial"",""time""
""fullscreenenter"",""1"",""4588""
","
","","null","","null","","fixation","2021-08-09 20:23:52.713","","","","","",""
"card-selection-trial","139","547544","0.0-25.0-1.34","1018","true","img/card_backs/set1/yellow.gif","img/card_backs/set1/purple.gif","img/card_backs/set1/red.gif","img/card_backs/set1/green.gif","img/card_backs/set2/orange.gif","img/card_backs/set2/pink.gif","img/card_backs/set2/blue.gif","img/card_backs/set2/gray.gif","""event"",""trial"",""time""
""fullscreenenter"",""1"",""4588""
","
","
","""event"",""trial"",""time""
""fullscreenenter"",""1"",""4588""
","
","","843.6000000014901","","","","real_trial","2021-08-09 20:23:55.574","img/card_backs/set1/yellow.gif","0","240","1","",""
"casino-fixation","140","548048","0.0-25.0-0.35","1018","true","img/card_backs/set1/yellow.gif","img/card_backs/set1/purple.gif","img/card_backs/set1/red.gif","img/card_backs/set1/green.gif","img/card_backs/set2/orange.gif","img/card_backs/set2/pink.gif","img/card_backs/set2/blue.gif","img/card_backs/set2/gray.gif","""event"",""trial"",""time""
""fullscreenenter"",""1"",""4588""
","
","
","""event"",""trial"",""time""
""fullscreenenter"",""1"",""4588""
","
","","null","","null","","fixation","2021-08-09 20:23:56.079","","","","","",""
"card-selection-trial","141","551516","0.0-25.0-1.35","1018","true","img/card_backs/set1/yellow.gif","img/card_backs/set1/purple.gif","img/card_backs/set1/red.gif","img/card_backs/set1/green.gif","img/card_backs/set2/orange.gif","img/card_backs/set2/pink.gif","img/card_backs/set2/blue.gif","img/card_backs/set2/gray.gif","""event"",""trial"",""time""
""fullscreenenter"",""1"",""4588""
","
","
","""event"",""trial"",""time""
""fullscreenenter"",""1"",""4588""
","
","","1447.7000000029802","","","","real_trial","2021-08-09 20:23:59.547","img/card_backs/set1/red.gif","1","-110","1","",""
"casino-fixation","142","552028","0.0-25.0-0.36","1018","true","img/card_backs/set1/yellow.gif","img/card_backs/set1/purple.gif","img/card_backs/set1/red.gif","img/card_backs/set1/green.gif","img/card_backs/set2/orange.gif","img/card_backs/set2/pink.gif","img/card_backs/set2/blue.gif","img/card_backs/set2/gray.gif","""event"",""trial"",""time""
""fullscreenenter"",""1"",""4588""
","
","
","""event"",""trial"",""time""
""fullscreenenter"",""1"",""4588""
","
","","null","","null","","fixation","2021-08-09 20:24:00.059","","","","","",""
"card-selection-trial","143","557037","0.0-25.0-1.36","1018","true","img/card_backs/set1/yellow.gif","img/card_backs/set1/purple.gif","img/card_backs/set1/red.gif","img/card_backs/set1/green.gif","img/card_backs/set2/orange.gif","img/card_backs/set2/pink.gif","img/card_backs/set2/blue.gif","img/card_backs/set2/gray.gif","""event"",""trial"",""time""
""fullscreenenter"",""1"",""4588""
","
","
","""event"",""trial"",""time""
""fullscreenenter"",""1"",""4588""
","
","","2990.300000000745","","","","real_trial","2021-08-09 20:24:05.068","img/card_backs/set1/purple.gif","2","-190","1","",""
"casino-fixation","144","557543","0.0-25.0-0.37","1018","true","img/card_backs/set1/yellow.gif","img/card_backs/set1/purple.gif","img/card_backs/set1/red.gif","img/card_backs/set1/green.gif","img/card_backs/set2/orange.gif","img/card_backs/set2/pink.gif","img/card_backs/set2/blue.gif","img/card_backs/set2/gray.gif","""event"",""trial"",""time""
""fullscreenenter"",""1"",""4588""
","
","
","""event"",""trial"",""time""
""fullscreenenter"",""1"",""4588""
","
","","null","","null","","fixation","2021-08-09 20:24:05.573","","","","","",""
"card-selection-trial","145","563889","0.0-25.0-1.37","1018","true","img/card_backs/set1/yellow.gif","img/card_backs/set1/purple.gif","img/card_backs/set1/red.gif","img/card_backs/set1/green.gif","img/card_backs/set2/orange.gif","img/card_backs/set2/pink.gif","img/card_backs/set2/blue.gif","img/card_backs/set2/gray.gif","""event"",""trial"",""time""
""fullscreenenter"",""1"",""4588""
","
","
","""event"",""trial"",""time""
""fullscreenenter"",""1"",""4588""
","
","","4330","","","","real_trial","2021-08-09 20:24:11.920","img/card_backs/set1/green.gif","2","40","1","",""
"casino-fixation","146","564395","0.0-25.0-0.38","1018","true","img/card_backs/set1/yellow.gif","img/card_backs/set1/purple.gif","img/card_backs/set1/red.gif","img/card_backs/set1/green.gif","img/card_backs/set2/orange.gif","img/card_backs/set2/pink.gif","img/card_backs/set2/blue.gif","img/card_backs/set2/gray.gif","""event"",""trial"",""time""
""fullscreenenter"",""1"",""4588""
","
","
","""event"",""trial"",""time""
""fullscreenenter"",""1"",""4588""
","
","","null","","null","","fixation","2021-08-09 20:24:12.425","","","","","",""
"card-selection-trial","147","567780","0.0-25.0-1.38","1018","true","img/card_backs/set1/yellow.gif","img/card_backs/set1/purple.gif","img/card_backs/set1/red.gif","img/card_backs/set1/green.gif","img/card_backs/set2/orange.gif","img/card_backs/set2/pink.gif","img/card_backs/set2/blue.gif","img/card_backs/set2/gray.gif","""event"",""trial"",""time""
""fullscreenenter"",""1"",""4588""
","
","
","""event"",""trial"",""time""
""fullscreenenter"",""1"",""4588""
","
","","1361.8999999985099","","","","real_trial","2021-08-09 20:24:15.811","img/card_backs/set1/green.gif","3","40","1","",""
"casino-fixation","148","568289","0.0-25.0-0.39","1018","true","img/card_backs/set1/yellow.gif","img/card_backs/set1/purple.gif","img/card_backs/set1/red.gif","img/card_backs/set1/green.gif","img/card_backs/set2/orange.gif","img/card_backs/set2/pink.gif","img/card_backs/set2/blue.gif","img/card_backs/set2/gray.gif","""event"",""trial"",""time""
""fullscreenenter"",""1"",""4588""
","
","
","""event"",""trial"",""time""
""fullscreenenter"",""1"",""4588""
","
","","null","","null","","fixation","2021-08-09 20:24:16.320","","","","","",""
"card-selection-trial","149","572179","0.0-25.0-1.39","1018","true","img/card_backs/set1/yellow.gif","img/card_backs/set1/purple.gif","img/card_backs/set1/red.gif","img/card_backs/set1/green.gif","img/card_backs/set2/orange.gif","img/card_backs/set2/pink.gif","img/card_backs/set2/blue.gif","img/card_backs/set2/gray.gif","""event"",""trial"",""time""
""fullscreenenter"",""1"",""4588""
","
","
","""event"",""trial"",""time""
""fullscreenenter"",""1"",""4588""
","
","","1867.800000000745","","","","real_trial","2021-08-09 20:24:20.209","img/card_backs/set1/purple.gif","1","-200","1","",""
"casino-fixation","150","572689","0.0-25.0-0.40","1018","true","img/card_backs/set1/yellow.gif","img/card_backs/set1/purple.gif","img/card_backs/set1/red.gif","img/card_backs/set1/green.gif","img/card_backs/set2/orange.gif","img/card_backs/set2/pink.gif","img/card_backs/set2/blue.gif","img/card_backs/set2/gray.gif","""event"",""trial"",""time""
""fullscreenenter"",""1"",""4588""
","
","
","""event"",""trial"",""time""
""fullscreenenter"",""1"",""4588""
","
","","null","","null","","fixation","2021-08-09 20:24:20.720","","","","","",""
"card-selection-trial","151","579629","0.0-25.0-1.40","1018","true","img/card_backs/set1/yellow.gif","img/card_backs/set1/purple.gif","img/card_backs/set1/red.gif","img/card_backs/set1/green.gif","img/card_backs/set2/orange.gif","img/card_backs/set2/pink.gif","img/card_backs/set2/blue.gif","img/card_backs/set2/gray.gif","""event"",""trial"",""time""
""fullscreenenter"",""1"",""4588""
","
","
","""event"",""trial"",""time""
""fullscreenenter"",""1"",""4588""
","
","","4918.800000000745","","","","real_trial","2021-08-09 20:24:27.659","img/card_backs/set1/green.gif","1","-90","1","",""
"casino-fixation","152","580137","0.0-25.0-0.41","1018","true","img/card_backs/set1/yellow.gif","img/card_backs/set1/purple.gif","img/card_backs/set1/red.gif","img/card_backs/set1/green.gif","img/card_backs/set2/orange.gif","img/card_backs/set2/pink.gif","img/card_backs/set2/blue.gif","img/card_backs/set2/gray.gif","""event"",""trial"",""time""
""fullscreenenter"",""1"",""4588""
","
","
","""event"",""trial"",""time""
""fullscreenenter"",""1"",""4588""
","
","","null","","null","","fixation","2021-08-09 20:24:28.167","","","","","",""
"card-selection-trial","153","583558","0.0-25.0-1.41","1018","true","img/card_backs/set1/yellow.gif","img/card_backs/set1/purple.gif","img/card_backs/set1/red.gif","img/card_backs/set1/green.gif","img/card_backs/set2/orange.gif","img/card_backs/set2/pink.gif","img/card_backs/set2/blue.gif","img/card_backs/set2/gray.gif","""event"",""trial"",""time""
""fullscreenenter"",""1"",""4588""
","
","
","""event"",""trial"",""time""
""fullscreenenter"",""1"",""4588""
","
","","1397.5","","","","real_trial","2021-08-09 20:24:31.588","img/card_backs/set1/red.gif","2","50","1","",""
"casino-fixation","154","584067","0.0-25.0-0.42","1018","true","img/card_backs/set1/yellow.gif","img/card_backs/set1/purple.gif","img/card_backs/set1/red.gif","img/card_backs/set1/green.gif","img/card_backs/set2/orange.gif","img/card_backs/set2/pink.gif","img/card_backs/set2/blue.gif","img/card_backs/set2/gray.gif","""event"",""trial"",""time""
""fullscreenenter"",""1"",""4588""
","
","
","""event"",""trial"",""time""
""fullscreenenter"",""1"",""4588""
","
","","null","","null","","fixation","2021-08-09 20:24:32.098","","","","","",""
"card-selection-trial","155","588912","0.0-25.0-1.42","1018","true","img/card_backs/set1/yellow.gif","img/card_backs/set1/purple.gif","img/card_backs/set1/red.gif","img/card_backs/set1/green.gif","img/card_backs/set2/orange.gif","img/card_backs/set2/pink.gif","img/card_backs/set2/blue.gif","img/card_backs/set2/gray.gif","""event"",""trial"",""time""
""fullscreenenter"",""1"",""4588""
","
","
","""event"",""trial"",""time""
""fullscreenenter"",""1"",""4588""
","
","","2822.60000000149","","","","real_trial","2021-08-09 20:24:36.942","img/card_backs/set1/red.gif","3","60","1","",""
"casino-fixation","156","589421","0.0-25.0-0.43","1018","true","img/card_backs/set1/yellow.gif","img/card_backs/set1/purple.gif","img/card_backs/set1/red.gif","img/card_backs/set1/green.gif","img/card_backs/set2/orange.gif","img/card_backs/set2/pink.gif","img/card_backs/set2/blue.gif","img/card_backs/set2/gray.gif","""event"",""trial"",""time""
""fullscreenenter"",""1"",""4588""
","
","
","""event"",""trial"",""time""
""fullscreenenter"",""1"",""4588""
","
","","null","","null","","fixation","2021-08-09 20:24:37.451","","","","","",""
"card-selection-trial","157","592253","0.0-25.0-1.43","1018","true","img/card_backs/set1/yellow.gif","img/card_backs/set1/purple.gif","img/card_backs/set1/red.gif","img/card_backs/set1/green.gif","img/card_backs/set2/orange.gif","img/card_backs/set2/pink.gif","img/card_backs/set2/blue.gif","img/card_backs/set2/gray.gif","""event"",""trial"",""time""
""fullscreenenter"",""1"",""4588""
","
","
","""event"",""trial"",""time""
""fullscreenenter"",""1"",""4588""
","
","","811.6999999992549","","","","real_trial","2021-08-09 20:24:40.284","img/card_backs/set1/red.gif","3","50","1","",""
"casino-fixation","158","592763","0.0-25.0-0.44","1018","true","img/card_backs/set1/yellow.gif","img/card_backs/set1/purple.gif","img/card_backs/set1/red.gif","img/card_backs/set1/green.gif","img/card_backs/set2/orange.gif","img/card_backs/set2/pink.gif","img/card_backs/set2/blue.gif","img/card_backs/set2/gray.gif","""event"",""trial"",""time""
""fullscreenenter"",""1"",""4588""
","
","
","""event"",""trial"",""time""
""fullscreenenter"",""1"",""4588""
","
","","null","","null","","fixation","2021-08-09 20:24:40.794","","","","","",""
"card-selection-trial","159","595738","0.0-25.0-1.44","1018","true","img/card_backs/set1/yellow.gif","img/card_backs/set1/purple.gif","img/card_backs/set1/red.gif","img/card_backs/set1/green.gif","img/card_backs/set2/orange.gif","img/card_backs/set2/pink.gif","img/card_backs/set2/blue.gif","img/card_backs/set2/gray.gif","""event"",""trial"",""time""
""fullscreenenter"",""1"",""4588""
","
","
","""event"",""trial"",""time""
""fullscreenenter"",""1"",""4588""
","
","","956","","","","real_trial","2021-08-09 20:24:43.768","img/card_backs/set1/red.gif","1","-100","1","",""
"casino-fixation","160","596245","0.0-25.0-0.45","1018","true","img/card_backs/set1/yellow.gif","img/card_backs/set1/purple.gif","img/card_backs/set1/red.gif","img/card_backs/set1/green.gif","img/card_backs/set2/orange.gif","img/card_backs/set2/pink.gif","img/card_backs/set2/blue.gif","img/card_backs/set2/gray.gif","""event"",""trial"",""time""
""fullscreenenter"",""1"",""4588""
","
","
","""event"",""trial"",""time""
""fullscreenenter"",""1"",""4588""
","
","","null","","null","","fixation","2021-08-09 20:24:44.276","","","","","",""
"card-selection-trial","161","602494","0.0-25.0-1.45","1018","true","img/card_backs/set1/yellow.gif","img/card_backs/set1/purple.gif","img/card_backs/set1/red.gif","img/card_backs/set1/green.gif","img/card_backs/set2/orange.gif","img/card_backs/set2/pink.gif","img/card_backs/set2/blue.gif","img/card_backs/set2/gray.gif","""event"",""trial"",""time""
""fullscreenenter"",""1"",""4588""
","
","
","""event"",""trial"",""time""
""fullscreenenter"",""1"",""4588""
","
","","4227.300000000745","","","","real_trial","2021-08-09 20:24:50.524","img/card_backs/set1/purple.gif","3","260","1","",""
"casino-fixation","162","603002","0.0-25.0-0.46","1018","true","img/card_backs/set1/yellow.gif","img/card_backs/set1/purple.gif","img/card_backs/set1/red.gif","img/card_backs/set1/green.gif","img/card_backs/set2/orange.gif","img/card_backs/set2/pink.gif","img/card_backs/set2/blue.gif","img/card_backs/set2/gray.gif","""event"",""trial"",""time""
""fullscreenenter"",""1"",""4588""
","
","
","""event"",""trial"",""time""
""fullscreenenter"",""1"",""4588""
","
","","null","","null","","fixation","2021-08-09 20:24:51.033","","","","","",""
"card-selection-trial","163","607382","0.0-25.0-1.46","1018","true","img/card_backs/set1/yellow.gif","img/card_backs/set1/purple.gif","img/card_backs/set1/red.gif","img/card_backs/set1/green.gif","img/card_backs/set2/orange.gif","img/card_backs/set2/pink.gif","img/card_backs/set2/blue.gif","img/card_backs/set2/gray.gif","""event"",""trial"",""time""
""fullscreenenter"",""1"",""4588""
","
","
","""event"",""trial"",""time""
""fullscreenenter"",""1"",""4588""
","
","","2358.599999997765","","","","real_trial","2021-08-09 20:24:55.413","img/card_backs/set1/yellow.gif","1","-190","1","",""
"casino-fixation","164","607888","0.0-25.0-0.47","1018","true","img/card_backs/set1/yellow.gif","img/card_backs/set1/purple.gif","img/card_backs/set1/red.gif","img/card_backs/set1/green.gif","img/card_backs/set2/orange.gif","img/card_backs/set2/pink.gif","img/card_backs/set2/blue.gif","img/card_backs/set2/gray.gif","""event"",""trial"",""time""
""fullscreenenter"",""1"",""4588""
","
","
","""event"",""trial"",""time""
""fullscreenenter"",""1"",""4588""
","
","","null","","null","","fixation","2021-08-09 20:24:55.919","","","","","",""
"card-selection-trial","165","613312","0.0-25.0-1.47","1018","true","img/card_backs/set1/yellow.gif","img/card_backs/set1/purple.gif","img/card_backs/set1/red.gif","img/card_backs/set1/green.gif","img/card_backs/set2/orange.gif","img/card_backs/set2/pink.gif","img/card_backs/set2/blue.gif","img/card_backs/set2/gray.gif","""event"",""trial"",""time""
""fullscreenenter"",""1"",""4588""
","
","
","""event"",""trial"",""time""
""fullscreenenter"",""1"",""4588""
","
","","3402.5","","","","real_trial","2021-08-09 20:25:01.342","img/card_backs/set1/green.gif","1","40","1","",""
"casino-fixation","166","613819","0.0-25.0-0.48","1018","true","img/card_backs/set1/yellow.gif","img/card_backs/set1/purple.gif","img/card_backs/set1/red.gif","img/card_backs/set1/green.gif","img/card_backs/set2/orange.gif","img/card_backs/set2/pink.gif","img/card_backs/set2/blue.gif","img/card_backs/set2/gray.gif","""event"",""trial"",""time""
""fullscreenenter"",""1"",""4588""
","
","
","""event"",""trial"",""time""
""fullscreenenter"",""1"",""4588""
","
","","null","","null","","fixation","2021-08-09 20:25:01.850","","","","","",""
"card-selection-trial","167","625242","0.0-25.0-1.48","1018","true","img/card_backs/set1/yellow.gif","img/card_backs/set1/purple.gif","img/card_backs/set1/red.gif","img/card_backs/set1/green.gif","img/card_backs/set2/orange.gif","img/card_backs/set2/pink.gif","img/card_backs/set2/blue.gif","img/card_backs/set2/gray.gif","""event"",""trial"",""time""
""fullscreenenter"",""1"",""4588""
","
","
","""event"",""trial"",""time""
""fullscreenenter"",""1"",""4588""
","
","","9402.89999999851","","","","real_trial","2021-08-09 20:25:13.273","img/card_backs/set1/red.gif","1","50","1","",""
