"trial_type","trial_index","time_elapsed","internal_node_id","sub_id","risk_good_first","block1_A","block1_B","block1_C","block1_D","block2_A","block2_B","block2_C","block2_D","interactions","blur_events","focus_events","fullscreenenter_events","fullscreenexit_events","success","rt","stimulus","key_press","button_pressed","task_part","timestamp","card_choice","choice_position","points_earned","block","correct","response"
"pavlovia","0","5","0.0-0.0","236","false","img/card_backs/set1/green.gif","img/card_backs/set1/purple.gif","img/card_backs/set1/yellow.gif","img/card_backs/set1/red.gif","img/card_backs/set2/blue.gif","img/card_backs/set2/pink.gif","img/card_backs/set2/gray.gif","img/card_backs/set2/orange.gif","""event"",""trial"",""time""
""fullscreenenter"",""1"",""4233""
","
","
","""event"",""trial"",""time""
""fullscreenenter"",""1"",""4233""
","
","","","","","","","","","","","","",""
"fullscreen","1","5219","0.0-1.0","236","false","img/card_backs/set1/green.gif","img/card_backs/set1/purple.gif","img/card_backs/set1/yellow.gif","img/card_backs/set1/red.gif","img/card_backs/set2/blue.gif","img/card_backs/set2/pink.gif","img/card_backs/set2/gray.gif","img/card_backs/set2/orange.gif","""event"",""trial"",""time""
""fullscreenenter"",""1"",""4233""
","
","
","""event"",""trial"",""time""
""fullscreenenter"",""1"",""4233""
","
","true","","","","","","","","","","","",""
"audio-keyboard-response","2","7997","0.0-2.0","236","false","img/card_backs/set1/green.gif","img/card_backs/set1/purple.gif","img/card_backs/set1/yellow.gif","img/card_backs/set1/red.gif","img/card_backs/set2/blue.gif","img/card_backs/set2/pink.gif","img/card_backs/set2/gray.gif","img/card_backs/set2/orange.gif","""event"",""trial"",""time""
""fullscreenenter"",""1"",""4233""
","
","
","""event"",""trial"",""time""
""fullscreenenter"",""1"",""4233""
","
","","2301","audio/beep_loop.wav","32","","","","","","","","",""
"audio-button-response","3","10519","0.0-3.0","236","false","img/card_backs/set1/green.gif","img/card_backs/set1/purple.gif","img/card_backs/set1/yellow.gif","img/card_backs/set1/red.gif","img/card_backs/set2/blue.gif","img/card_backs/set2/pink.gif","img/card_backs/set2/gray.gif","img/card_backs/set2/orange.gif","""event"",""trial"",""time""
""fullscreenenter"",""1"",""4233""
","
","
","""event"",""trial"",""time""
""fullscreenenter"",""1"",""4233""
","
","","NaN","audio/turtle.mp3","","3","","","","","","","",""
"audio-button-response","4","13394","0.0-4.0","236","false","img/card_backs/set1/green.gif","img/card_backs/set1/purple.gif","img/card_backs/set1/yellow.gif","img/card_backs/set1/red.gif","img/card_backs/set2/blue.gif","img/card_backs/set2/pink.gif","img/card_backs/set2/gray.gif","img/card_backs/set2/orange.gif","""event"",""trial"",""time""
""fullscreenenter"",""1"",""4233""
","
","
","""event"",""trial"",""time""
""fullscreenenter"",""1"",""4233""
","
","","NaN","audio/shark.mp3","","2","","","","","","","",""
"fullscreen","5","17013","0.0-5.0","236","false","img/card_backs/set1/green.gif","img/card_backs/set1/purple.gif","img/card_backs/set1/yellow.gif","img/card_backs/set1/red.gif","img/card_backs/set2/blue.gif","img/card_backs/set2/pink.gif","img/card_backs/set2/gray.gif","img/card_backs/set2/orange.gif","""event"",""trial"",""time""
""fullscreenenter"",""1"",""4233""
","
","
","""event"",""trial"",""time""
""fullscreenenter"",""1"",""4233""
","
","true","","","","","","","","","","","",""
"casino-keyboard-response","6","20586","0.0-6.0-0.0","236","false","img/card_backs/set1/green.gif","img/card_backs/set1/purple.gif","img/card_backs/set1/yellow.gif","img/card_backs/set1/red.gif","img/card_backs/set2/blue.gif","img/card_backs/set2/pink.gif","img/card_backs/set2/gray.gif","img/card_backs/set2/orange.gif","""event"",""trial"",""time""
""fullscreenenter"",""1"",""4233""
","
","
","""event"",""trial"",""time""
""fullscreenenter"",""1"",""4233""
","
","","3570.05000000936","Welcome to the casino!","71","","instructions","2021-04-17 16:04:38.704","","","","","",""
"casino-keyboard-response","7","30253","0.0-6.0-0.1","236","false","img/card_backs/set1/green.gif","img/card_backs/set1/purple.gif","img/card_backs/set1/yellow.gif","img/card_backs/set1/red.gif","img/card_backs/set2/blue.gif","img/card_backs/set2/pink.gif","img/card_backs/set2/gray.gif","img/card_backs/set2/orange.gif","""event"",""trial"",""time""
""fullscreenenter"",""1"",""4233""
","
","
","""event"",""trial"",""time""
""fullscreenenter"",""1"",""4233""
","
","","9665.720000004512","Today you will be playing a game to earn tokens. </br> At the end of the experiment, you will be paid a bonus based on how many tokens you win. ","69","","instructions","2021-04-17 16:04:48.371","","","","","",""
"casino-keyboard-response","8","38087","0.0-6.0-0.2","236","false","img/card_backs/set1/green.gif","img/card_backs/set1/purple.gif","img/card_backs/set1/yellow.gif","img/card_backs/set1/red.gif","img/card_backs/set2/blue.gif","img/card_backs/set2/pink.gif","img/card_backs/set2/gray.gif","img/card_backs/set2/orange.gif","""event"",""trial"",""time""
""fullscreenenter"",""1"",""4233""
","
","
","""event"",""trial"",""time""
""fullscreenenter"",""1"",""4233""
","
","","7831.9550000014715","On every turn, you will be shown four different decks of cards. </br> You need to select a card from one of the four decks.  ","75","","instructions","2021-04-17 16:04:56.205","","","","","",""
"casino-keyboard-response","9","42782","0.0-6.0-0.3","236","false","img/card_backs/set1/green.gif","img/card_backs/set1/purple.gif","img/card_backs/set1/yellow.gif","img/card_backs/set1/red.gif","img/card_backs/set2/blue.gif","img/card_backs/set2/pink.gif","img/card_backs/set2/gray.gif","img/card_backs/set2/orange.gif","""event"",""trial"",""time""
""fullscreenenter"",""1"",""4233""
","
","
","""event"",""trial"",""time""
""fullscreenenter"",""1"",""4233""
","
","","4693.744999996852","On the next screen, you will see what the decks will look like. ","66","","instructions","2021-04-17 16:05:00.900","","","","","",""
"card-selection-trial","10","46802","0.0-7.0-0.0","236","false","img/card_backs/set1/green.gif","img/card_backs/set1/purple.gif","img/card_backs/set1/yellow.gif","img/card_backs/set1/red.gif","img/card_backs/set2/blue.gif","img/card_backs/set2/pink.gif","img/card_backs/set2/gray.gif","img/card_backs/set2/orange.gif","""event"",""trial"",""time""
""fullscreenenter"",""1"",""4233""
","
","
","""event"",""trial"",""time""
""fullscreenenter"",""1"",""4233""
","
","","null","","","","practice","2021-04-17 16:05:04.920","null","null","null","0","",""
"casino-keyboard-response","11","56469","0.0-8.0-0.0","236","false","img/card_backs/set1/green.gif","img/card_backs/set1/purple.gif","img/card_backs/set1/yellow.gif","img/card_backs/set1/red.gif","img/card_backs/set2/blue.gif","img/card_backs/set2/pink.gif","img/card_backs/set2/gray.gif","img/card_backs/set2/orange.gif","""event"",""trial"",""time""
""fullscreenenter"",""1"",""4233""
","
","
","""event"",""trial"",""time""
""fullscreenenter"",""1"",""4233""
","
","","9665.34999999567","You should pick a card from a deck using the '2', '4', '6', and '8' keys at the top of the keyboard.","85","","instructions","2021-04-17 16:05:14.587","","","","","",""
"casino-keyboard-response","12","61944","0.0-8.0-0.1","236","false","img/card_backs/set1/green.gif","img/card_backs/set1/purple.gif","img/card_backs/set1/yellow.gif","img/card_backs/set1/red.gif","img/card_backs/set2/blue.gif","img/card_backs/set2/pink.gif","img/card_backs/set2/gray.gif","img/card_backs/set2/orange.gif","""event"",""trial"",""time""
""fullscreenenter"",""1"",""4233""
","
","
","""event"",""trial"",""time""
""fullscreenenter"",""1"",""4233""
","
","","5473.590000008699","Once you select a card, it will turn over and you will see how many tokens you earned.","83","","instructions","2021-04-17 16:05:20.063","","","","","",""
"casino-keyboard-response","13","77418","0.0-8.0-0.2","236","false","img/card_backs/set1/green.gif","img/card_backs/set1/purple.gif","img/card_backs/set1/yellow.gif","img/card_backs/set1/red.gif","img/card_backs/set2/blue.gif","img/card_backs/set2/pink.gif","img/card_backs/set2/gray.gif","img/card_backs/set2/orange.gif","""event"",""trial"",""time""
""fullscreenenter"",""1"",""4233""
","
","
","""event"",""trial"",""time""
""fullscreenenter"",""1"",""4233""
","
","","15472.609999997076","Let's try practicing that! </br> First, try to put your fingers over the '2', '4', '6', and '8' keys. </br>  You can use whatever fingers are most comfortable for you. Try to find a comfortable position now. ","50","","instructions","2021-04-17 16:05:35.536","","","","","",""
"casino-keyboard-response","14","83475","0.0-8.0-0.3","236","false","img/card_backs/set1/green.gif","img/card_backs/set1/purple.gif","img/card_backs/set1/yellow.gif","img/card_backs/set1/red.gif","img/card_backs/set2/blue.gif","img/card_backs/set2/pink.gif","img/card_backs/set2/gray.gif","img/card_backs/set2/orange.gif","""event"",""trial"",""time""
""fullscreenenter"",""1"",""4233""
","
","
","""event"",""trial"",""time""
""fullscreenenter"",""1"",""4233""
","
","","6055.215000000317","Okay ready? </br> On the next screen, press '2' to select the left deck. ","50","","instructions","2021-04-17 16:05:41.593","","","","","",""
"card-selection-trial","15","86564","0.0-9.0-0.0","236","false","img/card_backs/set1/green.gif","img/card_backs/set1/purple.gif","img/card_backs/set1/yellow.gif","img/card_backs/set1/red.gif","img/card_backs/set2/blue.gif","img/card_backs/set2/pink.gif","img/card_backs/set2/gray.gif","img/card_backs/set2/orange.gif","""event"",""trial"",""time""
""fullscreenenter"",""1"",""4233""
","
","
","""event"",""trial"",""time""
""fullscreenenter"",""1"",""4233""
","
","","1065.9549999982119","","","","practice_card_selection","2021-04-17 16:05:44.682","img/practice_cards/backs/dark_green.gif","0","200","","",""
"casino-keyboard-response","16","92781","0.0-10.0-0.0","236","false","img/card_backs/set1/green.gif","img/card_backs/set1/purple.gif","img/card_backs/set1/yellow.gif","img/card_backs/set1/red.gif","img/card_backs/set2/blue.gif","img/card_backs/set2/pink.gif","img/card_backs/set2/gray.gif","img/card_backs/set2/orange.gif","""event"",""trial"",""time""
""fullscreenenter"",""1"",""4233""
","
","
","""event"",""trial"",""time""
""fullscreenenter"",""1"",""4233""
","
","","6215.629999991506","Great! Now on the next screen, try pressing '6' to select the third deck.","54","","instructions","2021-04-17 16:05:50.899","","","","","",""
"card-selection-trial","17","95644","0.0-11.0-0.0","236","false","img/card_backs/set1/green.gif","img/card_backs/set1/purple.gif","img/card_backs/set1/yellow.gif","img/card_backs/set1/red.gif","img/card_backs/set2/blue.gif","img/card_backs/set2/pink.gif","img/card_backs/set2/gray.gif","img/card_backs/set2/orange.gif","""event"",""trial"",""time""
""fullscreenenter"",""1"",""4233""
","
","
","""event"",""trial"",""time""
""fullscreenenter"",""1"",""4233""
","
","","837.2549999912735","","","","practice_card_selection","2021-04-17 16:05:53.762","img/practice_cards/backs/brown.gif","2","-100","","",""
"casino-keyboard-response","18","101063","0.0-12.0-0.0","236","false","img/card_backs/set1/green.gif","img/card_backs/set1/purple.gif","img/card_backs/set1/yellow.gif","img/card_backs/set1/red.gif","img/card_backs/set2/blue.gif","img/card_backs/set2/pink.gif","img/card_backs/set2/gray.gif","img/card_backs/set2/orange.gif","""event"",""trial"",""time""
""fullscreenenter"",""1"",""4233""
","
","
","""event"",""trial"",""time""
""fullscreenenter"",""1"",""4233""
","
","","5417.835000000196","Now on the next screen, try pressing '4' to select the second deck.","52","","instructions","2021-04-17 16:05:59.181","","","","","",""
"card-selection-trial","19","104074","0.0-13.0-0.0","236","false","img/card_backs/set1/green.gif","img/card_backs/set1/purple.gif","img/card_backs/set1/yellow.gif","img/card_backs/set1/red.gif","img/card_backs/set2/blue.gif","img/card_backs/set2/pink.gif","img/card_backs/set2/gray.gif","img/card_backs/set2/orange.gif","""event"",""trial"",""time""
""fullscreenenter"",""1"",""4233""
","
","
","""event"",""trial"",""time""
""fullscreenenter"",""1"",""4233""
","
","","1004.5549999922514","","","","practice_card_selection","2021-04-17 16:06:02.192","img/practice_cards/backs/dark_green.gif","1","200","","",""
"casino-keyboard-response","20","108818","0.0-14.0-0.0","236","false","img/card_backs/set1/green.gif","img/card_backs/set1/purple.gif","img/card_backs/set1/yellow.gif","img/card_backs/set1/red.gif","img/card_backs/set2/blue.gif","img/card_backs/set2/pink.gif","img/card_backs/set2/gray.gif","img/card_backs/set2/orange.gif","""event"",""trial"",""time""
""fullscreenenter"",""1"",""4233""
","
","
","""event"",""trial"",""time""
""fullscreenenter"",""1"",""4233""
","
","","4742.845000000671","Finally, try pressing '8' to select the deck all the way on the right.","56","","instructions","2021-04-17 16:06:06.936","","","","","",""
"card-selection-trial","21","111414","0.0-15.0-0.0","236","false","img/card_backs/set1/green.gif","img/card_backs/set1/purple.gif","img/card_backs/set1/yellow.gif","img/card_backs/set1/red.gif","img/card_backs/set2/blue.gif","img/card_backs/set2/pink.gif","img/card_backs/set2/gray.gif","img/card_backs/set2/orange.gif","""event"",""trial"",""time""
""fullscreenenter"",""1"",""4233""
","
","
","""event"",""trial"",""time""
""fullscreenenter"",""1"",""4233""
","
","","581.2699999951292","","","","practice_card_selection","2021-04-17 16:06:09.532","img/practice_cards/backs/dark_blue.gif","3","200","","",""
"casino-keyboard-response","22","115067","0.0-16.0-0.0","236","false","img/card_backs/set1/green.gif","img/card_backs/set1/purple.gif","img/card_backs/set1/yellow.gif","img/card_backs/set1/red.gif","img/card_backs/set2/blue.gif","img/card_backs/set2/pink.gif","img/card_backs/set2/gray.gif","img/card_backs/set2/orange.gif","""event"",""trial"",""time""
""fullscreenenter"",""1"",""4233""
","
","
","""event"",""trial"",""time""
""fullscreenenter"",""1"",""4233""
","
","","3652.9149999987567","Great! It seems like you are getting the hang of this.","80","","instructions","2021-04-17 16:06:13.186","","","","","",""
"casino-keyboard-response","23","123639","0.0-16.0-0.1","236","false","img/card_backs/set1/green.gif","img/card_backs/set1/purple.gif","img/card_backs/set1/yellow.gif","img/card_backs/set1/red.gif","img/card_backs/set2/blue.gif","img/card_backs/set2/pink.gif","img/card_backs/set2/gray.gif","img/card_backs/set2/orange.gif","""event"",""trial"",""time""
""fullscreenenter"",""1"",""4233""
","
","
","""event"",""trial"",""time""
""fullscreenenter"",""1"",""4233""
","
","","8569.909999991069","You may have noticed that some cards will cause you to <b> win </b> tokens while other cards will cause you to <b> lose </b>  tokens.","70","","instructions","2021-04-17 16:06:21.757","","","","","",""
"casino-keyboard-response","24","132202","0.0-16.0-0.2","236","false","img/card_backs/set1/green.gif","img/card_backs/set1/purple.gif","img/card_backs/set1/yellow.gif","img/card_backs/set1/red.gif","img/card_backs/set2/blue.gif","img/card_backs/set2/pink.gif","img/card_backs/set2/gray.gif","img/card_backs/set2/orange.gif","""event"",""trial"",""time""
""fullscreenenter"",""1"",""4233""
","
","
","""event"",""trial"",""time""
""fullscreenenter"",""1"",""4233""
","
","","8561.74999999348","Each deck has a mix of cards that will cause you to win and lose tokens. </br> However, the cards in each colored deck are different.","73","","instructions","2021-04-17 16:06:30.320","","","","","",""
"casino-keyboard-response","25","140624","0.0-16.0-0.3","236","false","img/card_backs/set1/green.gif","img/card_backs/set1/purple.gif","img/card_backs/set1/yellow.gif","img/card_backs/set1/red.gif","img/card_backs/set2/blue.gif","img/card_backs/set2/pink.gif","img/card_backs/set2/gray.gif","img/card_backs/set2/orange.gif","""event"",""trial"",""time""
""fullscreenenter"",""1"",""4233""
","
","
","""event"",""trial"",""time""
""fullscreenenter"",""1"",""4233""
","
","","8420.584999999846","Some colored decks are luckier than others. </br> If you choose the lucky decks, you will earn more tokens than if you choose the unlucky decks.","69","","instructions","2021-04-17 16:06:38.742","","","","","",""
"casino-keyboard-response","26","147855","0.0-16.0-0.4","236","false","img/card_backs/set1/green.gif","img/card_backs/set1/purple.gif","img/card_backs/set1/yellow.gif","img/card_backs/set1/red.gif","img/card_backs/set2/blue.gif","img/card_backs/set2/pink.gif","img/card_backs/set2/gray.gif","img/card_backs/set2/orange.gif","""event"",""trial"",""time""
""fullscreenenter"",""1"",""4233""
","
","
","""event"",""trial"",""time""
""fullscreenenter"",""1"",""4233""
","
","","7229.310000009718","You should try to figure out which decks are lucky. </br> Then, try to choose the lucky decks so you can win the most tokens.","87","","instructions","2021-04-17 16:06:45.973","","","","","",""
"casino-keyboard-response","27","158994","0.0-16.0-0.5","236","false","img/card_backs/set1/green.gif","img/card_backs/set1/purple.gif","img/card_backs/set1/yellow.gif","img/card_backs/set1/red.gif","img/card_backs/set2/blue.gif","img/card_backs/set2/pink.gif","img/card_backs/set2/gray.gif","img/card_backs/set2/orange.gif","""event"",""trial"",""time""
""fullscreenenter"",""1"",""4233""
","
","
","""event"",""trial"",""time""
""fullscreenenter"",""1"",""4233""
","
","","11137.770000001183","To make it trickier, the casino dealer will switch the locations of the decks on every turn. </br> The color of the deck determines how lucky it is. The location does not matter.","88","","instructions","2021-04-17 16:06:57.112","","","","","",""
"casino-keyboard-response","28","168586","0.0-16.0-0.6","236","false","img/card_backs/set1/green.gif","img/card_backs/set1/purple.gif","img/card_backs/set1/yellow.gif","img/card_backs/set1/red.gif","img/card_backs/set2/blue.gif","img/card_backs/set2/pink.gif","img/card_backs/set2/gray.gif","img/card_backs/set2/orange.gif","""event"",""trial"",""time""
""fullscreenenter"",""1"",""4233""
","
","
","""event"",""trial"",""time""
""fullscreenenter"",""1"",""4233""
","
","","9590.400000000955","The mix of cards in each colored deck will stay the same throughout the game. </br> That means that a deck that is lucky early on will stay lucky.","79","","instructions","2021-04-17 16:07:06.704","","","","","",""
"casino-keyboard-response","29","177193","0.0-16.0-0.7","236","false","img/card_backs/set1/green.gif","img/card_backs/set1/purple.gif","img/card_backs/set1/yellow.gif","img/card_backs/set1/red.gif","img/card_backs/set2/blue.gif","img/card_backs/set2/pink.gif","img/card_backs/set2/gray.gif","img/card_backs/set2/orange.gif","""event"",""trial"",""time""
""fullscreenenter"",""1"",""4233""
","
","
","""event"",""trial"",""time""
""fullscreenenter"",""1"",""4233""
","
","","8604.364999991958","Remember though, all the decks have a <b> mix </b> of both <b> good </b> and <b> bad </b> cards so it may take a couple of turns to figure out if a deck is lucky.","69","","instructions","2021-04-17 16:07:15.311","","","","","",""
"casino-keyboard-response","30","185560","0.0-16.0-0.8","236","false","img/card_backs/set1/green.gif","img/card_backs/set1/purple.gif","img/card_backs/set1/yellow.gif","img/card_backs/set1/red.gif","img/card_backs/set2/blue.gif","img/card_backs/set2/pink.gif","img/card_backs/set2/gray.gif","img/card_backs/set2/orange.gif","""event"",""trial"",""time""
""fullscreenenter"",""1"",""4233""
","
","
","""event"",""trial"",""time""
""fullscreenenter"",""1"",""4233""
","
","","8365.950000006706","At the end of the game, you will be paid bonus money based on how many tokens you win. </br> If you win more tokens, you will earn more money!","72","","instructions","2021-04-17 16:07:23.678","","","","","",""
"casino-keyboard-response","31","196012","0.0-16.0-0.9","236","false","img/card_backs/set1/green.gif","img/card_backs/set1/purple.gif","img/card_backs/set1/yellow.gif","img/card_backs/set1/red.gif","img/card_backs/set2/blue.gif","img/card_backs/set2/pink.gif","img/card_backs/set2/gray.gif","img/card_backs/set2/orange.gif","""event"",""trial"",""time""
""fullscreenenter"",""1"",""4233""
","
","
","""event"",""trial"",""time""
""fullscreenenter"",""1"",""4233""
","
","","10450.8050000004","You will never <b> lose </b> money. </br> If you end up with fewer than 0 tokens, you will earn $0 of bonus money, but you will still be paid for playing the game.","83","","instructions","2021-04-17 16:07:34.131","","","","","",""
"casino-keyboard-response","32","200574","0.0-16.0-0.10","236","false","img/card_backs/set1/green.gif","img/card_backs/set1/purple.gif","img/card_backs/set1/yellow.gif","img/card_backs/set1/red.gif","img/card_backs/set2/blue.gif","img/card_backs/set2/pink.gif","img/card_backs/set2/gray.gif","img/card_backs/set2/orange.gif","""event"",""trial"",""time""
""fullscreenenter"",""1"",""4233""
","
","
","""event"",""trial"",""time""
""fullscreenenter"",""1"",""4233""
","
","","4559.9549999897135","You will have 10 seconds to make each choice.","82","","instructions","2021-04-17 16:07:38.692","","","","","",""
"casino-keyboard-response","33","208923","0.0-16.0-0.11","236","false","img/card_backs/set1/green.gif","img/card_backs/set1/purple.gif","img/card_backs/set1/yellow.gif","img/card_backs/set1/red.gif","img/card_backs/set2/blue.gif","img/card_backs/set2/pink.gif","img/card_backs/set2/gray.gif","img/card_backs/set2/orange.gif","""event"",""trial"",""time""
""fullscreenenter"",""1"",""4233""
","
","
","""event"",""trial"",""time""
""fullscreenenter"",""1"",""4233""
","
","","8345.629999996163","Before you play the game for real, you will play with practice decks. </br> The tokens you earn during practice won't count toward your total.","86","","instructions","2021-04-17 16:07:47.041","","","","","",""
"casino-keyboard-response","34","220573","0.0-16.0-0.12","236","false","img/card_backs/set1/green.gif","img/card_backs/set1/purple.gif","img/card_backs/set1/yellow.gif","img/card_backs/set1/red.gif","img/card_backs/set2/blue.gif","img/card_backs/set2/pink.gif","img/card_backs/set2/gray.gif","img/card_backs/set2/orange.gif","""event"",""trial"",""time""
""fullscreenenter"",""1"",""4233""
","
","
","""event"",""trial"",""time""
""fullscreenenter"",""1"",""4233""
","
","","11648.150000008172","Ready? Remember, use the '2', '4', '6', and '8' keys to select the decks. </br> Put your fingers on those keys now and then press '2' to begin.","50","","instructions","2021-04-17 16:07:58.691","","","","","",""
"casino-fixation","35","221088","0.0-17.0-0.0","236","false","img/card_backs/set1/green.gif","img/card_backs/set1/purple.gif","img/card_backs/set1/yellow.gif","img/card_backs/set1/red.gif","img/card_backs/set2/blue.gif","img/card_backs/set2/pink.gif","img/card_backs/set2/gray.gif","img/card_backs/set2/orange.gif","""event"",""trial"",""time""
""fullscreenenter"",""1"",""4233""
","
","
","""event"",""trial"",""time""
""fullscreenenter"",""1"",""4233""
","
","","null","","null","","fixation","2021-04-17 16:07:59.206","","","","","",""
"card-selection-trial","36","224325","0.0-17.0-1.0","236","false","img/card_backs/set1/green.gif","img/card_backs/set1/purple.gif","img/card_backs/set1/yellow.gif","img/card_backs/set1/red.gif","img/card_backs/set2/blue.gif","img/card_backs/set2/pink.gif","img/card_backs/set2/gray.gif","img/card_backs/set2/orange.gif","""event"",""trial"",""time""
""fullscreenenter"",""1"",""4233""
","
","
","""event"",""trial"",""time""
""fullscreenenter"",""1"",""4233""
","
","","1220.1199999981327","","","","practice","2021-04-17 16:08:02.443","img/practice_cards/backs/brown.gif","0","-100","0","",""
"casino-fixation","37","224841","0.0-17.0-0.1","236","false","img/card_backs/set1/green.gif","img/card_backs/set1/purple.gif","img/card_backs/set1/yellow.gif","img/card_backs/set1/red.gif","img/card_backs/set2/blue.gif","img/card_backs/set2/pink.gif","img/card_backs/set2/gray.gif","img/card_backs/set2/orange.gif","""event"",""trial"",""time""
""fullscreenenter"",""1"",""4233""
","
","
","""event"",""trial"",""time""
""fullscreenenter"",""1"",""4233""
","
","","null","","null","","fixation","2021-04-17 16:08:02.959","","","","","",""
"card-selection-trial","38","227634","0.0-17.0-1.1","236","false","img/card_backs/set1/green.gif","img/card_backs/set1/purple.gif","img/card_backs/set1/yellow.gif","img/card_backs/set1/red.gif","img/card_backs/set2/blue.gif","img/card_backs/set2/pink.gif","img/card_backs/set2/gray.gif","img/card_backs/set2/orange.gif","""event"",""trial"",""time""
""fullscreenenter"",""1"",""4233""
","
","
","""event"",""trial"",""time""
""fullscreenenter"",""1"",""4233""
","
","","781.5750000008848","","","","practice","2021-04-17 16:08:05.752","img/practice_cards/backs/black.gif","0","-100","0","",""
"casino-fixation","39","228140","0.0-17.0-0.2","236","false","img/card_backs/set1/green.gif","img/card_backs/set1/purple.gif","img/card_backs/set1/yellow.gif","img/card_backs/set1/red.gif","img/card_backs/set2/blue.gif","img/card_backs/set2/pink.gif","img/card_backs/set2/gray.gif","img/card_backs/set2/orange.gif","""event"",""trial"",""time""
""fullscreenenter"",""1"",""4233""
","
","
","""event"",""trial"",""time""
""fullscreenenter"",""1"",""4233""
","
","","null","","null","","fixation","2021-04-17 16:08:06.258","","","","","",""
"card-selection-trial","40","230917","0.0-17.0-1.2","236","false","img/card_backs/set1/green.gif","img/card_backs/set1/purple.gif","img/card_backs/set1/yellow.gif","img/card_backs/set1/red.gif","img/card_backs/set2/blue.gif","img/card_backs/set2/pink.gif","img/card_backs/set2/gray.gif","img/card_backs/set2/orange.gif","""event"",""trial"",""time""
""fullscreenenter"",""1"",""4233""
","
","
","""event"",""trial"",""time""
""fullscreenenter"",""1"",""4233""
","
","","757.7949999977136","","","","practice","2021-04-17 16:08:09.035","img/practice_cards/backs/dark_green.gif","0","200","0","",""
"casino-fixation","41","231433","0.0-17.0-0.3","236","false","img/card_backs/set1/green.gif","img/card_backs/set1/purple.gif","img/card_backs/set1/yellow.gif","img/card_backs/set1/red.gif","img/card_backs/set2/blue.gif","img/card_backs/set2/pink.gif","img/card_backs/set2/gray.gif","img/card_backs/set2/orange.gif","""event"",""trial"",""time""
""fullscreenenter"",""1"",""4233""
","
","
","""event"",""trial"",""time""
""fullscreenenter"",""1"",""4233""
","
","","null","","null","","fixation","2021-04-17 16:08:09.551","","","","","",""
"card-selection-trial","42","234103","0.0-17.0-1.3","236","false","img/card_backs/set1/green.gif","img/card_backs/set1/purple.gif","img/card_backs/set1/yellow.gif","img/card_backs/set1/red.gif","img/card_backs/set2/blue.gif","img/card_backs/set2/pink.gif","img/card_backs/set2/gray.gif","img/card_backs/set2/orange.gif","""event"",""trial"",""time""
""fullscreenenter"",""1"",""4233""
","
","
","""event"",""trial"",""time""
""fullscreenenter"",""1"",""4233""
","
","","661.6599999979371","","","","practice","2021-04-17 16:08:12.221","img/practice_cards/backs/dark_green.gif","0","-200","0","",""
"casino-fixation","43","234607","0.0-17.0-0.4","236","false","img/card_backs/set1/green.gif","img/card_backs/set1/purple.gif","img/card_backs/set1/yellow.gif","img/card_backs/set1/red.gif","img/card_backs/set2/blue.gif","img/card_backs/set2/pink.gif","img/card_backs/set2/gray.gif","img/card_backs/set2/orange.gif","""event"",""trial"",""time""
""fullscreenenter"",""1"",""4233""
","
","
","""event"",""trial"",""time""
""fullscreenenter"",""1"",""4233""
","
","","null","","null","","fixation","2021-04-17 16:08:12.725","","","","","",""
"card-selection-trial","44","237274","0.0-17.0-1.4","236","false","img/card_backs/set1/green.gif","img/card_backs/set1/purple.gif","img/card_backs/set1/yellow.gif","img/card_backs/set1/red.gif","img/card_backs/set2/blue.gif","img/card_backs/set2/pink.gif","img/card_backs/set2/gray.gif","img/card_backs/set2/orange.gif","""event"",""trial"",""time""
""fullscreenenter"",""1"",""4233""
","
","
","""event"",""trial"",""time""
""fullscreenenter"",""1"",""4233""
","
","","644.3850000068778","","","","practice","2021-04-17 16:08:15.392","img/practice_cards/backs/black.gif","1","100","0","",""
"casino-fixation","45","237783","0.0-17.0-0.5","236","false","img/card_backs/set1/green.gif","img/card_backs/set1/purple.gif","img/card_backs/set1/yellow.gif","img/card_backs/set1/red.gif","img/card_backs/set2/blue.gif","img/card_backs/set2/pink.gif","img/card_backs/set2/gray.gif","img/card_backs/set2/orange.gif","""event"",""trial"",""time""
""fullscreenenter"",""1"",""4233""
","
","
","""event"",""trial"",""time""
""fullscreenenter"",""1"",""4233""
","
","","null","","null","","fixation","2021-04-17 16:08:15.901","","","","","",""
"card-selection-trial","46","240240","0.0-17.0-1.5","236","false","img/card_backs/set1/green.gif","img/card_backs/set1/purple.gif","img/card_backs/set1/yellow.gif","img/card_backs/set1/red.gif","img/card_backs/set2/blue.gif","img/card_backs/set2/pink.gif","img/card_backs/set2/gray.gif","img/card_backs/set2/orange.gif","""event"",""trial"",""time""
""fullscreenenter"",""1"",""4233""
","
","
","""event"",""trial"",""time""
""fullscreenenter"",""1"",""4233""
","
","","447.37999999779277","","","","practice","2021-04-17 16:08:18.358","img/practice_cards/backs/dark_green.gif","1","-200","0","",""
"casino-fixation","47","240754","0.0-17.0-0.6","236","false","img/card_backs/set1/green.gif","img/card_backs/set1/purple.gif","img/card_backs/set1/yellow.gif","img/card_backs/set1/red.gif","img/card_backs/set2/blue.gif","img/card_backs/set2/pink.gif","img/card_backs/set2/gray.gif","img/card_backs/set2/orange.gif","""event"",""trial"",""time""
""fullscreenenter"",""1"",""4233""
","
","
","""event"",""trial"",""time""
""fullscreenenter"",""1"",""4233""
","
","","null","","null","","fixation","2021-04-17 16:08:18.872","","","","","",""
"card-selection-trial","48","243274","0.0-17.0-1.6","236","false","img/card_backs/set1/green.gif","img/card_backs/set1/purple.gif","img/card_backs/set1/yellow.gif","img/card_backs/set1/red.gif","img/card_backs/set2/blue.gif","img/card_backs/set2/pink.gif","img/card_backs/set2/gray.gif","img/card_backs/set2/orange.gif","""event"",""trial"",""time""
""fullscreenenter"",""1"",""4233""
","
","
","""event"",""trial"",""time""
""fullscreenenter"",""1"",""4233""
","
","","512.7850000135368","","","","practice","2021-04-17 16:08:21.392","img/practice_cards/backs/black.gif","1","100","0","",""
"casino-fixation","49","243793","0.0-17.0-0.7","236","false","img/card_backs/set1/green.gif","img/card_backs/set1/purple.gif","img/card_backs/set1/yellow.gif","img/card_backs/set1/red.gif","img/card_backs/set2/blue.gif","img/card_backs/set2/pink.gif","img/card_backs/set2/gray.gif","img/card_backs/set2/orange.gif","""event"",""trial"",""time""
""fullscreenenter"",""1"",""4233""
","
","
","""event"",""trial"",""time""
""fullscreenenter"",""1"",""4233""
","
","","null","","null","","fixation","2021-04-17 16:08:21.911","","","","","",""
"card-selection-trial","50","246274","0.0-17.0-1.7","236","false","img/card_backs/set1/green.gif","img/card_backs/set1/purple.gif","img/card_backs/set1/yellow.gif","img/card_backs/set1/red.gif","img/card_backs/set2/blue.gif","img/card_backs/set2/pink.gif","img/card_backs/set2/gray.gif","img/card_backs/set2/orange.gif","""event"",""trial"",""time""
""fullscreenenter"",""1"",""4233""
","
","
","""event"",""trial"",""time""
""fullscreenenter"",""1"",""4233""
","
","","461.48499999253545","","","","practice","2021-04-17 16:08:24.392","img/practice_cards/backs/dark_blue.gif","1","-200","0","",""
"casino-fixation","51","246793","0.0-17.0-0.8","236","false","img/card_backs/set1/green.gif","img/card_backs/set1/purple.gif","img/card_backs/set1/yellow.gif","img/card_backs/set1/red.gif","img/card_backs/set2/blue.gif","img/card_backs/set2/pink.gif","img/card_backs/set2/gray.gif","img/card_backs/set2/orange.gif","""event"",""trial"",""time""
""fullscreenenter"",""1"",""4233""
","
","
","""event"",""trial"",""time""
""fullscreenenter"",""1"",""4233""
","
","","null","","null","","fixation","2021-04-17 16:08:24.911","","","","","",""
"card-selection-trial","52","249903","0.0-17.0-1.8","236","false","img/card_backs/set1/green.gif","img/card_backs/set1/purple.gif","img/card_backs/set1/yellow.gif","img/card_backs/set1/red.gif","img/card_backs/set2/blue.gif","img/card_backs/set2/pink.gif","img/card_backs/set2/gray.gif","img/card_backs/set2/orange.gif","""event"",""trial"",""time""
""fullscreenenter"",""1"",""4233""
","
","
","""event"",""trial"",""time""
""fullscreenenter"",""1"",""4233""
","
","","1093.5750000062399","","","","practice","2021-04-17 16:08:28.021","img/practice_cards/backs/dark_blue.gif","2","200","0","",""
"casino-fixation","53","250405","0.0-17.0-0.9","236","false","img/card_backs/set1/green.gif","img/card_backs/set1/purple.gif","img/card_backs/set1/yellow.gif","img/card_backs/set1/red.gif","img/card_backs/set2/blue.gif","img/card_backs/set2/pink.gif","img/card_backs/set2/gray.gif","img/card_backs/set2/orange.gif","""event"",""trial"",""time""
""fullscreenenter"",""1"",""4233""
","
","
","""event"",""trial"",""time""
""fullscreenenter"",""1"",""4233""
","
","","null","","null","","fixation","2021-04-17 16:08:28.524","","","","","",""
"card-selection-trial","54","252854","0.0-17.0-1.9","236","false","img/card_backs/set1/green.gif","img/card_backs/set1/purple.gif","img/card_backs/set1/yellow.gif","img/card_backs/set1/red.gif","img/card_backs/set2/blue.gif","img/card_backs/set2/pink.gif","img/card_backs/set2/gray.gif","img/card_backs/set2/orange.gif","""event"",""trial"",""time""
""fullscreenenter"",""1"",""4233""
","
","
","""event"",""trial"",""time""
""fullscreenenter"",""1"",""4233""
","
","","444.85999998869374","","","","practice","2021-04-17 16:08:30.973","img/practice_cards/backs/black.gif","2","100","0","",""
"casino-keyboard-response","55","256377","0.0-18.0","236","false","img/card_backs/set1/green.gif","img/card_backs/set1/purple.gif","img/card_backs/set1/yellow.gif","img/card_backs/set1/red.gif","img/card_backs/set2/blue.gif","img/card_backs/set2/pink.gif","img/card_backs/set2/gray.gif","img/card_backs/set2/orange.gif","""event"",""trial"",""time""
""fullscreenenter"",""1"",""4233""
","
","
","""event"",""trial"",""time""
""fullscreenenter"",""1"",""4233""
","
","","3521.34500000102","You earned -100 tokens during the practice round!","82","","","2021-04-17 16:08:34.495","","","","","",""
"casino-keyboard-response","56","260706","0.0-19.0-0.0","236","false","img/card_backs/set1/green.gif","img/card_backs/set1/purple.gif","img/card_backs/set1/yellow.gif","img/card_backs/set1/red.gif","img/card_backs/set2/blue.gif","img/card_backs/set2/pink.gif","img/card_backs/set2/gray.gif","img/card_backs/set2/orange.gif","""event"",""trial"",""time""
""fullscreenenter"",""1"",""4233""
","
","
","""event"",""trial"",""time""
""fullscreenenter"",""1"",""4233""
","
","","4327.944999997271","Nice job! You are almost ready to play the real game.","86","","instructions","2021-04-17 16:08:38.824","","","","","",""
"casino-keyboard-response","57","267385","0.0-19.0-0.1","236","false","img/card_backs/set1/green.gif","img/card_backs/set1/purple.gif","img/card_backs/set1/yellow.gif","img/card_backs/set1/red.gif","img/card_backs/set2/blue.gif","img/card_backs/set2/pink.gif","img/card_backs/set2/gray.gif","img/card_backs/set2/orange.gif","""event"",""trial"",""time""
""fullscreenenter"",""1"",""4233""
","
","
","""event"",""trial"",""time""
""fullscreenenter"",""1"",""4233""
","
","","6677.349999998114","You will play two rounds of the real game. In each round, you will pick 100 cards in total.","73","","instructions","2021-04-17 16:08:45.503","","","","","",""
"casino-keyboard-response","58","272022","0.0-19.0-0.2","236","false","img/card_backs/set1/green.gif","img/card_backs/set1/purple.gif","img/card_backs/set1/yellow.gif","img/card_backs/set1/red.gif","img/card_backs/set2/blue.gif","img/card_backs/set2/pink.gif","img/card_backs/set2/gray.gif","img/card_backs/set2/orange.gif","""event"",""trial"",""time""
""fullscreenenter"",""1"",""4233""
","
","
","""event"",""trial"",""time""
""fullscreenenter"",""1"",""4233""
","
","","4634.969999999157","We are now going to ask you some questions about how the game works.","66","","instructions","2021-04-17 16:08:50.140","","","","","",""
"casino-keyboard-response","59","278150","0.0-19.0-0.3","236","false","img/card_backs/set1/green.gif","img/card_backs/set1/purple.gif","img/card_backs/set1/yellow.gif","img/card_backs/set1/red.gif","img/card_backs/set2/blue.gif","img/card_backs/set2/pink.gif","img/card_backs/set2/gray.gif","img/card_backs/set2/orange.gif","""event"",""trial"",""time""
""fullscreenenter"",""1"",""4233""
","
","
","""event"",""trial"",""time""
""fullscreenenter"",""1"",""4233""
","
","","6126.745000001392","Answer carefully. You will not be able to begin the game until you answer them correctly.","67","","instructions","2021-04-17 16:08:56.268","","","","","",""
"casino-comp_q","60","285615","0.0-20.0-0.0","236","false","img/card_backs/set1/green.gif","img/card_backs/set1/purple.gif","img/card_backs/set1/yellow.gif","img/card_backs/set1/red.gif","img/card_backs/set2/blue.gif","img/card_backs/set2/pink.gif","img/card_backs/set2/gray.gif","img/card_backs/set2/orange.gif","""event"",""trial"",""time""
""fullscreenenter"",""1"",""4233""
","
","
","""event"",""trial"",""time""
""fullscreenenter"",""1"",""4233""
","
","","7463.709999996354","True or False: All the decks have some cards that cause you to win tokens and some cards that cause you to lose tokens.","84","","","2021-04-17 16:09:03.733","","","","","",""
"casino-keyboard-response","61","290858","0.0-20.0-1.0","236","false","img/card_backs/set1/green.gif","img/card_backs/set1/purple.gif","img/card_backs/set1/yellow.gif","img/card_backs/set1/red.gif","img/card_backs/set2/blue.gif","img/card_backs/set2/pink.gif","img/card_backs/set2/gray.gif","img/card_backs/set2/orange.gif","""event"",""trial"",""time""
""fullscreenenter"",""1"",""4233""
","
","
","""event"",""trial"",""time""
""fullscreenenter"",""1"",""4233""
","
","","5241.620000000694","True is correct! All the decks have a mix of winning and losing cards.","77","","","2021-04-17 16:09:08.977","","","","","true",""
"casino-comp_q","62","296241","0.0-21.0-0.0","236","false","img/card_backs/set1/green.gif","img/card_backs/set1/purple.gif","img/card_backs/set1/yellow.gif","img/card_backs/set1/red.gif","img/card_backs/set2/blue.gif","img/card_backs/set2/pink.gif","img/card_backs/set2/gray.gif","img/card_backs/set2/orange.gif","""event"",""trial"",""time""
""fullscreenenter"",""1"",""4233""
","
","
","""event"",""trial"",""time""
""fullscreenenter"",""1"",""4233""
","
","","5380.120000001625","True or False: You will have as much time as you want to make your response.","70","","","2021-04-17 16:09:14.359","","","","","",""
"casino-keyboard-response","63","300892","0.0-21.0-1.0","236","false","img/card_backs/set1/green.gif","img/card_backs/set1/purple.gif","img/card_backs/set1/yellow.gif","img/card_backs/set1/red.gif","img/card_backs/set2/blue.gif","img/card_backs/set2/pink.gif","img/card_backs/set2/gray.gif","img/card_backs/set2/orange.gif","""event"",""trial"",""time""
""fullscreenenter"",""1"",""4233""
","
","
","""event"",""trial"",""time""
""fullscreenenter"",""1"",""4233""
","
","","4648.649999988265","False is correct! You will only have 10 seconds to make each choice.","75","","","2021-04-17 16:09:19.010","","","","","true",""
"casino-comp_q","64","305833","0.0-22.0-0.0","236","false","img/card_backs/set1/green.gif","img/card_backs/set1/purple.gif","img/card_backs/set1/yellow.gif","img/card_backs/set1/red.gif","img/card_backs/set2/blue.gif","img/card_backs/set2/pink.gif","img/card_backs/set2/gray.gif","img/card_backs/set2/orange.gif","""event"",""trial"",""time""
""fullscreenenter"",""1"",""4233""
","
","
","""event"",""trial"",""time""
""fullscreenenter"",""1"",""4233""
","
","","4939.574999996694","True or False: The location of the deck determines how lucky it is.","70","","","2021-04-17 16:09:23.951","","","","","",""
"casino-keyboard-response","65","310959","0.0-22.0-1.0","236","false","img/card_backs/set1/green.gif","img/card_backs/set1/purple.gif","img/card_backs/set1/yellow.gif","img/card_backs/set1/red.gif","img/card_backs/set2/blue.gif","img/card_backs/set2/pink.gif","img/card_backs/set2/gray.gif","img/card_backs/set2/orange.gif","""event"",""trial"",""time""
""fullscreenenter"",""1"",""4233""
","
","
","""event"",""trial"",""time""
""fullscreenenter"",""1"",""4233""
","
","","5124.669999990147","False is correct! The <i>color</i>  of the deck determines how lucky or unlucky it is.","68","","","2021-04-17 16:09:29.077","","","","","true",""
"casino-keyboard-response","66","316895","0.0-23.0-0.0","236","false","img/card_backs/set1/green.gif","img/card_backs/set1/purple.gif","img/card_backs/set1/yellow.gif","img/card_backs/set1/red.gif","img/card_backs/set2/blue.gif","img/card_backs/set2/pink.gif","img/card_backs/set2/gray.gif","img/card_backs/set2/orange.gif","""event"",""trial"",""time""
""fullscreenenter"",""1"",""4233""
","
","
","""event"",""trial"",""time""
""fullscreenenter"",""1"",""4233""
","
","","5933.935000008205","Great job! Now it's time to start the real game.","82","","instructions","2021-04-17 16:09:35.013","","","","","",""
"casino-keyboard-response","67","321972","0.0-23.0-0.1","236","false","img/card_backs/set1/green.gif","img/card_backs/set1/purple.gif","img/card_backs/set1/yellow.gif","img/card_backs/set1/red.gif","img/card_backs/set2/blue.gif","img/card_backs/set2/pink.gif","img/card_backs/set2/gray.gif","img/card_backs/set2/orange.gif","""event"",""trial"",""time""
""fullscreenenter"",""1"",""4233""
","
","
","""event"",""trial"",""time""
""fullscreenenter"",""1"",""4233""
","
","","5075.599999996484","Before we start, we're going to head into a new room of the casino.","86","","instructions","2021-04-17 16:09:40.090","","","","","",""
"casino-keyboard-response","68","328316","0.0-24.0-0.0","236","false","img/card_backs/set1/green.gif","img/card_backs/set1/purple.gif","img/card_backs/set1/yellow.gif","img/card_backs/set1/red.gif","img/card_backs/set2/blue.gif","img/card_backs/set2/pink.gif","img/card_backs/set2/gray.gif","img/card_backs/set2/orange.gif","""event"",""trial"",""time""
""fullscreenenter"",""1"",""4233""
","
","
","""event"",""trial"",""time""
""fullscreenenter"",""1"",""4233""
","
","","6343.319999999949","Here we are! The real game will use different cards, but the rules will be the same.","71","","instructions","2021-04-17 16:09:46.434","","","","","",""
"casino-keyboard-response","69","340777","0.0-24.0-0.1","236","false","img/card_backs/set1/green.gif","img/card_backs/set1/purple.gif","img/card_backs/set1/yellow.gif","img/card_backs/set1/red.gif","img/card_backs/set2/blue.gif","img/card_backs/set2/pink.gif","img/card_backs/set2/gray.gif","img/card_backs/set2/orange.gif","""event"",""trial"",""time""
""fullscreenenter"",""1"",""4233""
","
","
","""event"",""trial"",""time""
""fullscreenenter"",""1"",""4233""
","
","","12459.679999999935","Ready? Put your fingers over the '2', '4', 6', and '8' keys so you are ready to play the game. </br> Then press 2 to start.","50","","instructions","2021-04-17 16:09:58.895","","","","","",""
"casino-fixation","70","341289","0.0-25.0-0.0","236","false","img/card_backs/set1/green.gif","img/card_backs/set1/purple.gif","img/card_backs/set1/yellow.gif","img/card_backs/set1/red.gif","img/card_backs/set2/blue.gif","img/card_backs/set2/pink.gif","img/card_backs/set2/gray.gif","img/card_backs/set2/orange.gif","""event"",""trial"",""time""
""fullscreenenter"",""1"",""4233""
","
","
","""event"",""trial"",""time""
""fullscreenenter"",""1"",""4233""
","
","","null","","null","","fixation","2021-04-17 16:09:59.407","","","","","",""
"card-selection-trial","71","344210","0.0-25.0-1.0","236","false","img/card_backs/set1/green.gif","img/card_backs/set1/purple.gif","img/card_backs/set1/yellow.gif","img/card_backs/set1/red.gif","img/card_backs/set2/blue.gif","img/card_backs/set2/pink.gif","img/card_backs/set2/gray.gif","img/card_backs/set2/orange.gif","""event"",""trial"",""time""
""fullscreenenter"",""1"",""4233""
","
","
","""event"",""trial"",""time""
""fullscreenenter"",""1"",""4233""
","
","","912.5900000071852","","","","real_trial","2021-04-17 16:10:02.328","img/card_backs/set1/green.gif","0","-250","1","",""
"casino-fixation","72","344727","0.0-25.0-0.1","236","false","img/card_backs/set1/green.gif","img/card_backs/set1/purple.gif","img/card_backs/set1/yellow.gif","img/card_backs/set1/red.gif","img/card_backs/set2/blue.gif","img/card_backs/set2/pink.gif","img/card_backs/set2/gray.gif","img/card_backs/set2/orange.gif","""event"",""trial"",""time""
""fullscreenenter"",""1"",""4233""
","
","
","""event"",""trial"",""time""
""fullscreenenter"",""1"",""4233""
","
","","null","","null","","fixation","2021-04-17 16:10:02.845","","","","","",""
"card-selection-trial","73","347353","0.0-25.0-1.1","236","false","img/card_backs/set1/green.gif","img/card_backs/set1/purple.gif","img/card_backs/set1/yellow.gif","img/card_backs/set1/red.gif","img/card_backs/set2/blue.gif","img/card_backs/set2/pink.gif","img/card_backs/set2/gray.gif","img/card_backs/set2/orange.gif","""event"",""trial"",""time""
""fullscreenenter"",""1"",""4233""
","
","
","""event"",""trial"",""time""
""fullscreenenter"",""1"",""4233""
","
","","619.1749999998137","","","","real_trial","2021-04-17 16:10:05.471","img/card_backs/set1/green.gif","0","190","1","",""
"casino-fixation","74","347858","0.0-25.0-0.2","236","false","img/card_backs/set1/green.gif","img/card_backs/set1/purple.gif","img/card_backs/set1/yellow.gif","img/card_backs/set1/red.gif","img/card_backs/set2/blue.gif","img/card_backs/set2/pink.gif","img/card_backs/set2/gray.gif","img/card_backs/set2/orange.gif","""event"",""trial"",""time""
""fullscreenenter"",""1"",""4233""
","
","
","""event"",""trial"",""time""
""fullscreenenter"",""1"",""4233""
","
","","null","","null","","fixation","2021-04-17 16:10:05.976","","","","","",""
"card-selection-trial","75","350218","0.0-25.0-1.2","236","false","img/card_backs/set1/green.gif","img/card_backs/set1/purple.gif","img/card_backs/set1/yellow.gif","img/card_backs/set1/red.gif","img/card_backs/set2/blue.gif","img/card_backs/set2/pink.gif","img/card_backs/set2/gray.gif","img/card_backs/set2/orange.gif","""event"",""trial"",""time""
""fullscreenenter"",""1"",""4233""
","
","
","""event"",""trial"",""time""
""fullscreenenter"",""1"",""4233""
","
","","346.624999991036","","","","real_trial","2021-04-17 16:10:08.336","img/card_backs/set1/yellow.gif","0","-70","1","",""
"casino-fixation","76","350721","0.0-25.0-0.3","236","false","img/card_backs/set1/green.gif","img/card_backs/set1/purple.gif","img/card_backs/set1/yellow.gif","img/card_backs/set1/red.gif","img/card_backs/set2/blue.gif","img/card_backs/set2/pink.gif","img/card_backs/set2/gray.gif","img/card_backs/set2/orange.gif","""event"",""trial"",""time""
""fullscreenenter"",""1"",""4233""
","
","
","""event"",""trial"",""time""
""fullscreenenter"",""1"",""4233""
","
","","null","","null","","fixation","2021-04-17 16:10:08.839","","","","","",""
"card-selection-trial","77","353205","0.0-25.0-1.3","236","false","img/card_backs/set1/green.gif","img/card_backs/set1/purple.gif","img/card_backs/set1/yellow.gif","img/card_backs/set1/red.gif","img/card_backs/set2/blue.gif","img/card_backs/set2/pink.gif","img/card_backs/set2/gray.gif","img/card_backs/set2/orange.gif","""event"",""trial"",""time""
""fullscreenenter"",""1"",""4233""
","
","
","""event"",""trial"",""time""
""fullscreenenter"",""1"",""4233""
","
","","472.14500000700355","","","","real_trial","2021-04-17 16:10:11.323","img/card_backs/set1/red.gif","1","-60","1","",""
"casino-fixation","78","353721","0.0-25.0-0.4","236","false","img/card_backs/set1/green.gif","img/card_backs/set1/purple.gif","img/card_backs/set1/yellow.gif","img/card_backs/set1/red.gif","img/card_backs/set2/blue.gif","img/card_backs/set2/pink.gif","img/card_backs/set2/gray.gif","img/card_backs/set2/orange.gif","""event"",""trial"",""time""
""fullscreenenter"",""1"",""4233""
","
","
","""event"",""trial"",""time""
""fullscreenenter"",""1"",""4233""
","
","","null","","null","","fixation","2021-04-17 16:10:11.839","","","","","",""
"card-selection-trial","79","356188","0.0-25.0-1.4","236","false","img/card_backs/set1/green.gif","img/card_backs/set1/purple.gif","img/card_backs/set1/yellow.gif","img/card_backs/set1/red.gif","img/card_backs/set2/blue.gif","img/card_backs/set2/pink.gif","img/card_backs/set2/gray.gif","img/card_backs/set2/orange.gif","""event"",""trial"",""time""
""fullscreenenter"",""1"",""4233""
","
","
","""event"",""trial"",""time""
""fullscreenenter"",""1"",""4233""
","
","","448.8249999994878","","","","real_trial","2021-04-17 16:10:14.306","img/card_backs/set1/yellow.gif","1","-70","1","",""
"casino-fixation","80","356692","0.0-25.0-0.5","236","false","img/card_backs/set1/green.gif","img/card_backs/set1/purple.gif","img/card_backs/set1/yellow.gif","img/card_backs/set1/red.gif","img/card_backs/set2/blue.gif","img/card_backs/set2/pink.gif","img/card_backs/set2/gray.gif","img/card_backs/set2/orange.gif","""event"",""trial"",""time""
""fullscreenenter"",""1"",""4233""
","
","
","""event"",""trial"",""time""
""fullscreenenter"",""1"",""4233""
","
","","null","","null","","fixation","2021-04-17 16:10:14.810","","","","","",""
"card-selection-trial","81","359120","0.0-25.0-1.5","236","false","img/card_backs/set1/green.gif","img/card_backs/set1/purple.gif","img/card_backs/set1/yellow.gif","img/card_backs/set1/red.gif","img/card_backs/set2/blue.gif","img/card_backs/set2/pink.gif","img/card_backs/set2/gray.gif","img/card_backs/set2/orange.gif","""event"",""trial"",""time""
""fullscreenenter"",""1"",""4233""
","
","
","""event"",""trial"",""time""
""fullscreenenter"",""1"",""4233""
","
","","410.7100000110222","","","","real_trial","2021-04-17 16:10:17.238","img/card_backs/set1/yellow.gif","1","110","1","",""
"casino-fixation","82","359634","0.0-25.0-0.6","236","false","img/card_backs/set1/green.gif","img/card_backs/set1/purple.gif","img/card_backs/set1/yellow.gif","img/card_backs/set1/red.gif","img/card_backs/set2/blue.gif","img/card_backs/set2/pink.gif","img/card_backs/set2/gray.gif","img/card_backs/set2/orange.gif","""event"",""trial"",""time""
""fullscreenenter"",""1"",""4233""
","
","
","""event"",""trial"",""time""
""fullscreenenter"",""1"",""4233""
","
","","null","","null","","fixation","2021-04-17 16:10:17.753","","","","","",""
"card-selection-trial","83","362200","0.0-25.0-1.6","236","false","img/card_backs/set1/green.gif","img/card_backs/set1/purple.gif","img/card_backs/set1/yellow.gif","img/card_backs/set1/red.gif","img/card_backs/set2/blue.gif","img/card_backs/set2/pink.gif","img/card_backs/set2/gray.gif","img/card_backs/set2/orange.gif","""event"",""trial"",""time""
""fullscreenenter"",""1"",""4233""
","
","
","""event"",""trial"",""time""
""fullscreenenter"",""1"",""4233""
","
","","545.9050000063144","","","","real_trial","2021-04-17 16:10:20.318","img/card_backs/set1/green.gif","1","-250","1","",""
"casino-fixation","84","362703","0.0-25.0-0.7","236","false","img/card_backs/set1/green.gif","img/card_backs/set1/purple.gif","img/card_backs/set1/yellow.gif","img/card_backs/set1/red.gif","img/card_backs/set2/blue.gif","img/card_backs/set2/pink.gif","img/card_backs/set2/gray.gif","img/card_backs/set2/orange.gif","""event"",""trial"",""time""
""fullscreenenter"",""1"",""4233""
","
","
","""event"",""trial"",""time""
""fullscreenenter"",""1"",""4233""
","
","","null","","null","","fixation","2021-04-17 16:10:20.821","","","","","",""
"card-selection-trial","85","365103","0.0-25.0-1.7","236","false","img/card_backs/set1/green.gif","img/card_backs/set1/purple.gif","img/card_backs/set1/yellow.gif","img/card_backs/set1/red.gif","img/card_backs/set2/blue.gif","img/card_backs/set2/pink.gif","img/card_backs/set2/gray.gif","img/card_backs/set2/orange.gif","""event"",""trial"",""time""
""fullscreenenter"",""1"",""4233""
","
","
","""event"",""trial"",""time""
""fullscreenenter"",""1"",""4233""
","
","","394.3450000078883","","","","real_trial","2021-04-17 16:10:23.221","img/card_backs/set1/red.gif","2","120","1","",""
"casino-fixation","86","365610","0.0-25.0-0.8","236","false","img/card_backs/set1/green.gif","img/card_backs/set1/purple.gif","img/card_backs/set1/yellow.gif","img/card_backs/set1/red.gif","img/card_backs/set2/blue.gif","img/card_backs/set2/pink.gif","img/card_backs/set2/gray.gif","img/card_backs/set2/orange.gif","""event"",""trial"",""time""
""fullscreenenter"",""1"",""4233""
","
","
","""event"",""trial"",""time""
""fullscreenenter"",""1"",""4233""
","
","","null","","null","","fixation","2021-04-17 16:10:23.728","","","","","",""
"card-selection-trial","87","367943","0.0-25.0-1.8","236","false","img/card_backs/set1/green.gif","img/card_backs/set1/purple.gif","img/card_backs/set1/yellow.gif","img/card_backs/set1/red.gif","img/card_backs/set2/blue.gif","img/card_backs/set2/pink.gif","img/card_backs/set2/gray.gif","img/card_backs/set2/orange.gif","""event"",""trial"",""time""
""fullscreenenter"",""1"",""4233""
","
","
","""event"",""trial"",""time""
""fullscreenenter"",""1"",""4233""
","
","","329.1249999892898","","","","real_trial","2021-04-17 16:10:26.061","img/card_backs/set1/green.gif","2","200","1","",""
"casino-fixation","88","368444","0.0-25.0-0.9","236","false","img/card_backs/set1/green.gif","img/card_backs/set1/purple.gif","img/card_backs/set1/yellow.gif","img/card_backs/set1/red.gif","img/card_backs/set2/blue.gif","img/card_backs/set2/pink.gif","img/card_backs/set2/gray.gif","img/card_backs/set2/orange.gif","""event"",""trial"",""time""
""fullscreenenter"",""1"",""4233""
","
","
","""event"",""trial"",""time""
""fullscreenenter"",""1"",""4233""
","
","","null","","null","","fixation","2021-04-17 16:10:26.562","","","","","",""
"card-selection-trial","89","370895","0.0-25.0-1.9","236","false","img/card_backs/set1/green.gif","img/card_backs/set1/purple.gif","img/card_backs/set1/yellow.gif","img/card_backs/set1/red.gif","img/card_backs/set2/blue.gif","img/card_backs/set2/pink.gif","img/card_backs/set2/gray.gif","img/card_backs/set2/orange.gif","""event"",""trial"",""time""
""fullscreenenter"",""1"",""4233""
","
","
","""event"",""trial"",""time""
""fullscreenenter"",""1"",""4233""
","
","","446.7350000049919","","","","real_trial","2021-04-17 16:10:29.013","img/card_backs/set1/yellow.gif","2","-50","1","",""
"casino-fixation","90","371397","0.0-25.0-0.10","236","false","img/card_backs/set1/green.gif","img/card_backs/set1/purple.gif","img/card_backs/set1/yellow.gif","img/card_backs/set1/red.gif","img/card_backs/set2/blue.gif","img/card_backs/set2/pink.gif","img/card_backs/set2/gray.gif","img/card_backs/set2/orange.gif","""event"",""trial"",""time""
""fullscreenenter"",""1"",""4233""
","
","
","""event"",""trial"",""time""
""fullscreenenter"",""1"",""4233""
","
","","null","","null","","fixation","2021-04-17 16:10:29.515","","","","","",""
"card-selection-trial","91","373799","0.0-25.0-1.10","236","false","img/card_backs/set1/green.gif","img/card_backs/set1/purple.gif","img/card_backs/set1/yellow.gif","img/card_backs/set1/red.gif","img/card_backs/set2/blue.gif","img/card_backs/set2/pink.gif","img/card_backs/set2/gray.gif","img/card_backs/set2/orange.gif","""event"",""trial"",""time""
""fullscreenenter"",""1"",""4233""
","
","
","""event"",""trial"",""time""
""fullscreenenter"",""1"",""4233""
","
","","397.83499999612104","","","","real_trial","2021-04-17 16:10:31.917","img/card_backs/set1/yellow.gif","2","100","1","",""
"casino-fixation","92","374300","0.0-25.0-0.11","236","false","img/card_backs/set1/green.gif","img/card_backs/set1/purple.gif","img/card_backs/set1/yellow.gif","img/card_backs/set1/red.gif","img/card_backs/set2/blue.gif","img/card_backs/set2/pink.gif","img/card_backs/set2/gray.gif","img/card_backs/set2/orange.gif","""event"",""trial"",""time""
""fullscreenenter"",""1"",""4233""
","
","
","""event"",""trial"",""time""
""fullscreenenter"",""1"",""4233""
","
","","null","","null","","fixation","2021-04-17 16:10:32.418","","","","","",""
"card-selection-trial","93","376930","0.0-25.0-1.11","236","false","img/card_backs/set1/green.gif","img/card_backs/set1/purple.gif","img/card_backs/set1/yellow.gif","img/card_backs/set1/red.gif","img/card_backs/set2/blue.gif","img/card_backs/set2/pink.gif","img/card_backs/set2/gray.gif","img/card_backs/set2/orange.gif","""event"",""trial"",""time""
""fullscreenenter"",""1"",""4233""
","
","
","""event"",""trial"",""time""
""fullscreenenter"",""1"",""4233""
","
","","625.5200000014156","","","","real_trial","2021-04-17 16:10:35.048","img/card_backs/set1/red.gif","2","-50","1","",""
"casino-fixation","94","377432","0.0-25.0-0.12","236","false","img/card_backs/set1/green.gif","img/card_backs/set1/purple.gif","img/card_backs/set1/yellow.gif","img/card_backs/set1/red.gif","img/card_backs/set2/blue.gif","img/card_backs/set2/pink.gif","img/card_backs/set2/gray.gif","img/card_backs/set2/orange.gif","""event"",""trial"",""time""
""fullscreenenter"",""1"",""4233""
","
","
","""event"",""trial"",""time""
""fullscreenenter"",""1"",""4233""
","
","","null","","null","","fixation","2021-04-17 16:10:35.550","","","","","",""
"card-selection-trial","95","379659","0.0-25.0-1.12","236","false","img/card_backs/set1/green.gif","img/card_backs/set1/purple.gif","img/card_backs/set1/yellow.gif","img/card_backs/set1/red.gif","img/card_backs/set2/blue.gif","img/card_backs/set2/pink.gif","img/card_backs/set2/gray.gif","img/card_backs/set2/orange.gif","""event"",""trial"",""time""
""fullscreenenter"",""1"",""4233""
","
","
","""event"",""trial"",""time""
""fullscreenenter"",""1"",""4233""
","
","","221.26000000571366","","","","real_trial","2021-04-17 16:10:37.777","img/card_backs/set1/purple.gif","2","-250","1","",""
"casino-fixation","96","380160","0.0-25.0-0.13","236","false","img/card_backs/set1/green.gif","img/card_backs/set1/purple.gif","img/card_backs/set1/yellow.gif","img/card_backs/set1/red.gif","img/card_backs/set2/blue.gif","img/card_backs/set2/pink.gif","img/card_backs/set2/gray.gif","img/card_backs/set2/orange.gif","""event"",""trial"",""time""
""fullscreenenter"",""1"",""4233""
","
","
","""event"",""trial"",""time""
""fullscreenenter"",""1"",""4233""
","
","","null","","null","","fixation","2021-04-17 16:10:38.278","","","","","",""
"card-selection-trial","97","382545","0.0-25.0-1.13","236","false","img/card_backs/set1/green.gif","img/card_backs/set1/purple.gif","img/card_backs/set1/yellow.gif","img/card_backs/set1/red.gif","img/card_backs/set2/blue.gif","img/card_backs/set2/pink.gif","img/card_backs/set2/gray.gif","img/card_backs/set2/orange.gif","""event"",""trial"",""time""
""fullscreenenter"",""1"",""4233""
","
","
","""event"",""trial"",""time""
""fullscreenenter"",""1"",""4233""
","
","","380.64000000304077","","","","real_trial","2021-04-17 16:10:40.663","img/card_backs/set1/yellow.gif","3","100","1","",""
"casino-fixation","98","383047","0.0-25.0-0.14","236","false","img/card_backs/set1/green.gif","img/card_backs/set1/purple.gif","img/card_backs/set1/yellow.gif","img/card_backs/set1/red.gif","img/card_backs/set2/blue.gif","img/card_backs/set2/pink.gif","img/card_backs/set2/gray.gif","img/card_backs/set2/orange.gif","""event"",""trial"",""time""
""fullscreenenter"",""1"",""4233""
","
","
","""event"",""trial"",""time""
""fullscreenenter"",""1"",""4233""
","
","","null","","null","","fixation","2021-04-17 16:10:41.165","","","","","",""
"card-selection-trial","99","386370","0.0-25.0-1.14","236","false","img/card_backs/set1/green.gif","img/card_backs/set1/purple.gif","img/card_backs/set1/yellow.gif","img/card_backs/set1/red.gif","img/card_backs/set2/blue.gif","img/card_backs/set2/pink.gif","img/card_backs/set2/gray.gif","img/card_backs/set2/orange.gif","""event"",""trial"",""time""
""fullscreenenter"",""1"",""4233""
","
","
","""event"",""trial"",""time""
""fullscreenenter"",""1"",""4233""
","
","","1318.650000001071","","","","real_trial","2021-04-17 16:10:44.488","img/card_backs/set1/yellow.gif","0","-70","1","",""
"casino-fixation","100","386872","0.0-25.0-0.15","236","false","img/card_backs/set1/green.gif","img/card_backs/set1/purple.gif","img/card_backs/set1/yellow.gif","img/card_backs/set1/red.gif","img/card_backs/set2/blue.gif","img/card_backs/set2/pink.gif","img/card_backs/set2/gray.gif","img/card_backs/set2/orange.gif","""event"",""trial"",""time""
""fullscreenenter"",""1"",""4233""
","
","
","""event"",""trial"",""time""
""fullscreenenter"",""1"",""4233""
","
","","null","","null","","fixation","2021-04-17 16:10:44.990","","","","","",""
"card-selection-trial","101","391188","0.0-25.0-1.15","236","false","img/card_backs/set1/green.gif","img/card_backs/set1/purple.gif","img/card_backs/set1/yellow.gif","img/card_backs/set1/red.gif","img/card_backs/set2/blue.gif","img/card_backs/set2/pink.gif","img/card_backs/set2/gray.gif","img/card_backs/set2/orange.gif","""event"",""trial"",""time""
""fullscreenenter"",""1"",""4233""
","
","
","""event"",""trial"",""time""
""fullscreenenter"",""1"",""4233""
","
","","2311.260000002221","","","","real_trial","2021-04-17 16:10:49.306","img/card_backs/set1/yellow.gif","3","120","1","",""
"casino-fixation","102","391690","0.0-25.0-0.16","236","false","img/card_backs/set1/green.gif","img/card_backs/set1/purple.gif","img/card_backs/set1/yellow.gif","img/card_backs/set1/red.gif","img/card_backs/set2/blue.gif","img/card_backs/set2/pink.gif","img/card_backs/set2/gray.gif","img/card_backs/set2/orange.gif","""event"",""trial"",""time""
""fullscreenenter"",""1"",""4233""
","
","
","""event"",""trial"",""time""
""fullscreenenter"",""1"",""4233""
","
","","null","","null","","fixation","2021-04-17 16:10:49.808","","","","","",""
"card-selection-trial","103","394872","0.0-25.0-1.16","236","false","img/card_backs/set1/green.gif","img/card_backs/set1/purple.gif","img/card_backs/set1/yellow.gif","img/card_backs/set1/red.gif","img/card_backs/set2/blue.gif","img/card_backs/set2/pink.gif","img/card_backs/set2/gray.gif","img/card_backs/set2/orange.gif","""event"",""trial"",""time""
""fullscreenenter"",""1"",""4233""
","
","
","""event"",""trial"",""time""
""fullscreenenter"",""1"",""4233""
","
","","1177.640000008978","","","","real_trial","2021-04-17 16:10:52.991","img/card_backs/set1/yellow.gif","0","-70","1","",""
"casino-fixation","104","395374","0.0-25.0-0.17","236","false","img/card_backs/set1/green.gif","img/card_backs/set1/purple.gif","img/card_backs/set1/yellow.gif","img/card_backs/set1/red.gif","img/card_backs/set2/blue.gif","img/card_backs/set2/pink.gif","img/card_backs/set2/gray.gif","img/card_backs/set2/orange.gif","""event"",""trial"",""time""
""fullscreenenter"",""1"",""4233""
","
","
","""event"",""trial"",""time""
""fullscreenenter"",""1"",""4233""
","
","","null","","null","","fixation","2021-04-17 16:10:53.492","","","","","",""
"card-selection-trial","105","398813","0.0-25.0-1.17","236","false","img/card_backs/set1/green.gif","img/card_backs/set1/purple.gif","img/card_backs/set1/yellow.gif","img/card_backs/set1/red.gif","img/card_backs/set2/blue.gif","img/card_backs/set2/pink.gif","img/card_backs/set2/gray.gif","img/card_backs/set2/orange.gif","""event"",""trial"",""time""
""fullscreenenter"",""1"",""4233""
","
","
","""event"",""trial"",""time""
""fullscreenenter"",""1"",""4233""
","
","","1434.2800000013085","","","","real_trial","2021-04-17 16:10:56.931","img/card_backs/set1/yellow.gif","2","110","1","",""
"casino-fixation","106","399315","0.0-25.0-0.18","236","false","img/card_backs/set1/green.gif","img/card_backs/set1/purple.gif","img/card_backs/set1/yellow.gif","img/card_backs/set1/red.gif","img/card_backs/set2/blue.gif","img/card_backs/set2/pink.gif","img/card_backs/set2/gray.gif","img/card_backs/set2/orange.gif","""event"",""trial"",""time""
""fullscreenenter"",""1"",""4233""
","
","
","""event"",""trial"",""time""
""fullscreenenter"",""1"",""4233""
","
","","null","","null","","fixation","2021-04-17 16:10:57.433","","","","","",""
"card-selection-trial","107","403069","0.0-25.0-1.18","236","false","img/card_backs/set1/green.gif","img/card_backs/set1/purple.gif","img/card_backs/set1/yellow.gif","img/card_backs/set1/red.gif","img/card_backs/set2/blue.gif","img/card_backs/set2/pink.gif","img/card_backs/set2/gray.gif","img/card_backs/set2/orange.gif","""event"",""trial"",""time""
""fullscreenenter"",""1"",""4233""
","
","
","""event"",""trial"",""time""
""fullscreenenter"",""1"",""4233""
","
","","1748.6700000008568","","","","real_trial","2021-04-17 16:11:01.187","img/card_backs/set1/yellow.gif","2","-70","1","",""
"casino-fixation","108","403572","0.0-25.0-0.19","236","false","img/card_backs/set1/green.gif","img/card_backs/set1/purple.gif","img/card_backs/set1/yellow.gif","img/card_backs/set1/red.gif","img/card_backs/set2/blue.gif","img/card_backs/set2/pink.gif","img/card_backs/set2/gray.gif","img/card_backs/set2/orange.gif","""event"",""trial"",""time""
""fullscreenenter"",""1"",""4233""
","
","
","""event"",""trial"",""time""
""fullscreenenter"",""1"",""4233""
","
","","null","","null","","fixation","2021-04-17 16:11:01.690","","","","","",""
"card-selection-trial","109","406761","0.0-25.0-1.19","236","false","img/card_backs/set1/green.gif","img/card_backs/set1/purple.gif","img/card_backs/set1/yellow.gif","img/card_backs/set1/red.gif","img/card_backs/set2/blue.gif","img/card_backs/set2/pink.gif","img/card_backs/set2/gray.gif","img/card_backs/set2/orange.gif","""event"",""trial"",""time""
""fullscreenenter"",""1"",""4233""
","
","
","""event"",""trial"",""time""
""fullscreenenter"",""1"",""4233""
","
","","1185.0799999956507","","","","real_trial","2021-04-17 16:11:04.879","img/card_backs/set1/yellow.gif","1","-50","1","",""
"casino-fixation","110","407263","0.0-25.0-0.20","236","false","img/card_backs/set1/green.gif","img/card_backs/set1/purple.gif","img/card_backs/set1/yellow.gif","img/card_backs/set1/red.gif","img/card_backs/set2/blue.gif","img/card_backs/set2/pink.gif","img/card_backs/set2/gray.gif","img/card_backs/set2/orange.gif","""event"",""trial"",""time""
""fullscreenenter"",""1"",""4233""
","
","
","""event"",""trial"",""time""
""fullscreenenter"",""1"",""4233""
","
","","null","","null","","fixation","2021-04-17 16:11:05.381","","","","","",""
"card-selection-trial","111","410251","0.0-25.0-1.20","236","false","img/card_backs/set1/green.gif","img/card_backs/set1/purple.gif","img/card_backs/set1/yellow.gif","img/card_backs/set1/red.gif","img/card_backs/set2/blue.gif","img/card_backs/set2/pink.gif","img/card_backs/set2/gray.gif","img/card_backs/set2/orange.gif","""event"",""trial"",""time""
""fullscreenenter"",""1"",""4233""
","
","
","""event"",""trial"",""time""
""fullscreenenter"",""1"",""4233""
","
","","983.0150000052527","","","","real_trial","2021-04-17 16:11:08.369","img/card_backs/set1/yellow.gif","0","100","1","",""
"casino-fixation","112","410753","0.0-25.0-0.21","236","false","img/card_backs/set1/green.gif","img/card_backs/set1/purple.gif","img/card_backs/set1/yellow.gif","img/card_backs/set1/red.gif","img/card_backs/set2/blue.gif","img/card_backs/set2/pink.gif","img/card_backs/set2/gray.gif","img/card_backs/set2/orange.gif","""event"",""trial"",""time""
""fullscreenenter"",""1"",""4233""
","
","
","""event"",""trial"",""time""
""fullscreenenter"",""1"",""4233""
","
","","null","","null","","fixation","2021-04-17 16:11:08.871","","","","","",""
"card-selection-trial","113","413949","0.0-25.0-1.21","236","false","img/card_backs/set1/green.gif","img/card_backs/set1/purple.gif","img/card_backs/set1/yellow.gif","img/card_backs/set1/red.gif","img/card_backs/set2/blue.gif","img/card_backs/set2/pink.gif","img/card_backs/set2/gray.gif","img/card_backs/set2/orange.gif","""event"",""trial"",""time""
""fullscreenenter"",""1"",""4233""
","
","
","""event"",""trial"",""time""
""fullscreenenter"",""1"",""4233""
","
","","1191.89999999071","","","","real_trial","2021-04-17 16:11:12.067","img/card_backs/set1/yellow.gif","3","-50","1","",""
"casino-fixation","114","414451","0.0-25.0-0.22","236","false","img/card_backs/set1/green.gif","img/card_backs/set1/purple.gif","img/card_backs/set1/yellow.gif","img/card_backs/set1/red.gif","img/card_backs/set2/blue.gif","img/card_backs/set2/pink.gif","img/card_backs/set2/gray.gif","img/card_backs/set2/orange.gif","""event"",""trial"",""time""
""fullscreenenter"",""1"",""4233""
","
","
","""event"",""trial"",""time""
""fullscreenenter"",""1"",""4233""
","
","","null","","null","","fixation","2021-04-17 16:11:12.569","","","","","",""
"card-selection-trial","115","417696","0.0-25.0-1.22","236","false","img/card_backs/set1/green.gif","img/card_backs/set1/purple.gif","img/card_backs/set1/yellow.gif","img/card_backs/set1/red.gif","img/card_backs/set2/blue.gif","img/card_backs/set2/pink.gif","img/card_backs/set2/gray.gif","img/card_backs/set2/orange.gif","""event"",""trial"",""time""
""fullscreenenter"",""1"",""4233""
","
","
","""event"",""trial"",""time""
""fullscreenenter"",""1"",""4233""
","
","","1241.374999997788","","","","real_trial","2021-04-17 16:11:15.814","img/card_backs/set1/purple.gif","0","-230","1","",""
"casino-fixation","116","418199","0.0-25.0-0.23","236","false","img/card_backs/set1/green.gif","img/card_backs/set1/purple.gif","img/card_backs/set1/yellow.gif","img/card_backs/set1/red.gif","img/card_backs/set2/blue.gif","img/card_backs/set2/pink.gif","img/card_backs/set2/gray.gif","img/card_backs/set2/orange.gif","""event"",""trial"",""time""
""fullscreenenter"",""1"",""4233""
","
","
","""event"",""trial"",""time""
""fullscreenenter"",""1"",""4233""
","
","","null","","null","","fixation","2021-04-17 16:11:16.318","","","","","",""
"card-selection-trial","117","423409","0.0-25.0-1.23","236","false","img/card_backs/set1/green.gif","img/card_backs/set1/purple.gif","img/card_backs/set1/yellow.gif","img/card_backs/set1/red.gif","img/card_backs/set2/blue.gif","img/card_backs/set2/pink.gif","img/card_backs/set2/gray.gif","img/card_backs/set2/orange.gif","""event"",""trial"",""time""
""fullscreenenter"",""1"",""4233""
","
","
","""event"",""trial"",""time""
""fullscreenenter"",""1"",""4233""
","
","","3204.9450000049546","","","","real_trial","2021-04-17 16:11:21.527","img/card_backs/set1/purple.gif","2","190","1","",""
"casino-fixation","118","423911","0.0-25.0-0.24","236","false","img/card_backs/set1/green.gif","img/card_backs/set1/purple.gif","img/card_backs/set1/yellow.gif","img/card_backs/set1/red.gif","img/card_backs/set2/blue.gif","img/card_backs/set2/pink.gif","img/card_backs/set2/gray.gif","img/card_backs/set2/orange.gif","""event"",""trial"",""time""
""fullscreenenter"",""1"",""4233""
","
","
","""event"",""trial"",""time""
""fullscreenenter"",""1"",""4233""
","
","","null","","null","","fixation","2021-04-17 16:11:22.029","","","","","",""
"card-selection-trial","119","427064","0.0-25.0-1.24","236","false","img/card_backs/set1/green.gif","img/card_backs/set1/purple.gif","img/card_backs/set1/yellow.gif","img/card_backs/set1/red.gif","img/card_backs/set2/blue.gif","img/card_backs/set2/pink.gif","img/card_backs/set2/gray.gif","img/card_backs/set2/orange.gif","""event"",""trial"",""time""
""fullscreenenter"",""1"",""4233""
","
","
","""event"",""trial"",""time""
""fullscreenenter"",""1"",""4233""
","
","","1148.1499999936204","","","","real_trial","2021-04-17 16:11:25.182","img/card_backs/set1/purple.gif","3","-230","1","",""
"casino-fixation","120","427568","0.0-25.0-0.25","236","false","img/card_backs/set1/green.gif","img/card_backs/set1/purple.gif","img/card_backs/set1/yellow.gif","img/card_backs/set1/red.gif","img/card_backs/set2/blue.gif","img/card_backs/set2/pink.gif","img/card_backs/set2/gray.gif","img/card_backs/set2/orange.gif","""event"",""trial"",""time""
""fullscreenenter"",""1"",""4233""
","
","
","""event"",""trial"",""time""
""fullscreenenter"",""1"",""4233""
","
","","null","","null","","fixation","2021-04-17 16:11:25.686","","","","","",""
"card-selection-trial","121","431254","0.0-25.0-1.25","236","false","img/card_backs/set1/green.gif","img/card_backs/set1/purple.gif","img/card_backs/set1/yellow.gif","img/card_backs/set1/red.gif","img/card_backs/set2/blue.gif","img/card_backs/set2/pink.gif","img/card_backs/set2/gray.gif","img/card_backs/set2/orange.gif","""event"",""trial"",""time""
""fullscreenenter"",""1"",""4233""
","
","
","""event"",""trial"",""time""
""fullscreenenter"",""1"",""4233""
","
","","1681.9350000005215","","","","real_trial","2021-04-17 16:11:29.372","img/card_backs/set1/green.gif","0","-240","1","",""
"casino-fixation","122","431756","0.0-25.0-0.26","236","false","img/card_backs/set1/green.gif","img/card_backs/set1/purple.gif","img/card_backs/set1/yellow.gif","img/card_backs/set1/red.gif","img/card_backs/set2/blue.gif","img/card_backs/set2/pink.gif","img/card_backs/set2/gray.gif","img/card_backs/set2/orange.gif","""event"",""trial"",""time""
""fullscreenenter"",""1"",""4233""
","
","
","""event"",""trial"",""time""
""fullscreenenter"",""1"",""4233""
","
","","null","","null","","fixation","2021-04-17 16:11:29.875","","","","","",""
"card-selection-trial","123","435020","0.0-25.0-1.26","236","false","img/card_backs/set1/green.gif","img/card_backs/set1/purple.gif","img/card_backs/set1/yellow.gif","img/card_backs/set1/red.gif","img/card_backs/set2/blue.gif","img/card_backs/set2/pink.gif","img/card_backs/set2/gray.gif","img/card_backs/set2/orange.gif","""event"",""trial"",""time""
""fullscreenenter"",""1"",""4233""
","
","
","""event"",""trial"",""time""
""fullscreenenter"",""1"",""4233""
","
","","1259.009999994305","","","","real_trial","2021-04-17 16:11:33.138","img/card_backs/set1/green.gif","3","-250","1","",""
"casino-fixation","124","435522","0.0-25.0-0.27","236","false","img/card_backs/set1/green.gif","img/card_backs/set1/purple.gif","img/card_backs/set1/yellow.gif","img/card_backs/set1/red.gif","img/card_backs/set2/blue.gif","img/card_backs/set2/pink.gif","img/card_backs/set2/gray.gif","img/card_backs/set2/orange.gif","""event"",""trial"",""time""
""fullscreenenter"",""1"",""4233""
","
","
","""event"",""trial"",""time""
""fullscreenenter"",""1"",""4233""
","
","","null","","null","","fixation","2021-04-17 16:11:33.640","","","","","",""
"card-selection-trial","125","439434","0.0-25.0-1.27","236","false","img/card_backs/set1/green.gif","img/card_backs/set1/purple.gif","img/card_backs/set1/yellow.gif","img/card_backs/set1/red.gif","img/card_backs/set2/blue.gif","img/card_backs/set2/pink.gif","img/card_backs/set2/gray.gif","img/card_backs/set2/orange.gif","""event"",""trial"",""time""
""fullscreenenter"",""1"",""4233""
","
","
","""event"",""trial"",""time""
""fullscreenenter"",""1"",""4233""
","
","","1907.5850000081118","","","","real_trial","2021-04-17 16:11:37.552","img/card_backs/set1/red.gif","2","-60","1","",""
"casino-fixation","126","439936","0.0-25.0-0.28","236","false","img/card_backs/set1/green.gif","img/card_backs/set1/purple.gif","img/card_backs/set1/yellow.gif","img/card_backs/set1/red.gif","img/card_backs/set2/blue.gif","img/card_backs/set2/pink.gif","img/card_backs/set2/gray.gif","img/card_backs/set2/orange.gif","""event"",""trial"",""time""
""fullscreenenter"",""1"",""4233""
","
","
","""event"",""trial"",""time""
""fullscreenenter"",""1"",""4233""
","
","","null","","null","","fixation","2021-04-17 16:11:38.054","","","","","",""
"card-selection-trial","127","443238","0.0-25.0-1.28","236","false","img/card_backs/set1/green.gif","img/card_backs/set1/purple.gif","img/card_backs/set1/yellow.gif","img/card_backs/set1/red.gif","img/card_backs/set2/blue.gif","img/card_backs/set2/pink.gif","img/card_backs/set2/gray.gif","img/card_backs/set2/orange.gif","""event"",""trial"",""time""
""fullscreenenter"",""1"",""4233""
","
","
","""event"",""trial"",""time""
""fullscreenenter"",""1"",""4233""
","
","","1294.1499999869848","","","","real_trial","2021-04-17 16:11:41.356","img/card_backs/set1/red.gif","3","-70","1","",""
"casino-fixation","128","443740","0.0-25.0-0.29","236","false","img/card_backs/set1/green.gif","img/card_backs/set1/purple.gif","img/card_backs/set1/yellow.gif","img/card_backs/set1/red.gif","img/card_backs/set2/blue.gif","img/card_backs/set2/pink.gif","img/card_backs/set2/gray.gif","img/card_backs/set2/orange.gif","""event"",""trial"",""time""
""fullscreenenter"",""1"",""4233""
","
","
","""event"",""trial"",""time""
""fullscreenenter"",""1"",""4233""
","
","","null","","null","","fixation","2021-04-17 16:11:41.858","","","","","",""
"card-selection-trial","129","446937","0.0-25.0-1.29","236","false","img/card_backs/set1/green.gif","img/card_backs/set1/purple.gif","img/card_backs/set1/yellow.gif","img/card_backs/set1/red.gif","img/card_backs/set2/blue.gif","img/card_backs/set2/pink.gif","img/card_backs/set2/gray.gif","img/card_backs/set2/orange.gif","""event"",""trial"",""time""
""fullscreenenter"",""1"",""4233""
","
","
","""event"",""trial"",""time""
""fullscreenenter"",""1"",""4233""
","
","","1193.1000000040513","","","","real_trial","2021-04-17 16:11:45.055","img/card_backs/set1/red.gif","3","120","1","",""
"casino-fixation","130","447439","0.0-25.0-0.30","236","false","img/card_backs/set1/green.gif","img/card_backs/set1/purple.gif","img/card_backs/set1/yellow.gif","img/card_backs/set1/red.gif","img/card_backs/set2/blue.gif","img/card_backs/set2/pink.gif","img/card_backs/set2/gray.gif","img/card_backs/set2/orange.gif","""event"",""trial"",""time""
""fullscreenenter"",""1"",""4233""
","
","
","""event"",""trial"",""time""
""fullscreenenter"",""1"",""4233""
","
","","null","","null","","fixation","2021-04-17 16:11:45.557","","","","","",""
"card-selection-trial","131","450522","0.0-25.0-1.30","236","false","img/card_backs/set1/green.gif","img/card_backs/set1/purple.gif","img/card_backs/set1/yellow.gif","img/card_backs/set1/red.gif","img/card_backs/set2/blue.gif","img/card_backs/set2/pink.gif","img/card_backs/set2/gray.gif","img/card_backs/set2/orange.gif","""event"",""trial"",""time""
""fullscreenenter"",""1"",""4233""
","
","
","""event"",""trial"",""time""
""fullscreenenter"",""1"",""4233""
","
","","1078.3599999995204","","","","real_trial","2021-04-17 16:11:48.640","img/card_backs/set1/yellow.gif","2","100","1","",""
"casino-fixation","132","451024","0.0-25.0-0.31","236","false","img/card_backs/set1/green.gif","img/card_backs/set1/purple.gif","img/card_backs/set1/yellow.gif","img/card_backs/set1/red.gif","img/card_backs/set2/blue.gif","img/card_backs/set2/pink.gif","img/card_backs/set2/gray.gif","img/card_backs/set2/orange.gif","""event"",""trial"",""time""
""fullscreenenter"",""1"",""4233""
","
","
","""event"",""trial"",""time""
""fullscreenenter"",""1"",""4233""
","
","","null","","null","","fixation","2021-04-17 16:11:49.142","","","","","",""
"card-selection-trial","133","453956","0.0-25.0-1.31","236","false","img/card_backs/set1/green.gif","img/card_backs/set1/purple.gif","img/card_backs/set1/yellow.gif","img/card_backs/set1/red.gif","img/card_backs/set2/blue.gif","img/card_backs/set2/pink.gif","img/card_backs/set2/gray.gif","img/card_backs/set2/orange.gif","""event"",""trial"",""time""
""fullscreenenter"",""1"",""4233""
","
","
","""event"",""trial"",""time""
""fullscreenenter"",""1"",""4233""
","
","","927.479999998468","","","","real_trial","2021-04-17 16:11:52.074","img/card_backs/set1/yellow.gif","0","110","1","",""
"casino-fixation","134","454458","0.0-25.0-0.32","236","false","img/card_backs/set1/green.gif","img/card_backs/set1/purple.gif","img/card_backs/set1/yellow.gif","img/card_backs/set1/red.gif","img/card_backs/set2/blue.gif","img/card_backs/set2/pink.gif","img/card_backs/set2/gray.gif","img/card_backs/set2/orange.gif","""event"",""trial"",""time""
""fullscreenenter"",""1"",""4233""
","
","
","""event"",""trial"",""time""
""fullscreenenter"",""1"",""4233""
","
","","null","","null","","fixation","2021-04-17 16:11:52.576","","","","","",""
"card-selection-trial","135","457410","0.0-25.0-1.32","236","false","img/card_backs/set1/green.gif","img/card_backs/set1/purple.gif","img/card_backs/set1/yellow.gif","img/card_backs/set1/red.gif","img/card_backs/set2/blue.gif","img/card_backs/set2/pink.gif","img/card_backs/set2/gray.gif","img/card_backs/set2/orange.gif","""event"",""trial"",""time""
""fullscreenenter"",""1"",""4233""
","
","
","""event"",""trial"",""time""
""fullscreenenter"",""1"",""4233""
","
","","946.7850000073668","","","","real_trial","2021-04-17 16:11:55.528","img/card_backs/set1/yellow.gif","2","-70","1","",""
"casino-fixation","136","457912","0.0-25.0-0.33","236","false","img/card_backs/set1/green.gif","img/card_backs/set1/purple.gif","img/card_backs/set1/yellow.gif","img/card_backs/set1/red.gif","img/card_backs/set2/blue.gif","img/card_backs/set2/pink.gif","img/card_backs/set2/gray.gif","img/card_backs/set2/orange.gif","""event"",""trial"",""time""
""fullscreenenter"",""1"",""4233""
","
","
","""event"",""trial"",""time""
""fullscreenenter"",""1"",""4233""
","
","","null","","null","","fixation","2021-04-17 16:11:56.030","","","","","",""
"card-selection-trial","137","460868","0.0-25.0-1.33","236","false","img/card_backs/set1/green.gif","img/card_backs/set1/purple.gif","img/card_backs/set1/yellow.gif","img/card_backs/set1/red.gif","img/card_backs/set2/blue.gif","img/card_backs/set2/pink.gif","img/card_backs/set2/gray.gif","img/card_backs/set2/orange.gif","""event"",""trial"",""time""
""fullscreenenter"",""1"",""4233""
","
","
","""event"",""trial"",""time""
""fullscreenenter"",""1"",""4233""
","
","","950.8250000071712","","","","real_trial","2021-04-17 16:11:58.986","img/card_backs/set1/yellow.gif","3","-70","1","",""
"casino-fixation","138","461369","0.0-25.0-0.34","236","false","img/card_backs/set1/green.gif","img/card_backs/set1/purple.gif","img/card_backs/set1/yellow.gif","img/card_backs/set1/red.gif","img/card_backs/set2/blue.gif","img/card_backs/set2/pink.gif","img/card_backs/set2/gray.gif","img/card_backs/set2/orange.gif","""event"",""trial"",""time""
""fullscreenenter"",""1"",""4233""
","
","
","""event"",""trial"",""time""
""fullscreenenter"",""1"",""4233""
","
","","null","","null","","fixation","2021-04-17 16:11:59.487","","","","","",""
"card-selection-trial","139","464292","0.0-25.0-1.34","236","false","img/card_backs/set1/green.gif","img/card_backs/set1/purple.gif","img/card_backs/set1/yellow.gif","img/card_backs/set1/red.gif","img/card_backs/set2/blue.gif","img/card_backs/set2/pink.gif","img/card_backs/set2/gray.gif","img/card_backs/set2/orange.gif","""event"",""trial"",""time""
""fullscreenenter"",""1"",""4233""
","
","
","""event"",""trial"",""time""
""fullscreenenter"",""1"",""4233""
","
","","918.0599999963306","","","","real_trial","2021-04-17 16:12:02.410","img/card_backs/set1/yellow.gif","3","110","1","",""
"casino-fixation","140","464794","0.0-25.0-0.35","236","false","img/card_backs/set1/green.gif","img/card_backs/set1/purple.gif","img/card_backs/set1/yellow.gif","img/card_backs/set1/red.gif","img/card_backs/set2/blue.gif","img/card_backs/set2/pink.gif","img/card_backs/set2/gray.gif","img/card_backs/set2/orange.gif","""event"",""trial"",""time""
""fullscreenenter"",""1"",""4233""
","
","
","""event"",""trial"",""time""
""fullscreenenter"",""1"",""4233""
","
","","null","","null","","fixation","2021-04-17 16:12:02.914","","","","","",""
"card-selection-trial","141","467669","0.0-25.0-1.35","236","false","img/card_backs/set1/green.gif","img/card_backs/set1/purple.gif","img/card_backs/set1/yellow.gif","img/card_backs/set1/red.gif","img/card_backs/set2/blue.gif","img/card_backs/set2/pink.gif","img/card_backs/set2/gray.gif","img/card_backs/set2/orange.gif","""event"",""trial"",""time""
""fullscreenenter"",""1"",""4233""
","
","
","""event"",""trial"",""time""
""fullscreenenter"",""1"",""4233""
","
","","868.8299999921583","","","","real_trial","2021-04-17 16:12:05.787","img/card_backs/set1/yellow.gif","3","-60","1","",""
"casino-fixation","142","468171","0.0-25.0-0.36","236","false","img/card_backs/set1/green.gif","img/card_backs/set1/purple.gif","img/card_backs/set1/yellow.gif","img/card_backs/set1/red.gif","img/card_backs/set2/blue.gif","img/card_backs/set2/pink.gif","img/card_backs/set2/gray.gif","img/card_backs/set2/orange.gif","""event"",""trial"",""time""
""fullscreenenter"",""1"",""4233""
","
","
","""event"",""trial"",""time""
""fullscreenenter"",""1"",""4233""
","
","","null","","null","","fixation","2021-04-17 16:12:06.289","","","","","",""
"card-selection-trial","143","471134","0.0-25.0-1.36","236","false","img/card_backs/set1/green.gif","img/card_backs/set1/purple.gif","img/card_backs/set1/yellow.gif","img/card_backs/set1/red.gif","img/card_backs/set2/blue.gif","img/card_backs/set2/pink.gif","img/card_backs/set2/gray.gif","img/card_backs/set2/orange.gif","""event"",""trial"",""time""
""fullscreenenter"",""1"",""4233""
","
","
","""event"",""trial"",""time""
""fullscreenenter"",""1"",""4233""
","
","","958.135000008042","","","","real_trial","2021-04-17 16:12:09.252","img/card_backs/set1/yellow.gif","2","100","1","",""
"casino-fixation","144","471636","0.0-25.0-0.37","236","false","img/card_backs/set1/green.gif","img/card_backs/set1/purple.gif","img/card_backs/set1/yellow.gif","img/card_backs/set1/red.gif","img/card_backs/set2/blue.gif","img/card_backs/set2/pink.gif","img/card_backs/set2/gray.gif","img/card_backs/set2/orange.gif","""event"",""trial"",""time""
""fullscreenenter"",""1"",""4233""
","
","
","""event"",""trial"",""time""
""fullscreenenter"",""1"",""4233""
","
","","null","","null","","fixation","2021-04-17 16:12:09.754","","","","","",""
"card-selection-trial","145","474676","0.0-25.0-1.37","236","false","img/card_backs/set1/green.gif","img/card_backs/set1/purple.gif","img/card_backs/set1/yellow.gif","img/card_backs/set1/red.gif","img/card_backs/set2/blue.gif","img/card_backs/set2/pink.gif","img/card_backs/set2/gray.gif","img/card_backs/set2/orange.gif","""event"",""trial"",""time""
""fullscreenenter"",""1"",""4233""
","
","
","""event"",""trial"",""time""
""fullscreenenter"",""1"",""4233""
","
","","1035.2199999906588","","","","real_trial","2021-04-17 16:12:12.794","img/card_backs/set1/yellow.gif","3","100","1","",""
"casino-fixation","146","475178","0.0-25.0-0.38","236","false","img/card_backs/set1/green.gif","img/card_backs/set1/purple.gif","img/card_backs/set1/yellow.gif","img/card_backs/set1/red.gif","img/card_backs/set2/blue.gif","img/card_backs/set2/pink.gif","img/card_backs/set2/gray.gif","img/card_backs/set2/orange.gif","""event"",""trial"",""time""
""fullscreenenter"",""1"",""4233""
","
","
","""event"",""trial"",""time""
""fullscreenenter"",""1"",""4233""
","
","","null","","null","","fixation","2021-04-17 16:12:13.296","","","","","",""
"card-selection-trial","147","478268","0.0-25.0-1.38","236","false","img/card_backs/set1/green.gif","img/card_backs/set1/purple.gif","img/card_backs/set1/yellow.gif","img/card_backs/set1/red.gif","img/card_backs/set2/blue.gif","img/card_backs/set2/pink.gif","img/card_backs/set2/gray.gif","img/card_backs/set2/orange.gif","""event"",""trial"",""time""
""fullscreenenter"",""1"",""4233""
","
","
","""event"",""trial"",""time""
""fullscreenenter"",""1"",""4233""
","
","","1086.314999993192","","","","real_trial","2021-04-17 16:12:16.387","img/card_backs/set1/yellow.gif","0","100","1","",""
"casino-fixation","148","478770","0.0-25.0-0.39","236","false","img/card_backs/set1/green.gif","img/card_backs/set1/purple.gif","img/card_backs/set1/yellow.gif","img/card_backs/set1/red.gif","img/card_backs/set2/blue.gif","img/card_backs/set2/pink.gif","img/card_backs/set2/gray.gif","img/card_backs/set2/orange.gif","""event"",""trial"",""time""
""fullscreenenter"",""1"",""4233""
","
","
","""event"",""trial"",""time""
""fullscreenenter"",""1"",""4233""
","
","","null","","null","","fixation","2021-04-17 16:12:16.888","","","","","",""
"card-selection-trial","149","481540","0.0-25.0-1.39","236","false","img/card_backs/set1/green.gif","img/card_backs/set1/purple.gif","img/card_backs/set1/yellow.gif","img/card_backs/set1/red.gif","img/card_backs/set2/blue.gif","img/card_backs/set2/pink.gif","img/card_backs/set2/gray.gif","img/card_backs/set2/orange.gif","""event"",""trial"",""time""
""fullscreenenter"",""1"",""4233""
","
","
","""event"",""trial"",""time""
""fullscreenenter"",""1"",""4233""
","
","","765.4400000028545","","","","real_trial","2021-04-17 16:12:19.658","img/card_backs/set1/yellow.gif","0","110","1","",""
"casino-fixation","150","482042","0.0-25.0-0.40","236","false","img/card_backs/set1/green.gif","img/card_backs/set1/purple.gif","img/card_backs/set1/yellow.gif","img/card_backs/set1/red.gif","img/card_backs/set2/blue.gif","img/card_backs/set2/pink.gif","img/card_backs/set2/gray.gif","img/card_backs/set2/orange.gif","""event"",""trial"",""time""
""fullscreenenter"",""1"",""4233""
","
","
","""event"",""trial"",""time""
""fullscreenenter"",""1"",""4233""
","
","","null","","null","","fixation","2021-04-17 16:12:20.161","","","","","",""
"card-selection-trial","151","485060","0.0-25.0-1.40","236","false","img/card_backs/set1/green.gif","img/card_backs/set1/purple.gif","img/card_backs/set1/yellow.gif","img/card_backs/set1/red.gif","img/card_backs/set2/blue.gif","img/card_backs/set2/pink.gif","img/card_backs/set2/gray.gif","img/card_backs/set2/orange.gif","""event"",""trial"",""time""
""fullscreenenter"",""1"",""4233""
","
","
","""event"",""trial"",""time""
""fullscreenenter"",""1"",""4233""
","
","","1013.1750000000466","","","","real_trial","2021-04-17 16:12:23.178","img/card_backs/set1/yellow.gif","1","100","1","",""
"casino-fixation","152","485563","0.0-25.0-0.41","236","false","img/card_backs/set1/green.gif","img/card_backs/set1/purple.gif","img/card_backs/set1/yellow.gif","img/card_backs/set1/red.gif","img/card_backs/set2/blue.gif","img/card_backs/set2/pink.gif","img/card_backs/set2/gray.gif","img/card_backs/set2/orange.gif","""event"",""trial"",""time""
""fullscreenenter"",""1"",""4233""
","
","
","""event"",""trial"",""time""
""fullscreenenter"",""1"",""4233""
","
","","null","","null","","fixation","2021-04-17 16:12:23.681","","","","","",""
"card-selection-trial","153","488204","0.0-25.0-1.41","236","false","img/card_backs/set1/green.gif","img/card_backs/set1/purple.gif","img/card_backs/set1/yellow.gif","img/card_backs/set1/red.gif","img/card_backs/set2/blue.gif","img/card_backs/set2/pink.gif","img/card_backs/set2/gray.gif","img/card_backs/set2/orange.gif","""event"",""trial"",""time""
""fullscreenenter"",""1"",""4233""
","
","
","""event"",""trial"",""time""
""fullscreenenter"",""1"",""4233""
","
","","636.2850000004983","","","","real_trial","2021-04-17 16:12:26.322","img/card_backs/set1/yellow.gif","0","-50","1","",""
"casino-fixation","154","488705","0.0-25.0-0.42","236","false","img/card_backs/set1/green.gif","img/card_backs/set1/purple.gif","img/card_backs/set1/yellow.gif","img/card_backs/set1/red.gif","img/card_backs/set2/blue.gif","img/card_backs/set2/pink.gif","img/card_backs/set2/gray.gif","img/card_backs/set2/orange.gif","""event"",""trial"",""time""
""fullscreenenter"",""1"",""4233""
","
","
","""event"",""trial"",""time""
""fullscreenenter"",""1"",""4233""
","
","","null","","null","","fixation","2021-04-17 16:12:26.823","","","","","",""
"card-selection-trial","155","491454","0.0-25.0-1.42","236","false","img/card_backs/set1/green.gif","img/card_backs/set1/purple.gif","img/card_backs/set1/yellow.gif","img/card_backs/set1/red.gif","img/card_backs/set2/blue.gif","img/card_backs/set2/pink.gif","img/card_backs/set2/gray.gif","img/card_backs/set2/orange.gif","""event"",""trial"",""time""
""fullscreenenter"",""1"",""4233""
","
","
","""event"",""trial"",""time""
""fullscreenenter"",""1"",""4233""
","
","","743.6699999962002","","","","real_trial","2021-04-17 16:12:29.572","img/card_backs/set1/yellow.gif","1","-60","1","",""
"casino-fixation","156","491955","0.0-25.0-0.43","236","false","img/card_backs/set1/green.gif","img/card_backs/set1/purple.gif","img/card_backs/set1/yellow.gif","img/card_backs/set1/red.gif","img/card_backs/set2/blue.gif","img/card_backs/set2/pink.gif","img/card_backs/set2/gray.gif","img/card_backs/set2/orange.gif","""event"",""trial"",""time""
""fullscreenenter"",""1"",""4233""
","
","
","""event"",""trial"",""time""
""fullscreenenter"",""1"",""4233""
","
","","null","","null","","fixation","2021-04-17 16:12:30.073","","","","","",""
"card-selection-trial","157","494589","0.0-25.0-1.43","236","false","img/card_backs/set1/green.gif","img/card_backs/set1/purple.gif","img/card_backs/set1/yellow.gif","img/card_backs/set1/red.gif","img/card_backs/set2/blue.gif","img/card_backs/set2/pink.gif","img/card_backs/set2/gray.gif","img/card_backs/set2/orange.gif","""event"",""trial"",""time""
""fullscreenenter"",""1"",""4233""
","
","
","""event"",""trial"",""time""
""fullscreenenter"",""1"",""4233""
","
","","628.7299999967217","","","","real_trial","2021-04-17 16:12:32.707","img/card_backs/set1/yellow.gif","0","100","1","",""
"casino-fixation","158","495090","0.0-25.0-0.44","236","false","img/card_backs/set1/green.gif","img/card_backs/set1/purple.gif","img/card_backs/set1/yellow.gif","img/card_backs/set1/red.gif","img/card_backs/set2/blue.gif","img/card_backs/set2/pink.gif","img/card_backs/set2/gray.gif","img/card_backs/set2/orange.gif","""event"",""trial"",""time""
""fullscreenenter"",""1"",""4233""
","
","
","""event"",""trial"",""time""
""fullscreenenter"",""1"",""4233""
","
","","null","","null","","fixation","2021-04-17 16:12:33.209","","","","","",""
"card-selection-trial","159","498320","0.0-25.0-1.44","236","false","img/card_backs/set1/green.gif","img/card_backs/set1/purple.gif","img/card_backs/set1/yellow.gif","img/card_backs/set1/red.gif","img/card_backs/set2/blue.gif","img/card_backs/set2/pink.gif","img/card_backs/set2/gray.gif","img/card_backs/set2/orange.gif","""event"",""trial"",""time""
""fullscreenenter"",""1"",""4233""
","
","
","""event"",""trial"",""time""
""fullscreenenter"",""1"",""4233""
","
","","1225.044999999227","","","","real_trial","2021-04-17 16:12:36.438","img/card_backs/set1/yellow.gif","2","-70","1","",""
"casino-fixation","160","498829","0.0-25.0-0.45","236","false","img/card_backs/set1/green.gif","img/card_backs/set1/purple.gif","img/card_backs/set1/yellow.gif","img/card_backs/set1/red.gif","img/card_backs/set2/blue.gif","img/card_backs/set2/pink.gif","img/card_backs/set2/gray.gif","img/card_backs/set2/orange.gif","""event"",""trial"",""time""
""fullscreenenter"",""1"",""4233""
","
","
","""event"",""trial"",""time""
""fullscreenenter"",""1"",""4233""
","
","","null","","null","","fixation","2021-04-17 16:12:36.947","","","","","",""
"card-selection-trial","161","501267","0.0-25.0-1.45","236","false","img/card_backs/set1/green.gif","img/card_backs/set1/purple.gif","img/card_backs/set1/yellow.gif","img/card_backs/set1/red.gif","img/card_backs/set2/blue.gif","img/card_backs/set2/pink.gif","img/card_backs/set2/gray.gif","img/card_backs/set2/orange.gif","""event"",""trial"",""time""
""fullscreenenter"",""1"",""4233""
","
","
","""event"",""trial"",""time""
""fullscreenenter"",""1"",""4233""
","
","","432.2950000059791","","","","real_trial","2021-04-17 16:12:39.385","img/card_backs/set1/yellow.gif","3","100","1","",""
"casino-fixation","162","501768","0.0-25.0-0.46","236","false","img/card_backs/set1/green.gif","img/card_backs/set1/purple.gif","img/card_backs/set1/yellow.gif","img/card_backs/set1/red.gif","img/card_backs/set2/blue.gif","img/card_backs/set2/pink.gif","img/card_backs/set2/gray.gif","img/card_backs/set2/orange.gif","""event"",""trial"",""time""
""fullscreenenter"",""1"",""4233""
","
","
","""event"",""trial"",""time""
""fullscreenenter"",""1"",""4233""
","
","","null","","null","","fixation","2021-04-17 16:12:39.886","","","","","",""
"card-selection-trial","163","504206","0.0-25.0-1.46","236","false","img/card_backs/set1/green.gif","img/card_backs/set1/purple.gif","img/card_backs/set1/yellow.gif","img/card_backs/set1/red.gif","img/card_backs/set2/blue.gif","img/card_backs/set2/pink.gif","img/card_backs/set2/gray.gif","img/card_backs/set2/orange.gif","""event"",""trial"",""time""
""fullscreenenter"",""1"",""4233""
","
","
","""event"",""trial"",""time""
""fullscreenenter"",""1"",""4233""
","
","","433.4249999956228","","","","real_trial","2021-04-17 16:12:42.324","img/card_backs/set1/yellow.gif","3","-60","1","",""
"casino-fixation","164","504708","0.0-25.0-0.47","236","false","img/card_backs/set1/green.gif","img/card_backs/set1/purple.gif","img/card_backs/set1/yellow.gif","img/card_backs/set1/red.gif","img/card_backs/set2/blue.gif","img/card_backs/set2/pink.gif","img/card_backs/set2/gray.gif","img/card_backs/set2/orange.gif","""event"",""trial"",""time""
""fullscreenenter"",""1"",""4233""
","
","
","""event"",""trial"",""time""
""fullscreenenter"",""1"",""4233""
","
","","null","","null","","fixation","2021-04-17 16:12:42.827","","","","","",""
"card-selection-trial","165","507426","0.0-25.0-1.47","236","false","img/card_backs/set1/green.gif","img/card_backs/set1/purple.gif","img/card_backs/set1/yellow.gif","img/card_backs/set1/red.gif","img/card_backs/set2/blue.gif","img/card_backs/set2/pink.gif","img/card_backs/set2/gray.gif","img/card_backs/set2/orange.gif","""event"",""trial"",""time""
""fullscreenenter"",""1"",""4233""
","
","
","""event"",""trial"",""time""
""fullscreenenter"",""1"",""4233""
","
","","713.0249999900116","","","","real_trial","2021-04-17 16:12:45.544","img/card_backs/set1/yellow.gif","1","100","1","",""
"casino-fixation","166","507927","0.0-25.0-0.48","236","false","img/card_backs/set1/green.gif","img/card_backs/set1/purple.gif","img/card_backs/set1/yellow.gif","img/card_backs/set1/red.gif","img/card_backs/set2/blue.gif","img/card_backs/set2/pink.gif","img/card_backs/set2/gray.gif","img/card_backs/set2/orange.gif","""event"",""trial"",""time""
""fullscreenenter"",""1"",""4233""
","
","
","""event"",""trial"",""time""
""fullscreenenter"",""1"",""4233""
","
","","null","","null","","fixation","2021-04-17 16:12:46.046","","","","","",""
