"trial_type","trial_index","time_elapsed","internal_node_id","sub_id","risk_good_first","block1_A","block1_B","block1_C","block1_D","block2_A","block2_B","block2_C","block2_D","interactions","blur_events","focus_events","fullscreenenter_events","fullscreenexit_events","success","rt","stimulus","key_press","button_pressed","task_part","timestamp","card_choice","choice_position","points_earned","block","correct","response"
"pavlovia","0","3","0.0-0.0","A1225","true","img/card_backs/set1/yellow.gif","img/card_backs/set1/red.gif","img/card_backs/set1/purple.gif","img/card_backs/set1/green.gif","img/card_backs/set2/pink.gif","img/card_backs/set2/gray.gif","img/card_backs/set2/blue.gif","img/card_backs/set2/orange.gif","""event"",""trial"",""time""
""fullscreenenter"",""1"",""3677""
","
","
","""event"",""trial"",""time""
""fullscreenenter"",""1"",""3677""
","
","","","","","","","","","","","","",""
"fullscreen","1","4667","0.0-1.0","A1225","true","img/card_backs/set1/yellow.gif","img/card_backs/set1/red.gif","img/card_backs/set1/purple.gif","img/card_backs/set1/green.gif","img/card_backs/set2/pink.gif","img/card_backs/set2/gray.gif","img/card_backs/set2/blue.gif","img/card_backs/set2/orange.gif","""event"",""trial"",""time""
""fullscreenenter"",""1"",""3677""
","
","
","""event"",""trial"",""time""
""fullscreenenter"",""1"",""3677""
","
","true","","","","","","","","","","","",""
"audio-keyboard-response","2","6449","0.0-2.0","A1225","true","img/card_backs/set1/yellow.gif","img/card_backs/set1/red.gif","img/card_backs/set1/purple.gif","img/card_backs/set1/green.gif","img/card_backs/set2/pink.gif","img/card_backs/set2/gray.gif","img/card_backs/set2/blue.gif","img/card_backs/set2/orange.gif","""event"",""trial"",""time""
""fullscreenenter"",""1"",""3677""
","
","
","""event"",""trial"",""time""
""fullscreenenter"",""1"",""3677""
","
","","1782","audio/beep_loop.wav","32","","","","","","","","",""
"audio-button-response","3","8802","0.0-3.0","A1225","true","img/card_backs/set1/yellow.gif","img/card_backs/set1/red.gif","img/card_backs/set1/purple.gif","img/card_backs/set1/green.gif","img/card_backs/set2/pink.gif","img/card_backs/set2/gray.gif","img/card_backs/set2/blue.gif","img/card_backs/set2/orange.gif","""event"",""trial"",""time""
""fullscreenenter"",""1"",""3677""
","
","
","""event"",""trial"",""time""
""fullscreenenter"",""1"",""3677""
","
","","NaN","audio/turtle.mp3","","3","","","","","","","",""
"audio-button-response","4","10906","0.0-4.0","A1225","true","img/card_backs/set1/yellow.gif","img/card_backs/set1/red.gif","img/card_backs/set1/purple.gif","img/card_backs/set1/green.gif","img/card_backs/set2/pink.gif","img/card_backs/set2/gray.gif","img/card_backs/set2/blue.gif","img/card_backs/set2/orange.gif","""event"",""trial"",""time""
""fullscreenenter"",""1"",""3677""
","
","
","""event"",""trial"",""time""
""fullscreenenter"",""1"",""3677""
","
","","NaN","audio/shark.mp3","","2","","","","","","","",""
"fullscreen","5","15310","0.0-5.0","A1225","true","img/card_backs/set1/yellow.gif","img/card_backs/set1/red.gif","img/card_backs/set1/purple.gif","img/card_backs/set1/green.gif","img/card_backs/set2/pink.gif","img/card_backs/set2/gray.gif","img/card_backs/set2/blue.gif","img/card_backs/set2/orange.gif","""event"",""trial"",""time""
""fullscreenenter"",""1"",""3677""
","
","
","""event"",""trial"",""time""
""fullscreenenter"",""1"",""3677""
","
","true","","","","","","","","","","","",""
"casino-keyboard-response","6","18484","0.0-6.0-0.0","A1225","true","img/card_backs/set1/yellow.gif","img/card_backs/set1/red.gif","img/card_backs/set1/purple.gif","img/card_backs/set1/green.gif","img/card_backs/set2/pink.gif","img/card_backs/set2/gray.gif","img/card_backs/set2/blue.gif","img/card_backs/set2/orange.gif","""event"",""trial"",""time""
""fullscreenenter"",""1"",""3677""
","
","
","""event"",""trial"",""time""
""fullscreenenter"",""1"",""3677""
","
","","3170.2000000000116","Welcome to the casino!","71","","instructions","2021-07-07 16:27:44.817","","","","","",""
"casino-keyboard-response","7","27983","0.0-6.0-0.1","A1225","true","img/card_backs/set1/yellow.gif","img/card_backs/set1/red.gif","img/card_backs/set1/purple.gif","img/card_backs/set1/green.gif","img/card_backs/set2/pink.gif","img/card_backs/set2/gray.gif","img/card_backs/set2/blue.gif","img/card_backs/set2/orange.gif","""event"",""trial"",""time""
""fullscreenenter"",""1"",""3677""
","
","
","""event"",""trial"",""time""
""fullscreenenter"",""1"",""3677""
","
","","9498","Today you will be playing a game to earn tokens. </br> At the end of the experiment, you will be paid a bonus based on how many tokens you win. ","69","","instructions","2021-07-07 16:27:54.315","","","","","",""
"casino-keyboard-response","8","35419","0.0-6.0-0.2","A1225","true","img/card_backs/set1/yellow.gif","img/card_backs/set1/red.gif","img/card_backs/set1/purple.gif","img/card_backs/set1/green.gif","img/card_backs/set2/pink.gif","img/card_backs/set2/gray.gif","img/card_backs/set2/blue.gif","img/card_backs/set2/orange.gif","""event"",""trial"",""time""
""fullscreenenter"",""1"",""3677""
","
","
","""event"",""trial"",""time""
""fullscreenenter"",""1"",""3677""
","
","","7433.399999999965","On every turn, you will be shown four different decks of cards. </br> You need to select a card from one of the four decks.  ","75","","instructions","2021-07-07 16:28:01.751","","","","","",""
"casino-keyboard-response","9","40177","0.0-6.0-0.3","A1225","true","img/card_backs/set1/yellow.gif","img/card_backs/set1/red.gif","img/card_backs/set1/purple.gif","img/card_backs/set1/green.gif","img/card_backs/set2/pink.gif","img/card_backs/set2/gray.gif","img/card_backs/set2/blue.gif","img/card_backs/set2/orange.gif","""event"",""trial"",""time""
""fullscreenenter"",""1"",""3677""
","
","
","""event"",""trial"",""time""
""fullscreenenter"",""1"",""3677""
","
","","4755.5","On the next screen, you will see what the decks will look like. ","66","","instructions","2021-07-07 16:28:06.509","","","","","",""
"card-selection-trial","10","44187","0.0-7.0-0.0","A1225","true","img/card_backs/set1/yellow.gif","img/card_backs/set1/red.gif","img/card_backs/set1/purple.gif","img/card_backs/set1/green.gif","img/card_backs/set2/pink.gif","img/card_backs/set2/gray.gif","img/card_backs/set2/blue.gif","img/card_backs/set2/orange.gif","""event"",""trial"",""time""
""fullscreenenter"",""1"",""3677""
","
","
","""event"",""trial"",""time""
""fullscreenenter"",""1"",""3677""
","
","","null","","","","practice","2021-07-07 16:28:10.520","null","null","null","0","",""
"casino-keyboard-response","11","51479","0.0-8.0-0.0","A1225","true","img/card_backs/set1/yellow.gif","img/card_backs/set1/red.gif","img/card_backs/set1/purple.gif","img/card_backs/set1/green.gif","img/card_backs/set2/pink.gif","img/card_backs/set2/gray.gif","img/card_backs/set2/blue.gif","img/card_backs/set2/orange.gif","""event"",""trial"",""time""
""fullscreenenter"",""1"",""3677""
","
","
","""event"",""trial"",""time""
""fullscreenenter"",""1"",""3677""
","
","","7288.899999999965","You should pick a card from a deck using the '2', '4', '6', and '8' keys at the top of the keyboard.","85","","instructions","2021-07-07 16:28:17.811","","","","","",""
"casino-keyboard-response","12","57034","0.0-8.0-0.1","A1225","true","img/card_backs/set1/yellow.gif","img/card_backs/set1/red.gif","img/card_backs/set1/purple.gif","img/card_backs/set1/green.gif","img/card_backs/set2/pink.gif","img/card_backs/set2/gray.gif","img/card_backs/set2/blue.gif","img/card_backs/set2/orange.gif","""event"",""trial"",""time""
""fullscreenenter"",""1"",""3677""
","
","
","""event"",""trial"",""time""
""fullscreenenter"",""1"",""3677""
","
","","5553.299999999988","Once you select a card, it will turn over and you will see how many tokens you earned.","83","","instructions","2021-07-07 16:28:23.366","","","","","",""
"casino-keyboard-response","13","71651","0.0-8.0-0.2","A1225","true","img/card_backs/set1/yellow.gif","img/card_backs/set1/red.gif","img/card_backs/set1/purple.gif","img/card_backs/set1/green.gif","img/card_backs/set2/pink.gif","img/card_backs/set2/gray.gif","img/card_backs/set2/blue.gif","img/card_backs/set2/orange.gif","""event"",""trial"",""time""
""fullscreenenter"",""1"",""3677""
","
","
","""event"",""trial"",""time""
""fullscreenenter"",""1"",""3677""
","
","","14614.099999999977","Let's try practicing that! </br> First, try to put your fingers over the '2', '4', '6', and '8' keys. </br>  You can use whatever fingers are most comfortable for you. Try to find a comfortable position now. ","50","","instructions","2021-07-07 16:28:37.983","","","","","",""
"casino-keyboard-response","14","77365","0.0-8.0-0.3","A1225","true","img/card_backs/set1/yellow.gif","img/card_backs/set1/red.gif","img/card_backs/set1/purple.gif","img/card_backs/set1/green.gif","img/card_backs/set2/pink.gif","img/card_backs/set2/gray.gif","img/card_backs/set2/blue.gif","img/card_backs/set2/orange.gif","""event"",""trial"",""time""
""fullscreenenter"",""1"",""3677""
","
","
","""event"",""trial"",""time""
""fullscreenenter"",""1"",""3677""
","
","","5710.899999999965","Okay ready? </br> On the next screen, press '2' to select the left deck. ","50","","instructions","2021-07-07 16:28:43.697","","","","","",""
"card-selection-trial","15","80183","0.0-9.0-0.0","A1225","true","img/card_backs/set1/yellow.gif","img/card_backs/set1/red.gif","img/card_backs/set1/purple.gif","img/card_backs/set1/green.gif","img/card_backs/set2/pink.gif","img/card_backs/set2/gray.gif","img/card_backs/set2/blue.gif","img/card_backs/set2/orange.gif","""event"",""trial"",""time""
""fullscreenenter"",""1"",""3677""
","
","
","""event"",""trial"",""time""
""fullscreenenter"",""1"",""3677""
","
","","798.2000000000116","","","","practice_card_selection","2021-07-07 16:28:46.516","img/practice_cards/backs/dark_blue.gif","0","200","","",""
"casino-keyboard-response","16","86010","0.0-10.0-0.0","A1225","true","img/card_backs/set1/yellow.gif","img/card_backs/set1/red.gif","img/card_backs/set1/purple.gif","img/card_backs/set1/green.gif","img/card_backs/set2/pink.gif","img/card_backs/set2/gray.gif","img/card_backs/set2/blue.gif","img/card_backs/set2/orange.gif","""event"",""trial"",""time""
""fullscreenenter"",""1"",""3677""
","
","
","""event"",""trial"",""time""
""fullscreenenter"",""1"",""3677""
","
","","5823.899999999965","Great! Now on the next screen, try pressing '6' to select the third deck.","54","","instructions","2021-07-07 16:28:52.342","","","","","",""
"card-selection-trial","17","88503","0.0-11.0-0.0","A1225","true","img/card_backs/set1/yellow.gif","img/card_backs/set1/red.gif","img/card_backs/set1/purple.gif","img/card_backs/set1/green.gif","img/card_backs/set2/pink.gif","img/card_backs/set2/gray.gif","img/card_backs/set2/blue.gif","img/card_backs/set2/orange.gif","""event"",""trial"",""time""
""fullscreenenter"",""1"",""3677""
","
","
","""event"",""trial"",""time""
""fullscreenenter"",""1"",""3677""
","
","","478","","","","practice_card_selection","2021-07-07 16:28:54.835","img/practice_cards/backs/dark_green.gif","2","-200","","",""
"casino-keyboard-response","18","93248","0.0-12.0-0.0","A1225","true","img/card_backs/set1/yellow.gif","img/card_backs/set1/red.gif","img/card_backs/set1/purple.gif","img/card_backs/set1/green.gif","img/card_backs/set2/pink.gif","img/card_backs/set2/gray.gif","img/card_backs/set2/blue.gif","img/card_backs/set2/orange.gif","""event"",""trial"",""time""
""fullscreenenter"",""1"",""3677""
","
","
","""event"",""trial"",""time""
""fullscreenenter"",""1"",""3677""
","
","","4743.700000000012","Now on the next screen, try pressing '4' to select the second deck.","52","","instructions","2021-07-07 16:28:59.580","","","","","",""
"card-selection-trial","19","95673","0.0-13.0-0.0","A1225","true","img/card_backs/set1/yellow.gif","img/card_backs/set1/red.gif","img/card_backs/set1/purple.gif","img/card_backs/set1/green.gif","img/card_backs/set2/pink.gif","img/card_backs/set2/gray.gif","img/card_backs/set2/blue.gif","img/card_backs/set2/orange.gif","""event"",""trial"",""time""
""fullscreenenter"",""1"",""3677""
","
","
","""event"",""trial"",""time""
""fullscreenenter"",""1"",""3677""
","
","","405.4000000000233","","","","practice_card_selection","2021-07-07 16:29:02.006","img/practice_cards/backs/black.gif","1","100","","",""
"casino-keyboard-response","20","100188","0.0-14.0-0.0","A1225","true","img/card_backs/set1/yellow.gif","img/card_backs/set1/red.gif","img/card_backs/set1/purple.gif","img/card_backs/set1/green.gif","img/card_backs/set2/pink.gif","img/card_backs/set2/gray.gif","img/card_backs/set2/blue.gif","img/card_backs/set2/orange.gif","""event"",""trial"",""time""
""fullscreenenter"",""1"",""3677""
","
","
","""event"",""trial"",""time""
""fullscreenenter"",""1"",""3677""
","
","","4513.300000000047","Finally, try pressing '8' to select the deck all the way on the right.","56","","instructions","2021-07-07 16:29:06.521","","","","","",""
"card-selection-trial","21","102797","0.0-15.0-0.0","A1225","true","img/card_backs/set1/yellow.gif","img/card_backs/set1/red.gif","img/card_backs/set1/purple.gif","img/card_backs/set1/green.gif","img/card_backs/set2/pink.gif","img/card_backs/set2/gray.gif","img/card_backs/set2/blue.gif","img/card_backs/set2/orange.gif","""event"",""trial"",""time""
""fullscreenenter"",""1"",""3677""
","
","
","""event"",""trial"",""time""
""fullscreenenter"",""1"",""3677""
","
","","588.9000000000233","","","","practice_card_selection","2021-07-07 16:29:09.129","img/practice_cards/backs/brown.gif","3","-100","","",""
"casino-keyboard-response","22","107531","0.0-16.0-0.0","A1225","true","img/card_backs/set1/yellow.gif","img/card_backs/set1/red.gif","img/card_backs/set1/purple.gif","img/card_backs/set1/green.gif","img/card_backs/set2/pink.gif","img/card_backs/set2/gray.gif","img/card_backs/set2/blue.gif","img/card_backs/set2/orange.gif","""event"",""trial"",""time""
""fullscreenenter"",""1"",""3677""
","
","
","""event"",""trial"",""time""
""fullscreenenter"",""1"",""3677""
","
","","4732.600000000035","Great! It seems like you are getting the hang of this.","80","","instructions","2021-07-07 16:29:13.863","","","","","",""
"casino-keyboard-response","23","115090","0.0-16.0-0.1","A1225","true","img/card_backs/set1/yellow.gif","img/card_backs/set1/red.gif","img/card_backs/set1/purple.gif","img/card_backs/set1/green.gif","img/card_backs/set2/pink.gif","img/card_backs/set2/gray.gif","img/card_backs/set2/blue.gif","img/card_backs/set2/orange.gif","""event"",""trial"",""time""
""fullscreenenter"",""1"",""3677""
","
","
","""event"",""trial"",""time""
""fullscreenenter"",""1"",""3677""
","
","","7557.400000000023","You may have noticed that some cards will cause you to <b> win </b> tokens while other cards will cause you to <b> lose </b>  tokens.","70","","instructions","2021-07-07 16:29:21.422","","","","","",""
"casino-keyboard-response","24","124514","0.0-16.0-0.2","A1225","true","img/card_backs/set1/yellow.gif","img/card_backs/set1/red.gif","img/card_backs/set1/purple.gif","img/card_backs/set1/green.gif","img/card_backs/set2/pink.gif","img/card_backs/set2/gray.gif","img/card_backs/set2/blue.gif","img/card_backs/set2/orange.gif","""event"",""trial"",""time""
""fullscreenenter"",""1"",""3677""
","
","
","""event"",""trial"",""time""
""fullscreenenter"",""1"",""3677""
","
","","9420.700000000012","Each deck has a mix of cards that will cause you to win and lose tokens. </br> However, the cards in each colored deck are different.","73","","instructions","2021-07-07 16:29:30.846","","","","","",""
"casino-keyboard-response","25","133221","0.0-16.0-0.3","A1225","true","img/card_backs/set1/yellow.gif","img/card_backs/set1/red.gif","img/card_backs/set1/purple.gif","img/card_backs/set1/green.gif","img/card_backs/set2/pink.gif","img/card_backs/set2/gray.gif","img/card_backs/set2/blue.gif","img/card_backs/set2/orange.gif","""event"",""trial"",""time""
""fullscreenenter"",""1"",""3677""
","
","
","""event"",""trial"",""time""
""fullscreenenter"",""1"",""3677""
","
","","8704.400000000023","Some colored decks are luckier than others. </br> If you choose the lucky decks, you will earn more tokens than if you choose the unlucky decks.","69","","instructions","2021-07-07 16:29:39.553","","","","","",""
"casino-keyboard-response","26","140546","0.0-16.0-0.4","A1225","true","img/card_backs/set1/yellow.gif","img/card_backs/set1/red.gif","img/card_backs/set1/purple.gif","img/card_backs/set1/green.gif","img/card_backs/set2/pink.gif","img/card_backs/set2/gray.gif","img/card_backs/set2/blue.gif","img/card_backs/set2/orange.gif","""event"",""trial"",""time""
""fullscreenenter"",""1"",""3677""
","
","
","""event"",""trial"",""time""
""fullscreenenter"",""1"",""3677""
","
","","7321.800000000047","You should try to figure out which decks are lucky. </br> Then, try to choose the lucky decks so you can win the most tokens.","87","","instructions","2021-07-07 16:29:46.878","","","","","",""
"casino-keyboard-response","27","151770","0.0-16.0-0.5","A1225","true","img/card_backs/set1/yellow.gif","img/card_backs/set1/red.gif","img/card_backs/set1/purple.gif","img/card_backs/set1/green.gif","img/card_backs/set2/pink.gif","img/card_backs/set2/gray.gif","img/card_backs/set2/blue.gif","img/card_backs/set2/orange.gif","""event"",""trial"",""time""
""fullscreenenter"",""1"",""3677""
","
","
","""event"",""trial"",""time""
""fullscreenenter"",""1"",""3677""
","
","","11221.200000000012","To make it trickier, the casino dealer will switch the locations of the decks on every turn. </br> The color of the deck determines how lucky it is. The location does not matter.","88","","instructions","2021-07-07 16:29:58.102","","","","","",""
"casino-keyboard-response","28","161339","0.0-16.0-0.6","A1225","true","img/card_backs/set1/yellow.gif","img/card_backs/set1/red.gif","img/card_backs/set1/purple.gif","img/card_backs/set1/green.gif","img/card_backs/set2/pink.gif","img/card_backs/set2/gray.gif","img/card_backs/set2/blue.gif","img/card_backs/set2/orange.gif","""event"",""trial"",""time""
""fullscreenenter"",""1"",""3677""
","
","
","""event"",""trial"",""time""
""fullscreenenter"",""1"",""3677""
","
","","9566.199999999953","The mix of cards in each colored deck will stay the same throughout the game. </br> That means that a deck that is lucky early on will stay lucky.","79","","instructions","2021-07-07 16:30:07.671","","","","","",""
"casino-keyboard-response","29","169562","0.0-16.0-0.7","A1225","true","img/card_backs/set1/yellow.gif","img/card_backs/set1/red.gif","img/card_backs/set1/purple.gif","img/card_backs/set1/green.gif","img/card_backs/set2/pink.gif","img/card_backs/set2/gray.gif","img/card_backs/set2/blue.gif","img/card_backs/set2/orange.gif","""event"",""trial"",""time""
""fullscreenenter"",""1"",""3677""
","
","
","""event"",""trial"",""time""
""fullscreenenter"",""1"",""3677""
","
","","8220.399999999965","Remember though, all the decks have a <b> mix </b> of both <b> good </b> and <b> bad </b> cards so it may take a couple of turns to figure out if a deck is lucky.","69","","instructions","2021-07-07 16:30:15.894","","","","","",""
"casino-keyboard-response","30","178115","0.0-16.0-0.8","A1225","true","img/card_backs/set1/yellow.gif","img/card_backs/set1/red.gif","img/card_backs/set1/purple.gif","img/card_backs/set1/green.gif","img/card_backs/set2/pink.gif","img/card_backs/set2/gray.gif","img/card_backs/set2/blue.gif","img/card_backs/set2/orange.gif","""event"",""trial"",""time""
""fullscreenenter"",""1"",""3677""
","
","
","""event"",""trial"",""time""
""fullscreenenter"",""1"",""3677""
","
","","8549.899999999965","At the end of the game, you will be paid bonus money based on how many tokens you win. </br> If you win more tokens, you will earn more money!","72","","instructions","2021-07-07 16:30:24.447","","","","","",""
"casino-keyboard-response","31","188267","0.0-16.0-0.9","A1225","true","img/card_backs/set1/yellow.gif","img/card_backs/set1/red.gif","img/card_backs/set1/purple.gif","img/card_backs/set1/green.gif","img/card_backs/set2/pink.gif","img/card_backs/set2/gray.gif","img/card_backs/set2/blue.gif","img/card_backs/set2/orange.gif","""event"",""trial"",""time""
""fullscreenenter"",""1"",""3677""
","
","
","""event"",""trial"",""time""
""fullscreenenter"",""1"",""3677""
","
","","10149.200000000012","You will never <b> lose </b> money. </br> If you end up with fewer than 0 tokens, you will earn $0 of bonus money, but you will still be paid for playing the game.","83","","instructions","2021-07-07 16:30:34.599","","","","","",""
"casino-keyboard-response","32","192457","0.0-16.0-0.10","A1225","true","img/card_backs/set1/yellow.gif","img/card_backs/set1/red.gif","img/card_backs/set1/purple.gif","img/card_backs/set1/green.gif","img/card_backs/set2/pink.gif","img/card_backs/set2/gray.gif","img/card_backs/set2/blue.gif","img/card_backs/set2/orange.gif","""event"",""trial"",""time""
""fullscreenenter"",""1"",""3677""
","
","
","""event"",""trial"",""time""
""fullscreenenter"",""1"",""3677""
","
","","4186.599999999977","You will have 10 seconds to make each choice.","82","","instructions","2021-07-07 16:30:38.789","","","","","",""
"casino-keyboard-response","33","200788","0.0-16.0-0.11","A1225","true","img/card_backs/set1/yellow.gif","img/card_backs/set1/red.gif","img/card_backs/set1/purple.gif","img/card_backs/set1/green.gif","img/card_backs/set2/pink.gif","img/card_backs/set2/gray.gif","img/card_backs/set2/blue.gif","img/card_backs/set2/orange.gif","""event"",""trial"",""time""
""fullscreenenter"",""1"",""3677""
","
","
","""event"",""trial"",""time""
""fullscreenenter"",""1"",""3677""
","
","","8326","Before you play the game for real, you will play with practice decks. </br> The tokens you earn during practice won't count toward your total.","86","","instructions","2021-07-07 16:30:47.120","","","","","",""
"casino-keyboard-response","34","212356","0.0-16.0-0.12","A1225","true","img/card_backs/set1/yellow.gif","img/card_backs/set1/red.gif","img/card_backs/set1/purple.gif","img/card_backs/set1/green.gif","img/card_backs/set2/pink.gif","img/card_backs/set2/gray.gif","img/card_backs/set2/blue.gif","img/card_backs/set2/orange.gif","""event"",""trial"",""time""
""fullscreenenter"",""1"",""3677""
","
","
","""event"",""trial"",""time""
""fullscreenenter"",""1"",""3677""
","
","","11565.099999999977","Ready? Remember, use the '2', '4', '6', and '8' keys to select the decks. </br> Put your fingers on those keys now and then press '2' to begin.","50","","instructions","2021-07-07 16:30:58.688","","","","","",""
"casino-fixation","35","212863","0.0-17.0-0.0","A1225","true","img/card_backs/set1/yellow.gif","img/card_backs/set1/red.gif","img/card_backs/set1/purple.gif","img/card_backs/set1/green.gif","img/card_backs/set2/pink.gif","img/card_backs/set2/gray.gif","img/card_backs/set2/blue.gif","img/card_backs/set2/orange.gif","""event"",""trial"",""time""
""fullscreenenter"",""1"",""3677""
","
","
","""event"",""trial"",""time""
""fullscreenenter"",""1"",""3677""
","
","","null","","null","","fixation","2021-07-07 16:30:59.195","","","","","",""
"card-selection-trial","36","215933","0.0-17.0-1.0","A1225","true","img/card_backs/set1/yellow.gif","img/card_backs/set1/red.gif","img/card_backs/set1/purple.gif","img/card_backs/set1/green.gif","img/card_backs/set2/pink.gif","img/card_backs/set2/gray.gif","img/card_backs/set2/blue.gif","img/card_backs/set2/orange.gif","""event"",""trial"",""time""
""fullscreenenter"",""1"",""3677""
","
","
","""event"",""trial"",""time""
""fullscreenenter"",""1"",""3677""
","
","","1047","","","","practice","2021-07-07 16:31:02.265","img/practice_cards/backs/black.gif","0","-100","0","",""
"casino-fixation","37","216453","0.0-17.0-0.1","A1225","true","img/card_backs/set1/yellow.gif","img/card_backs/set1/red.gif","img/card_backs/set1/purple.gif","img/card_backs/set1/green.gif","img/card_backs/set2/pink.gif","img/card_backs/set2/gray.gif","img/card_backs/set2/blue.gif","img/card_backs/set2/orange.gif","""event"",""trial"",""time""
""fullscreenenter"",""1"",""3677""
","
","
","""event"",""trial"",""time""
""fullscreenenter"",""1"",""3677""
","
","","null","","null","","fixation","2021-07-07 16:31:02.785","","","","","",""
"card-selection-trial","38","219013","0.0-17.0-1.1","A1225","true","img/card_backs/set1/yellow.gif","img/card_backs/set1/red.gif","img/card_backs/set1/purple.gif","img/card_backs/set1/green.gif","img/card_backs/set2/pink.gif","img/card_backs/set2/gray.gif","img/card_backs/set2/blue.gif","img/card_backs/set2/orange.gif","""event"",""trial"",""time""
""fullscreenenter"",""1"",""3677""
","
","
","""event"",""trial"",""time""
""fullscreenenter"",""1"",""3677""
","
","","540.0999999999767","","","","practice","2021-07-07 16:31:05.345","img/practice_cards/backs/dark_green.gif","0","-200","0","",""
"casino-fixation","39","219523","0.0-17.0-0.2","A1225","true","img/card_backs/set1/yellow.gif","img/card_backs/set1/red.gif","img/card_backs/set1/purple.gif","img/card_backs/set1/green.gif","img/card_backs/set2/pink.gif","img/card_backs/set2/gray.gif","img/card_backs/set2/blue.gif","img/card_backs/set2/orange.gif","""event"",""trial"",""time""
""fullscreenenter"",""1"",""3677""
","
","
","""event"",""trial"",""time""
""fullscreenenter"",""1"",""3677""
","
","","null","","null","","fixation","2021-07-07 16:31:05.855","","","","","",""
"card-selection-trial","40","221923","0.0-17.0-1.2","A1225","true","img/card_backs/set1/yellow.gif","img/card_backs/set1/red.gif","img/card_backs/set1/purple.gif","img/card_backs/set1/green.gif","img/card_backs/set2/pink.gif","img/card_backs/set2/gray.gif","img/card_backs/set2/blue.gif","img/card_backs/set2/orange.gif","""event"",""trial"",""time""
""fullscreenenter"",""1"",""3677""
","
","
","""event"",""trial"",""time""
""fullscreenenter"",""1"",""3677""
","
","","378.0999999999767","","","","practice","2021-07-07 16:31:08.255","img/practice_cards/backs/brown.gif","1","100","0","",""
"casino-fixation","41","222429","0.0-17.0-0.3","A1225","true","img/card_backs/set1/yellow.gif","img/card_backs/set1/red.gif","img/card_backs/set1/purple.gif","img/card_backs/set1/green.gif","img/card_backs/set2/pink.gif","img/card_backs/set2/gray.gif","img/card_backs/set2/blue.gif","img/card_backs/set2/orange.gif","""event"",""trial"",""time""
""fullscreenenter"",""1"",""3677""
","
","
","""event"",""trial"",""time""
""fullscreenenter"",""1"",""3677""
","
","","null","","null","","fixation","2021-07-07 16:31:08.761","","","","","",""
"card-selection-trial","42","224473","0.0-17.0-1.3","A1225","true","img/card_backs/set1/yellow.gif","img/card_backs/set1/red.gif","img/card_backs/set1/purple.gif","img/card_backs/set1/green.gif","img/card_backs/set2/pink.gif","img/card_backs/set2/gray.gif","img/card_backs/set2/blue.gif","img/card_backs/set2/orange.gif","""event"",""trial"",""time""
""fullscreenenter"",""1"",""3677""
","
","
","""event"",""trial"",""time""
""fullscreenenter"",""1"",""3677""
","
","","34.699999999953434","","","","practice","2021-07-07 16:31:10.805","img/practice_cards/backs/dark_green.gif","1","-200","0","",""
"casino-fixation","43","224982","0.0-17.0-0.4","A1225","true","img/card_backs/set1/yellow.gif","img/card_backs/set1/red.gif","img/card_backs/set1/purple.gif","img/card_backs/set1/green.gif","img/card_backs/set2/pink.gif","img/card_backs/set2/gray.gif","img/card_backs/set2/blue.gif","img/card_backs/set2/orange.gif","""event"",""trial"",""time""
""fullscreenenter"",""1"",""3677""
","
","
","""event"",""trial"",""time""
""fullscreenenter"",""1"",""3677""
","
","","null","","null","","fixation","2021-07-07 16:31:11.314","","","","","",""
"card-selection-trial","44","227609","0.0-17.0-1.4","A1225","true","img/card_backs/set1/yellow.gif","img/card_backs/set1/red.gif","img/card_backs/set1/purple.gif","img/card_backs/set1/green.gif","img/card_backs/set2/pink.gif","img/card_backs/set2/gray.gif","img/card_backs/set2/blue.gif","img/card_backs/set2/orange.gif","""event"",""trial"",""time""
""fullscreenenter"",""1"",""3677""
","
","
","""event"",""trial"",""time""
""fullscreenenter"",""1"",""3677""
","
","","606.7000000000116","","","","practice","2021-07-07 16:31:13.941","img/practice_cards/backs/brown.gif","1","-100","0","",""
"casino-fixation","45","228123","0.0-17.0-0.5","A1225","true","img/card_backs/set1/yellow.gif","img/card_backs/set1/red.gif","img/card_backs/set1/purple.gif","img/card_backs/set1/green.gif","img/card_backs/set2/pink.gif","img/card_backs/set2/gray.gif","img/card_backs/set2/blue.gif","img/card_backs/set2/orange.gif","""event"",""trial"",""time""
""fullscreenenter"",""1"",""3677""
","
","
","""event"",""trial"",""time""
""fullscreenenter"",""1"",""3677""
","
","","null","","null","","fixation","2021-07-07 16:31:14.455","","","","","",""
"card-selection-trial","46","230598","0.0-17.0-1.5","A1225","true","img/card_backs/set1/yellow.gif","img/card_backs/set1/red.gif","img/card_backs/set1/purple.gif","img/card_backs/set1/green.gif","img/card_backs/set2/pink.gif","img/card_backs/set2/gray.gif","img/card_backs/set2/blue.gif","img/card_backs/set2/orange.gif","""event"",""trial"",""time""
""fullscreenenter"",""1"",""3677""
","
","
","""event"",""trial"",""time""
""fullscreenenter"",""1"",""3677""
","
","","454.79999999993015","","","","practice","2021-07-07 16:31:16.931","img/practice_cards/backs/dark_green.gif","2","-200","0","",""
"casino-fixation","47","231109","0.0-17.0-0.6","A1225","true","img/card_backs/set1/yellow.gif","img/card_backs/set1/red.gif","img/card_backs/set1/purple.gif","img/card_backs/set1/green.gif","img/card_backs/set2/pink.gif","img/card_backs/set2/gray.gif","img/card_backs/set2/blue.gif","img/card_backs/set2/orange.gif","""event"",""trial"",""time""
""fullscreenenter"",""1"",""3677""
","
","
","""event"",""trial"",""time""
""fullscreenenter"",""1"",""3677""
","
","","null","","null","","fixation","2021-07-07 16:31:17.441","","","","","",""
"card-selection-trial","48","233683","0.0-17.0-1.6","A1225","true","img/card_backs/set1/yellow.gif","img/card_backs/set1/red.gif","img/card_backs/set1/purple.gif","img/card_backs/set1/green.gif","img/card_backs/set2/pink.gif","img/card_backs/set2/gray.gif","img/card_backs/set2/blue.gif","img/card_backs/set2/orange.gif","""event"",""trial"",""time""
""fullscreenenter"",""1"",""3677""
","
","
","""event"",""trial"",""time""
""fullscreenenter"",""1"",""3677""
","
","","559.5","","","","practice","2021-07-07 16:31:20.015","img/practice_cards/backs/brown.gif","2","-100","0","",""
"casino-fixation","49","234188","0.0-17.0-0.7","A1225","true","img/card_backs/set1/yellow.gif","img/card_backs/set1/red.gif","img/card_backs/set1/purple.gif","img/card_backs/set1/green.gif","img/card_backs/set2/pink.gif","img/card_backs/set2/gray.gif","img/card_backs/set2/blue.gif","img/card_backs/set2/orange.gif","""event"",""trial"",""time""
""fullscreenenter"",""1"",""3677""
","
","
","""event"",""trial"",""time""
""fullscreenenter"",""1"",""3677""
","
","","null","","null","","fixation","2021-07-07 16:31:20.520","","","","","",""
"card-selection-trial","50","236663","0.0-17.0-1.7","A1225","true","img/card_backs/set1/yellow.gif","img/card_backs/set1/red.gif","img/card_backs/set1/purple.gif","img/card_backs/set1/green.gif","img/card_backs/set2/pink.gif","img/card_backs/set2/gray.gif","img/card_backs/set2/blue.gif","img/card_backs/set2/orange.gif","""event"",""trial"",""time""
""fullscreenenter"",""1"",""3677""
","
","
","""event"",""trial"",""time""
""fullscreenenter"",""1"",""3677""
","
","","452.70000000006985","","","","practice","2021-07-07 16:31:22.995","img/practice_cards/backs/black.gif","2","-100","0","",""
"casino-fixation","51","237183","0.0-17.0-0.8","A1225","true","img/card_backs/set1/yellow.gif","img/card_backs/set1/red.gif","img/card_backs/set1/purple.gif","img/card_backs/set1/green.gif","img/card_backs/set2/pink.gif","img/card_backs/set2/gray.gif","img/card_backs/set2/blue.gif","img/card_backs/set2/orange.gif","""event"",""trial"",""time""
""fullscreenenter"",""1"",""3677""
","
","
","""event"",""trial"",""time""
""fullscreenenter"",""1"",""3677""
","
","","null","","null","","fixation","2021-07-07 16:31:23.515","","","","","",""
"card-selection-trial","52","239614","0.0-17.0-1.8","A1225","true","img/card_backs/set1/yellow.gif","img/card_backs/set1/red.gif","img/card_backs/set1/purple.gif","img/card_backs/set1/green.gif","img/card_backs/set2/pink.gif","img/card_backs/set2/gray.gif","img/card_backs/set2/blue.gif","img/card_backs/set2/orange.gif","""event"",""trial"",""time""
""fullscreenenter"",""1"",""3677""
","
","
","""event"",""trial"",""time""
""fullscreenenter"",""1"",""3677""
","
","","407.30000000004657","","","","practice","2021-07-07 16:31:25.946","img/practice_cards/backs/black.gif","2","-100","0","",""
"casino-fixation","53","240119","0.0-17.0-0.9","A1225","true","img/card_backs/set1/yellow.gif","img/card_backs/set1/red.gif","img/card_backs/set1/purple.gif","img/card_backs/set1/green.gif","img/card_backs/set2/pink.gif","img/card_backs/set2/gray.gif","img/card_backs/set2/blue.gif","img/card_backs/set2/orange.gif","""event"",""trial"",""time""
""fullscreenenter"",""1"",""3677""
","
","
","""event"",""trial"",""time""
""fullscreenenter"",""1"",""3677""
","
","","null","","null","","fixation","2021-07-07 16:31:26.451","","","","","",""
"card-selection-trial","54","242410","0.0-17.0-1.9","A1225","true","img/card_backs/set1/yellow.gif","img/card_backs/set1/red.gif","img/card_backs/set1/purple.gif","img/card_backs/set1/green.gif","img/card_backs/set2/pink.gif","img/card_backs/set2/gray.gif","img/card_backs/set2/blue.gif","img/card_backs/set2/orange.gif","""event"",""trial"",""time""
""fullscreenenter"",""1"",""3677""
","
","
","""event"",""trial"",""time""
""fullscreenenter"",""1"",""3677""
","
","","278.20000000006985","","","","practice","2021-07-07 16:31:28.742","img/practice_cards/backs/brown.gif","3","100","0","",""
"casino-keyboard-response","55","245209","0.0-18.0","A1225","true","img/card_backs/set1/yellow.gif","img/card_backs/set1/red.gif","img/card_backs/set1/purple.gif","img/card_backs/set1/green.gif","img/card_backs/set2/pink.gif","img/card_backs/set2/gray.gif","img/card_backs/set2/blue.gif","img/card_backs/set2/orange.gif","""event"",""trial"",""time""
""fullscreenenter"",""1"",""3677""
","
","
","""event"",""trial"",""time""
""fullscreenenter"",""1"",""3677""
","
","","2798","You earned -900 tokens during the practice round!","82","","","2021-07-07 16:31:31.542","","","","","",""
"casino-keyboard-response","56","249368","0.0-19.0-0.0","A1225","true","img/card_backs/set1/yellow.gif","img/card_backs/set1/red.gif","img/card_backs/set1/purple.gif","img/card_backs/set1/green.gif","img/card_backs/set2/pink.gif","img/card_backs/set2/gray.gif","img/card_backs/set2/blue.gif","img/card_backs/set2/orange.gif","""event"",""trial"",""time""
""fullscreenenter"",""1"",""3677""
","
","
","""event"",""trial"",""time""
""fullscreenenter"",""1"",""3677""
","
","","4155.699999999953","Nice job! You are almost ready to play the real game.","86","","instructions","2021-07-07 16:31:35.700","","","","","",""
"casino-keyboard-response","57","256782","0.0-19.0-0.1","A1225","true","img/card_backs/set1/yellow.gif","img/card_backs/set1/red.gif","img/card_backs/set1/purple.gif","img/card_backs/set1/green.gif","img/card_backs/set2/pink.gif","img/card_backs/set2/gray.gif","img/card_backs/set2/blue.gif","img/card_backs/set2/orange.gif","""event"",""trial"",""time""
""fullscreenenter"",""1"",""3677""
","
","
","""event"",""trial"",""time""
""fullscreenenter"",""1"",""3677""
","
","","7411.399999999907","You will play two rounds of the real game. In each round, you will pick 100 cards in total.","73","","instructions","2021-07-07 16:31:43.114","","","","","",""
"casino-keyboard-response","58","260993","0.0-19.0-0.2","A1225","true","img/card_backs/set1/yellow.gif","img/card_backs/set1/red.gif","img/card_backs/set1/purple.gif","img/card_backs/set1/green.gif","img/card_backs/set2/pink.gif","img/card_backs/set2/gray.gif","img/card_backs/set2/blue.gif","img/card_backs/set2/orange.gif","""event"",""trial"",""time""
""fullscreenenter"",""1"",""3677""
","
","
","""event"",""trial"",""time""
""fullscreenenter"",""1"",""3677""
","
","","4208.599999999977","We are now going to ask you some questions about how the game works.","66","","instructions","2021-07-07 16:31:47.325","","","","","",""
"casino-keyboard-response","59","267196","0.0-19.0-0.3","A1225","true","img/card_backs/set1/yellow.gif","img/card_backs/set1/red.gif","img/card_backs/set1/purple.gif","img/card_backs/set1/green.gif","img/card_backs/set2/pink.gif","img/card_backs/set2/gray.gif","img/card_backs/set2/blue.gif","img/card_backs/set2/orange.gif","""event"",""trial"",""time""
""fullscreenenter"",""1"",""3677""
","
","
","""event"",""trial"",""time""
""fullscreenenter"",""1"",""3677""
","
","","6200.20000000007","Answer carefully. You will not be able to begin the game until you answer them correctly.","67","","instructions","2021-07-07 16:31:53.528","","","","","",""
"casino-comp_q","60","274088","0.0-20.0-0.0","A1225","true","img/card_backs/set1/yellow.gif","img/card_backs/set1/red.gif","img/card_backs/set1/purple.gif","img/card_backs/set1/green.gif","img/card_backs/set2/pink.gif","img/card_backs/set2/gray.gif","img/card_backs/set2/blue.gif","img/card_backs/set2/orange.gif","""event"",""trial"",""time""
""fullscreenenter"",""1"",""3677""
","
","
","""event"",""trial"",""time""
""fullscreenenter"",""1"",""3677""
","
","","6889.099999999977","True or False: All the decks have some cards that cause you to win tokens and some cards that cause you to lose tokens.","84","","","2021-07-07 16:32:00.421","","","","","",""
"casino-keyboard-response","61","278630","0.0-20.0-1.0","A1225","true","img/card_backs/set1/yellow.gif","img/card_backs/set1/red.gif","img/card_backs/set1/purple.gif","img/card_backs/set1/green.gif","img/card_backs/set2/pink.gif","img/card_backs/set2/gray.gif","img/card_backs/set2/blue.gif","img/card_backs/set2/orange.gif","""event"",""trial"",""time""
""fullscreenenter"",""1"",""3677""
","
","
","""event"",""trial"",""time""
""fullscreenenter"",""1"",""3677""
","
","","4538.599999999977","True is correct! All the decks have a mix of winning and losing cards.","77","","","2021-07-07 16:32:04.963","","","","","true",""
"casino-comp_q","62","281756","0.0-21.0-0.0","A1225","true","img/card_backs/set1/yellow.gif","img/card_backs/set1/red.gif","img/card_backs/set1/purple.gif","img/card_backs/set1/green.gif","img/card_backs/set2/pink.gif","img/card_backs/set2/gray.gif","img/card_backs/set2/blue.gif","img/card_backs/set2/orange.gif","""event"",""trial"",""time""
""fullscreenenter"",""1"",""3677""
","
","
","""event"",""trial"",""time""
""fullscreenenter"",""1"",""3677""
","
","","3122.1999999999534","True or False: You will have as much time as you want to make your response.","70","","","2021-07-07 16:32:08.088","","","","","",""
"casino-keyboard-response","63","285105","0.0-21.0-1.0","A1225","true","img/card_backs/set1/yellow.gif","img/card_backs/set1/red.gif","img/card_backs/set1/purple.gif","img/card_backs/set1/green.gif","img/card_backs/set2/pink.gif","img/card_backs/set2/gray.gif","img/card_backs/set2/blue.gif","img/card_backs/set2/orange.gif","""event"",""trial"",""time""
""fullscreenenter"",""1"",""3677""
","
","
","""event"",""trial"",""time""
""fullscreenenter"",""1"",""3677""
","
","","3343","False is correct! You will only have 10 seconds to make each choice.","75","","","2021-07-07 16:32:11.437","","","","","true",""
"casino-comp_q","64","288069","0.0-22.0-0.0","A1225","true","img/card_backs/set1/yellow.gif","img/card_backs/set1/red.gif","img/card_backs/set1/purple.gif","img/card_backs/set1/green.gif","img/card_backs/set2/pink.gif","img/card_backs/set2/gray.gif","img/card_backs/set2/blue.gif","img/card_backs/set2/orange.gif","""event"",""trial"",""time""
""fullscreenenter"",""1"",""3677""
","
","
","""event"",""trial"",""time""
""fullscreenenter"",""1"",""3677""
","
","","2961","True or False: The location of the deck determines how lucky it is.","70","","","2021-07-07 16:32:14.401","","","","","",""
"casino-keyboard-response","65","301889","0.0-22.0-1.0","A1225","true","img/card_backs/set1/yellow.gif","img/card_backs/set1/red.gif","img/card_backs/set1/purple.gif","img/card_backs/set1/green.gif","img/card_backs/set2/pink.gif","img/card_backs/set2/gray.gif","img/card_backs/set2/blue.gif","img/card_backs/set2/orange.gif","""event"",""trial"",""time""
""fullscreenenter"",""1"",""3677""
","
","
","""event"",""trial"",""time""
""fullscreenenter"",""1"",""3677""
","
","","13816.199999999953","False is correct! The <i>color</i>  of the deck determines how lucky or unlucky it is.","68","","","2021-07-07 16:32:28.221","","","","","true",""
"casino-keyboard-response","66","306041","0.0-23.0-0.0","A1225","true","img/card_backs/set1/yellow.gif","img/card_backs/set1/red.gif","img/card_backs/set1/purple.gif","img/card_backs/set1/green.gif","img/card_backs/set2/pink.gif","img/card_backs/set2/gray.gif","img/card_backs/set2/blue.gif","img/card_backs/set2/orange.gif","""event"",""trial"",""time""
""fullscreenenter"",""1"",""3677""
","
","
","""event"",""trial"",""time""
""fullscreenenter"",""1"",""3677""
","
","","4149.5","Great job! Now it's time to start the real game.","82","","instructions","2021-07-07 16:32:32.373","","","","","",""
"casino-keyboard-response","67","311066","0.0-23.0-0.1","A1225","true","img/card_backs/set1/yellow.gif","img/card_backs/set1/red.gif","img/card_backs/set1/purple.gif","img/card_backs/set1/green.gif","img/card_backs/set2/pink.gif","img/card_backs/set2/gray.gif","img/card_backs/set2/blue.gif","img/card_backs/set2/orange.gif","""event"",""trial"",""time""
""fullscreenenter"",""1"",""3677""
","
","
","""event"",""trial"",""time""
""fullscreenenter"",""1"",""3677""
","
","","5022.599999999977","Before we start, we're going to head into a new room of the casino.","86","","instructions","2021-07-07 16:32:37.398","","","","","",""
"casino-keyboard-response","68","317227","0.0-24.0-0.0","A1225","true","img/card_backs/set1/yellow.gif","img/card_backs/set1/red.gif","img/card_backs/set1/purple.gif","img/card_backs/set1/green.gif","img/card_backs/set2/pink.gif","img/card_backs/set2/gray.gif","img/card_backs/set2/blue.gif","img/card_backs/set2/orange.gif","""event"",""trial"",""time""
""fullscreenenter"",""1"",""3677""
","
","
","""event"",""trial"",""time""
""fullscreenenter"",""1"",""3677""
","
","","6158.79999999993","Here we are! The real game will use different cards, but the rules will be the same.","71","","instructions","2021-07-07 16:32:43.560","","","","","",""
"casino-keyboard-response","69","330339","0.0-24.0-0.1","A1225","true","img/card_backs/set1/yellow.gif","img/card_backs/set1/red.gif","img/card_backs/set1/purple.gif","img/card_backs/set1/green.gif","img/card_backs/set2/pink.gif","img/card_backs/set2/gray.gif","img/card_backs/set2/blue.gif","img/card_backs/set2/orange.gif","""event"",""trial"",""time""
""fullscreenenter"",""1"",""3677""
","
","
","""event"",""trial"",""time""
""fullscreenenter"",""1"",""3677""
","
","","13108.70000000007","Ready? Put your fingers over the '2', '4', 6', and '8' keys so you are ready to play the game. </br> Then press 2 to start.","50","","instructions","2021-07-07 16:32:56.671","","","","","",""
"casino-fixation","70","330858","0.0-25.0-0.0","A1225","true","img/card_backs/set1/yellow.gif","img/card_backs/set1/red.gif","img/card_backs/set1/purple.gif","img/card_backs/set1/green.gif","img/card_backs/set2/pink.gif","img/card_backs/set2/gray.gif","img/card_backs/set2/blue.gif","img/card_backs/set2/orange.gif","""event"",""trial"",""time""
""fullscreenenter"",""1"",""3677""
","
","
","""event"",""trial"",""time""
""fullscreenenter"",""1"",""3677""
","
","","null","","null","","fixation","2021-07-07 16:32:57.190","","","","","",""
"card-selection-trial","71","334157","0.0-25.0-1.0","A1225","true","img/card_backs/set1/yellow.gif","img/card_backs/set1/red.gif","img/card_backs/set1/purple.gif","img/card_backs/set1/green.gif","img/card_backs/set2/pink.gif","img/card_backs/set2/gray.gif","img/card_backs/set2/blue.gif","img/card_backs/set2/orange.gif","""event"",""trial"",""time""
""fullscreenenter"",""1"",""3677""
","
","
","""event"",""trial"",""time""
""fullscreenenter"",""1"",""3677""
","
","","1270.8999999999069","","","","real_trial","2021-07-07 16:33:00.489","img/card_backs/set1/yellow.gif","0","-190","1","",""
"casino-fixation","72","334659","0.0-25.0-0.1","A1225","true","img/card_backs/set1/yellow.gif","img/card_backs/set1/red.gif","img/card_backs/set1/purple.gif","img/card_backs/set1/green.gif","img/card_backs/set2/pink.gif","img/card_backs/set2/gray.gif","img/card_backs/set2/blue.gif","img/card_backs/set2/orange.gif","""event"",""trial"",""time""
""fullscreenenter"",""1"",""3677""
","
","
","""event"",""trial"",""time""
""fullscreenenter"",""1"",""3677""
","
","","null","","null","","fixation","2021-07-07 16:33:00.991","","","","","",""
"card-selection-trial","73","337242","0.0-25.0-1.1","A1225","true","img/card_backs/set1/yellow.gif","img/card_backs/set1/red.gif","img/card_backs/set1/purple.gif","img/card_backs/set1/green.gif","img/card_backs/set2/pink.gif","img/card_backs/set2/gray.gif","img/card_backs/set2/blue.gif","img/card_backs/set2/orange.gif","""event"",""trial"",""time""
""fullscreenenter"",""1"",""3677""
","
","
","""event"",""trial"",""time""
""fullscreenenter"",""1"",""3677""
","
","","575.5","","","","real_trial","2021-07-07 16:33:03.574","img/card_backs/set1/green.gif","0","-90","1","",""
"casino-fixation","74","337753","0.0-25.0-0.2","A1225","true","img/card_backs/set1/yellow.gif","img/card_backs/set1/red.gif","img/card_backs/set1/purple.gif","img/card_backs/set1/green.gif","img/card_backs/set2/pink.gif","img/card_backs/set2/gray.gif","img/card_backs/set2/blue.gif","img/card_backs/set2/orange.gif","""event"",""trial"",""time""
""fullscreenenter"",""1"",""3677""
","
","
","""event"",""trial"",""time""
""fullscreenenter"",""1"",""3677""
","
","","null","","null","","fixation","2021-07-07 16:33:04.086","","","","","",""
"card-selection-trial","75","340188","0.0-25.0-1.2","A1225","true","img/card_backs/set1/yellow.gif","img/card_backs/set1/red.gif","img/card_backs/set1/purple.gif","img/card_backs/set1/green.gif","img/card_backs/set2/pink.gif","img/card_backs/set2/gray.gif","img/card_backs/set2/blue.gif","img/card_backs/set2/orange.gif","""event"",""trial"",""time""
""fullscreenenter"",""1"",""3677""
","
","
","""event"",""trial"",""time""
""fullscreenenter"",""1"",""3677""
","
","","406.5999999999767","","","","real_trial","2021-07-07 16:33:06.520","img/card_backs/set1/red.gif","1","-210","1","",""
"casino-fixation","76","340690","0.0-25.0-0.3","A1225","true","img/card_backs/set1/yellow.gif","img/card_backs/set1/red.gif","img/card_backs/set1/purple.gif","img/card_backs/set1/green.gif","img/card_backs/set2/pink.gif","img/card_backs/set2/gray.gif","img/card_backs/set2/blue.gif","img/card_backs/set2/orange.gif","""event"",""trial"",""time""
""fullscreenenter"",""1"",""3677""
","
","
","""event"",""trial"",""time""
""fullscreenenter"",""1"",""3677""
","
","","null","","null","","fixation","2021-07-07 16:33:07.022","","","","","",""
"card-selection-trial","77","343223","0.0-25.0-1.3","A1225","true","img/card_backs/set1/yellow.gif","img/card_backs/set1/red.gif","img/card_backs/set1/purple.gif","img/card_backs/set1/green.gif","img/card_backs/set2/pink.gif","img/card_backs/set2/gray.gif","img/card_backs/set2/blue.gif","img/card_backs/set2/orange.gif","""event"",""trial"",""time""
""fullscreenenter"",""1"",""3677""
","
","
","""event"",""trial"",""time""
""fullscreenenter"",""1"",""3677""
","
","","520.9000000000233","","","","real_trial","2021-07-07 16:33:09.555","img/card_backs/set1/red.gif","1","-210","1","",""
"casino-fixation","78","343728","0.0-25.0-0.4","A1225","true","img/card_backs/set1/yellow.gif","img/card_backs/set1/red.gif","img/card_backs/set1/purple.gif","img/card_backs/set1/green.gif","img/card_backs/set2/pink.gif","img/card_backs/set2/gray.gif","img/card_backs/set2/blue.gif","img/card_backs/set2/orange.gif","""event"",""trial"",""time""
""fullscreenenter"",""1"",""3677""
","
","
","""event"",""trial"",""time""
""fullscreenenter"",""1"",""3677""
","
","","null","","null","","fixation","2021-07-07 16:33:10.060","","","","","",""
"card-selection-trial","79","346191","0.0-25.0-1.4","A1225","true","img/card_backs/set1/yellow.gif","img/card_backs/set1/red.gif","img/card_backs/set1/purple.gif","img/card_backs/set1/green.gif","img/card_backs/set2/pink.gif","img/card_backs/set2/gray.gif","img/card_backs/set2/blue.gif","img/card_backs/set2/orange.gif","""event"",""trial"",""time""
""fullscreenenter"",""1"",""3677""
","
","
","""event"",""trial"",""time""
""fullscreenenter"",""1"",""3677""
","
","","446.0999999999767","","","","real_trial","2021-07-07 16:33:12.523","img/card_backs/set1/yellow.gif","2","250","1","",""
"casino-fixation","80","346696","0.0-25.0-0.5","A1225","true","img/card_backs/set1/yellow.gif","img/card_backs/set1/red.gif","img/card_backs/set1/purple.gif","img/card_backs/set1/green.gif","img/card_backs/set2/pink.gif","img/card_backs/set2/gray.gif","img/card_backs/set2/blue.gif","img/card_backs/set2/orange.gif","""event"",""trial"",""time""
""fullscreenenter"",""1"",""3677""
","
","
","""event"",""trial"",""time""
""fullscreenenter"",""1"",""3677""
","
","","null","","null","","fixation","2021-07-07 16:33:13.029","","","","","",""
"card-selection-trial","81","350180","0.0-25.0-1.5","A1225","true","img/card_backs/set1/yellow.gif","img/card_backs/set1/red.gif","img/card_backs/set1/purple.gif","img/card_backs/set1/green.gif","img/card_backs/set2/pink.gif","img/card_backs/set2/gray.gif","img/card_backs/set2/blue.gif","img/card_backs/set2/orange.gif","""event"",""trial"",""time""
""fullscreenenter"",""1"",""3677""
","
","
","""event"",""trial"",""time""
""fullscreenenter"",""1"",""3677""
","
","","1474.7000000000698","","","","real_trial","2021-07-07 16:33:16.513","img/card_backs/set1/yellow.gif","3","240","1","",""
"casino-fixation","82","350687","0.0-25.0-0.6","A1225","true","img/card_backs/set1/yellow.gif","img/card_backs/set1/red.gif","img/card_backs/set1/purple.gif","img/card_backs/set1/green.gif","img/card_backs/set2/pink.gif","img/card_backs/set2/gray.gif","img/card_backs/set2/blue.gif","img/card_backs/set2/orange.gif","""event"",""trial"",""time""
""fullscreenenter"",""1"",""3677""
","
","
","""event"",""trial"",""time""
""fullscreenenter"",""1"",""3677""
","
","","null","","null","","fixation","2021-07-07 16:33:17.019","","","","","",""
"card-selection-trial","83","354377","0.0-25.0-1.6","A1225","true","img/card_backs/set1/yellow.gif","img/card_backs/set1/red.gif","img/card_backs/set1/purple.gif","img/card_backs/set1/green.gif","img/card_backs/set2/pink.gif","img/card_backs/set2/gray.gif","img/card_backs/set2/blue.gif","img/card_backs/set2/orange.gif","""event"",""trial"",""time""
""fullscreenenter"",""1"",""3677""
","
","
","""event"",""trial"",""time""
""fullscreenenter"",""1"",""3677""
","
","","1680.0999999999767","","","","real_trial","2021-07-07 16:33:20.709","img/card_backs/set1/red.gif","2","260","1","",""
"casino-fixation","84","354887","0.0-25.0-0.7","A1225","true","img/card_backs/set1/yellow.gif","img/card_backs/set1/red.gif","img/card_backs/set1/purple.gif","img/card_backs/set1/green.gif","img/card_backs/set2/pink.gif","img/card_backs/set2/gray.gif","img/card_backs/set2/blue.gif","img/card_backs/set2/orange.gif","""event"",""trial"",""time""
""fullscreenenter"",""1"",""3677""
","
","
","""event"",""trial"",""time""
""fullscreenenter"",""1"",""3677""
","
","","null","","null","","fixation","2021-07-07 16:33:21.220","","","","","",""
"card-selection-trial","85","357300","0.0-25.0-1.7","A1225","true","img/card_backs/set1/yellow.gif","img/card_backs/set1/red.gif","img/card_backs/set1/purple.gif","img/card_backs/set1/green.gif","img/card_backs/set2/pink.gif","img/card_backs/set2/gray.gif","img/card_backs/set2/blue.gif","img/card_backs/set2/orange.gif","""event"",""trial"",""time""
""fullscreenenter"",""1"",""3677""
","
","
","""event"",""trial"",""time""
""fullscreenenter"",""1"",""3677""
","
","","397.89999999990687","","","","real_trial","2021-07-07 16:33:23.632","img/card_backs/set1/red.gif","2","-210","1","",""
"casino-fixation","86","357807","0.0-25.0-0.8","A1225","true","img/card_backs/set1/yellow.gif","img/card_backs/set1/red.gif","img/card_backs/set1/purple.gif","img/card_backs/set1/green.gif","img/card_backs/set2/pink.gif","img/card_backs/set2/gray.gif","img/card_backs/set2/blue.gif","img/card_backs/set2/orange.gif","""event"",""trial"",""time""
""fullscreenenter"",""1"",""3677""
","
","
","""event"",""trial"",""time""
""fullscreenenter"",""1"",""3677""
","
","","null","","null","","fixation","2021-07-07 16:33:24.139","","","","","",""
"card-selection-trial","87","360531","0.0-25.0-1.8","A1225","true","img/card_backs/set1/yellow.gif","img/card_backs/set1/red.gif","img/card_backs/set1/purple.gif","img/card_backs/set1/green.gif","img/card_backs/set2/pink.gif","img/card_backs/set2/gray.gif","img/card_backs/set2/blue.gif","img/card_backs/set2/orange.gif","""event"",""trial"",""time""
""fullscreenenter"",""1"",""3677""
","
","
","""event"",""trial"",""time""
""fullscreenenter"",""1"",""3677""
","
","","716.1000000000931","","","","real_trial","2021-07-07 16:33:26.863","img/card_backs/set1/red.gif","0","240","1","",""
"casino-fixation","88","361041","0.0-25.0-0.9","A1225","true","img/card_backs/set1/yellow.gif","img/card_backs/set1/red.gif","img/card_backs/set1/purple.gif","img/card_backs/set1/green.gif","img/card_backs/set2/pink.gif","img/card_backs/set2/gray.gif","img/card_backs/set2/blue.gif","img/card_backs/set2/orange.gif","""event"",""trial"",""time""
""fullscreenenter"",""1"",""3677""
","
","
","""event"",""trial"",""time""
""fullscreenenter"",""1"",""3677""
","
","","null","","null","","fixation","2021-07-07 16:33:27.373","","","","","",""
"card-selection-trial","89","365312","0.0-25.0-1.9","A1225","true","img/card_backs/set1/yellow.gif","img/card_backs/set1/red.gif","img/card_backs/set1/purple.gif","img/card_backs/set1/green.gif","img/card_backs/set2/pink.gif","img/card_backs/set2/gray.gif","img/card_backs/set2/blue.gif","img/card_backs/set2/orange.gif","""event"",""trial"",""time""
""fullscreenenter"",""1"",""3677""
","
","
","""event"",""trial"",""time""
""fullscreenenter"",""1"",""3677""
","
","","2258.6999999999534","","","","real_trial","2021-07-07 16:33:31.644","img/card_backs/set1/green.gif","0","-90","1","",""
"casino-fixation","90","365822","0.0-25.0-0.10","A1225","true","img/card_backs/set1/yellow.gif","img/card_backs/set1/red.gif","img/card_backs/set1/purple.gif","img/card_backs/set1/green.gif","img/card_backs/set2/pink.gif","img/card_backs/set2/gray.gif","img/card_backs/set2/blue.gif","img/card_backs/set2/orange.gif","""event"",""trial"",""time""
""fullscreenenter"",""1"",""3677""
","
","
","""event"",""trial"",""time""
""fullscreenenter"",""1"",""3677""
","
","","null","","null","","fixation","2021-07-07 16:33:32.154","","","","","",""
"card-selection-trial","91","368388","0.0-25.0-1.10","A1225","true","img/card_backs/set1/yellow.gif","img/card_backs/set1/red.gif","img/card_backs/set1/purple.gif","img/card_backs/set1/green.gif","img/card_backs/set2/pink.gif","img/card_backs/set2/gray.gif","img/card_backs/set2/blue.gif","img/card_backs/set2/orange.gif","""event"",""trial"",""time""
""fullscreenenter"",""1"",""3677""
","
","
","""event"",""trial"",""time""
""fullscreenenter"",""1"",""3677""
","
","","543.9000000000233","","","","real_trial","2021-07-07 16:33:34.720","img/card_backs/set1/red.gif","0","-210","1","",""
"casino-fixation","92","368907","0.0-25.0-0.11","A1225","true","img/card_backs/set1/yellow.gif","img/card_backs/set1/red.gif","img/card_backs/set1/purple.gif","img/card_backs/set1/green.gif","img/card_backs/set2/pink.gif","img/card_backs/set2/gray.gif","img/card_backs/set2/blue.gif","img/card_backs/set2/orange.gif","""event"",""trial"",""time""
""fullscreenenter"",""1"",""3677""
","
","
","""event"",""trial"",""time""
""fullscreenenter"",""1"",""3677""
","
","","null","","null","","fixation","2021-07-07 16:33:35.239","","","","","",""
"card-selection-trial","93","371228","0.0-25.0-1.11","A1225","true","img/card_backs/set1/yellow.gif","img/card_backs/set1/red.gif","img/card_backs/set1/purple.gif","img/card_backs/set1/green.gif","img/card_backs/set2/pink.gif","img/card_backs/set2/gray.gif","img/card_backs/set2/blue.gif","img/card_backs/set2/orange.gif","""event"",""trial"",""time""
""fullscreenenter"",""1"",""3677""
","
","
","""event"",""trial"",""time""
""fullscreenenter"",""1"",""3677""
","
","","310","","","","real_trial","2021-07-07 16:33:37.560","img/card_backs/set1/red.gif","0","-210","1","",""
"casino-fixation","94","371738","0.0-25.0-0.12","A1225","true","img/card_backs/set1/yellow.gif","img/card_backs/set1/red.gif","img/card_backs/set1/purple.gif","img/card_backs/set1/green.gif","img/card_backs/set2/pink.gif","img/card_backs/set2/gray.gif","img/card_backs/set2/blue.gif","img/card_backs/set2/orange.gif","""event"",""trial"",""time""
""fullscreenenter"",""1"",""3677""
","
","
","""event"",""trial"",""time""
""fullscreenenter"",""1"",""3677""
","
","","null","","null","","fixation","2021-07-07 16:33:38.070","","","","","",""
"card-selection-trial","95","375460","0.0-25.0-1.12","A1225","true","img/card_backs/set1/yellow.gif","img/card_backs/set1/red.gif","img/card_backs/set1/purple.gif","img/card_backs/set1/green.gif","img/card_backs/set2/pink.gif","img/card_backs/set2/gray.gif","img/card_backs/set2/blue.gif","img/card_backs/set2/orange.gif","""event"",""trial"",""time""
""fullscreenenter"",""1"",""3677""
","
","
","""event"",""trial"",""time""
""fullscreenenter"",""1"",""3677""
","
","","1702.2000000000698","","","","real_trial","2021-07-07 16:33:41.792","img/card_backs/set1/red.gif","1","260","1","",""
"casino-fixation","96","375968","0.0-25.0-0.13","A1225","true","img/card_backs/set1/yellow.gif","img/card_backs/set1/red.gif","img/card_backs/set1/purple.gif","img/card_backs/set1/green.gif","img/card_backs/set2/pink.gif","img/card_backs/set2/gray.gif","img/card_backs/set2/blue.gif","img/card_backs/set2/orange.gif","""event"",""trial"",""time""
""fullscreenenter"",""1"",""3677""
","
","
","""event"",""trial"",""time""
""fullscreenenter"",""1"",""3677""
","
","","null","","null","","fixation","2021-07-07 16:33:42.300","","","","","",""
"card-selection-trial","97","379589","0.0-25.0-1.13","A1225","true","img/card_backs/set1/yellow.gif","img/card_backs/set1/red.gif","img/card_backs/set1/purple.gif","img/card_backs/set1/green.gif","img/card_backs/set2/pink.gif","img/card_backs/set2/gray.gif","img/card_backs/set2/blue.gif","img/card_backs/set2/orange.gif","""event"",""trial"",""time""
""fullscreenenter"",""1"",""3677""
","
","
","""event"",""trial"",""time""
""fullscreenenter"",""1"",""3677""
","
","","1611.1999999999534","","","","real_trial","2021-07-07 16:33:45.921","img/card_backs/set1/purple.gif","1","50","1","",""
"casino-fixation","98","380097","0.0-25.0-0.14","A1225","true","img/card_backs/set1/yellow.gif","img/card_backs/set1/red.gif","img/card_backs/set1/purple.gif","img/card_backs/set1/green.gif","img/card_backs/set2/pink.gif","img/card_backs/set2/gray.gif","img/card_backs/set2/blue.gif","img/card_backs/set2/orange.gif","""event"",""trial"",""time""
""fullscreenenter"",""1"",""3677""
","
","
","""event"",""trial"",""time""
""fullscreenenter"",""1"",""3677""
","
","","null","","null","","fixation","2021-07-07 16:33:46.429","","","","","",""
"card-selection-trial","99","382824","0.0-25.0-1.14","A1225","true","img/card_backs/set1/yellow.gif","img/card_backs/set1/red.gif","img/card_backs/set1/purple.gif","img/card_backs/set1/green.gif","img/card_backs/set2/pink.gif","img/card_backs/set2/gray.gif","img/card_backs/set2/blue.gif","img/card_backs/set2/orange.gif","""event"",""trial"",""time""
""fullscreenenter"",""1"",""3677""
","
","
","""event"",""trial"",""time""
""fullscreenenter"",""1"",""3677""
","
","","708.2000000000698","","","","real_trial","2021-07-07 16:33:49.156","img/card_backs/set1/purple.gif","0","50","1","",""
"casino-fixation","100","383333","0.0-25.0-0.15","A1225","true","img/card_backs/set1/yellow.gif","img/card_backs/set1/red.gif","img/card_backs/set1/purple.gif","img/card_backs/set1/green.gif","img/card_backs/set2/pink.gif","img/card_backs/set2/gray.gif","img/card_backs/set2/blue.gif","img/card_backs/set2/orange.gif","""event"",""trial"",""time""
""fullscreenenter"",""1"",""3677""
","
","
","""event"",""trial"",""time""
""fullscreenenter"",""1"",""3677""
","
","","null","","null","","fixation","2021-07-07 16:33:49.665","","","","","",""
"card-selection-trial","101","386232","0.0-25.0-1.15","A1225","true","img/card_backs/set1/yellow.gif","img/card_backs/set1/red.gif","img/card_backs/set1/purple.gif","img/card_backs/set1/green.gif","img/card_backs/set2/pink.gif","img/card_backs/set2/gray.gif","img/card_backs/set2/blue.gif","img/card_backs/set2/orange.gif","""event"",""trial"",""time""
""fullscreenenter"",""1"",""3677""
","
","
","""event"",""trial"",""time""
""fullscreenenter"",""1"",""3677""
","
","","888.3000000000466","","","","real_trial","2021-07-07 16:33:52.564","img/card_backs/set1/purple.gif","3","40","1","",""
"casino-fixation","102","386745","0.0-25.0-0.16","A1225","true","img/card_backs/set1/yellow.gif","img/card_backs/set1/red.gif","img/card_backs/set1/purple.gif","img/card_backs/set1/green.gif","img/card_backs/set2/pink.gif","img/card_backs/set2/gray.gif","img/card_backs/set2/blue.gif","img/card_backs/set2/orange.gif","""event"",""trial"",""time""
""fullscreenenter"",""1"",""3677""
","
","
","""event"",""trial"",""time""
""fullscreenenter"",""1"",""3677""
","
","","null","","null","","fixation","2021-07-07 16:33:53.077","","","","","",""
"card-selection-trial","103","389272","0.0-25.0-1.16","A1225","true","img/card_backs/set1/yellow.gif","img/card_backs/set1/red.gif","img/card_backs/set1/purple.gif","img/card_backs/set1/green.gif","img/card_backs/set2/pink.gif","img/card_backs/set2/gray.gif","img/card_backs/set2/blue.gif","img/card_backs/set2/orange.gif","""event"",""trial"",""time""
""fullscreenenter"",""1"",""3677""
","
","
","""event"",""trial"",""time""
""fullscreenenter"",""1"",""3677""
","
","","516.5999999999767","","","","real_trial","2021-07-07 16:33:55.605","img/card_backs/set1/purple.gif","3","-100","1","",""
"casino-fixation","104","389780","0.0-25.0-0.17","A1225","true","img/card_backs/set1/yellow.gif","img/card_backs/set1/red.gif","img/card_backs/set1/purple.gif","img/card_backs/set1/green.gif","img/card_backs/set2/pink.gif","img/card_backs/set2/gray.gif","img/card_backs/set2/blue.gif","img/card_backs/set2/orange.gif","""event"",""trial"",""time""
""fullscreenenter"",""1"",""3677""
","
","
","""event"",""trial"",""time""
""fullscreenenter"",""1"",""3677""
","
","","null","","null","","fixation","2021-07-07 16:33:56.112","","","","","",""
"card-selection-trial","105","393172","0.0-25.0-1.17","A1225","true","img/card_backs/set1/yellow.gif","img/card_backs/set1/red.gif","img/card_backs/set1/purple.gif","img/card_backs/set1/green.gif","img/card_backs/set2/pink.gif","img/card_backs/set2/gray.gif","img/card_backs/set2/blue.gif","img/card_backs/set2/orange.gif","""event"",""trial"",""time""
""fullscreenenter"",""1"",""3677""
","
","
","""event"",""trial"",""time""
""fullscreenenter"",""1"",""3677""
","
","","1375.9000000000233","","","","real_trial","2021-07-07 16:33:59.504","img/card_backs/set1/yellow.gif","3","260","1","",""
"casino-fixation","106","393680","0.0-25.0-0.18","A1225","true","img/card_backs/set1/yellow.gif","img/card_backs/set1/red.gif","img/card_backs/set1/purple.gif","img/card_backs/set1/green.gif","img/card_backs/set2/pink.gif","img/card_backs/set2/gray.gif","img/card_backs/set2/blue.gif","img/card_backs/set2/orange.gif","""event"",""trial"",""time""
""fullscreenenter"",""1"",""3677""
","
","
","""event"",""trial"",""time""
""fullscreenenter"",""1"",""3677""
","
","","null","","null","","fixation","2021-07-07 16:34:00.012","","","","","",""
"card-selection-trial","107","396666","0.0-25.0-1.18","A1225","true","img/card_backs/set1/yellow.gif","img/card_backs/set1/red.gif","img/card_backs/set1/purple.gif","img/card_backs/set1/green.gif","img/card_backs/set2/pink.gif","img/card_backs/set2/gray.gif","img/card_backs/set2/blue.gif","img/card_backs/set2/orange.gif","""event"",""trial"",""time""
""fullscreenenter"",""1"",""3677""
","
","
","""event"",""trial"",""time""
""fullscreenenter"",""1"",""3677""
","
","","971.5","","","","real_trial","2021-07-07 16:34:02.998","img/card_backs/set1/yellow.gif","1","240","1","",""
"casino-fixation","108","397174","0.0-25.0-0.19","A1225","true","img/card_backs/set1/yellow.gif","img/card_backs/set1/red.gif","img/card_backs/set1/purple.gif","img/card_backs/set1/green.gif","img/card_backs/set2/pink.gif","img/card_backs/set2/gray.gif","img/card_backs/set2/blue.gif","img/card_backs/set2/orange.gif","""event"",""trial"",""time""
""fullscreenenter"",""1"",""3677""
","
","
","""event"",""trial"",""time""
""fullscreenenter"",""1"",""3677""
","
","","null","","null","","fixation","2021-07-07 16:34:03.506","","","","","",""
"card-selection-trial","109","399576","0.0-25.0-1.19","A1225","true","img/card_backs/set1/yellow.gif","img/card_backs/set1/red.gif","img/card_backs/set1/purple.gif","img/card_backs/set1/green.gif","img/card_backs/set2/pink.gif","img/card_backs/set2/gray.gif","img/card_backs/set2/blue.gif","img/card_backs/set2/orange.gif","""event"",""trial"",""time""
""fullscreenenter"",""1"",""3677""
","
","
","""event"",""trial"",""time""
""fullscreenenter"",""1"",""3677""
","
","","384.4000000000233","","","","real_trial","2021-07-07 16:34:05.908","img/card_backs/set1/yellow.gif","1","240","1","",""
"casino-fixation","110","400088","0.0-25.0-0.20","A1225","true","img/card_backs/set1/yellow.gif","img/card_backs/set1/red.gif","img/card_backs/set1/purple.gif","img/card_backs/set1/green.gif","img/card_backs/set2/pink.gif","img/card_backs/set2/gray.gif","img/card_backs/set2/blue.gif","img/card_backs/set2/orange.gif","""event"",""trial"",""time""
""fullscreenenter"",""1"",""3677""
","
","
","""event"",""trial"",""time""
""fullscreenenter"",""1"",""3677""
","
","","null","","null","","fixation","2021-07-07 16:34:06.420","","","","","",""
"card-selection-trial","111","402617","0.0-25.0-1.20","A1225","true","img/card_backs/set1/yellow.gif","img/card_backs/set1/red.gif","img/card_backs/set1/purple.gif","img/card_backs/set1/green.gif","img/card_backs/set2/pink.gif","img/card_backs/set2/gray.gif","img/card_backs/set2/blue.gif","img/card_backs/set2/orange.gif","""event"",""trial"",""time""
""fullscreenenter"",""1"",""3677""
","
","
","""event"",""trial"",""time""
""fullscreenenter"",""1"",""3677""
","
","","520.7000000000698","","","","real_trial","2021-07-07 16:34:08.949","img/card_backs/set1/yellow.gif","0","-210","1","",""
"casino-fixation","112","403137","0.0-25.0-0.21","A1225","true","img/card_backs/set1/yellow.gif","img/card_backs/set1/red.gif","img/card_backs/set1/purple.gif","img/card_backs/set1/green.gif","img/card_backs/set2/pink.gif","img/card_backs/set2/gray.gif","img/card_backs/set2/blue.gif","img/card_backs/set2/orange.gif","""event"",""trial"",""time""
""fullscreenenter"",""1"",""3677""
","
","
","""event"",""trial"",""time""
""fullscreenenter"",""1"",""3677""
","
","","null","","null","","fixation","2021-07-07 16:34:09.469","","","","","",""
"card-selection-trial","113","405564","0.0-25.0-1.21","A1225","true","img/card_backs/set1/yellow.gif","img/card_backs/set1/red.gif","img/card_backs/set1/purple.gif","img/card_backs/set1/green.gif","img/card_backs/set2/pink.gif","img/card_backs/set2/gray.gif","img/card_backs/set2/blue.gif","img/card_backs/set2/orange.gif","""event"",""trial"",""time""
""fullscreenenter"",""1"",""3677""
","
","
","""event"",""trial"",""time""
""fullscreenenter"",""1"",""3677""
","
","","419.5999999999767","","","","real_trial","2021-07-07 16:34:11.896","img/card_backs/set1/yellow.gif","0","-190","1","",""
"casino-fixation","114","406066","0.0-25.0-0.22","A1225","true","img/card_backs/set1/yellow.gif","img/card_backs/set1/red.gif","img/card_backs/set1/purple.gif","img/card_backs/set1/green.gif","img/card_backs/set2/pink.gif","img/card_backs/set2/gray.gif","img/card_backs/set2/blue.gif","img/card_backs/set2/orange.gif","""event"",""trial"",""time""
""fullscreenenter"",""1"",""3677""
","
","
","""event"",""trial"",""time""
""fullscreenenter"",""1"",""3677""
","
","","null","","null","","fixation","2021-07-07 16:34:12.398","","","","","",""
"card-selection-trial","115","409285","0.0-25.0-1.22","A1225","true","img/card_backs/set1/yellow.gif","img/card_backs/set1/red.gif","img/card_backs/set1/purple.gif","img/card_backs/set1/green.gif","img/card_backs/set2/pink.gif","img/card_backs/set2/gray.gif","img/card_backs/set2/blue.gif","img/card_backs/set2/orange.gif","""event"",""trial"",""time""
""fullscreenenter"",""1"",""3677""
","
","
","""event"",""trial"",""time""
""fullscreenenter"",""1"",""3677""
","
","","1205.2999999999302","","","","real_trial","2021-07-07 16:34:15.618","img/card_backs/set1/yellow.gif","2","-200","1","",""
"casino-fixation","116","409790","0.0-25.0-0.23","A1225","true","img/card_backs/set1/yellow.gif","img/card_backs/set1/red.gif","img/card_backs/set1/purple.gif","img/card_backs/set1/green.gif","img/card_backs/set2/pink.gif","img/card_backs/set2/gray.gif","img/card_backs/set2/blue.gif","img/card_backs/set2/orange.gif","""event"",""trial"",""time""
""fullscreenenter"",""1"",""3677""
","
","
","""event"",""trial"",""time""
""fullscreenenter"",""1"",""3677""
","
","","null","","null","","fixation","2021-07-07 16:34:16.122","","","","","",""
"card-selection-trial","117","412252","0.0-25.0-1.23","A1225","true","img/card_backs/set1/yellow.gif","img/card_backs/set1/red.gif","img/card_backs/set1/purple.gif","img/card_backs/set1/green.gif","img/card_backs/set2/pink.gif","img/card_backs/set2/gray.gif","img/card_backs/set2/blue.gif","img/card_backs/set2/orange.gif","""event"",""trial"",""time""
""fullscreenenter"",""1"",""3677""
","
","
","""event"",""trial"",""time""
""fullscreenenter"",""1"",""3677""
","
","","447","","","","real_trial","2021-07-07 16:34:18.584","img/card_backs/set1/yellow.gif","2","-200","1","",""
"casino-fixation","118","412756","0.0-25.0-0.24","A1225","true","img/card_backs/set1/yellow.gif","img/card_backs/set1/red.gif","img/card_backs/set1/purple.gif","img/card_backs/set1/green.gif","img/card_backs/set2/pink.gif","img/card_backs/set2/gray.gif","img/card_backs/set2/blue.gif","img/card_backs/set2/orange.gif","""event"",""trial"",""time""
""fullscreenenter"",""1"",""3677""
","
","
","""event"",""trial"",""time""
""fullscreenenter"",""1"",""3677""
","
","","null","","null","","fixation","2021-07-07 16:34:19.088","","","","","",""
"card-selection-trial","119","415842","0.0-25.0-1.24","A1225","true","img/card_backs/set1/yellow.gif","img/card_backs/set1/red.gif","img/card_backs/set1/purple.gif","img/card_backs/set1/green.gif","img/card_backs/set2/pink.gif","img/card_backs/set2/gray.gif","img/card_backs/set2/blue.gif","img/card_backs/set2/orange.gif","""event"",""trial"",""time""
""fullscreenenter"",""1"",""3677""
","
","
","""event"",""trial"",""time""
""fullscreenenter"",""1"",""3677""
","
","","1072.1999999999534","","","","real_trial","2021-07-07 16:34:22.175","img/card_backs/set1/yellow.gif","3","260","1","",""
"casino-fixation","120","416350","0.0-25.0-0.25","A1225","true","img/card_backs/set1/yellow.gif","img/card_backs/set1/red.gif","img/card_backs/set1/purple.gif","img/card_backs/set1/green.gif","img/card_backs/set2/pink.gif","img/card_backs/set2/gray.gif","img/card_backs/set2/blue.gif","img/card_backs/set2/orange.gif","""event"",""trial"",""time""
""fullscreenenter"",""1"",""3677""
","
","
","""event"",""trial"",""time""
""fullscreenenter"",""1"",""3677""
","
","","null","","null","","fixation","2021-07-07 16:34:22.682","","","","","",""
"card-selection-trial","121","419458","0.0-25.0-1.25","A1225","true","img/card_backs/set1/yellow.gif","img/card_backs/set1/red.gif","img/card_backs/set1/purple.gif","img/card_backs/set1/green.gif","img/card_backs/set2/pink.gif","img/card_backs/set2/gray.gif","img/card_backs/set2/blue.gif","img/card_backs/set2/orange.gif","""event"",""trial"",""time""
""fullscreenenter"",""1"",""3677""
","
","
","""event"",""trial"",""time""
""fullscreenenter"",""1"",""3677""
","
","","1095.2000000000698","","","","real_trial","2021-07-07 16:34:25.790","img/card_backs/set1/purple.gif","2","60","1","",""
"casino-fixation","122","419967","0.0-25.0-0.26","A1225","true","img/card_backs/set1/yellow.gif","img/card_backs/set1/red.gif","img/card_backs/set1/purple.gif","img/card_backs/set1/green.gif","img/card_backs/set2/pink.gif","img/card_backs/set2/gray.gif","img/card_backs/set2/blue.gif","img/card_backs/set2/orange.gif","""event"",""trial"",""time""
""fullscreenenter"",""1"",""3677""
","
","
","""event"",""trial"",""time""
""fullscreenenter"",""1"",""3677""
","
","","null","","null","","fixation","2021-07-07 16:34:26.299","","","","","",""
"card-selection-trial","123","422982","0.0-25.0-1.26","A1225","true","img/card_backs/set1/yellow.gif","img/card_backs/set1/red.gif","img/card_backs/set1/purple.gif","img/card_backs/set1/green.gif","img/card_backs/set2/pink.gif","img/card_backs/set2/gray.gif","img/card_backs/set2/blue.gif","img/card_backs/set2/orange.gif","""event"",""trial"",""time""
""fullscreenenter"",""1"",""3677""
","
","
","""event"",""trial"",""time""
""fullscreenenter"",""1"",""3677""
","
","","1005.1000000000931","","","","real_trial","2021-07-07 16:34:29.314","img/card_backs/set1/purple.gif","1","-90","1","",""
"casino-fixation","124","423495","0.0-25.0-0.27","A1225","true","img/card_backs/set1/yellow.gif","img/card_backs/set1/red.gif","img/card_backs/set1/purple.gif","img/card_backs/set1/green.gif","img/card_backs/set2/pink.gif","img/card_backs/set2/gray.gif","img/card_backs/set2/blue.gif","img/card_backs/set2/orange.gif","""event"",""trial"",""time""
""fullscreenenter"",""1"",""3677""
","
","
","""event"",""trial"",""time""
""fullscreenenter"",""1"",""3677""
","
","","null","","null","","fixation","2021-07-07 16:34:29.827","","","","","",""
"card-selection-trial","125","426408","0.0-25.0-1.27","A1225","true","img/card_backs/set1/yellow.gif","img/card_backs/set1/red.gif","img/card_backs/set1/purple.gif","img/card_backs/set1/green.gif","img/card_backs/set2/pink.gif","img/card_backs/set2/gray.gif","img/card_backs/set2/blue.gif","img/card_backs/set2/orange.gif","""event"",""trial"",""time""
""fullscreenenter"",""1"",""3677""
","
","
","""event"",""trial"",""time""
""fullscreenenter"",""1"",""3677""
","
","","895.5","","","","real_trial","2021-07-07 16:34:32.740","img/card_backs/set1/green.gif","1","60","1","",""
"casino-fixation","126","426914","0.0-25.0-0.28","A1225","true","img/card_backs/set1/yellow.gif","img/card_backs/set1/red.gif","img/card_backs/set1/purple.gif","img/card_backs/set1/green.gif","img/card_backs/set2/pink.gif","img/card_backs/set2/gray.gif","img/card_backs/set2/blue.gif","img/card_backs/set2/orange.gif","""event"",""trial"",""time""
""fullscreenenter"",""1"",""3677""
","
","
","""event"",""trial"",""time""
""fullscreenenter"",""1"",""3677""
","
","","null","","null","","fixation","2021-07-07 16:34:33.246","","","","","",""
"card-selection-trial","127","429448","0.0-25.0-1.28","A1225","true","img/card_backs/set1/yellow.gif","img/card_backs/set1/red.gif","img/card_backs/set1/purple.gif","img/card_backs/set1/green.gif","img/card_backs/set2/pink.gif","img/card_backs/set2/gray.gif","img/card_backs/set2/blue.gif","img/card_backs/set2/orange.gif","""event"",""trial"",""time""
""fullscreenenter"",""1"",""3677""
","
","
","""event"",""trial"",""time""
""fullscreenenter"",""1"",""3677""
","
","","517.2999999999302","","","","real_trial","2021-07-07 16:34:35.780","img/card_backs/set1/green.gif","0","-100","1","",""
"casino-fixation","128","429964","0.0-25.0-0.29","A1225","true","img/card_backs/set1/yellow.gif","img/card_backs/set1/red.gif","img/card_backs/set1/purple.gif","img/card_backs/set1/green.gif","img/card_backs/set2/pink.gif","img/card_backs/set2/gray.gif","img/card_backs/set2/blue.gif","img/card_backs/set2/orange.gif","""event"",""trial"",""time""
""fullscreenenter"",""1"",""3677""
","
","
","""event"",""trial"",""time""
""fullscreenenter"",""1"",""3677""
","
","","null","","null","","fixation","2021-07-07 16:34:36.296","","","","","",""
"card-selection-trial","129","432644","0.0-25.0-1.29","A1225","true","img/card_backs/set1/yellow.gif","img/card_backs/set1/red.gif","img/card_backs/set1/purple.gif","img/card_backs/set1/green.gif","img/card_backs/set2/pink.gif","img/card_backs/set2/gray.gif","img/card_backs/set2/blue.gif","img/card_backs/set2/orange.gif","""event"",""trial"",""time""
""fullscreenenter"",""1"",""3677""
","
","
","""event"",""trial"",""time""
""fullscreenenter"",""1"",""3677""
","
","","675.1000000000931","","","","real_trial","2021-07-07 16:34:38.976","img/card_backs/set1/red.gif","0","-190","1","",""
"casino-fixation","130","433156","0.0-25.0-0.30","A1225","true","img/card_backs/set1/yellow.gif","img/card_backs/set1/red.gif","img/card_backs/set1/purple.gif","img/card_backs/set1/green.gif","img/card_backs/set2/pink.gif","img/card_backs/set2/gray.gif","img/card_backs/set2/blue.gif","img/card_backs/set2/orange.gif","""event"",""trial"",""time""
""fullscreenenter"",""1"",""3677""
","
","
","""event"",""trial"",""time""
""fullscreenenter"",""1"",""3677""
","
","","null","","null","","fixation","2021-07-07 16:34:39.488","","","","","",""
"card-selection-trial","131","436278","0.0-25.0-1.30","A1225","true","img/card_backs/set1/yellow.gif","img/card_backs/set1/red.gif","img/card_backs/set1/purple.gif","img/card_backs/set1/green.gif","img/card_backs/set2/pink.gif","img/card_backs/set2/gray.gif","img/card_backs/set2/blue.gif","img/card_backs/set2/orange.gif","""event"",""trial"",""time""
""fullscreenenter"",""1"",""3677""
","
","
","""event"",""trial"",""time""
""fullscreenenter"",""1"",""3677""
","
","","1097.4000000000233","","","","real_trial","2021-07-07 16:34:42.611","img/card_backs/set1/yellow.gif","2","-210","1","",""
"casino-fixation","132","436787","0.0-25.0-0.31","A1225","true","img/card_backs/set1/yellow.gif","img/card_backs/set1/red.gif","img/card_backs/set1/purple.gif","img/card_backs/set1/green.gif","img/card_backs/set2/pink.gif","img/card_backs/set2/gray.gif","img/card_backs/set2/blue.gif","img/card_backs/set2/orange.gif","""event"",""trial"",""time""
""fullscreenenter"",""1"",""3677""
","
","
","""event"",""trial"",""time""
""fullscreenenter"",""1"",""3677""
","
","","null","","null","","fixation","2021-07-07 16:34:43.119","","","","","",""
"card-selection-trial","133","439605","0.0-25.0-1.31","A1225","true","img/card_backs/set1/yellow.gif","img/card_backs/set1/red.gif","img/card_backs/set1/purple.gif","img/card_backs/set1/green.gif","img/card_backs/set2/pink.gif","img/card_backs/set2/gray.gif","img/card_backs/set2/blue.gif","img/card_backs/set2/orange.gif","""event"",""trial"",""time""
""fullscreenenter"",""1"",""3677""
","
","
","""event"",""trial"",""time""
""fullscreenenter"",""1"",""3677""
","
","","809.5999999999767","","","","real_trial","2021-07-07 16:34:45.937","img/card_backs/set1/green.gif","2","-90","1","",""
"casino-fixation","134","440116","0.0-25.0-0.32","A1225","true","img/card_backs/set1/yellow.gif","img/card_backs/set1/red.gif","img/card_backs/set1/purple.gif","img/card_backs/set1/green.gif","img/card_backs/set2/pink.gif","img/card_backs/set2/gray.gif","img/card_backs/set2/blue.gif","img/card_backs/set2/orange.gif","""event"",""trial"",""time""
""fullscreenenter"",""1"",""3677""
","
","
","""event"",""trial"",""time""
""fullscreenenter"",""1"",""3677""
","
","","null","","null","","fixation","2021-07-07 16:34:46.448","","","","","",""
"card-selection-trial","135","442731","0.0-25.0-1.32","A1225","true","img/card_backs/set1/yellow.gif","img/card_backs/set1/red.gif","img/card_backs/set1/purple.gif","img/card_backs/set1/green.gif","img/card_backs/set2/pink.gif","img/card_backs/set2/gray.gif","img/card_backs/set2/blue.gif","img/card_backs/set2/orange.gif","""event"",""trial"",""time""
""fullscreenenter"",""1"",""3677""
","
","
","""event"",""trial"",""time""
""fullscreenenter"",""1"",""3677""
","
","","603.2999999999302","","","","real_trial","2021-07-07 16:34:49.063","img/card_backs/set1/purple.gif","0","-90","1","",""
"casino-fixation","136","443243","0.0-25.0-0.33","A1225","true","img/card_backs/set1/yellow.gif","img/card_backs/set1/red.gif","img/card_backs/set1/purple.gif","img/card_backs/set1/green.gif","img/card_backs/set2/pink.gif","img/card_backs/set2/gray.gif","img/card_backs/set2/blue.gif","img/card_backs/set2/orange.gif","""event"",""trial"",""time""
""fullscreenenter"",""1"",""3677""
","
","
","""event"",""trial"",""time""
""fullscreenenter"",""1"",""3677""
","
","","null","","null","","fixation","2021-07-07 16:34:49.575","","","","","",""
"card-selection-trial","137","446119","0.0-25.0-1.33","A1225","true","img/card_backs/set1/yellow.gif","img/card_backs/set1/red.gif","img/card_backs/set1/purple.gif","img/card_backs/set1/green.gif","img/card_backs/set2/pink.gif","img/card_backs/set2/gray.gif","img/card_backs/set2/blue.gif","img/card_backs/set2/orange.gif","""event"",""trial"",""time""
""fullscreenenter"",""1"",""3677""
","
","
","""event"",""trial"",""time""
""fullscreenenter"",""1"",""3677""
","
","","863.5999999999767","","","","real_trial","2021-07-07 16:34:52.451","img/card_backs/set1/purple.gif","1","50","1","",""
"casino-fixation","138","446625","0.0-25.0-0.34","A1225","true","img/card_backs/set1/yellow.gif","img/card_backs/set1/red.gif","img/card_backs/set1/purple.gif","img/card_backs/set1/green.gif","img/card_backs/set2/pink.gif","img/card_backs/set2/gray.gif","img/card_backs/set2/blue.gif","img/card_backs/set2/orange.gif","""event"",""trial"",""time""
""fullscreenenter"",""1"",""3677""
","
","
","""event"",""trial"",""time""
""fullscreenenter"",""1"",""3677""
","
","","null","","null","","fixation","2021-07-07 16:34:52.957","","","","","",""
"card-selection-trial","139","449033","0.0-25.0-1.34","A1225","true","img/card_backs/set1/yellow.gif","img/card_backs/set1/red.gif","img/card_backs/set1/purple.gif","img/card_backs/set1/green.gif","img/card_backs/set2/pink.gif","img/card_backs/set2/gray.gif","img/card_backs/set2/blue.gif","img/card_backs/set2/orange.gif","""event"",""trial"",""time""
""fullscreenenter"",""1"",""3677""
","
","
","""event"",""trial"",""time""
""fullscreenenter"",""1"",""3677""
","
","","394.19999999995343","","","","real_trial","2021-07-07 16:34:55.365","img/card_backs/set1/yellow.gif","0","250","1","",""
"casino-fixation","140","449538","0.0-25.0-0.35","A1225","true","img/card_backs/set1/yellow.gif","img/card_backs/set1/red.gif","img/card_backs/set1/purple.gif","img/card_backs/set1/green.gif","img/card_backs/set2/pink.gif","img/card_backs/set2/gray.gif","img/card_backs/set2/blue.gif","img/card_backs/set2/orange.gif","""event"",""trial"",""time""
""fullscreenenter"",""1"",""3677""
","
","
","""event"",""trial"",""time""
""fullscreenenter"",""1"",""3677""
","
","","null","","null","","fixation","2021-07-07 16:34:55.870","","","","","",""
"card-selection-trial","141","451953","0.0-25.0-1.35","A1225","true","img/card_backs/set1/yellow.gif","img/card_backs/set1/red.gif","img/card_backs/set1/purple.gif","img/card_backs/set1/green.gif","img/card_backs/set2/pink.gif","img/card_backs/set2/gray.gif","img/card_backs/set2/blue.gif","img/card_backs/set2/orange.gif","""event"",""trial"",""time""
""fullscreenenter"",""1"",""3677""
","
","
","""event"",""trial"",""time""
""fullscreenenter"",""1"",""3677""
","
","","405.9000000000233","","","","real_trial","2021-07-07 16:34:58.285","img/card_backs/set1/yellow.gif","0","250","1","",""
"casino-fixation","142","452470","0.0-25.0-0.36","A1225","true","img/card_backs/set1/yellow.gif","img/card_backs/set1/red.gif","img/card_backs/set1/purple.gif","img/card_backs/set1/green.gif","img/card_backs/set2/pink.gif","img/card_backs/set2/gray.gif","img/card_backs/set2/blue.gif","img/card_backs/set2/orange.gif","""event"",""trial"",""time""
""fullscreenenter"",""1"",""3677""
","
","
","""event"",""trial"",""time""
""fullscreenenter"",""1"",""3677""
","
","","null","","null","","fixation","2021-07-07 16:34:58.802","","","","","",""
"card-selection-trial","143","455244","0.0-25.0-1.36","A1225","true","img/card_backs/set1/yellow.gif","img/card_backs/set1/red.gif","img/card_backs/set1/purple.gif","img/card_backs/set1/green.gif","img/card_backs/set2/pink.gif","img/card_backs/set2/gray.gif","img/card_backs/set2/blue.gif","img/card_backs/set2/orange.gif","""event"",""trial"",""time""
""fullscreenenter"",""1"",""3677""
","
","
","""event"",""trial"",""time""
""fullscreenenter"",""1"",""3677""
","
","","760.1999999999534","","","","real_trial","2021-07-07 16:35:01.577","img/card_backs/set1/yellow.gif","1","-190","1","",""
"casino-fixation","144","455753","0.0-25.0-0.37","A1225","true","img/card_backs/set1/yellow.gif","img/card_backs/set1/red.gif","img/card_backs/set1/purple.gif","img/card_backs/set1/green.gif","img/card_backs/set2/pink.gif","img/card_backs/set2/gray.gif","img/card_backs/set2/blue.gif","img/card_backs/set2/orange.gif","""event"",""trial"",""time""
""fullscreenenter"",""1"",""3677""
","
","
","""event"",""trial"",""time""
""fullscreenenter"",""1"",""3677""
","
","","null","","null","","fixation","2021-07-07 16:35:02.085","","","","","",""
"card-selection-trial","145","458296","0.0-25.0-1.37","A1225","true","img/card_backs/set1/yellow.gif","img/card_backs/set1/red.gif","img/card_backs/set1/purple.gif","img/card_backs/set1/green.gif","img/card_backs/set2/pink.gif","img/card_backs/set2/gray.gif","img/card_backs/set2/blue.gif","img/card_backs/set2/orange.gif","""event"",""trial"",""time""
""fullscreenenter"",""1"",""3677""
","
","
","""event"",""trial"",""time""
""fullscreenenter"",""1"",""3677""
","
","","532.4000000000233","","","","real_trial","2021-07-07 16:35:04.628","img/card_backs/set1/red.gif","3","-190","1","",""
"casino-fixation","146","458805","0.0-25.0-0.38","A1225","true","img/card_backs/set1/yellow.gif","img/card_backs/set1/red.gif","img/card_backs/set1/purple.gif","img/card_backs/set1/green.gif","img/card_backs/set2/pink.gif","img/card_backs/set2/gray.gif","img/card_backs/set2/blue.gif","img/card_backs/set2/orange.gif","""event"",""trial"",""time""
""fullscreenenter"",""1"",""3677""
","
","
","""event"",""trial"",""time""
""fullscreenenter"",""1"",""3677""
","
","","null","","null","","fixation","2021-07-07 16:35:05.137","","","","","",""
"card-selection-trial","147","461656","0.0-25.0-1.38","A1225","true","img/card_backs/set1/yellow.gif","img/card_backs/set1/red.gif","img/card_backs/set1/purple.gif","img/card_backs/set1/green.gif","img/card_backs/set2/pink.gif","img/card_backs/set2/gray.gif","img/card_backs/set2/blue.gif","img/card_backs/set2/orange.gif","""event"",""trial"",""time""
""fullscreenenter"",""1"",""3677""
","
","
","""event"",""trial"",""time""
""fullscreenenter"",""1"",""3677""
","
","","841.3000000000466","","","","real_trial","2021-07-07 16:35:07.988","img/card_backs/set1/purple.gif","1","60","1","",""
"casino-fixation","148","462174","0.0-25.0-0.39","A1225","true","img/card_backs/set1/yellow.gif","img/card_backs/set1/red.gif","img/card_backs/set1/purple.gif","img/card_backs/set1/green.gif","img/card_backs/set2/pink.gif","img/card_backs/set2/gray.gif","img/card_backs/set2/blue.gif","img/card_backs/set2/orange.gif","""event"",""trial"",""time""
""fullscreenenter"",""1"",""3677""
","
","
","""event"",""trial"",""time""
""fullscreenenter"",""1"",""3677""
","
","","null","","null","","fixation","2021-07-07 16:35:08.506","","","","","",""
"card-selection-trial","149","464715","0.0-25.0-1.39","A1225","true","img/card_backs/set1/yellow.gif","img/card_backs/set1/red.gif","img/card_backs/set1/purple.gif","img/card_backs/set1/green.gif","img/card_backs/set2/pink.gif","img/card_backs/set2/gray.gif","img/card_backs/set2/blue.gif","img/card_backs/set2/orange.gif","""event"",""trial"",""time""
""fullscreenenter"",""1"",""3677""
","
","
","""event"",""trial"",""time""
""fullscreenenter"",""1"",""3677""
","
","","523.7999999999302","","","","real_trial","2021-07-07 16:35:11.047","img/card_backs/set1/yellow.gif","0","-200","1","",""
"casino-fixation","150","465227","0.0-25.0-0.40","A1225","true","img/card_backs/set1/yellow.gif","img/card_backs/set1/red.gif","img/card_backs/set1/purple.gif","img/card_backs/set1/green.gif","img/card_backs/set2/pink.gif","img/card_backs/set2/gray.gif","img/card_backs/set2/blue.gif","img/card_backs/set2/orange.gif","""event"",""trial"",""time""
""fullscreenenter"",""1"",""3677""
","
","
","""event"",""trial"",""time""
""fullscreenenter"",""1"",""3677""
","
","","null","","null","","fixation","2021-07-07 16:35:11.559","","","","","",""
"card-selection-trial","151","468258","0.0-25.0-1.40","A1225","true","img/card_backs/set1/yellow.gif","img/card_backs/set1/red.gif","img/card_backs/set1/purple.gif","img/card_backs/set1/green.gif","img/card_backs/set2/pink.gif","img/card_backs/set2/gray.gif","img/card_backs/set2/blue.gif","img/card_backs/set2/orange.gif","""event"",""trial"",""time""
""fullscreenenter"",""1"",""3677""
","
","
","""event"",""trial"",""time""
""fullscreenenter"",""1"",""3677""
","
","","1019.2999999999302","","","","real_trial","2021-07-07 16:35:14.590","img/card_backs/set1/purple.gif","2","-100","1","",""
"casino-fixation","152","468768","0.0-25.0-0.41","A1225","true","img/card_backs/set1/yellow.gif","img/card_backs/set1/red.gif","img/card_backs/set1/purple.gif","img/card_backs/set1/green.gif","img/card_backs/set2/pink.gif","img/card_backs/set2/gray.gif","img/card_backs/set2/blue.gif","img/card_backs/set2/orange.gif","""event"",""trial"",""time""
""fullscreenenter"",""1"",""3677""
","
","
","""event"",""trial"",""time""
""fullscreenenter"",""1"",""3677""
","
","","null","","null","","fixation","2021-07-07 16:35:15.100","","","","","",""
"card-selection-trial","153","471498","0.0-25.0-1.41","A1225","true","img/card_backs/set1/yellow.gif","img/card_backs/set1/red.gif","img/card_backs/set1/purple.gif","img/card_backs/set1/green.gif","img/card_backs/set2/pink.gif","img/card_backs/set2/gray.gif","img/card_backs/set2/blue.gif","img/card_backs/set2/orange.gif","""event"",""trial"",""time""
""fullscreenenter"",""1"",""3677""
","
","
","""event"",""trial"",""time""
""fullscreenenter"",""1"",""3677""
","
","","713.4000000000233","","","","real_trial","2021-07-07 16:35:17.831","img/card_backs/set1/purple.gif","3","-110","1","",""
"casino-fixation","154","472010","0.0-25.0-0.42","A1225","true","img/card_backs/set1/yellow.gif","img/card_backs/set1/red.gif","img/card_backs/set1/purple.gif","img/card_backs/set1/green.gif","img/card_backs/set2/pink.gif","img/card_backs/set2/gray.gif","img/card_backs/set2/blue.gif","img/card_backs/set2/orange.gif","""event"",""trial"",""time""
""fullscreenenter"",""1"",""3677""
","
","
","""event"",""trial"",""time""
""fullscreenenter"",""1"",""3677""
","
","","null","","null","","fixation","2021-07-07 16:35:18.343","","","","","",""
"card-selection-trial","155","474637","0.0-25.0-1.42","A1225","true","img/card_backs/set1/yellow.gif","img/card_backs/set1/red.gif","img/card_backs/set1/purple.gif","img/card_backs/set1/green.gif","img/card_backs/set2/pink.gif","img/card_backs/set2/gray.gif","img/card_backs/set2/blue.gif","img/card_backs/set2/orange.gif","""event"",""trial"",""time""
""fullscreenenter"",""1"",""3677""
","
","
","""event"",""trial"",""time""
""fullscreenenter"",""1"",""3677""
","
","","617.8000000000466","","","","real_trial","2021-07-07 16:35:20.969","img/card_backs/set1/purple.gif","0","50","1","",""
"casino-fixation","156","475150","0.0-25.0-0.43","A1225","true","img/card_backs/set1/yellow.gif","img/card_backs/set1/red.gif","img/card_backs/set1/purple.gif","img/card_backs/set1/green.gif","img/card_backs/set2/pink.gif","img/card_backs/set2/gray.gif","img/card_backs/set2/blue.gif","img/card_backs/set2/orange.gif","""event"",""trial"",""time""
""fullscreenenter"",""1"",""3677""
","
","
","""event"",""trial"",""time""
""fullscreenenter"",""1"",""3677""
","
","","null","","null","","fixation","2021-07-07 16:35:21.482","","","","","",""
"card-selection-trial","157","478999","0.0-25.0-1.43","A1225","true","img/card_backs/set1/yellow.gif","img/card_backs/set1/red.gif","img/card_backs/set1/purple.gif","img/card_backs/set1/green.gif","img/card_backs/set2/pink.gif","img/card_backs/set2/gray.gif","img/card_backs/set2/blue.gif","img/card_backs/set2/orange.gif","""event"",""trial"",""time""
""fullscreenenter"",""1"",""3677""
","
","
","""event"",""trial"",""time""
""fullscreenenter"",""1"",""3677""
","
","","1831.3999999999069","","","","real_trial","2021-07-07 16:35:25.331","img/card_backs/set1/yellow.gif","0","240","1","",""
"casino-fixation","158","479503","0.0-25.0-0.44","A1225","true","img/card_backs/set1/yellow.gif","img/card_backs/set1/red.gif","img/card_backs/set1/purple.gif","img/card_backs/set1/green.gif","img/card_backs/set2/pink.gif","img/card_backs/set2/gray.gif","img/card_backs/set2/blue.gif","img/card_backs/set2/orange.gif","""event"",""trial"",""time""
""fullscreenenter"",""1"",""3677""
","
","
","""event"",""trial"",""time""
""fullscreenenter"",""1"",""3677""
","
","","null","","null","","fixation","2021-07-07 16:35:25.835","","","","","",""
"card-selection-trial","159","482230","0.0-25.0-1.44","A1225","true","img/card_backs/set1/yellow.gif","img/card_backs/set1/red.gif","img/card_backs/set1/purple.gif","img/card_backs/set1/green.gif","img/card_backs/set2/pink.gif","img/card_backs/set2/gray.gif","img/card_backs/set2/blue.gif","img/card_backs/set2/orange.gif","""event"",""trial"",""time""
""fullscreenenter"",""1"",""3677""
","
","
","""event"",""trial"",""time""
""fullscreenenter"",""1"",""3677""
","
","","719.8000000000466","","","","real_trial","2021-07-07 16:35:28.562","img/card_backs/set1/purple.gif","3","-100","1","",""
"casino-fixation","160","482738","0.0-25.0-0.45","A1225","true","img/card_backs/set1/yellow.gif","img/card_backs/set1/red.gif","img/card_backs/set1/purple.gif","img/card_backs/set1/green.gif","img/card_backs/set2/pink.gif","img/card_backs/set2/gray.gif","img/card_backs/set2/blue.gif","img/card_backs/set2/orange.gif","""event"",""trial"",""time""
""fullscreenenter"",""1"",""3677""
","
","
","""event"",""trial"",""time""
""fullscreenenter"",""1"",""3677""
","
","","null","","null","","fixation","2021-07-07 16:35:29.070","","","","","",""
"card-selection-trial","161","485992","0.0-25.0-1.45","A1225","true","img/card_backs/set1/yellow.gif","img/card_backs/set1/red.gif","img/card_backs/set1/purple.gif","img/card_backs/set1/green.gif","img/card_backs/set2/pink.gif","img/card_backs/set2/gray.gif","img/card_backs/set2/blue.gif","img/card_backs/set2/orange.gif","""event"",""trial"",""time""
""fullscreenenter"",""1"",""3677""
","
","
","""event"",""trial"",""time""
""fullscreenenter"",""1"",""3677""
","
","","1244.4000000000233","","","","real_trial","2021-07-07 16:35:32.324","img/card_backs/set1/yellow.gif","1","250","1","",""
"casino-fixation","162","486503","0.0-25.0-0.46","A1225","true","img/card_backs/set1/yellow.gif","img/card_backs/set1/red.gif","img/card_backs/set1/purple.gif","img/card_backs/set1/green.gif","img/card_backs/set2/pink.gif","img/card_backs/set2/gray.gif","img/card_backs/set2/blue.gif","img/card_backs/set2/orange.gif","""event"",""trial"",""time""
""fullscreenenter"",""1"",""3677""
","
","
","""event"",""trial"",""time""
""fullscreenenter"",""1"",""3677""
","
","","null","","null","","fixation","2021-07-07 16:35:32.835","","","","","",""
"card-selection-trial","163","489034","0.0-25.0-1.46","A1225","true","img/card_backs/set1/yellow.gif","img/card_backs/set1/red.gif","img/card_backs/set1/purple.gif","img/card_backs/set1/green.gif","img/card_backs/set2/pink.gif","img/card_backs/set2/gray.gif","img/card_backs/set2/blue.gif","img/card_backs/set2/orange.gif","""event"",""trial"",""time""
""fullscreenenter"",""1"",""3677""
","
","
","""event"",""trial"",""time""
""fullscreenenter"",""1"",""3677""
","
","","519.2000000000698","","","","real_trial","2021-07-07 16:35:35.367","img/card_backs/set1/yellow.gif","0","-210","1","",""
"casino-fixation","164","489540","0.0-25.0-0.47","A1225","true","img/card_backs/set1/yellow.gif","img/card_backs/set1/red.gif","img/card_backs/set1/purple.gif","img/card_backs/set1/green.gif","img/card_backs/set2/pink.gif","img/card_backs/set2/gray.gif","img/card_backs/set2/blue.gif","img/card_backs/set2/orange.gif","""event"",""trial"",""time""
""fullscreenenter"",""1"",""3677""
","
","
","""event"",""trial"",""time""
""fullscreenenter"",""1"",""3677""
","
","","null","","null","","fixation","2021-07-07 16:35:35.872","","","","","",""
"card-selection-trial","165","492204","0.0-25.0-1.47","A1225","true","img/card_backs/set1/yellow.gif","img/card_backs/set1/red.gif","img/card_backs/set1/purple.gif","img/card_backs/set1/green.gif","img/card_backs/set2/pink.gif","img/card_backs/set2/gray.gif","img/card_backs/set2/blue.gif","img/card_backs/set2/orange.gif","""event"",""trial"",""time""
""fullscreenenter"",""1"",""3677""
","
","
","""event"",""trial"",""time""
""fullscreenenter"",""1"",""3677""
","
","","649.4000000000233","","","","real_trial","2021-07-07 16:35:38.536","img/card_backs/set1/green.gif","0","60","1","",""
"casino-fixation","166","492720","0.0-25.0-0.48","A1225","true","img/card_backs/set1/yellow.gif","img/card_backs/set1/red.gif","img/card_backs/set1/purple.gif","img/card_backs/set1/green.gif","img/card_backs/set2/pink.gif","img/card_backs/set2/gray.gif","img/card_backs/set2/blue.gif","img/card_backs/set2/orange.gif","""event"",""trial"",""time""
""fullscreenenter"",""1"",""3677""
","
","
","""event"",""trial"",""time""
""fullscreenenter"",""1"",""3677""
","
","","null","","null","","fixation","2021-07-07 16:35:39.052","","","","","",""
