"trial_type","trial_index","time_elapsed","internal_node_id","sub_id","risk_good_first","block1_A","block1_B","block1_C","block1_D","block2_A","block2_B","block2_C","block2_D","interactions","blur_events","focus_events","fullscreenenter_events","fullscreenexit_events","success","rt","stimulus","key_press","button_pressed","task_part","timestamp","card_choice","choice_position","points_earned","block","correct","response"
"pavlovia","0","21","0.0-0.0","A1107","false","img/card_backs/set1/purple.gif","img/card_backs/set1/red.gif","img/card_backs/set1/green.gif","img/card_backs/set1/yellow.gif","img/card_backs/set2/blue.gif","img/card_backs/set2/orange.gif","img/card_backs/set2/gray.gif","img/card_backs/set2/pink.gif","""event"",""trial"",""time""
""blur"",""0"",""0""
""focus"",""0"",""0""
""fullscreenenter"",""1"",""3822""
","""event"",""trial"",""time""
""blur"",""0"",""0""
","""event"",""trial"",""time""
""focus"",""0"",""0""
","""event"",""trial"",""time""
""fullscreenenter"",""1"",""3822""
","
","","","","","","","","","","","","",""
"fullscreen","1","4313","0.0-1.0","A1107","false","img/card_backs/set1/purple.gif","img/card_backs/set1/red.gif","img/card_backs/set1/green.gif","img/card_backs/set1/yellow.gif","img/card_backs/set2/blue.gif","img/card_backs/set2/orange.gif","img/card_backs/set2/gray.gif","img/card_backs/set2/pink.gif","""event"",""trial"",""time""
""blur"",""0"",""0""
""focus"",""0"",""0""
""fullscreenenter"",""1"",""3822""
","""event"",""trial"",""time""
""blur"",""0"",""0""
","""event"",""trial"",""time""
""focus"",""0"",""0""
","""event"",""trial"",""time""
""fullscreenenter"",""1"",""3822""
","
","true","","","","","","","","","","","",""
"audio-keyboard-response","2","8983","0.0-2.0","A1107","false","img/card_backs/set1/purple.gif","img/card_backs/set1/red.gif","img/card_backs/set1/green.gif","img/card_backs/set1/yellow.gif","img/card_backs/set2/blue.gif","img/card_backs/set2/orange.gif","img/card_backs/set2/gray.gif","img/card_backs/set2/pink.gif","""event"",""trial"",""time""
""blur"",""0"",""0""
""focus"",""0"",""0""
""fullscreenenter"",""1"",""3822""
""fullscreenexit"",""3"",""11060""
""blur"",""3"",""19628""
""focus"",""3"",""19628""
","""event"",""trial"",""time""
""blur"",""0"",""0""
""blur"",""3"",""19628""
","""event"",""trial"",""time""
""focus"",""0"",""0""
""focus"",""3"",""19628""
","""event"",""trial"",""time""
""fullscreenenter"",""1"",""3822""
","""event"",""trial"",""time""
""fullscreenexit"",""3"",""11060""
","","4491","audio/beep_loop.wav","32","","","","","","","","",""
"audio-button-response","3","20893","0.0-3.0","A1107","false","img/card_backs/set1/purple.gif","img/card_backs/set1/red.gif","img/card_backs/set1/green.gif","img/card_backs/set1/yellow.gif","img/card_backs/set2/blue.gif","img/card_backs/set2/orange.gif","img/card_backs/set2/gray.gif","img/card_backs/set2/pink.gif","""event"",""trial"",""time""
""blur"",""0"",""0""
""focus"",""0"",""0""
""fullscreenenter"",""1"",""3822""
""fullscreenexit"",""3"",""11060""
""blur"",""3"",""19628""
""focus"",""3"",""19628""
","""event"",""trial"",""time""
""blur"",""0"",""0""
""blur"",""3"",""19628""
","""event"",""trial"",""time""
""focus"",""0"",""0""
""focus"",""3"",""19628""
","""event"",""trial"",""time""
""fullscreenenter"",""1"",""3822""
","""event"",""trial"",""time""
""fullscreenexit"",""3"",""11060""
","","NaN","audio/turtle.mp3","","3","","","","","","","",""
"audio-button-response","4","23465","0.0-4.0","A1107","false","img/card_backs/set1/purple.gif","img/card_backs/set1/red.gif","img/card_backs/set1/green.gif","img/card_backs/set1/yellow.gif","img/card_backs/set2/blue.gif","img/card_backs/set2/orange.gif","img/card_backs/set2/gray.gif","img/card_backs/set2/pink.gif","""event"",""trial"",""time""
""blur"",""0"",""0""
""focus"",""0"",""0""
""fullscreenenter"",""1"",""3822""
""fullscreenexit"",""3"",""11060""
""blur"",""3"",""19628""
""focus"",""3"",""19628""
""fullscreenenter"",""5"",""26238""
","""event"",""trial"",""time""
""blur"",""0"",""0""
""blur"",""3"",""19628""
","""event"",""trial"",""time""
""focus"",""0"",""0""
""focus"",""3"",""19628""
","""event"",""trial"",""time""
""fullscreenenter"",""1"",""3822""
""fullscreenenter"",""5"",""26238""
","""event"",""trial"",""time""
""fullscreenexit"",""3"",""11060""
","","NaN","audio/shark.mp3","","2","","","","","","","",""
"fullscreen","5","27176","0.0-5.0","A1107","false","img/card_backs/set1/purple.gif","img/card_backs/set1/red.gif","img/card_backs/set1/green.gif","img/card_backs/set1/yellow.gif","img/card_backs/set2/blue.gif","img/card_backs/set2/orange.gif","img/card_backs/set2/gray.gif","img/card_backs/set2/pink.gif","""event"",""trial"",""time""
""blur"",""0"",""0""
""focus"",""0"",""0""
""fullscreenenter"",""1"",""3822""
""fullscreenexit"",""3"",""11060""
""blur"",""3"",""19628""
""focus"",""3"",""19628""
""fullscreenenter"",""5"",""26238""
","""event"",""trial"",""time""
""blur"",""0"",""0""
""blur"",""3"",""19628""
","""event"",""trial"",""time""
""focus"",""0"",""0""
""focus"",""3"",""19628""
","""event"",""trial"",""time""
""fullscreenenter"",""1"",""3822""
""fullscreenenter"",""5"",""26238""
","""event"",""trial"",""time""
""fullscreenexit"",""3"",""11060""
","true","","","","","","","","","","","",""
"casino-keyboard-response","6","32301","0.0-6.0-0.0","A1107","false","img/card_backs/set1/purple.gif","img/card_backs/set1/red.gif","img/card_backs/set1/green.gif","img/card_backs/set1/yellow.gif","img/card_backs/set2/blue.gif","img/card_backs/set2/orange.gif","img/card_backs/set2/gray.gif","img/card_backs/set2/pink.gif","""event"",""trial"",""time""
""blur"",""0"",""0""
""focus"",""0"",""0""
""fullscreenenter"",""1"",""3822""
""fullscreenexit"",""3"",""11060""
""blur"",""3"",""19628""
""focus"",""3"",""19628""
""fullscreenenter"",""5"",""26238""
","""event"",""trial"",""time""
""blur"",""0"",""0""
""blur"",""3"",""19628""
","""event"",""trial"",""time""
""focus"",""0"",""0""
""focus"",""3"",""19628""
","""event"",""trial"",""time""
""fullscreenenter"",""1"",""3822""
""fullscreenenter"",""5"",""26238""
","""event"",""trial"",""time""
""fullscreenexit"",""3"",""11060""
","","5109.745000001567","Welcome to the casino!","71","","instructions","2021-04-01 01:32:53.106","","","","","",""
"casino-keyboard-response","7","41790","0.0-6.0-0.1","A1107","false","img/card_backs/set1/purple.gif","img/card_backs/set1/red.gif","img/card_backs/set1/green.gif","img/card_backs/set1/yellow.gif","img/card_backs/set2/blue.gif","img/card_backs/set2/orange.gif","img/card_backs/set2/gray.gif","img/card_backs/set2/pink.gif","""event"",""trial"",""time""
""blur"",""0"",""0""
""focus"",""0"",""0""
""fullscreenenter"",""1"",""3822""
""fullscreenexit"",""3"",""11060""
""blur"",""3"",""19628""
""focus"",""3"",""19628""
""fullscreenenter"",""5"",""26238""
","""event"",""trial"",""time""
""blur"",""0"",""0""
""blur"",""3"",""19628""
","""event"",""trial"",""time""
""focus"",""0"",""0""
""focus"",""3"",""19628""
","""event"",""trial"",""time""
""fullscreenenter"",""1"",""3822""
""fullscreenenter"",""5"",""26238""
","""event"",""trial"",""time""
""fullscreenexit"",""3"",""11060""
","","9479.939999997441","Today you will be playing a game to earn tokens. </br> At the end of the experiment, you will be paid a bonus based on how many tokens you win. ","69","","instructions","2021-04-01 01:33:02.595","","","","","",""
"casino-keyboard-response","8","49552","0.0-6.0-0.2","A1107","false","img/card_backs/set1/purple.gif","img/card_backs/set1/red.gif","img/card_backs/set1/green.gif","img/card_backs/set1/yellow.gif","img/card_backs/set2/blue.gif","img/card_backs/set2/orange.gif","img/card_backs/set2/gray.gif","img/card_backs/set2/pink.gif","""event"",""trial"",""time""
""blur"",""0"",""0""
""focus"",""0"",""0""
""fullscreenenter"",""1"",""3822""
""fullscreenexit"",""3"",""11060""
""blur"",""3"",""19628""
""focus"",""3"",""19628""
""fullscreenenter"",""5"",""26238""
","""event"",""trial"",""time""
""blur"",""0"",""0""
""blur"",""3"",""19628""
","""event"",""trial"",""time""
""focus"",""0"",""0""
""focus"",""3"",""19628""
","""event"",""trial"",""time""
""fullscreenenter"",""1"",""3822""
""fullscreenenter"",""5"",""26238""
","""event"",""trial"",""time""
""fullscreenexit"",""3"",""11060""
","","7753.754999997909","On every turn, you will be shown four different decks of cards. </br> You need to select a card from one of the four decks.  ","75","","instructions","2021-04-01 01:33:10.357","","","","","",""
"casino-keyboard-response","9","54426","0.0-6.0-0.3","A1107","false","img/card_backs/set1/purple.gif","img/card_backs/set1/red.gif","img/card_backs/set1/green.gif","img/card_backs/set1/yellow.gif","img/card_backs/set2/blue.gif","img/card_backs/set2/orange.gif","img/card_backs/set2/gray.gif","img/card_backs/set2/pink.gif","""event"",""trial"",""time""
""blur"",""0"",""0""
""focus"",""0"",""0""
""fullscreenenter"",""1"",""3822""
""fullscreenexit"",""3"",""11060""
""blur"",""3"",""19628""
""focus"",""3"",""19628""
""fullscreenenter"",""5"",""26238""
","""event"",""trial"",""time""
""blur"",""0"",""0""
""blur"",""3"",""19628""
","""event"",""trial"",""time""
""focus"",""0"",""0""
""focus"",""3"",""19628""
","""event"",""trial"",""time""
""fullscreenenter"",""1"",""3822""
""fullscreenenter"",""5"",""26238""
","""event"",""trial"",""time""
""fullscreenexit"",""3"",""11060""
","","4865.200000000186","On the next screen, you will see what the decks will look like. ","66","","instructions","2021-04-01 01:33:15.231","","","","","",""
"card-selection-trial","10","58446","0.0-7.0-0.0","A1107","false","img/card_backs/set1/purple.gif","img/card_backs/set1/red.gif","img/card_backs/set1/green.gif","img/card_backs/set1/yellow.gif","img/card_backs/set2/blue.gif","img/card_backs/set2/orange.gif","img/card_backs/set2/gray.gif","img/card_backs/set2/pink.gif","""event"",""trial"",""time""
""blur"",""0"",""0""
""focus"",""0"",""0""
""fullscreenenter"",""1"",""3822""
""fullscreenexit"",""3"",""11060""
""blur"",""3"",""19628""
""focus"",""3"",""19628""
""fullscreenenter"",""5"",""26238""
","""event"",""trial"",""time""
""blur"",""0"",""0""
""blur"",""3"",""19628""
","""event"",""trial"",""time""
""focus"",""0"",""0""
""focus"",""3"",""19628""
","""event"",""trial"",""time""
""fullscreenenter"",""1"",""3822""
""fullscreenenter"",""5"",""26238""
","""event"",""trial"",""time""
""fullscreenexit"",""3"",""11060""
","","null","","","","practice","2021-04-01 01:33:19.251","null","null","null","0","",""
"casino-keyboard-response","11","66468","0.0-8.0-0.0","A1107","false","img/card_backs/set1/purple.gif","img/card_backs/set1/red.gif","img/card_backs/set1/green.gif","img/card_backs/set1/yellow.gif","img/card_backs/set2/blue.gif","img/card_backs/set2/orange.gif","img/card_backs/set2/gray.gif","img/card_backs/set2/pink.gif","""event"",""trial"",""time""
""blur"",""0"",""0""
""focus"",""0"",""0""
""fullscreenenter"",""1"",""3822""
""fullscreenexit"",""3"",""11060""
""blur"",""3"",""19628""
""focus"",""3"",""19628""
""fullscreenenter"",""5"",""26238""
","""event"",""trial"",""time""
""blur"",""0"",""0""
""blur"",""3"",""19628""
","""event"",""trial"",""time""
""focus"",""0"",""0""
""focus"",""3"",""19628""
","""event"",""trial"",""time""
""fullscreenenter"",""1"",""3822""
""fullscreenenter"",""5"",""26238""
","""event"",""trial"",""time""
""fullscreenexit"",""3"",""11060""
","","8015.659999997297","You should pick a card from a deck using the '2', '4', '6', and '8' keys at the top of the keyboard.","85","","instructions","2021-04-01 01:33:27.273","","","","","",""
"casino-keyboard-response","12","75915","0.0-8.0-0.1","A1107","false","img/card_backs/set1/purple.gif","img/card_backs/set1/red.gif","img/card_backs/set1/green.gif","img/card_backs/set1/yellow.gif","img/card_backs/set2/blue.gif","img/card_backs/set2/orange.gif","img/card_backs/set2/gray.gif","img/card_backs/set2/pink.gif","""event"",""trial"",""time""
""blur"",""0"",""0""
""focus"",""0"",""0""
""fullscreenenter"",""1"",""3822""
""fullscreenexit"",""3"",""11060""
""blur"",""3"",""19628""
""focus"",""3"",""19628""
""fullscreenenter"",""5"",""26238""
","""event"",""trial"",""time""
""blur"",""0"",""0""
""blur"",""3"",""19628""
","""event"",""trial"",""time""
""focus"",""0"",""0""
""focus"",""3"",""19628""
","""event"",""trial"",""time""
""fullscreenenter"",""1"",""3822""
""fullscreenenter"",""5"",""26238""
","""event"",""trial"",""time""
""fullscreenexit"",""3"",""11060""
","","9437.810000003083","Once you select a card, it will turn over and you will see how many tokens you earned.","83","","instructions","2021-04-01 01:33:36.720","","","","","",""
"casino-keyboard-response","13","81240","0.0-8.0-0.2","A1107","false","img/card_backs/set1/purple.gif","img/card_backs/set1/red.gif","img/card_backs/set1/green.gif","img/card_backs/set1/yellow.gif","img/card_backs/set2/blue.gif","img/card_backs/set2/orange.gif","img/card_backs/set2/gray.gif","img/card_backs/set2/pink.gif","""event"",""trial"",""time""
""blur"",""0"",""0""
""focus"",""0"",""0""
""fullscreenenter"",""1"",""3822""
""fullscreenexit"",""3"",""11060""
""blur"",""3"",""19628""
""focus"",""3"",""19628""
""fullscreenenter"",""5"",""26238""
","""event"",""trial"",""time""
""blur"",""0"",""0""
""blur"",""3"",""19628""
","""event"",""trial"",""time""
""focus"",""0"",""0""
""focus"",""3"",""19628""
","""event"",""trial"",""time""
""fullscreenenter"",""1"",""3822""
""fullscreenenter"",""5"",""26238""
","""event"",""trial"",""time""
""fullscreenexit"",""3"",""11060""
","","5317.0200000022305","Let's try practicing that! </br> First, try to put your fingers over the '2', '4', '6', and '8' keys. </br>  You can use whatever fingers are most comfortable for you. Try to find a comfortable position now. ","50","","instructions","2021-04-01 01:33:42.045","","","","","",""
"casino-keyboard-response","14","87030","0.0-8.0-0.3","A1107","false","img/card_backs/set1/purple.gif","img/card_backs/set1/red.gif","img/card_backs/set1/green.gif","img/card_backs/set1/yellow.gif","img/card_backs/set2/blue.gif","img/card_backs/set2/orange.gif","img/card_backs/set2/gray.gif","img/card_backs/set2/pink.gif","""event"",""trial"",""time""
""blur"",""0"",""0""
""focus"",""0"",""0""
""fullscreenenter"",""1"",""3822""
""fullscreenexit"",""3"",""11060""
""blur"",""3"",""19628""
""focus"",""3"",""19628""
""fullscreenenter"",""5"",""26238""
","""event"",""trial"",""time""
""blur"",""0"",""0""
""blur"",""3"",""19628""
","""event"",""trial"",""time""
""focus"",""0"",""0""
""focus"",""3"",""19628""
","""event"",""trial"",""time""
""fullscreenenter"",""1"",""3822""
""fullscreenenter"",""5"",""26238""
","""event"",""trial"",""time""
""fullscreenexit"",""3"",""11060""
","","5783.210000001418","Okay ready? </br> On the next screen, press '2' to select the left deck. ","50","","instructions","2021-04-01 01:33:47.835","","","","","",""
"card-selection-trial","15","90014","0.0-9.0-0.0","A1107","false","img/card_backs/set1/purple.gif","img/card_backs/set1/red.gif","img/card_backs/set1/green.gif","img/card_backs/set1/yellow.gif","img/card_backs/set2/blue.gif","img/card_backs/set2/orange.gif","img/card_backs/set2/gray.gif","img/card_backs/set2/pink.gif","""event"",""trial"",""time""
""blur"",""0"",""0""
""focus"",""0"",""0""
""fullscreenenter"",""1"",""3822""
""fullscreenexit"",""3"",""11060""
""blur"",""3"",""19628""
""focus"",""3"",""19628""
""fullscreenenter"",""5"",""26238""
","""event"",""trial"",""time""
""blur"",""0"",""0""
""blur"",""3"",""19628""
","""event"",""trial"",""time""
""focus"",""0"",""0""
""focus"",""3"",""19628""
","""event"",""trial"",""time""
""fullscreenenter"",""1"",""3822""
""fullscreenenter"",""5"",""26238""
","""event"",""trial"",""time""
""fullscreenexit"",""3"",""11060""
","","858.9449999999488","","","","practice_card_selection","2021-04-01 01:33:50.820","img/practice_cards/backs/brown.gif","0","-100","","",""
"casino-keyboard-response","16","92109","0.0-10.0-0.0","A1107","false","img/card_backs/set1/purple.gif","img/card_backs/set1/red.gif","img/card_backs/set1/green.gif","img/card_backs/set1/yellow.gif","img/card_backs/set2/blue.gif","img/card_backs/set2/orange.gif","img/card_backs/set2/gray.gif","img/card_backs/set2/pink.gif","""event"",""trial"",""time""
""blur"",""0"",""0""
""focus"",""0"",""0""
""fullscreenenter"",""1"",""3822""
""fullscreenexit"",""3"",""11060""
""blur"",""3"",""19628""
""focus"",""3"",""19628""
""fullscreenenter"",""5"",""26238""
","""event"",""trial"",""time""
""blur"",""0"",""0""
""blur"",""3"",""19628""
","""event"",""trial"",""time""
""focus"",""0"",""0""
""focus"",""3"",""19628""
","""event"",""trial"",""time""
""fullscreenenter"",""1"",""3822""
""fullscreenenter"",""5"",""26238""
","""event"",""trial"",""time""
""fullscreenexit"",""3"",""11060""
","","2086.6299999979674","Great! Now on the next screen, try pressing '6' to select the third deck.","54","","instructions","2021-04-01 01:33:52.914","","","","","",""
"card-selection-trial","17","94690","0.0-11.0-0.0","A1107","false","img/card_backs/set1/purple.gif","img/card_backs/set1/red.gif","img/card_backs/set1/green.gif","img/card_backs/set1/yellow.gif","img/card_backs/set2/blue.gif","img/card_backs/set2/orange.gif","img/card_backs/set2/gray.gif","img/card_backs/set2/pink.gif","""event"",""trial"",""time""
""blur"",""0"",""0""
""focus"",""0"",""0""
""fullscreenenter"",""1"",""3822""
""fullscreenexit"",""3"",""11060""
""blur"",""3"",""19628""
""focus"",""3"",""19628""
""fullscreenenter"",""5"",""26238""
","""event"",""trial"",""time""
""blur"",""0"",""0""
""blur"",""3"",""19628""
","""event"",""trial"",""time""
""focus"",""0"",""0""
""focus"",""3"",""19628""
","""event"",""trial"",""time""
""fullscreenenter"",""1"",""3822""
""fullscreenenter"",""5"",""26238""
","""event"",""trial"",""time""
""fullscreenexit"",""3"",""11060""
","","526.2149999980466","","","","practice_card_selection","2021-04-01 01:33:55.495","img/practice_cards/backs/dark_green.gif","2","200","","",""
"casino-keyboard-response","18","95741","0.0-12.0-0.0","A1107","false","img/card_backs/set1/purple.gif","img/card_backs/set1/red.gif","img/card_backs/set1/green.gif","img/card_backs/set1/yellow.gif","img/card_backs/set2/blue.gif","img/card_backs/set2/orange.gif","img/card_backs/set2/gray.gif","img/card_backs/set2/pink.gif","""event"",""trial"",""time""
""blur"",""0"",""0""
""focus"",""0"",""0""
""fullscreenenter"",""1"",""3822""
""fullscreenexit"",""3"",""11060""
""blur"",""3"",""19628""
""focus"",""3"",""19628""
""fullscreenenter"",""5"",""26238""
","""event"",""trial"",""time""
""blur"",""0"",""0""
""blur"",""3"",""19628""
","""event"",""trial"",""time""
""focus"",""0"",""0""
""focus"",""3"",""19628""
","""event"",""trial"",""time""
""fullscreenenter"",""1"",""3822""
""fullscreenenter"",""5"",""26238""
","""event"",""trial"",""time""
""fullscreenexit"",""3"",""11060""
","","1045.219999999972","Now on the next screen, try pressing '4' to select the second deck.","52","","instructions","2021-04-01 01:33:56.546","","","","","",""
"card-selection-trial","19","98232","0.0-13.0-0.0","A1107","false","img/card_backs/set1/purple.gif","img/card_backs/set1/red.gif","img/card_backs/set1/green.gif","img/card_backs/set1/yellow.gif","img/card_backs/set2/blue.gif","img/card_backs/set2/orange.gif","img/card_backs/set2/gray.gif","img/card_backs/set2/pink.gif","""event"",""trial"",""time""
""blur"",""0"",""0""
""focus"",""0"",""0""
""fullscreenenter"",""1"",""3822""
""fullscreenexit"",""3"",""11060""
""blur"",""3"",""19628""
""focus"",""3"",""19628""
""fullscreenenter"",""5"",""26238""
","""event"",""trial"",""time""
""blur"",""0"",""0""
""blur"",""3"",""19628""
","""event"",""trial"",""time""
""focus"",""0"",""0""
""focus"",""3"",""19628""
","""event"",""trial"",""time""
""fullscreenenter"",""1"",""3822""
""fullscreenenter"",""5"",""26238""
","""event"",""trial"",""time""
""fullscreenexit"",""3"",""11060""
","","446.074999999837","","","","practice_card_selection","2021-04-01 01:33:59.038","img/practice_cards/backs/black.gif","1","-100","","",""
"casino-keyboard-response","20","101554","0.0-14.0-0.0","A1107","false","img/card_backs/set1/purple.gif","img/card_backs/set1/red.gif","img/card_backs/set1/green.gif","img/card_backs/set1/yellow.gif","img/card_backs/set2/blue.gif","img/card_backs/set2/orange.gif","img/card_backs/set2/gray.gif","img/card_backs/set2/pink.gif","""event"",""trial"",""time""
""blur"",""0"",""0""
""focus"",""0"",""0""
""fullscreenenter"",""1"",""3822""
""fullscreenexit"",""3"",""11060""
""blur"",""3"",""19628""
""focus"",""3"",""19628""
""fullscreenenter"",""5"",""26238""
","""event"",""trial"",""time""
""blur"",""0"",""0""
""blur"",""3"",""19628""
","""event"",""trial"",""time""
""focus"",""0"",""0""
""focus"",""3"",""19628""
","""event"",""trial"",""time""
""fullscreenenter"",""1"",""3822""
""fullscreenenter"",""5"",""26238""
","""event"",""trial"",""time""
""fullscreenexit"",""3"",""11060""
","","3312.7649999951245","Finally, try pressing '8' to select the deck all the way on the right.","56","","instructions","2021-04-01 01:34:02.359","","","","","",""
"card-selection-trial","21","104143","0.0-15.0-0.0","A1107","false","img/card_backs/set1/purple.gif","img/card_backs/set1/red.gif","img/card_backs/set1/green.gif","img/card_backs/set1/yellow.gif","img/card_backs/set2/blue.gif","img/card_backs/set2/orange.gif","img/card_backs/set2/gray.gif","img/card_backs/set2/pink.gif","""event"",""trial"",""time""
""blur"",""0"",""0""
""focus"",""0"",""0""
""fullscreenenter"",""1"",""3822""
""fullscreenexit"",""3"",""11060""
""blur"",""3"",""19628""
""focus"",""3"",""19628""
""fullscreenenter"",""5"",""26238""
","""event"",""trial"",""time""
""blur"",""0"",""0""
""blur"",""3"",""19628""
","""event"",""trial"",""time""
""focus"",""0"",""0""
""focus"",""3"",""19628""
","""event"",""trial"",""time""
""fullscreenenter"",""1"",""3822""
""fullscreenenter"",""5"",""26238""
","""event"",""trial"",""time""
""fullscreenexit"",""3"",""11060""
","","548.8899999982095","","","","practice_card_selection","2021-04-01 01:34:04.949","img/practice_cards/backs/brown.gif","3","100","","",""
"casino-keyboard-response","22","111575","0.0-16.0-0.0","A1107","false","img/card_backs/set1/purple.gif","img/card_backs/set1/red.gif","img/card_backs/set1/green.gif","img/card_backs/set1/yellow.gif","img/card_backs/set2/blue.gif","img/card_backs/set2/orange.gif","img/card_backs/set2/gray.gif","img/card_backs/set2/pink.gif","""event"",""trial"",""time""
""blur"",""0"",""0""
""focus"",""0"",""0""
""fullscreenenter"",""1"",""3822""
""fullscreenexit"",""3"",""11060""
""blur"",""3"",""19628""
""focus"",""3"",""19628""
""fullscreenenter"",""5"",""26238""
","""event"",""trial"",""time""
""blur"",""0"",""0""
""blur"",""3"",""19628""
","""event"",""trial"",""time""
""focus"",""0"",""0""
""focus"",""3"",""19628""
","""event"",""trial"",""time""
""fullscreenenter"",""1"",""3822""
""fullscreenenter"",""5"",""26238""
","""event"",""trial"",""time""
""fullscreenexit"",""3"",""11060""
","","7426.565000001574","Great! It seems like you are getting the hang of this.","80","","instructions","2021-04-01 01:34:12.380","","","","","",""
"casino-keyboard-response","23","119368","0.0-16.0-0.1","A1107","false","img/card_backs/set1/purple.gif","img/card_backs/set1/red.gif","img/card_backs/set1/green.gif","img/card_backs/set1/yellow.gif","img/card_backs/set2/blue.gif","img/card_backs/set2/orange.gif","img/card_backs/set2/gray.gif","img/card_backs/set2/pink.gif","""event"",""trial"",""time""
""blur"",""0"",""0""
""focus"",""0"",""0""
""fullscreenenter"",""1"",""3822""
""fullscreenexit"",""3"",""11060""
""blur"",""3"",""19628""
""focus"",""3"",""19628""
""fullscreenenter"",""5"",""26238""
","""event"",""trial"",""time""
""blur"",""0"",""0""
""blur"",""3"",""19628""
","""event"",""trial"",""time""
""focus"",""0"",""0""
""focus"",""3"",""19628""
","""event"",""trial"",""time""
""fullscreenenter"",""1"",""3822""
""fullscreenenter"",""5"",""26238""
","""event"",""trial"",""time""
""fullscreenexit"",""3"",""11060""
","","7786.915000004228","You may have noticed that some cards will cause you to <b> win </b> tokens while other cards will cause you to <b> lose </b>  tokens.","70","","instructions","2021-04-01 01:34:20.173","","","","","",""
"casino-keyboard-response","24","129215","0.0-16.0-0.2","A1107","false","img/card_backs/set1/purple.gif","img/card_backs/set1/red.gif","img/card_backs/set1/green.gif","img/card_backs/set1/yellow.gif","img/card_backs/set2/blue.gif","img/card_backs/set2/orange.gif","img/card_backs/set2/gray.gif","img/card_backs/set2/pink.gif","""event"",""trial"",""time""
""blur"",""0"",""0""
""focus"",""0"",""0""
""fullscreenenter"",""1"",""3822""
""fullscreenexit"",""3"",""11060""
""blur"",""3"",""19628""
""focus"",""3"",""19628""
""fullscreenenter"",""5"",""26238""
","""event"",""trial"",""time""
""blur"",""0"",""0""
""blur"",""3"",""19628""
","""event"",""trial"",""time""
""focus"",""0"",""0""
""focus"",""3"",""19628""
","""event"",""trial"",""time""
""fullscreenenter"",""1"",""3822""
""fullscreenenter"",""5"",""26238""
","""event"",""trial"",""time""
""fullscreenexit"",""3"",""11060""
","","9839.18999999878","Each deck has a mix of cards that will cause you to win and lose tokens. </br> However, the cards in each colored deck are different.","73","","instructions","2021-04-01 01:34:30.020","","","","","",""
"casino-keyboard-response","25","137749","0.0-16.0-0.3","A1107","false","img/card_backs/set1/purple.gif","img/card_backs/set1/red.gif","img/card_backs/set1/green.gif","img/card_backs/set1/yellow.gif","img/card_backs/set2/blue.gif","img/card_backs/set2/orange.gif","img/card_backs/set2/gray.gif","img/card_backs/set2/pink.gif","""event"",""trial"",""time""
""blur"",""0"",""0""
""focus"",""0"",""0""
""fullscreenenter"",""1"",""3822""
""fullscreenexit"",""3"",""11060""
""blur"",""3"",""19628""
""focus"",""3"",""19628""
""fullscreenenter"",""5"",""26238""
","""event"",""trial"",""time""
""blur"",""0"",""0""
""blur"",""3"",""19628""
","""event"",""trial"",""time""
""focus"",""0"",""0""
""focus"",""3"",""19628""
","""event"",""trial"",""time""
""fullscreenenter"",""1"",""3822""
""fullscreenenter"",""5"",""26238""
","""event"",""trial"",""time""
""fullscreenexit"",""3"",""11060""
","","8527.869999998074","Some colored decks are luckier than others. </br> If you choose the lucky decks, you will earn more tokens than if you choose the unlucky decks.","69","","instructions","2021-04-01 01:34:38.554","","","","","",""
"casino-keyboard-response","26","145075","0.0-16.0-0.4","A1107","false","img/card_backs/set1/purple.gif","img/card_backs/set1/red.gif","img/card_backs/set1/green.gif","img/card_backs/set1/yellow.gif","img/card_backs/set2/blue.gif","img/card_backs/set2/orange.gif","img/card_backs/set2/gray.gif","img/card_backs/set2/pink.gif","""event"",""trial"",""time""
""blur"",""0"",""0""
""focus"",""0"",""0""
""fullscreenenter"",""1"",""3822""
""fullscreenexit"",""3"",""11060""
""blur"",""3"",""19628""
""focus"",""3"",""19628""
""fullscreenenter"",""5"",""26238""
","""event"",""trial"",""time""
""blur"",""0"",""0""
""blur"",""3"",""19628""
","""event"",""trial"",""time""
""focus"",""0"",""0""
""focus"",""3"",""19628""
","""event"",""trial"",""time""
""fullscreenenter"",""1"",""3822""
""fullscreenenter"",""5"",""26238""
","""event"",""trial"",""time""
""fullscreenexit"",""3"",""11060""
","","7315.32999999763","You should try to figure out which decks are lucky. </br> Then, try to choose the lucky decks so you can win the most tokens.","87","","instructions","2021-04-01 01:34:45.880","","","","","",""
"casino-keyboard-response","27","157540","0.0-16.0-0.5","A1107","false","img/card_backs/set1/purple.gif","img/card_backs/set1/red.gif","img/card_backs/set1/green.gif","img/card_backs/set1/yellow.gif","img/card_backs/set2/blue.gif","img/card_backs/set2/orange.gif","img/card_backs/set2/gray.gif","img/card_backs/set2/pink.gif","""event"",""trial"",""time""
""blur"",""0"",""0""
""focus"",""0"",""0""
""fullscreenenter"",""1"",""3822""
""fullscreenexit"",""3"",""11060""
""blur"",""3"",""19628""
""focus"",""3"",""19628""
""fullscreenenter"",""5"",""26238""
","""event"",""trial"",""time""
""blur"",""0"",""0""
""blur"",""3"",""19628""
","""event"",""trial"",""time""
""focus"",""0"",""0""
""focus"",""3"",""19628""
","""event"",""trial"",""time""
""fullscreenenter"",""1"",""3822""
""fullscreenenter"",""5"",""26238""
","""event"",""trial"",""time""
""fullscreenexit"",""3"",""11060""
","","12458.639999997104","To make it trickier, the casino dealer will switch the locations of the decks on every turn. </br> The color of the deck determines how lucky it is. The location does not matter.","88","","instructions","2021-04-01 01:34:58.345","","","","","",""
"casino-keyboard-response","28","169391","0.0-16.0-0.6","A1107","false","img/card_backs/set1/purple.gif","img/card_backs/set1/red.gif","img/card_backs/set1/green.gif","img/card_backs/set1/yellow.gif","img/card_backs/set2/blue.gif","img/card_backs/set2/orange.gif","img/card_backs/set2/gray.gif","img/card_backs/set2/pink.gif","""event"",""trial"",""time""
""blur"",""0"",""0""
""focus"",""0"",""0""
""fullscreenenter"",""1"",""3822""
""fullscreenexit"",""3"",""11060""
""blur"",""3"",""19628""
""focus"",""3"",""19628""
""fullscreenenter"",""5"",""26238""
","""event"",""trial"",""time""
""blur"",""0"",""0""
""blur"",""3"",""19628""
","""event"",""trial"",""time""
""focus"",""0"",""0""
""focus"",""3"",""19628""
","""event"",""trial"",""time""
""fullscreenenter"",""1"",""3822""
""fullscreenenter"",""5"",""26238""
","""event"",""trial"",""time""
""fullscreenexit"",""3"",""11060""
","","11844.36999999889","The mix of cards in each colored deck will stay the same throughout the game. </br> That means that a deck that is lucky early on will stay lucky.","79","","instructions","2021-04-01 01:35:10.196","","","","","",""
"casino-keyboard-response","29","180119","0.0-16.0-0.7","A1107","false","img/card_backs/set1/purple.gif","img/card_backs/set1/red.gif","img/card_backs/set1/green.gif","img/card_backs/set1/yellow.gif","img/card_backs/set2/blue.gif","img/card_backs/set2/orange.gif","img/card_backs/set2/gray.gif","img/card_backs/set2/pink.gif","""event"",""trial"",""time""
""blur"",""0"",""0""
""focus"",""0"",""0""
""fullscreenenter"",""1"",""3822""
""fullscreenexit"",""3"",""11060""
""blur"",""3"",""19628""
""focus"",""3"",""19628""
""fullscreenenter"",""5"",""26238""
","""event"",""trial"",""time""
""blur"",""0"",""0""
""blur"",""3"",""19628""
","""event"",""trial"",""time""
""focus"",""0"",""0""
""focus"",""3"",""19628""
","""event"",""trial"",""time""
""fullscreenenter"",""1"",""3822""
""fullscreenenter"",""5"",""26238""
","""event"",""trial"",""time""
""fullscreenexit"",""3"",""11060""
","","10721.17000000435","Remember though, all the decks have a <b> mix </b> of both <b> good </b> and <b> bad </b> cards so it may take a couple of turns to figure out if a deck is lucky.","69","","instructions","2021-04-01 01:35:20.924","","","","","",""
"casino-keyboard-response","30","188788","0.0-16.0-0.8","A1107","false","img/card_backs/set1/purple.gif","img/card_backs/set1/red.gif","img/card_backs/set1/green.gif","img/card_backs/set1/yellow.gif","img/card_backs/set2/blue.gif","img/card_backs/set2/orange.gif","img/card_backs/set2/gray.gif","img/card_backs/set2/pink.gif","""event"",""trial"",""time""
""blur"",""0"",""0""
""focus"",""0"",""0""
""fullscreenenter"",""1"",""3822""
""fullscreenexit"",""3"",""11060""
""blur"",""3"",""19628""
""focus"",""3"",""19628""
""fullscreenenter"",""5"",""26238""
","""event"",""trial"",""time""
""blur"",""0"",""0""
""blur"",""3"",""19628""
","""event"",""trial"",""time""
""focus"",""0"",""0""
""focus"",""3"",""19628""
","""event"",""trial"",""time""
""fullscreenenter"",""1"",""3822""
""fullscreenenter"",""5"",""26238""
","""event"",""trial"",""time""
""fullscreenexit"",""3"",""11060""
","","8660.665000003064","At the end of the game, you will be paid bonus money based on how many tokens you win. </br> If you win more tokens, you will earn more money!","72","","instructions","2021-04-01 01:35:29.593","","","","","",""
"casino-keyboard-response","31","200385","0.0-16.0-0.9","A1107","false","img/card_backs/set1/purple.gif","img/card_backs/set1/red.gif","img/card_backs/set1/green.gif","img/card_backs/set1/yellow.gif","img/card_backs/set2/blue.gif","img/card_backs/set2/orange.gif","img/card_backs/set2/gray.gif","img/card_backs/set2/pink.gif","""event"",""trial"",""time""
""blur"",""0"",""0""
""focus"",""0"",""0""
""fullscreenenter"",""1"",""3822""
""fullscreenexit"",""3"",""11060""
""blur"",""3"",""19628""
""focus"",""3"",""19628""
""fullscreenenter"",""5"",""26238""
","""event"",""trial"",""time""
""blur"",""0"",""0""
""blur"",""3"",""19628""
","""event"",""trial"",""time""
""focus"",""0"",""0""
""focus"",""3"",""19628""
","""event"",""trial"",""time""
""fullscreenenter"",""1"",""3822""
""fullscreenenter"",""5"",""26238""
","""event"",""trial"",""time""
""fullscreenexit"",""3"",""11060""
","","11586.859999995795","You will never <b> lose </b> money. </br> If you end up with fewer than 0 tokens, you will earn $0 of bonus money, but you will still be paid for playing the game.","83","","instructions","2021-04-01 01:35:41.190","","","","","",""
"casino-keyboard-response","32","204736","0.0-16.0-0.10","A1107","false","img/card_backs/set1/purple.gif","img/card_backs/set1/red.gif","img/card_backs/set1/green.gif","img/card_backs/set1/yellow.gif","img/card_backs/set2/blue.gif","img/card_backs/set2/orange.gif","img/card_backs/set2/gray.gif","img/card_backs/set2/pink.gif","""event"",""trial"",""time""
""blur"",""0"",""0""
""focus"",""0"",""0""
""fullscreenenter"",""1"",""3822""
""fullscreenexit"",""3"",""11060""
""blur"",""3"",""19628""
""focus"",""3"",""19628""
""fullscreenenter"",""5"",""26238""
","""event"",""trial"",""time""
""blur"",""0"",""0""
""blur"",""3"",""19628""
","""event"",""trial"",""time""
""focus"",""0"",""0""
""focus"",""3"",""19628""
","""event"",""trial"",""time""
""fullscreenenter"",""1"",""3822""
""fullscreenenter"",""5"",""26238""
","""event"",""trial"",""time""
""fullscreenexit"",""3"",""11060""
","","4338.354999999865","You will have 10 seconds to make each choice.","82","","instructions","2021-04-01 01:35:45.541","","","","","",""
"casino-keyboard-response","33","213784","0.0-16.0-0.11","A1107","false","img/card_backs/set1/purple.gif","img/card_backs/set1/red.gif","img/card_backs/set1/green.gif","img/card_backs/set1/yellow.gif","img/card_backs/set2/blue.gif","img/card_backs/set2/orange.gif","img/card_backs/set2/gray.gif","img/card_backs/set2/pink.gif","""event"",""trial"",""time""
""blur"",""0"",""0""
""focus"",""0"",""0""
""fullscreenenter"",""1"",""3822""
""fullscreenexit"",""3"",""11060""
""blur"",""3"",""19628""
""focus"",""3"",""19628""
""fullscreenenter"",""5"",""26238""
","""event"",""trial"",""time""
""blur"",""0"",""0""
""blur"",""3"",""19628""
","""event"",""trial"",""time""
""focus"",""0"",""0""
""focus"",""3"",""19628""
","""event"",""trial"",""time""
""fullscreenenter"",""1"",""3822""
""fullscreenenter"",""5"",""26238""
","""event"",""trial"",""time""
""fullscreenexit"",""3"",""11060""
","","9041.714999999385","Before you play the game for real, you will play with practice decks. </br> The tokens you earn during practice won't count toward your total.","86","","instructions","2021-04-01 01:35:54.589","","","","","",""
"casino-keyboard-response","34","226341","0.0-16.0-0.12","A1107","false","img/card_backs/set1/purple.gif","img/card_backs/set1/red.gif","img/card_backs/set1/green.gif","img/card_backs/set1/yellow.gif","img/card_backs/set2/blue.gif","img/card_backs/set2/orange.gif","img/card_backs/set2/gray.gif","img/card_backs/set2/pink.gif","""event"",""trial"",""time""
""blur"",""0"",""0""
""focus"",""0"",""0""
""fullscreenenter"",""1"",""3822""
""fullscreenexit"",""3"",""11060""
""blur"",""3"",""19628""
""focus"",""3"",""19628""
""fullscreenenter"",""5"",""26238""
","""event"",""trial"",""time""
""blur"",""0"",""0""
""blur"",""3"",""19628""
","""event"",""trial"",""time""
""focus"",""0"",""0""
""focus"",""3"",""19628""
","""event"",""trial"",""time""
""fullscreenenter"",""1"",""3822""
""fullscreenenter"",""5"",""26238""
","""event"",""trial"",""time""
""fullscreenexit"",""3"",""11060""
","","12551.2649999946","Ready? Remember, use the '2', '4', '6', and '8' keys to select the decks. </br> Put your fingers on those keys now and then press '2' to begin.","50","","instructions","2021-04-01 01:36:07.146","","","","","",""
"casino-fixation","35","226912","0.0-17.0-0.0","A1107","false","img/card_backs/set1/purple.gif","img/card_backs/set1/red.gif","img/card_backs/set1/green.gif","img/card_backs/set1/yellow.gif","img/card_backs/set2/blue.gif","img/card_backs/set2/orange.gif","img/card_backs/set2/gray.gif","img/card_backs/set2/pink.gif","""event"",""trial"",""time""
""blur"",""0"",""0""
""focus"",""0"",""0""
""fullscreenenter"",""1"",""3822""
""fullscreenexit"",""3"",""11060""
""blur"",""3"",""19628""
""focus"",""3"",""19628""
""fullscreenenter"",""5"",""26238""
","""event"",""trial"",""time""
""blur"",""0"",""0""
""blur"",""3"",""19628""
","""event"",""trial"",""time""
""focus"",""0"",""0""
""focus"",""3"",""19628""
","""event"",""trial"",""time""
""fullscreenenter"",""1"",""3822""
""fullscreenenter"",""5"",""26238""
","""event"",""trial"",""time""
""fullscreenexit"",""3"",""11060""
","","null","","null","","fixation","2021-04-01 01:36:07.717","","","","","",""
"card-selection-trial","36","230953","0.0-17.0-1.0","A1107","false","img/card_backs/set1/purple.gif","img/card_backs/set1/red.gif","img/card_backs/set1/green.gif","img/card_backs/set1/yellow.gif","img/card_backs/set2/blue.gif","img/card_backs/set2/orange.gif","img/card_backs/set2/gray.gif","img/card_backs/set2/pink.gif","""event"",""trial"",""time""
""blur"",""0"",""0""
""focus"",""0"",""0""
""fullscreenenter"",""1"",""3822""
""fullscreenexit"",""3"",""11060""
""blur"",""3"",""19628""
""focus"",""3"",""19628""
""fullscreenenter"",""5"",""26238""
","""event"",""trial"",""time""
""blur"",""0"",""0""
""blur"",""3"",""19628""
","""event"",""trial"",""time""
""focus"",""0"",""0""
""focus"",""3"",""19628""
","""event"",""trial"",""time""
""fullscreenenter"",""1"",""3822""
""fullscreenenter"",""5"",""26238""
","""event"",""trial"",""time""
""fullscreenexit"",""3"",""11060""
","","2005.9800000017276","","","","practice","2021-04-01 01:36:11.758","img/practice_cards/backs/dark_green.gif","0","-200","0","",""
"casino-fixation","37","231474","0.0-17.0-0.1","A1107","false","img/card_backs/set1/purple.gif","img/card_backs/set1/red.gif","img/card_backs/set1/green.gif","img/card_backs/set1/yellow.gif","img/card_backs/set2/blue.gif","img/card_backs/set2/orange.gif","img/card_backs/set2/gray.gif","img/card_backs/set2/pink.gif","""event"",""trial"",""time""
""blur"",""0"",""0""
""focus"",""0"",""0""
""fullscreenenter"",""1"",""3822""
""fullscreenexit"",""3"",""11060""
""blur"",""3"",""19628""
""focus"",""3"",""19628""
""fullscreenenter"",""5"",""26238""
","""event"",""trial"",""time""
""blur"",""0"",""0""
""blur"",""3"",""19628""
","""event"",""trial"",""time""
""focus"",""0"",""0""
""focus"",""3"",""19628""
","""event"",""trial"",""time""
""fullscreenenter"",""1"",""3822""
""fullscreenenter"",""5"",""26238""
","""event"",""trial"",""time""
""fullscreenexit"",""3"",""11060""
","","null","","null","","fixation","2021-04-01 01:36:12.279","","","","","",""
"card-selection-trial","38","234124","0.0-17.0-1.1","A1107","false","img/card_backs/set1/purple.gif","img/card_backs/set1/red.gif","img/card_backs/set1/green.gif","img/card_backs/set1/yellow.gif","img/card_backs/set2/blue.gif","img/card_backs/set2/orange.gif","img/card_backs/set2/gray.gif","img/card_backs/set2/pink.gif","""event"",""trial"",""time""
""blur"",""0"",""0""
""focus"",""0"",""0""
""fullscreenenter"",""1"",""3822""
""fullscreenexit"",""3"",""11060""
""blur"",""3"",""19628""
""focus"",""3"",""19628""
""fullscreenenter"",""5"",""26238""
","""event"",""trial"",""time""
""blur"",""0"",""0""
""blur"",""3"",""19628""
","""event"",""trial"",""time""
""focus"",""0"",""0""
""focus"",""3"",""19628""
","""event"",""trial"",""time""
""fullscreenenter"",""1"",""3822""
""fullscreenenter"",""5"",""26238""
","""event"",""trial"",""time""
""fullscreenexit"",""3"",""11060""
","","611.5700000009383","","","","practice","2021-04-01 01:36:14.929","img/practice_cards/backs/brown.gif","1","-100","0","",""
"casino-fixation","39","234629","0.0-17.0-0.2","A1107","false","img/card_backs/set1/purple.gif","img/card_backs/set1/red.gif","img/card_backs/set1/green.gif","img/card_backs/set1/yellow.gif","img/card_backs/set2/blue.gif","img/card_backs/set2/orange.gif","img/card_backs/set2/gray.gif","img/card_backs/set2/pink.gif","""event"",""trial"",""time""
""blur"",""0"",""0""
""focus"",""0"",""0""
""fullscreenenter"",""1"",""3822""
""fullscreenexit"",""3"",""11060""
""blur"",""3"",""19628""
""focus"",""3"",""19628""
""fullscreenenter"",""5"",""26238""
","""event"",""trial"",""time""
""blur"",""0"",""0""
""blur"",""3"",""19628""
","""event"",""trial"",""time""
""focus"",""0"",""0""
""focus"",""3"",""19628""
","""event"",""trial"",""time""
""fullscreenenter"",""1"",""3822""
""fullscreenenter"",""5"",""26238""
","""event"",""trial"",""time""
""fullscreenexit"",""3"",""11060""
","","null","","null","","fixation","2021-04-01 01:36:15.435","","","","","",""
"card-selection-trial","40","236904","0.0-17.0-1.2","A1107","false","img/card_backs/set1/purple.gif","img/card_backs/set1/red.gif","img/card_backs/set1/green.gif","img/card_backs/set1/yellow.gif","img/card_backs/set2/blue.gif","img/card_backs/set2/orange.gif","img/card_backs/set2/gray.gif","img/card_backs/set2/pink.gif","""event"",""trial"",""time""
""blur"",""0"",""0""
""focus"",""0"",""0""
""fullscreenenter"",""1"",""3822""
""fullscreenexit"",""3"",""11060""
""blur"",""3"",""19628""
""focus"",""3"",""19628""
""fullscreenenter"",""5"",""26238""
","""event"",""trial"",""time""
""blur"",""0"",""0""
""blur"",""3"",""19628""
","""event"",""trial"",""time""
""focus"",""0"",""0""
""focus"",""3"",""19628""
","""event"",""trial"",""time""
""fullscreenenter"",""1"",""3822""
""fullscreenenter"",""5"",""26238""
","""event"",""trial"",""time""
""fullscreenexit"",""3"",""11060""
","","231.22999999759486","","","","practice","2021-04-01 01:36:17.710","img/practice_cards/backs/dark_green.gif","2","200","0","",""
"casino-fixation","41","237431","0.0-17.0-0.3","A1107","false","img/card_backs/set1/purple.gif","img/card_backs/set1/red.gif","img/card_backs/set1/green.gif","img/card_backs/set1/yellow.gif","img/card_backs/set2/blue.gif","img/card_backs/set2/orange.gif","img/card_backs/set2/gray.gif","img/card_backs/set2/pink.gif","""event"",""trial"",""time""
""blur"",""0"",""0""
""focus"",""0"",""0""
""fullscreenenter"",""1"",""3822""
""fullscreenexit"",""3"",""11060""
""blur"",""3"",""19628""
""focus"",""3"",""19628""
""fullscreenenter"",""5"",""26238""
","""event"",""trial"",""time""
""blur"",""0"",""0""
""blur"",""3"",""19628""
","""event"",""trial"",""time""
""focus"",""0"",""0""
""focus"",""3"",""19628""
","""event"",""trial"",""time""
""fullscreenenter"",""1"",""3822""
""fullscreenenter"",""5"",""26238""
","""event"",""trial"",""time""
""fullscreenexit"",""3"",""11060""
","","null","","null","","fixation","2021-04-01 01:36:18.236","","","","","",""
"card-selection-trial","42","239838","0.0-17.0-1.3","A1107","false","img/card_backs/set1/purple.gif","img/card_backs/set1/red.gif","img/card_backs/set1/green.gif","img/card_backs/set1/yellow.gif","img/card_backs/set2/blue.gif","img/card_backs/set2/orange.gif","img/card_backs/set2/gray.gif","img/card_backs/set2/pink.gif","""event"",""trial"",""time""
""blur"",""0"",""0""
""focus"",""0"",""0""
""fullscreenenter"",""1"",""3822""
""fullscreenexit"",""3"",""11060""
""blur"",""3"",""19628""
""focus"",""3"",""19628""
""fullscreenenter"",""5"",""26238""
""blur"",""43"",""240006""
","""event"",""trial"",""time""
""blur"",""0"",""0""
""blur"",""3"",""19628""
""blur"",""43"",""240006""
","""event"",""trial"",""time""
""focus"",""0"",""0""
""focus"",""3"",""19628""
","""event"",""trial"",""time""
""fullscreenenter"",""1"",""3822""
""fullscreenenter"",""5"",""26238""
","""event"",""trial"",""time""
""fullscreenexit"",""3"",""11060""
","","328.8699999975506","","","","practice","2021-04-01 01:36:20.643","img/practice_cards/backs/brown.gif","3","-100","0","",""
"casino-fixation","43","240366","0.0-17.0-0.4","A1107","false","img/card_backs/set1/purple.gif","img/card_backs/set1/red.gif","img/card_backs/set1/green.gif","img/card_backs/set1/yellow.gif","img/card_backs/set2/blue.gif","img/card_backs/set2/orange.gif","img/card_backs/set2/gray.gif","img/card_backs/set2/pink.gif","""event"",""trial"",""time""
""blur"",""0"",""0""
""focus"",""0"",""0""
""fullscreenenter"",""1"",""3822""
""fullscreenexit"",""3"",""11060""
""blur"",""3"",""19628""
""focus"",""3"",""19628""
""fullscreenenter"",""5"",""26238""
""blur"",""43"",""240006""
""focus"",""44"",""243842""
","""event"",""trial"",""time""
""blur"",""0"",""0""
""blur"",""3"",""19628""
""blur"",""43"",""240006""
","""event"",""trial"",""time""
""focus"",""0"",""0""
""focus"",""3"",""19628""
""focus"",""44"",""243842""
","""event"",""trial"",""time""
""fullscreenenter"",""1"",""3822""
""fullscreenenter"",""5"",""26238""
","""event"",""trial"",""time""
""fullscreenexit"",""3"",""11060""
","","null","","null","","fixation","2021-04-01 01:36:21.171","","","","","",""
"card-selection-trial","44","246457","0.0-17.0-1.4","A1107","false","img/card_backs/set1/purple.gif","img/card_backs/set1/red.gif","img/card_backs/set1/green.gif","img/card_backs/set1/yellow.gif","img/card_backs/set2/blue.gif","img/card_backs/set2/orange.gif","img/card_backs/set2/gray.gif","img/card_backs/set2/pink.gif","""event"",""trial"",""time""
""blur"",""0"",""0""
""focus"",""0"",""0""
""fullscreenenter"",""1"",""3822""
""fullscreenexit"",""3"",""11060""
""blur"",""3"",""19628""
""focus"",""3"",""19628""
""fullscreenenter"",""5"",""26238""
""blur"",""43"",""240006""
""focus"",""44"",""243842""
","""event"",""trial"",""time""
""blur"",""0"",""0""
""blur"",""3"",""19628""
""blur"",""43"",""240006""
","""event"",""trial"",""time""
""focus"",""0"",""0""
""focus"",""3"",""19628""
""focus"",""44"",""243842""
","""event"",""trial"",""time""
""fullscreenenter"",""1"",""3822""
""fullscreenenter"",""5"",""26238""
","""event"",""trial"",""time""
""fullscreenexit"",""3"",""11060""
","","4035.599999995611","","","","practice","2021-04-01 01:36:27.263","img/practice_cards/backs/brown.gif","2","-100","0","",""
"casino-fixation","45","246968","0.0-17.0-0.5","A1107","false","img/card_backs/set1/purple.gif","img/card_backs/set1/red.gif","img/card_backs/set1/green.gif","img/card_backs/set1/yellow.gif","img/card_backs/set2/blue.gif","img/card_backs/set2/orange.gif","img/card_backs/set2/gray.gif","img/card_backs/set2/pink.gif","""event"",""trial"",""time""
""blur"",""0"",""0""
""focus"",""0"",""0""
""fullscreenenter"",""1"",""3822""
""fullscreenexit"",""3"",""11060""
""blur"",""3"",""19628""
""focus"",""3"",""19628""
""fullscreenenter"",""5"",""26238""
""blur"",""43"",""240006""
""focus"",""44"",""243842""
","""event"",""trial"",""time""
""blur"",""0"",""0""
""blur"",""3"",""19628""
""blur"",""43"",""240006""
","""event"",""trial"",""time""
""focus"",""0"",""0""
""focus"",""3"",""19628""
""focus"",""44"",""243842""
","""event"",""trial"",""time""
""fullscreenenter"",""1"",""3822""
""fullscreenenter"",""5"",""26238""
","""event"",""trial"",""time""
""fullscreenexit"",""3"",""11060""
","","null","","null","","fixation","2021-04-01 01:36:27.774","","","","","",""
"card-selection-trial","46","258428","0.0-17.0-1.5","A1107","false","img/card_backs/set1/purple.gif","img/card_backs/set1/red.gif","img/card_backs/set1/green.gif","img/card_backs/set1/yellow.gif","img/card_backs/set2/blue.gif","img/card_backs/set2/orange.gif","img/card_backs/set2/gray.gif","img/card_backs/set2/pink.gif","""event"",""trial"",""time""
""blur"",""0"",""0""
""focus"",""0"",""0""
""fullscreenenter"",""1"",""3822""
""fullscreenexit"",""3"",""11060""
""blur"",""3"",""19628""
""focus"",""3"",""19628""
""fullscreenenter"",""5"",""26238""
""blur"",""43"",""240006""
""focus"",""44"",""243842""
","""event"",""trial"",""time""
""blur"",""0"",""0""
""blur"",""3"",""19628""
""blur"",""43"",""240006""
","""event"",""trial"",""time""
""focus"",""0"",""0""
""focus"",""3"",""19628""
""focus"",""44"",""243842""
","""event"",""trial"",""time""
""fullscreenenter"",""1"",""3822""
""fullscreenenter"",""5"",""26238""
","""event"",""trial"",""time""
""fullscreenexit"",""3"",""11060""
","","9412.98000000097","","","","practice","2021-04-01 01:36:39.233","img/practice_cards/backs/black.gif","0","-100","0","",""
"casino-fixation","47","258936","0.0-17.0-0.6","A1107","false","img/card_backs/set1/purple.gif","img/card_backs/set1/red.gif","img/card_backs/set1/green.gif","img/card_backs/set1/yellow.gif","img/card_backs/set2/blue.gif","img/card_backs/set2/orange.gif","img/card_backs/set2/gray.gif","img/card_backs/set2/pink.gif","""event"",""trial"",""time""
""blur"",""0"",""0""
""focus"",""0"",""0""
""fullscreenenter"",""1"",""3822""
""fullscreenexit"",""3"",""11060""
""blur"",""3"",""19628""
""focus"",""3"",""19628""
""fullscreenenter"",""5"",""26238""
""blur"",""43"",""240006""
""focus"",""44"",""243842""
","""event"",""trial"",""time""
""blur"",""0"",""0""
""blur"",""3"",""19628""
""blur"",""43"",""240006""
","""event"",""trial"",""time""
""focus"",""0"",""0""
""focus"",""3"",""19628""
""focus"",""44"",""243842""
","""event"",""trial"",""time""
""fullscreenenter"",""1"",""3822""
""fullscreenenter"",""5"",""26238""
","""event"",""trial"",""time""
""fullscreenexit"",""3"",""11060""
","","null","","null","","fixation","2021-04-01 01:36:39.741","","","","","",""
"card-selection-trial","48","261145","0.0-17.0-1.6","A1107","false","img/card_backs/set1/purple.gif","img/card_backs/set1/red.gif","img/card_backs/set1/green.gif","img/card_backs/set1/yellow.gif","img/card_backs/set2/blue.gif","img/card_backs/set2/orange.gif","img/card_backs/set2/gray.gif","img/card_backs/set2/pink.gif","""event"",""trial"",""time""
""blur"",""0"",""0""
""focus"",""0"",""0""
""fullscreenenter"",""1"",""3822""
""fullscreenexit"",""3"",""11060""
""blur"",""3"",""19628""
""focus"",""3"",""19628""
""fullscreenenter"",""5"",""26238""
""blur"",""43"",""240006""
""focus"",""44"",""243842""
","""event"",""trial"",""time""
""blur"",""0"",""0""
""blur"",""3"",""19628""
""blur"",""43"",""240006""
","""event"",""trial"",""time""
""focus"",""0"",""0""
""focus"",""3"",""19628""
""focus"",""44"",""243842""
","""event"",""trial"",""time""
""fullscreenenter"",""1"",""3822""
""fullscreenenter"",""5"",""26238""
","""event"",""trial"",""time""
""fullscreenexit"",""3"",""11060""
","","143.13500000571366","","","","practice","2021-04-01 01:36:41.950","img/practice_cards/backs/brown.gif","1","-100","0","",""
"casino-fixation","49","261650","0.0-17.0-0.7","A1107","false","img/card_backs/set1/purple.gif","img/card_backs/set1/red.gif","img/card_backs/set1/green.gif","img/card_backs/set1/yellow.gif","img/card_backs/set2/blue.gif","img/card_backs/set2/orange.gif","img/card_backs/set2/gray.gif","img/card_backs/set2/pink.gif","""event"",""trial"",""time""
""blur"",""0"",""0""
""focus"",""0"",""0""
""fullscreenenter"",""1"",""3822""
""fullscreenexit"",""3"",""11060""
""blur"",""3"",""19628""
""focus"",""3"",""19628""
""fullscreenenter"",""5"",""26238""
""blur"",""43"",""240006""
""focus"",""44"",""243842""
","""event"",""trial"",""time""
""blur"",""0"",""0""
""blur"",""3"",""19628""
""blur"",""43"",""240006""
","""event"",""trial"",""time""
""focus"",""0"",""0""
""focus"",""3"",""19628""
""focus"",""44"",""243842""
","""event"",""trial"",""time""
""fullscreenenter"",""1"",""3822""
""fullscreenenter"",""5"",""26238""
","""event"",""trial"",""time""
""fullscreenexit"",""3"",""11060""
","","null","","null","","fixation","2021-04-01 01:36:42.455","","","","","",""
"card-selection-trial","50","264822","0.0-17.0-1.7","A1107","false","img/card_backs/set1/purple.gif","img/card_backs/set1/red.gif","img/card_backs/set1/green.gif","img/card_backs/set1/yellow.gif","img/card_backs/set2/blue.gif","img/card_backs/set2/orange.gif","img/card_backs/set2/gray.gif","img/card_backs/set2/pink.gif","""event"",""trial"",""time""
""blur"",""0"",""0""
""focus"",""0"",""0""
""fullscreenenter"",""1"",""3822""
""fullscreenexit"",""3"",""11060""
""blur"",""3"",""19628""
""focus"",""3"",""19628""
""fullscreenenter"",""5"",""26238""
""blur"",""43"",""240006""
""focus"",""44"",""243842""
""fullscreenexit"",""51"",""264881""
","""event"",""trial"",""time""
""blur"",""0"",""0""
""blur"",""3"",""19628""
""blur"",""43"",""240006""
","""event"",""trial"",""time""
""focus"",""0"",""0""
""focus"",""3"",""19628""
""focus"",""44"",""243842""
","""event"",""trial"",""time""
""fullscreenenter"",""1"",""3822""
""fullscreenenter"",""5"",""26238""
","""event"",""trial"",""time""
""fullscreenexit"",""3"",""11060""
""fullscreenexit"",""51"",""264881""
","","1125.6849999990663","","","","practice","2021-04-01 01:36:45.628","img/practice_cards/backs/brown.gif","2","100","0","",""
"casino-fixation","51","265343","0.0-17.0-0.8","A1107","false","img/card_backs/set1/purple.gif","img/card_backs/set1/red.gif","img/card_backs/set1/green.gif","img/card_backs/set1/yellow.gif","img/card_backs/set2/blue.gif","img/card_backs/set2/orange.gif","img/card_backs/set2/gray.gif","img/card_backs/set2/pink.gif","""event"",""trial"",""time""
""blur"",""0"",""0""
""focus"",""0"",""0""
""fullscreenenter"",""1"",""3822""
""fullscreenexit"",""3"",""11060""
""blur"",""3"",""19628""
""focus"",""3"",""19628""
""fullscreenenter"",""5"",""26238""
""blur"",""43"",""240006""
""focus"",""44"",""243842""
""fullscreenexit"",""51"",""264881""
""blur"",""52"",""266852""
""focus"",""52"",""269087""
","""event"",""trial"",""time""
""blur"",""0"",""0""
""blur"",""3"",""19628""
""blur"",""43"",""240006""
""blur"",""52"",""266852""
","""event"",""trial"",""time""
""focus"",""0"",""0""
""focus"",""3"",""19628""
""focus"",""44"",""243842""
""focus"",""52"",""269087""
","""event"",""trial"",""time""
""fullscreenenter"",""1"",""3822""
""fullscreenenter"",""5"",""26238""
","""event"",""trial"",""time""
""fullscreenexit"",""3"",""11060""
""fullscreenexit"",""51"",""264881""
","","null","","null","","fixation","2021-04-01 01:36:46.148","","","","","",""
"card-selection-trial","52","272603","0.0-17.0-1.8","A1107","false","img/card_backs/set1/purple.gif","img/card_backs/set1/red.gif","img/card_backs/set1/green.gif","img/card_backs/set1/yellow.gif","img/card_backs/set2/blue.gif","img/card_backs/set2/orange.gif","img/card_backs/set2/gray.gif","img/card_backs/set2/pink.gif","""event"",""trial"",""time""
""blur"",""0"",""0""
""focus"",""0"",""0""
""fullscreenenter"",""1"",""3822""
""fullscreenexit"",""3"",""11060""
""blur"",""3"",""19628""
""focus"",""3"",""19628""
""fullscreenenter"",""5"",""26238""
""blur"",""43"",""240006""
""focus"",""44"",""243842""
""fullscreenexit"",""51"",""264881""
""blur"",""52"",""266852""
""focus"",""52"",""269087""
","""event"",""trial"",""time""
""blur"",""0"",""0""
""blur"",""3"",""19628""
""blur"",""43"",""240006""
""blur"",""52"",""266852""
","""event"",""trial"",""time""
""focus"",""0"",""0""
""focus"",""3"",""19628""
""focus"",""44"",""243842""
""focus"",""52"",""269087""
","""event"",""trial"",""time""
""fullscreenenter"",""1"",""3822""
""fullscreenenter"",""5"",""26238""
","""event"",""trial"",""time""
""fullscreenexit"",""3"",""11060""
""fullscreenexit"",""51"",""264881""
","","5232.770000002347","","","","practice","2021-04-01 01:36:53.408","img/practice_cards/backs/dark_blue.gif","0","-200","0","",""
"casino-fixation","53","273116","0.0-17.0-0.9","A1107","false","img/card_backs/set1/purple.gif","img/card_backs/set1/red.gif","img/card_backs/set1/green.gif","img/card_backs/set1/yellow.gif","img/card_backs/set2/blue.gif","img/card_backs/set2/orange.gif","img/card_backs/set2/gray.gif","img/card_backs/set2/pink.gif","""event"",""trial"",""time""
""blur"",""0"",""0""
""focus"",""0"",""0""
""fullscreenenter"",""1"",""3822""
""fullscreenexit"",""3"",""11060""
""blur"",""3"",""19628""
""focus"",""3"",""19628""
""fullscreenenter"",""5"",""26238""
""blur"",""43"",""240006""
""focus"",""44"",""243842""
""fullscreenexit"",""51"",""264881""
""blur"",""52"",""266852""
""focus"",""52"",""269087""
","""event"",""trial"",""time""
""blur"",""0"",""0""
""blur"",""3"",""19628""
""blur"",""43"",""240006""
""blur"",""52"",""266852""
","""event"",""trial"",""time""
""focus"",""0"",""0""
""focus"",""3"",""19628""
""focus"",""44"",""243842""
""focus"",""52"",""269087""
","""event"",""trial"",""time""
""fullscreenenter"",""1"",""3822""
""fullscreenenter"",""5"",""26238""
","""event"",""trial"",""time""
""fullscreenexit"",""3"",""11060""
""fullscreenexit"",""51"",""264881""
","","null","","null","","fixation","2021-04-01 01:36:53.921","","","","","",""
"card-selection-trial","54","276151","0.0-17.0-1.9","A1107","false","img/card_backs/set1/purple.gif","img/card_backs/set1/red.gif","img/card_backs/set1/green.gif","img/card_backs/set1/yellow.gif","img/card_backs/set2/blue.gif","img/card_backs/set2/orange.gif","img/card_backs/set2/gray.gif","img/card_backs/set2/pink.gif","""event"",""trial"",""time""
""blur"",""0"",""0""
""focus"",""0"",""0""
""fullscreenenter"",""1"",""3822""
""fullscreenexit"",""3"",""11060""
""blur"",""3"",""19628""
""focus"",""3"",""19628""
""fullscreenenter"",""5"",""26238""
""blur"",""43"",""240006""
""focus"",""44"",""243842""
""fullscreenexit"",""51"",""264881""
""blur"",""52"",""266852""
""focus"",""52"",""269087""
""blur"",""55"",""279009""
""focus"",""55"",""301076""
","""event"",""trial"",""time""
""blur"",""0"",""0""
""blur"",""3"",""19628""
""blur"",""43"",""240006""
""blur"",""52"",""266852""
""blur"",""55"",""279009""
","""event"",""trial"",""time""
""focus"",""0"",""0""
""focus"",""3"",""19628""
""focus"",""44"",""243842""
""focus"",""52"",""269087""
""focus"",""55"",""301076""
","""event"",""trial"",""time""
""fullscreenenter"",""1"",""3822""
""fullscreenenter"",""5"",""26238""
","""event"",""trial"",""time""
""fullscreenexit"",""3"",""11060""
""fullscreenexit"",""51"",""264881""
","","1001.9150000007357","","","","practice","2021-04-01 01:36:56.956","img/practice_cards/backs/dark_blue.gif","0","200","0","",""
"casino-keyboard-response","55","303134","0.0-18.0","A1107","false","img/card_backs/set1/purple.gif","img/card_backs/set1/red.gif","img/card_backs/set1/green.gif","img/card_backs/set1/yellow.gif","img/card_backs/set2/blue.gif","img/card_backs/set2/orange.gif","img/card_backs/set2/gray.gif","img/card_backs/set2/pink.gif","""event"",""trial"",""time""
""blur"",""0"",""0""
""focus"",""0"",""0""
""fullscreenenter"",""1"",""3822""
""fullscreenexit"",""3"",""11060""
""blur"",""3"",""19628""
""focus"",""3"",""19628""
""fullscreenenter"",""5"",""26238""
""blur"",""43"",""240006""
""focus"",""44"",""243842""
""fullscreenexit"",""51"",""264881""
""blur"",""52"",""266852""
""focus"",""52"",""269087""
""blur"",""55"",""279009""
""focus"",""55"",""301076""
","""event"",""trial"",""time""
""blur"",""0"",""0""
""blur"",""3"",""19628""
""blur"",""43"",""240006""
""blur"",""52"",""266852""
""blur"",""55"",""279009""
","""event"",""trial"",""time""
""focus"",""0"",""0""
""focus"",""3"",""19628""
""focus"",""44"",""243842""
""focus"",""52"",""269087""
""focus"",""55"",""301076""
","""event"",""trial"",""time""
""fullscreenenter"",""1"",""3822""
""fullscreenenter"",""5"",""26238""
","""event"",""trial"",""time""
""fullscreenexit"",""3"",""11060""
""fullscreenexit"",""51"",""264881""
","","26976.82999999961","You earned -400 tokens during the practice round!","75","","","2021-04-01 01:37:23.942","","","","","",""
"casino-keyboard-response","56","307809","0.0-19.0-0.0","A1107","false","img/card_backs/set1/purple.gif","img/card_backs/set1/red.gif","img/card_backs/set1/green.gif","img/card_backs/set1/yellow.gif","img/card_backs/set2/blue.gif","img/card_backs/set2/orange.gif","img/card_backs/set2/gray.gif","img/card_backs/set2/pink.gif","""event"",""trial"",""time""
""blur"",""0"",""0""
""focus"",""0"",""0""
""fullscreenenter"",""1"",""3822""
""fullscreenexit"",""3"",""11060""
""blur"",""3"",""19628""
""focus"",""3"",""19628""
""fullscreenenter"",""5"",""26238""
""blur"",""43"",""240006""
""focus"",""44"",""243842""
""fullscreenexit"",""51"",""264881""
""blur"",""52"",""266852""
""focus"",""52"",""269087""
""blur"",""55"",""279009""
""focus"",""55"",""301076""
","""event"",""trial"",""time""
""blur"",""0"",""0""
""blur"",""3"",""19628""
""blur"",""43"",""240006""
""blur"",""52"",""266852""
""blur"",""55"",""279009""
","""event"",""trial"",""time""
""focus"",""0"",""0""
""focus"",""3"",""19628""
""focus"",""44"",""243842""
""focus"",""52"",""269087""
""focus"",""55"",""301076""
","""event"",""trial"",""time""
""fullscreenenter"",""1"",""3822""
""fullscreenenter"",""5"",""26238""
","""event"",""trial"",""time""
""fullscreenexit"",""3"",""11060""
""fullscreenexit"",""51"",""264881""
","","4664.669999998296","Nice job! You are almost ready to play the real game.","86","","instructions","2021-04-01 01:37:28.614","","","","","",""
"casino-keyboard-response","57","315101","0.0-19.0-0.1","A1107","false","img/card_backs/set1/purple.gif","img/card_backs/set1/red.gif","img/card_backs/set1/green.gif","img/card_backs/set1/yellow.gif","img/card_backs/set2/blue.gif","img/card_backs/set2/orange.gif","img/card_backs/set2/gray.gif","img/card_backs/set2/pink.gif","""event"",""trial"",""time""
""blur"",""0"",""0""
""focus"",""0"",""0""
""fullscreenenter"",""1"",""3822""
""fullscreenexit"",""3"",""11060""
""blur"",""3"",""19628""
""focus"",""3"",""19628""
""fullscreenenter"",""5"",""26238""
""blur"",""43"",""240006""
""focus"",""44"",""243842""
""fullscreenexit"",""51"",""264881""
""blur"",""52"",""266852""
""focus"",""52"",""269087""
""blur"",""55"",""279009""
""focus"",""55"",""301076""
""blur"",""58"",""318738""
""focus"",""58"",""321590""
","""event"",""trial"",""time""
""blur"",""0"",""0""
""blur"",""3"",""19628""
""blur"",""43"",""240006""
""blur"",""52"",""266852""
""blur"",""55"",""279009""
""blur"",""58"",""318738""
","""event"",""trial"",""time""
""focus"",""0"",""0""
""focus"",""3"",""19628""
""focus"",""44"",""243842""
""focus"",""52"",""269087""
""focus"",""55"",""301076""
""focus"",""58"",""321590""
","""event"",""trial"",""time""
""fullscreenenter"",""1"",""3822""
""fullscreenenter"",""5"",""26238""
","""event"",""trial"",""time""
""fullscreenexit"",""3"",""11060""
""fullscreenexit"",""51"",""264881""
","","7287.315000001399","You will play two rounds of the real game. In each round, you will pick 100 cards in total.","73","","instructions","2021-04-01 01:37:35.906","","","","","",""
"casino-keyboard-response","58","322823","0.0-19.0-0.2","A1107","false","img/card_backs/set1/purple.gif","img/card_backs/set1/red.gif","img/card_backs/set1/green.gif","img/card_backs/set1/yellow.gif","img/card_backs/set2/blue.gif","img/card_backs/set2/orange.gif","img/card_backs/set2/gray.gif","img/card_backs/set2/pink.gif","""event"",""trial"",""time""
""blur"",""0"",""0""
""focus"",""0"",""0""
""fullscreenenter"",""1"",""3822""
""fullscreenexit"",""3"",""11060""
""blur"",""3"",""19628""
""focus"",""3"",""19628""
""fullscreenenter"",""5"",""26238""
""blur"",""43"",""240006""
""focus"",""44"",""243842""
""fullscreenexit"",""51"",""264881""
""blur"",""52"",""266852""
""focus"",""52"",""269087""
""blur"",""55"",""279009""
""focus"",""55"",""301076""
""blur"",""58"",""318738""
""focus"",""58"",""321590""
","""event"",""trial"",""time""
""blur"",""0"",""0""
""blur"",""3"",""19628""
""blur"",""43"",""240006""
""blur"",""52"",""266852""
""blur"",""55"",""279009""
""blur"",""58"",""318738""
","""event"",""trial"",""time""
""focus"",""0"",""0""
""focus"",""3"",""19628""
""focus"",""44"",""243842""
""focus"",""52"",""269087""
""focus"",""55"",""301076""
""focus"",""58"",""321590""
","""event"",""trial"",""time""
""fullscreenenter"",""1"",""3822""
""fullscreenenter"",""5"",""26238""
","""event"",""trial"",""time""
""fullscreenexit"",""3"",""11060""
""fullscreenexit"",""51"",""264881""
","","7715.505000000121","We are now going to ask you some questions about how the game works.","66","","instructions","2021-04-01 01:37:43.628","","","","","",""
"casino-keyboard-response","59","329062","0.0-19.0-0.3","A1107","false","img/card_backs/set1/purple.gif","img/card_backs/set1/red.gif","img/card_backs/set1/green.gif","img/card_backs/set1/yellow.gif","img/card_backs/set2/blue.gif","img/card_backs/set2/orange.gif","img/card_backs/set2/gray.gif","img/card_backs/set2/pink.gif","""event"",""trial"",""time""
""blur"",""0"",""0""
""focus"",""0"",""0""
""fullscreenenter"",""1"",""3822""
""fullscreenexit"",""3"",""11060""
""blur"",""3"",""19628""
""focus"",""3"",""19628""
""fullscreenenter"",""5"",""26238""
""blur"",""43"",""240006""
""focus"",""44"",""243842""
""fullscreenexit"",""51"",""264881""
""blur"",""52"",""266852""
""focus"",""52"",""269087""
""blur"",""55"",""279009""
""focus"",""55"",""301076""
""blur"",""58"",""318738""
""focus"",""58"",""321590""
","""event"",""trial"",""time""
""blur"",""0"",""0""
""blur"",""3"",""19628""
""blur"",""43"",""240006""
""blur"",""52"",""266852""
""blur"",""55"",""279009""
""blur"",""58"",""318738""
","""event"",""trial"",""time""
""focus"",""0"",""0""
""focus"",""3"",""19628""
""focus"",""44"",""243842""
""focus"",""52"",""269087""
""focus"",""55"",""301076""
""focus"",""58"",""321590""
","""event"",""trial"",""time""
""fullscreenenter"",""1"",""3822""
""fullscreenenter"",""5"",""26238""
","""event"",""trial"",""time""
""fullscreenexit"",""3"",""11060""
""fullscreenexit"",""51"",""264881""
","","6230.510000001232","Answer carefully. You will not be able to begin the game until you answer them correctly.","67","","instructions","2021-04-01 01:37:49.867","","","","","",""
"casino-comp_q","60","336024","0.0-20.0-0.0","A1107","false","img/card_backs/set1/purple.gif","img/card_backs/set1/red.gif","img/card_backs/set1/green.gif","img/card_backs/set1/yellow.gif","img/card_backs/set2/blue.gif","img/card_backs/set2/orange.gif","img/card_backs/set2/gray.gif","img/card_backs/set2/pink.gif","""event"",""trial"",""time""
""blur"",""0"",""0""
""focus"",""0"",""0""
""fullscreenenter"",""1"",""3822""
""fullscreenexit"",""3"",""11060""
""blur"",""3"",""19628""
""focus"",""3"",""19628""
""fullscreenenter"",""5"",""26238""
""blur"",""43"",""240006""
""focus"",""44"",""243842""
""fullscreenexit"",""51"",""264881""
""blur"",""52"",""266852""
""focus"",""52"",""269087""
""blur"",""55"",""279009""
""focus"",""55"",""301076""
""blur"",""58"",""318738""
""focus"",""58"",""321590""
","""event"",""trial"",""time""
""blur"",""0"",""0""
""blur"",""3"",""19628""
""blur"",""43"",""240006""
""blur"",""52"",""266852""
""blur"",""55"",""279009""
""blur"",""58"",""318738""
","""event"",""trial"",""time""
""focus"",""0"",""0""
""focus"",""3"",""19628""
""focus"",""44"",""243842""
""focus"",""52"",""269087""
""focus"",""55"",""301076""
""focus"",""58"",""321590""
","""event"",""trial"",""time""
""fullscreenenter"",""1"",""3822""
""fullscreenenter"",""5"",""26238""
","""event"",""trial"",""time""
""fullscreenexit"",""3"",""11060""
""fullscreenexit"",""51"",""264881""
","","6955.454999995709","True or False: All the decks have some cards that cause you to win tokens and some cards that cause you to lose tokens.","84","","","2021-04-01 01:37:56.830","","","","","",""
"casino-keyboard-response","61","338968","0.0-20.0-1.0","A1107","false","img/card_backs/set1/purple.gif","img/card_backs/set1/red.gif","img/card_backs/set1/green.gif","img/card_backs/set1/yellow.gif","img/card_backs/set2/blue.gif","img/card_backs/set2/orange.gif","img/card_backs/set2/gray.gif","img/card_backs/set2/pink.gif","""event"",""trial"",""time""
""blur"",""0"",""0""
""focus"",""0"",""0""
""fullscreenenter"",""1"",""3822""
""fullscreenexit"",""3"",""11060""
""blur"",""3"",""19628""
""focus"",""3"",""19628""
""fullscreenenter"",""5"",""26238""
""blur"",""43"",""240006""
""focus"",""44"",""243842""
""fullscreenexit"",""51"",""264881""
""blur"",""52"",""266852""
""focus"",""52"",""269087""
""blur"",""55"",""279009""
""focus"",""55"",""301076""
""blur"",""58"",""318738""
""focus"",""58"",""321590""
","""event"",""trial"",""time""
""blur"",""0"",""0""
""blur"",""3"",""19628""
""blur"",""43"",""240006""
""blur"",""52"",""266852""
""blur"",""55"",""279009""
""blur"",""58"",""318738""
","""event"",""trial"",""time""
""focus"",""0"",""0""
""focus"",""3"",""19628""
""focus"",""44"",""243842""
""focus"",""52"",""269087""
""focus"",""55"",""301076""
""focus"",""58"",""321590""
","""event"",""trial"",""time""
""fullscreenenter"",""1"",""3822""
""fullscreenenter"",""5"",""26238""
","""event"",""trial"",""time""
""fullscreenexit"",""3"",""11060""
""fullscreenexit"",""51"",""264881""
","","2934.3899999948917","True is correct! All the decks have a mix of winning and losing cards.","77","","","2021-04-01 01:37:59.774","","","","","true",""
"casino-comp_q","62","342661","0.0-21.0-0.0","A1107","false","img/card_backs/set1/purple.gif","img/card_backs/set1/red.gif","img/card_backs/set1/green.gif","img/card_backs/set1/yellow.gif","img/card_backs/set2/blue.gif","img/card_backs/set2/orange.gif","img/card_backs/set2/gray.gif","img/card_backs/set2/pink.gif","""event"",""trial"",""time""
""blur"",""0"",""0""
""focus"",""0"",""0""
""fullscreenenter"",""1"",""3822""
""fullscreenexit"",""3"",""11060""
""blur"",""3"",""19628""
""focus"",""3"",""19628""
""fullscreenenter"",""5"",""26238""
""blur"",""43"",""240006""
""focus"",""44"",""243842""
""fullscreenexit"",""51"",""264881""
""blur"",""52"",""266852""
""focus"",""52"",""269087""
""blur"",""55"",""279009""
""focus"",""55"",""301076""
""blur"",""58"",""318738""
""focus"",""58"",""321590""
","""event"",""trial"",""time""
""blur"",""0"",""0""
""blur"",""3"",""19628""
""blur"",""43"",""240006""
""blur"",""52"",""266852""
""blur"",""55"",""279009""
""blur"",""58"",""318738""
","""event"",""trial"",""time""
""focus"",""0"",""0""
""focus"",""3"",""19628""
""focus"",""44"",""243842""
""focus"",""52"",""269087""
""focus"",""55"",""301076""
""focus"",""58"",""321590""
","""event"",""trial"",""time""
""fullscreenenter"",""1"",""3822""
""fullscreenenter"",""5"",""26238""
","""event"",""trial"",""time""
""fullscreenexit"",""3"",""11060""
""fullscreenexit"",""51"",""264881""
","","3685.559999998077","True or False: You will have as much time as you want to make your response.","70","","","2021-04-01 01:38:03.466","","","","","",""
"casino-keyboard-response","63","345533","0.0-21.0-1.0","A1107","false","img/card_backs/set1/purple.gif","img/card_backs/set1/red.gif","img/card_backs/set1/green.gif","img/card_backs/set1/yellow.gif","img/card_backs/set2/blue.gif","img/card_backs/set2/orange.gif","img/card_backs/set2/gray.gif","img/card_backs/set2/pink.gif","""event"",""trial"",""time""
""blur"",""0"",""0""
""focus"",""0"",""0""
""fullscreenenter"",""1"",""3822""
""fullscreenexit"",""3"",""11060""
""blur"",""3"",""19628""
""focus"",""3"",""19628""
""fullscreenenter"",""5"",""26238""
""blur"",""43"",""240006""
""focus"",""44"",""243842""
""fullscreenexit"",""51"",""264881""
""blur"",""52"",""266852""
""focus"",""52"",""269087""
""blur"",""55"",""279009""
""focus"",""55"",""301076""
""blur"",""58"",""318738""
""focus"",""58"",""321590""
","""event"",""trial"",""time""
""blur"",""0"",""0""
""blur"",""3"",""19628""
""blur"",""43"",""240006""
""blur"",""52"",""266852""
""blur"",""55"",""279009""
""blur"",""58"",""318738""
","""event"",""trial"",""time""
""focus"",""0"",""0""
""focus"",""3"",""19628""
""focus"",""44"",""243842""
""focus"",""52"",""269087""
""focus"",""55"",""301076""
""focus"",""58"",""321590""
","""event"",""trial"",""time""
""fullscreenenter"",""1"",""3822""
""fullscreenenter"",""5"",""26238""
","""event"",""trial"",""time""
""fullscreenexit"",""3"",""11060""
""fullscreenexit"",""51"",""264881""
","","2867.1250000043074","False is correct! You will only have 10 seconds to make each choice.","75","","","2021-04-01 01:38:06.338","","","","","true",""
"casino-comp_q","64","349627","0.0-22.0-0.0","A1107","false","img/card_backs/set1/purple.gif","img/card_backs/set1/red.gif","img/card_backs/set1/green.gif","img/card_backs/set1/yellow.gif","img/card_backs/set2/blue.gif","img/card_backs/set2/orange.gif","img/card_backs/set2/gray.gif","img/card_backs/set2/pink.gif","""event"",""trial"",""time""
""blur"",""0"",""0""
""focus"",""0"",""0""
""fullscreenenter"",""1"",""3822""
""fullscreenexit"",""3"",""11060""
""blur"",""3"",""19628""
""focus"",""3"",""19628""
""fullscreenenter"",""5"",""26238""
""blur"",""43"",""240006""
""focus"",""44"",""243842""
""fullscreenexit"",""51"",""264881""
""blur"",""52"",""266852""
""focus"",""52"",""269087""
""blur"",""55"",""279009""
""focus"",""55"",""301076""
""blur"",""58"",""318738""
""focus"",""58"",""321590""
","""event"",""trial"",""time""
""blur"",""0"",""0""
""blur"",""3"",""19628""
""blur"",""43"",""240006""
""blur"",""52"",""266852""
""blur"",""55"",""279009""
""blur"",""58"",""318738""
","""event"",""trial"",""time""
""focus"",""0"",""0""
""focus"",""3"",""19628""
""focus"",""44"",""243842""
""focus"",""52"",""269087""
""focus"",""55"",""301076""
""focus"",""58"",""321590""
","""event"",""trial"",""time""
""fullscreenenter"",""1"",""3822""
""fullscreenenter"",""5"",""26238""
","""event"",""trial"",""time""
""fullscreenexit"",""3"",""11060""
""fullscreenexit"",""51"",""264881""
","","4087.795000006736","True or False: The location of the deck determines how lucky it is.","70","","","2021-04-01 01:38:10.432","","","","","",""
"casino-keyboard-response","65","352604","0.0-22.0-1.0","A1107","false","img/card_backs/set1/purple.gif","img/card_backs/set1/red.gif","img/card_backs/set1/green.gif","img/card_backs/set1/yellow.gif","img/card_backs/set2/blue.gif","img/card_backs/set2/orange.gif","img/card_backs/set2/gray.gif","img/card_backs/set2/pink.gif","""event"",""trial"",""time""
""blur"",""0"",""0""
""focus"",""0"",""0""
""fullscreenenter"",""1"",""3822""
""fullscreenexit"",""3"",""11060""
""blur"",""3"",""19628""
""focus"",""3"",""19628""
""fullscreenenter"",""5"",""26238""
""blur"",""43"",""240006""
""focus"",""44"",""243842""
""fullscreenexit"",""51"",""264881""
""blur"",""52"",""266852""
""focus"",""52"",""269087""
""blur"",""55"",""279009""
""focus"",""55"",""301076""
""blur"",""58"",""318738""
""focus"",""58"",""321590""
","""event"",""trial"",""time""
""blur"",""0"",""0""
""blur"",""3"",""19628""
""blur"",""43"",""240006""
""blur"",""52"",""266852""
""blur"",""55"",""279009""
""blur"",""58"",""318738""
","""event"",""trial"",""time""
""focus"",""0"",""0""
""focus"",""3"",""19628""
""focus"",""44"",""243842""
""focus"",""52"",""269087""
""focus"",""55"",""301076""
""focus"",""58"",""321590""
","""event"",""trial"",""time""
""fullscreenenter"",""1"",""3822""
""fullscreenenter"",""5"",""26238""
","""event"",""trial"",""time""
""fullscreenexit"",""3"",""11060""
""fullscreenexit"",""51"",""264881""
","","2969.5250000004307","False is correct! The <i>color</i>  of the deck determines how lucky or unlucky it is.","68","","","2021-04-01 01:38:13.409","","","","","true",""
"casino-keyboard-response","66","357164","0.0-23.0-0.0","A1107","false","img/card_backs/set1/purple.gif","img/card_backs/set1/red.gif","img/card_backs/set1/green.gif","img/card_backs/set1/yellow.gif","img/card_backs/set2/blue.gif","img/card_backs/set2/orange.gif","img/card_backs/set2/gray.gif","img/card_backs/set2/pink.gif","""event"",""trial"",""time""
""blur"",""0"",""0""
""focus"",""0"",""0""
""fullscreenenter"",""1"",""3822""
""fullscreenexit"",""3"",""11060""
""blur"",""3"",""19628""
""focus"",""3"",""19628""
""fullscreenenter"",""5"",""26238""
""blur"",""43"",""240006""
""focus"",""44"",""243842""
""fullscreenexit"",""51"",""264881""
""blur"",""52"",""266852""
""focus"",""52"",""269087""
""blur"",""55"",""279009""
""focus"",""55"",""301076""
""blur"",""58"",""318738""
""focus"",""58"",""321590""
","""event"",""trial"",""time""
""blur"",""0"",""0""
""blur"",""3"",""19628""
""blur"",""43"",""240006""
""blur"",""52"",""266852""
""blur"",""55"",""279009""
""blur"",""58"",""318738""
","""event"",""trial"",""time""
""focus"",""0"",""0""
""focus"",""3"",""19628""
""focus"",""44"",""243842""
""focus"",""52"",""269087""
""focus"",""55"",""301076""
""focus"",""58"",""321590""
","""event"",""trial"",""time""
""fullscreenenter"",""1"",""3822""
""fullscreenenter"",""5"",""26238""
","""event"",""trial"",""time""
""fullscreenexit"",""3"",""11060""
""fullscreenexit"",""51"",""264881""
","","4555.529999997816","Great job! Now it's time to start the real game.","82","","instructions","2021-04-01 01:38:17.970","","","","","",""
"casino-keyboard-response","67","364151","0.0-23.0-0.1","A1107","false","img/card_backs/set1/purple.gif","img/card_backs/set1/red.gif","img/card_backs/set1/green.gif","img/card_backs/set1/yellow.gif","img/card_backs/set2/blue.gif","img/card_backs/set2/orange.gif","img/card_backs/set2/gray.gif","img/card_backs/set2/pink.gif","""event"",""trial"",""time""
""blur"",""0"",""0""
""focus"",""0"",""0""
""fullscreenenter"",""1"",""3822""
""fullscreenexit"",""3"",""11060""
""blur"",""3"",""19628""
""focus"",""3"",""19628""
""fullscreenenter"",""5"",""26238""
""blur"",""43"",""240006""
""focus"",""44"",""243842""
""fullscreenexit"",""51"",""264881""
""blur"",""52"",""266852""
""focus"",""52"",""269087""
""blur"",""55"",""279009""
""focus"",""55"",""301076""
""blur"",""58"",""318738""
""focus"",""58"",""321590""
","""event"",""trial"",""time""
""blur"",""0"",""0""
""blur"",""3"",""19628""
""blur"",""43"",""240006""
""blur"",""52"",""266852""
""blur"",""55"",""279009""
""blur"",""58"",""318738""
","""event"",""trial"",""time""
""focus"",""0"",""0""
""focus"",""3"",""19628""
""focus"",""44"",""243842""
""focus"",""52"",""269087""
""focus"",""55"",""301076""
""focus"",""58"",""321590""
","""event"",""trial"",""time""
""fullscreenenter"",""1"",""3822""
""fullscreenenter"",""5"",""26238""
","""event"",""trial"",""time""
""fullscreenexit"",""3"",""11060""
""fullscreenexit"",""51"",""264881""
","","6979.890000002342","Before we start, we're going to head into a new room of the casino.","86","","instructions","2021-04-01 01:38:24.957","","","","","",""
"casino-keyboard-response","68","370274","0.0-24.0-0.0","A1107","false","img/card_backs/set1/purple.gif","img/card_backs/set1/red.gif","img/card_backs/set1/green.gif","img/card_backs/set1/yellow.gif","img/card_backs/set2/blue.gif","img/card_backs/set2/orange.gif","img/card_backs/set2/gray.gif","img/card_backs/set2/pink.gif","""event"",""trial"",""time""
""blur"",""0"",""0""
""focus"",""0"",""0""
""fullscreenenter"",""1"",""3822""
""fullscreenexit"",""3"",""11060""
""blur"",""3"",""19628""
""focus"",""3"",""19628""
""fullscreenenter"",""5"",""26238""
""blur"",""43"",""240006""
""focus"",""44"",""243842""
""fullscreenexit"",""51"",""264881""
""blur"",""52"",""266852""
""focus"",""52"",""269087""
""blur"",""55"",""279009""
""focus"",""55"",""301076""
""blur"",""58"",""318738""
""focus"",""58"",""321590""
","""event"",""trial"",""time""
""blur"",""0"",""0""
""blur"",""3"",""19628""
""blur"",""43"",""240006""
""blur"",""52"",""266852""
""blur"",""55"",""279009""
""blur"",""58"",""318738""
","""event"",""trial"",""time""
""focus"",""0"",""0""
""focus"",""3"",""19628""
""focus"",""44"",""243842""
""focus"",""52"",""269087""
""focus"",""55"",""301076""
""focus"",""58"",""321590""
","""event"",""trial"",""time""
""fullscreenenter"",""1"",""3822""
""fullscreenenter"",""5"",""26238""
","""event"",""trial"",""time""
""fullscreenexit"",""3"",""11060""
""fullscreenexit"",""51"",""264881""
","","6117.689999999129","Here we are! The real game will use different cards, but the rules will be the same.","71","","instructions","2021-04-01 01:38:31.080","","","","","",""
"casino-keyboard-response","69","372683","0.0-24.0-0.1","A1107","false","img/card_backs/set1/purple.gif","img/card_backs/set1/red.gif","img/card_backs/set1/green.gif","img/card_backs/set1/yellow.gif","img/card_backs/set2/blue.gif","img/card_backs/set2/orange.gif","img/card_backs/set2/gray.gif","img/card_backs/set2/pink.gif","""event"",""trial"",""time""
""blur"",""0"",""0""
""focus"",""0"",""0""
""fullscreenenter"",""1"",""3822""
""fullscreenexit"",""3"",""11060""
""blur"",""3"",""19628""
""focus"",""3"",""19628""
""fullscreenenter"",""5"",""26238""
""blur"",""43"",""240006""
""focus"",""44"",""243842""
""fullscreenexit"",""51"",""264881""
""blur"",""52"",""266852""
""focus"",""52"",""269087""
""blur"",""55"",""279009""
""focus"",""55"",""301076""
""blur"",""58"",""318738""
""focus"",""58"",""321590""
","""event"",""trial"",""time""
""blur"",""0"",""0""
""blur"",""3"",""19628""
""blur"",""43"",""240006""
""blur"",""52"",""266852""
""blur"",""55"",""279009""
""blur"",""58"",""318738""
","""event"",""trial"",""time""
""focus"",""0"",""0""
""focus"",""3"",""19628""
""focus"",""44"",""243842""
""focus"",""52"",""269087""
""focus"",""55"",""301076""
""focus"",""58"",""321590""
","""event"",""trial"",""time""
""fullscreenenter"",""1"",""3822""
""fullscreenenter"",""5"",""26238""
","""event"",""trial"",""time""
""fullscreenexit"",""3"",""11060""
""fullscreenexit"",""51"",""264881""
","","2402.9149999987567","Ready? Put your fingers over the '2', '4', 6', and '8' keys so you are ready to play the game. </br> Then press 2 to start.","50","","instructions","2021-04-01 01:38:33.488","","","","","",""
"casino-fixation","70","373193","0.0-25.0-0.0","A1107","false","img/card_backs/set1/purple.gif","img/card_backs/set1/red.gif","img/card_backs/set1/green.gif","img/card_backs/set1/yellow.gif","img/card_backs/set2/blue.gif","img/card_backs/set2/orange.gif","img/card_backs/set2/gray.gif","img/card_backs/set2/pink.gif","""event"",""trial"",""time""
""blur"",""0"",""0""
""focus"",""0"",""0""
""fullscreenenter"",""1"",""3822""
""fullscreenexit"",""3"",""11060""
""blur"",""3"",""19628""
""focus"",""3"",""19628""
""fullscreenenter"",""5"",""26238""
""blur"",""43"",""240006""
""focus"",""44"",""243842""
""fullscreenexit"",""51"",""264881""
""blur"",""52"",""266852""
""focus"",""52"",""269087""
""blur"",""55"",""279009""
""focus"",""55"",""301076""
""blur"",""58"",""318738""
""focus"",""58"",""321590""
","""event"",""trial"",""time""
""blur"",""0"",""0""
""blur"",""3"",""19628""
""blur"",""43"",""240006""
""blur"",""52"",""266852""
""blur"",""55"",""279009""
""blur"",""58"",""318738""
","""event"",""trial"",""time""
""focus"",""0"",""0""
""focus"",""3"",""19628""
""focus"",""44"",""243842""
""focus"",""52"",""269087""
""focus"",""55"",""301076""
""focus"",""58"",""321590""
","""event"",""trial"",""time""
""fullscreenenter"",""1"",""3822""
""fullscreenenter"",""5"",""26238""
","""event"",""trial"",""time""
""fullscreenexit"",""3"",""11060""
""fullscreenexit"",""51"",""264881""
","","null","","null","","fixation","2021-04-01 01:38:33.998","","","","","",""
"card-selection-trial","71","376505","0.0-25.0-1.0","A1107","false","img/card_backs/set1/purple.gif","img/card_backs/set1/red.gif","img/card_backs/set1/green.gif","img/card_backs/set1/yellow.gif","img/card_backs/set2/blue.gif","img/card_backs/set2/orange.gif","img/card_backs/set2/gray.gif","img/card_backs/set2/pink.gif","""event"",""trial"",""time""
""blur"",""0"",""0""
""focus"",""0"",""0""
""fullscreenenter"",""1"",""3822""
""fullscreenexit"",""3"",""11060""
""blur"",""3"",""19628""
""focus"",""3"",""19628""
""fullscreenenter"",""5"",""26238""
""blur"",""43"",""240006""
""focus"",""44"",""243842""
""fullscreenexit"",""51"",""264881""
""blur"",""52"",""266852""
""focus"",""52"",""269087""
""blur"",""55"",""279009""
""focus"",""55"",""301076""
""blur"",""58"",""318738""
""focus"",""58"",""321590""
","""event"",""trial"",""time""
""blur"",""0"",""0""
""blur"",""3"",""19628""
""blur"",""43"",""240006""
""blur"",""52"",""266852""
""blur"",""55"",""279009""
""blur"",""58"",""318738""
","""event"",""trial"",""time""
""focus"",""0"",""0""
""focus"",""3"",""19628""
""focus"",""44"",""243842""
""focus"",""52"",""269087""
""focus"",""55"",""301076""
""focus"",""58"",""321590""
","""event"",""trial"",""time""
""fullscreenenter"",""1"",""3822""
""fullscreenenter"",""5"",""26238""
","""event"",""trial"",""time""
""fullscreenexit"",""3"",""11060""
""fullscreenexit"",""51"",""264881""
","","1270.379999994475","","","","real_trial","2021-04-01 01:38:37.310","img/card_backs/set1/red.gif","0","200","1","",""
"casino-fixation","72","377021","0.0-25.0-0.1","A1107","false","img/card_backs/set1/purple.gif","img/card_backs/set1/red.gif","img/card_backs/set1/green.gif","img/card_backs/set1/yellow.gif","img/card_backs/set2/blue.gif","img/card_backs/set2/orange.gif","img/card_backs/set2/gray.gif","img/card_backs/set2/pink.gif","""event"",""trial"",""time""
""blur"",""0"",""0""
""focus"",""0"",""0""
""fullscreenenter"",""1"",""3822""
""fullscreenexit"",""3"",""11060""
""blur"",""3"",""19628""
""focus"",""3"",""19628""
""fullscreenenter"",""5"",""26238""
""blur"",""43"",""240006""
""focus"",""44"",""243842""
""fullscreenexit"",""51"",""264881""
""blur"",""52"",""266852""
""focus"",""52"",""269087""
""blur"",""55"",""279009""
""focus"",""55"",""301076""
""blur"",""58"",""318738""
""focus"",""58"",""321590""
","""event"",""trial"",""time""
""blur"",""0"",""0""
""blur"",""3"",""19628""
""blur"",""43"",""240006""
""blur"",""52"",""266852""
""blur"",""55"",""279009""
""blur"",""58"",""318738""
","""event"",""trial"",""time""
""focus"",""0"",""0""
""focus"",""3"",""19628""
""focus"",""44"",""243842""
""focus"",""52"",""269087""
""focus"",""55"",""301076""
""focus"",""58"",""321590""
","""event"",""trial"",""time""
""fullscreenenter"",""1"",""3822""
""fullscreenenter"",""5"",""26238""
","""event"",""trial"",""time""
""fullscreenexit"",""3"",""11060""
""fullscreenexit"",""51"",""264881""
","","null","","null","","fixation","2021-04-01 01:38:37.826","","","","","",""
"card-selection-trial","73","379518","0.0-25.0-1.1","A1107","false","img/card_backs/set1/purple.gif","img/card_backs/set1/red.gif","img/card_backs/set1/green.gif","img/card_backs/set1/yellow.gif","img/card_backs/set2/blue.gif","img/card_backs/set2/orange.gif","img/card_backs/set2/gray.gif","img/card_backs/set2/pink.gif","""event"",""trial"",""time""
""blur"",""0"",""0""
""focus"",""0"",""0""
""fullscreenenter"",""1"",""3822""
""fullscreenexit"",""3"",""11060""
""blur"",""3"",""19628""
""focus"",""3"",""19628""
""fullscreenenter"",""5"",""26238""
""blur"",""43"",""240006""
""focus"",""44"",""243842""
""fullscreenexit"",""51"",""264881""
""blur"",""52"",""266852""
""focus"",""52"",""269087""
""blur"",""55"",""279009""
""focus"",""55"",""301076""
""blur"",""58"",""318738""
""focus"",""58"",""321590""
","""event"",""trial"",""time""
""blur"",""0"",""0""
""blur"",""3"",""19628""
""blur"",""43"",""240006""
""blur"",""52"",""266852""
""blur"",""55"",""279009""
""blur"",""58"",""318738""
","""event"",""trial"",""time""
""focus"",""0"",""0""
""focus"",""3"",""19628""
""focus"",""44"",""243842""
""focus"",""52"",""269087""
""focus"",""55"",""301076""
""focus"",""58"",""321590""
","""event"",""trial"",""time""
""fullscreenenter"",""1"",""3822""
""fullscreenenter"",""5"",""26238""
","""event"",""trial"",""time""
""fullscreenexit"",""3"",""11060""
""fullscreenexit"",""51"",""264881""
","","453.94500000111293","","","","real_trial","2021-04-01 01:38:40.323","img/card_backs/set1/yellow.gif","1","120","1","",""
"casino-fixation","74","380034","0.0-25.0-0.2","A1107","false","img/card_backs/set1/purple.gif","img/card_backs/set1/red.gif","img/card_backs/set1/green.gif","img/card_backs/set1/yellow.gif","img/card_backs/set2/blue.gif","img/card_backs/set2/orange.gif","img/card_backs/set2/gray.gif","img/card_backs/set2/pink.gif","""event"",""trial"",""time""
""blur"",""0"",""0""
""focus"",""0"",""0""
""fullscreenenter"",""1"",""3822""
""fullscreenexit"",""3"",""11060""
""blur"",""3"",""19628""
""focus"",""3"",""19628""
""fullscreenenter"",""5"",""26238""
""blur"",""43"",""240006""
""focus"",""44"",""243842""
""fullscreenexit"",""51"",""264881""
""blur"",""52"",""266852""
""focus"",""52"",""269087""
""blur"",""55"",""279009""
""focus"",""55"",""301076""
""blur"",""58"",""318738""
""focus"",""58"",""321590""
""blur"",""75"",""382353""
","""event"",""trial"",""time""
""blur"",""0"",""0""
""blur"",""3"",""19628""
""blur"",""43"",""240006""
""blur"",""52"",""266852""
""blur"",""55"",""279009""
""blur"",""58"",""318738""
""blur"",""75"",""382353""
","""event"",""trial"",""time""
""focus"",""0"",""0""
""focus"",""3"",""19628""
""focus"",""44"",""243842""
""focus"",""52"",""269087""
""focus"",""55"",""301076""
""focus"",""58"",""321590""
","""event"",""trial"",""time""
""fullscreenenter"",""1"",""3822""
""fullscreenenter"",""5"",""26238""
","""event"",""trial"",""time""
""fullscreenexit"",""3"",""11060""
""fullscreenexit"",""51"",""264881""
","","null","","null","","fixation","2021-04-01 01:38:40.839","","","","","",""
"card-selection-trial","75","382483","0.0-25.0-1.2","A1107","false","img/card_backs/set1/purple.gif","img/card_backs/set1/red.gif","img/card_backs/set1/green.gif","img/card_backs/set1/yellow.gif","img/card_backs/set2/blue.gif","img/card_backs/set2/orange.gif","img/card_backs/set2/gray.gif","img/card_backs/set2/pink.gif","""event"",""trial"",""time""
""blur"",""0"",""0""
""focus"",""0"",""0""
""fullscreenenter"",""1"",""3822""
""fullscreenexit"",""3"",""11060""
""blur"",""3"",""19628""
""focus"",""3"",""19628""
""fullscreenenter"",""5"",""26238""
""blur"",""43"",""240006""
""focus"",""44"",""243842""
""fullscreenexit"",""51"",""264881""
""blur"",""52"",""266852""
""focus"",""52"",""269087""
""blur"",""55"",""279009""
""focus"",""55"",""301076""
""blur"",""58"",""318738""
""focus"",""58"",""321590""
""blur"",""75"",""382353""
","""event"",""trial"",""time""
""blur"",""0"",""0""
""blur"",""3"",""19628""
""blur"",""43"",""240006""
""blur"",""52"",""266852""
""blur"",""55"",""279009""
""blur"",""58"",""318738""
""blur"",""75"",""382353""
","""event"",""trial"",""time""
""focus"",""0"",""0""
""focus"",""3"",""19628""
""focus"",""44"",""243842""
""focus"",""52"",""269087""
""focus"",""55"",""301076""
""focus"",""58"",""321590""
","""event"",""trial"",""time""
""fullscreenenter"",""1"",""3822""
""fullscreenenter"",""5"",""26238""
","""event"",""trial"",""time""
""fullscreenexit"",""3"",""11060""
""fullscreenexit"",""51"",""264881""
","","406.41499999765074","","","","real_trial","2021-04-01 01:38:43.288","img/card_backs/set1/green.gif","2","-70","1","",""
"casino-fixation","76","383037","0.0-25.0-0.3","A1107","false","img/card_backs/set1/purple.gif","img/card_backs/set1/red.gif","img/card_backs/set1/green.gif","img/card_backs/set1/yellow.gif","img/card_backs/set2/blue.gif","img/card_backs/set2/orange.gif","img/card_backs/set2/gray.gif","img/card_backs/set2/pink.gif","""event"",""trial"",""time""
""blur"",""0"",""0""
""focus"",""0"",""0""
""fullscreenenter"",""1"",""3822""
""fullscreenexit"",""3"",""11060""
""blur"",""3"",""19628""
""focus"",""3"",""19628""
""fullscreenenter"",""5"",""26238""
""blur"",""43"",""240006""
""focus"",""44"",""243842""
""fullscreenexit"",""51"",""264881""
""blur"",""52"",""266852""
""focus"",""52"",""269087""
""blur"",""55"",""279009""
""focus"",""55"",""301076""
""blur"",""58"",""318738""
""focus"",""58"",""321590""
""blur"",""75"",""382353""
""focus"",""77"",""386916""
","""event"",""trial"",""time""
""blur"",""0"",""0""
""blur"",""3"",""19628""
""blur"",""43"",""240006""
""blur"",""52"",""266852""
""blur"",""55"",""279009""
""blur"",""58"",""318738""
""blur"",""75"",""382353""
","""event"",""trial"",""time""
""focus"",""0"",""0""
""focus"",""3"",""19628""
""focus"",""44"",""243842""
""focus"",""52"",""269087""
""focus"",""55"",""301076""
""focus"",""58"",""321590""
""focus"",""77"",""386916""
","""event"",""trial"",""time""
""fullscreenenter"",""1"",""3822""
""fullscreenenter"",""5"",""26238""
","""event"",""trial"",""time""
""fullscreenexit"",""3"",""11060""
""fullscreenexit"",""51"",""264881""
","","null","","null","","fixation","2021-04-01 01:38:43.847","","","","","",""
"card-selection-trial","77","390150","0.0-25.0-1.3","A1107","false","img/card_backs/set1/purple.gif","img/card_backs/set1/red.gif","img/card_backs/set1/green.gif","img/card_backs/set1/yellow.gif","img/card_backs/set2/blue.gif","img/card_backs/set2/orange.gif","img/card_backs/set2/gray.gif","img/card_backs/set2/pink.gif","""event"",""trial"",""time""
""blur"",""0"",""0""
""focus"",""0"",""0""
""fullscreenenter"",""1"",""3822""
""fullscreenexit"",""3"",""11060""
""blur"",""3"",""19628""
""focus"",""3"",""19628""
""fullscreenenter"",""5"",""26238""
""blur"",""43"",""240006""
""focus"",""44"",""243842""
""fullscreenexit"",""51"",""264881""
""blur"",""52"",""266852""
""focus"",""52"",""269087""
""blur"",""55"",""279009""
""focus"",""55"",""301076""
""blur"",""58"",""318738""
""focus"",""58"",""321590""
""blur"",""75"",""382353""
""focus"",""77"",""386916""
","""event"",""trial"",""time""
""blur"",""0"",""0""
""blur"",""3"",""19628""
""blur"",""43"",""240006""
""blur"",""52"",""266852""
""blur"",""55"",""279009""
""blur"",""58"",""318738""
""blur"",""75"",""382353""
","""event"",""trial"",""time""
""focus"",""0"",""0""
""focus"",""3"",""19628""
""focus"",""44"",""243842""
""focus"",""52"",""269087""
""focus"",""55"",""301076""
""focus"",""58"",""321590""
""focus"",""77"",""386916""
","""event"",""trial"",""time""
""fullscreenenter"",""1"",""3822""
""fullscreenenter"",""5"",""26238""
","""event"",""trial"",""time""
""fullscreenexit"",""3"",""11060""
""fullscreenexit"",""51"",""264881""
","","4885.624999995343","","","","real_trial","2021-04-01 01:38:50.955","img/card_backs/set1/green.gif","3","-60","1","",""
"casino-fixation","78","390735","0.0-25.0-0.4","A1107","false","img/card_backs/set1/purple.gif","img/card_backs/set1/red.gif","img/card_backs/set1/green.gif","img/card_backs/set1/yellow.gif","img/card_backs/set2/blue.gif","img/card_backs/set2/orange.gif","img/card_backs/set2/gray.gif","img/card_backs/set2/pink.gif","""event"",""trial"",""time""
""blur"",""0"",""0""
""focus"",""0"",""0""
""fullscreenenter"",""1"",""3822""
""fullscreenexit"",""3"",""11060""
""blur"",""3"",""19628""
""focus"",""3"",""19628""
""fullscreenenter"",""5"",""26238""
""blur"",""43"",""240006""
""focus"",""44"",""243842""
""fullscreenexit"",""51"",""264881""
""blur"",""52"",""266852""
""focus"",""52"",""269087""
""blur"",""55"",""279009""
""focus"",""55"",""301076""
""blur"",""58"",""318738""
""focus"",""58"",""321590""
""blur"",""75"",""382353""
""focus"",""77"",""386916""
","""event"",""trial"",""time""
""blur"",""0"",""0""
""blur"",""3"",""19628""
""blur"",""43"",""240006""
""blur"",""52"",""266852""
""blur"",""55"",""279009""
""blur"",""58"",""318738""
""blur"",""75"",""382353""
","""event"",""trial"",""time""
""focus"",""0"",""0""
""focus"",""3"",""19628""
""focus"",""44"",""243842""
""focus"",""52"",""269087""
""focus"",""55"",""301076""
""focus"",""58"",""321590""
""focus"",""77"",""386916""
","""event"",""trial"",""time""
""fullscreenenter"",""1"",""3822""
""fullscreenenter"",""5"",""26238""
","""event"",""trial"",""time""
""fullscreenexit"",""3"",""11060""
""fullscreenexit"",""51"",""264881""
","","null","","null","","fixation","2021-04-01 01:38:51.540","","","","","",""
"card-selection-trial","79","393216","0.0-25.0-1.4","A1107","false","img/card_backs/set1/purple.gif","img/card_backs/set1/red.gif","img/card_backs/set1/green.gif","img/card_backs/set1/yellow.gif","img/card_backs/set2/blue.gif","img/card_backs/set2/orange.gif","img/card_backs/set2/gray.gif","img/card_backs/set2/pink.gif","""event"",""trial"",""time""
""blur"",""0"",""0""
""focus"",""0"",""0""
""fullscreenenter"",""1"",""3822""
""fullscreenexit"",""3"",""11060""
""blur"",""3"",""19628""
""focus"",""3"",""19628""
""fullscreenenter"",""5"",""26238""
""blur"",""43"",""240006""
""focus"",""44"",""243842""
""fullscreenexit"",""51"",""264881""
""blur"",""52"",""266852""
""focus"",""52"",""269087""
""blur"",""55"",""279009""
""focus"",""55"",""301076""
""blur"",""58"",""318738""
""focus"",""58"",""321590""
""blur"",""75"",""382353""
""focus"",""77"",""386916""
","""event"",""trial"",""time""
""blur"",""0"",""0""
""blur"",""3"",""19628""
""blur"",""43"",""240006""
""blur"",""52"",""266852""
""blur"",""55"",""279009""
""blur"",""58"",""318738""
""blur"",""75"",""382353""
","""event"",""trial"",""time""
""focus"",""0"",""0""
""focus"",""3"",""19628""
""focus"",""44"",""243842""
""focus"",""52"",""269087""
""focus"",""55"",""301076""
""focus"",""58"",""321590""
""focus"",""77"",""386916""
","""event"",""trial"",""time""
""fullscreenenter"",""1"",""3822""
""fullscreenenter"",""5"",""26238""
","""event"",""trial"",""time""
""fullscreenexit"",""3"",""11060""
""fullscreenexit"",""51"",""264881""
","","426.20500000339234","","","","real_trial","2021-04-01 01:38:54.021","img/card_backs/set1/purple.gif","0","-240","1","",""
"casino-fixation","80","393736","0.0-25.0-0.5","A1107","false","img/card_backs/set1/purple.gif","img/card_backs/set1/red.gif","img/card_backs/set1/green.gif","img/card_backs/set1/yellow.gif","img/card_backs/set2/blue.gif","img/card_backs/set2/orange.gif","img/card_backs/set2/gray.gif","img/card_backs/set2/pink.gif","""event"",""trial"",""time""
""blur"",""0"",""0""
""focus"",""0"",""0""
""fullscreenenter"",""1"",""3822""
""fullscreenexit"",""3"",""11060""
""blur"",""3"",""19628""
""focus"",""3"",""19628""
""fullscreenenter"",""5"",""26238""
""blur"",""43"",""240006""
""focus"",""44"",""243842""
""fullscreenexit"",""51"",""264881""
