"trial_type","trial_index","time_elapsed","internal_node_id","sub_id","risk_good_first","block1_A","block1_B","block1_C","block1_D","block2_A","block2_B","block2_C","block2_D","interactions","blur_events","focus_events","fullscreenenter_events","fullscreenexit_events","success","rt","stimulus","key_press","button_pressed","task_part","timestamp","card_choice","choice_position","points_earned","block","correct","response"
"pavlovia","0","3","0.0-0.0","930","true","img/card_backs/set1/green.gif","img/card_backs/set1/purple.gif","img/card_backs/set1/red.gif","img/card_backs/set1/yellow.gif","img/card_backs/set2/pink.gif","img/card_backs/set2/gray.gif","img/card_backs/set2/blue.gif","img/card_backs/set2/orange.gif","""event"",""trial"",""time""
""fullscreenenter"",""1"",""3633""
","
","
","""event"",""trial"",""time""
""fullscreenenter"",""1"",""3633""
","
","","","","","","","","","","","","",""
"fullscreen","1","4622","0.0-1.0","930","true","img/card_backs/set1/green.gif","img/card_backs/set1/purple.gif","img/card_backs/set1/red.gif","img/card_backs/set1/yellow.gif","img/card_backs/set2/pink.gif","img/card_backs/set2/gray.gif","img/card_backs/set2/blue.gif","img/card_backs/set2/orange.gif","""event"",""trial"",""time""
""fullscreenenter"",""1"",""3633""
","
","
","""event"",""trial"",""time""
""fullscreenenter"",""1"",""3633""
","
","true","","","","","","","","","","","",""
"audio-keyboard-response","2","7318","0.0-2.0","930","true","img/card_backs/set1/green.gif","img/card_backs/set1/purple.gif","img/card_backs/set1/red.gif","img/card_backs/set1/yellow.gif","img/card_backs/set2/pink.gif","img/card_backs/set2/gray.gif","img/card_backs/set2/blue.gif","img/card_backs/set2/orange.gif","""event"",""trial"",""time""
""fullscreenenter"",""1"",""3633""
","
","
","""event"",""trial"",""time""
""fullscreenenter"",""1"",""3633""
","
","","2577","audio/beep_loop.wav","32","","","","","","","","",""
"audio-button-response","3","13754","0.0-3.0","930","true","img/card_backs/set1/green.gif","img/card_backs/set1/purple.gif","img/card_backs/set1/red.gif","img/card_backs/set1/yellow.gif","img/card_backs/set2/pink.gif","img/card_backs/set2/gray.gif","img/card_backs/set2/blue.gif","img/card_backs/set2/orange.gif","""event"",""trial"",""time""
""fullscreenenter"",""1"",""3633""
","
","
","""event"",""trial"",""time""
""fullscreenenter"",""1"",""3633""
","
","","NaN","audio/turtle.mp3","","3","","","","","","","",""
"audio-button-response","4","16611","0.0-4.0","930","true","img/card_backs/set1/green.gif","img/card_backs/set1/purple.gif","img/card_backs/set1/red.gif","img/card_backs/set1/yellow.gif","img/card_backs/set2/pink.gif","img/card_backs/set2/gray.gif","img/card_backs/set2/blue.gif","img/card_backs/set2/orange.gif","""event"",""trial"",""time""
""fullscreenenter"",""1"",""3633""
","
","
","""event"",""trial"",""time""
""fullscreenenter"",""1"",""3633""
","
","","NaN","audio/shark.mp3","","2","","","","","","","",""
"fullscreen","5","21241","0.0-5.0","930","true","img/card_backs/set1/green.gif","img/card_backs/set1/purple.gif","img/card_backs/set1/red.gif","img/card_backs/set1/yellow.gif","img/card_backs/set2/pink.gif","img/card_backs/set2/gray.gif","img/card_backs/set2/blue.gif","img/card_backs/set2/orange.gif","""event"",""trial"",""time""
""fullscreenenter"",""1"",""3633""
","
","
","""event"",""trial"",""time""
""fullscreenenter"",""1"",""3633""
","
","true","","","","","","","","","","","",""
"casino-keyboard-response","6","26073","0.0-6.0-0.0","930","true","img/card_backs/set1/green.gif","img/card_backs/set1/purple.gif","img/card_backs/set1/red.gif","img/card_backs/set1/yellow.gif","img/card_backs/set2/pink.gif","img/card_backs/set2/gray.gif","img/card_backs/set2/blue.gif","img/card_backs/set2/orange.gif","""event"",""trial"",""time""
""fullscreenenter"",""1"",""3633""
","
","
","""event"",""trial"",""time""
""fullscreenenter"",""1"",""3633""
","
","","4830","Welcome to the casino!","71","","instructions","2021-06-17 22:39:05.673","","","","","",""
"casino-keyboard-response","7","36670","0.0-6.0-0.1","930","true","img/card_backs/set1/green.gif","img/card_backs/set1/purple.gif","img/card_backs/set1/red.gif","img/card_backs/set1/yellow.gif","img/card_backs/set2/pink.gif","img/card_backs/set2/gray.gif","img/card_backs/set2/blue.gif","img/card_backs/set2/orange.gif","""event"",""trial"",""time""
""fullscreenenter"",""1"",""3633""
","
","
","""event"",""trial"",""time""
""fullscreenenter"",""1"",""3633""
","
","","10596.5","Today you will be playing a game to earn tokens. </br> At the end of the experiment, you will be paid a bonus based on how many tokens you win. ","69","","instructions","2021-06-17 22:39:16.270","","","","","",""
"casino-keyboard-response","8","45073","0.0-6.0-0.2","930","true","img/card_backs/set1/green.gif","img/card_backs/set1/purple.gif","img/card_backs/set1/red.gif","img/card_backs/set1/yellow.gif","img/card_backs/set2/pink.gif","img/card_backs/set2/gray.gif","img/card_backs/set2/blue.gif","img/card_backs/set2/orange.gif","""event"",""trial"",""time""
""fullscreenenter"",""1"",""3633""
","
","
","""event"",""trial"",""time""
""fullscreenenter"",""1"",""3633""
","
","","8401.600000023842","On every turn, you will be shown four different decks of cards. </br> You need to select a card from one of the four decks.  ","75","","instructions","2021-06-17 22:39:24.673","","","","","",""
"casino-keyboard-response","9","51183","0.0-6.0-0.3","930","true","img/card_backs/set1/green.gif","img/card_backs/set1/purple.gif","img/card_backs/set1/red.gif","img/card_backs/set1/yellow.gif","img/card_backs/set2/pink.gif","img/card_backs/set2/gray.gif","img/card_backs/set2/blue.gif","img/card_backs/set2/orange.gif","""event"",""trial"",""time""
""fullscreenenter"",""1"",""3633""
","
","
","""event"",""trial"",""time""
""fullscreenenter"",""1"",""3633""
","
","","6108.700000047684","On the next screen, you will see what the decks will look like. ","66","","instructions","2021-06-17 22:39:30.783","","","","","",""
"card-selection-trial","10","55191","0.0-7.0-0.0","930","true","img/card_backs/set1/green.gif","img/card_backs/set1/purple.gif","img/card_backs/set1/red.gif","img/card_backs/set1/yellow.gif","img/card_backs/set2/pink.gif","img/card_backs/set2/gray.gif","img/card_backs/set2/blue.gif","img/card_backs/set2/orange.gif","""event"",""trial"",""time""
""fullscreenenter"",""1"",""3633""
","
","
","""event"",""trial"",""time""
""fullscreenenter"",""1"",""3633""
","
","","null","","","","practice","2021-06-17 22:39:34.791","null","null","null","0","",""
"casino-keyboard-response","11","63345","0.0-8.0-0.0","930","true","img/card_backs/set1/green.gif","img/card_backs/set1/purple.gif","img/card_backs/set1/red.gif","img/card_backs/set1/yellow.gif","img/card_backs/set2/pink.gif","img/card_backs/set2/gray.gif","img/card_backs/set2/blue.gif","img/card_backs/set2/orange.gif","""event"",""trial"",""time""
""fullscreenenter"",""1"",""3633""
","
","
","""event"",""trial"",""time""
""fullscreenenter"",""1"",""3633""
","
","","8152.5","You should pick a card from a deck using the '2', '4', '6', and '8' keys at the top of the keyboard.","85","","instructions","2021-06-17 22:39:42.945","","","","","",""
"casino-keyboard-response","12","69317","0.0-8.0-0.1","930","true","img/card_backs/set1/green.gif","img/card_backs/set1/purple.gif","img/card_backs/set1/red.gif","img/card_backs/set1/yellow.gif","img/card_backs/set2/pink.gif","img/card_backs/set2/gray.gif","img/card_backs/set2/blue.gif","img/card_backs/set2/orange.gif","""event"",""trial"",""time""
""fullscreenenter"",""1"",""3633""
","
","
","""event"",""trial"",""time""
""fullscreenenter"",""1"",""3633""
","
","","5971.700000047684","Once you select a card, it will turn over and you will see how many tokens you earned.","83","","instructions","2021-06-17 22:39:48.917","","","","","",""
"casino-keyboard-response","13","89569","0.0-8.0-0.2","930","true","img/card_backs/set1/green.gif","img/card_backs/set1/purple.gif","img/card_backs/set1/red.gif","img/card_backs/set1/yellow.gif","img/card_backs/set2/pink.gif","img/card_backs/set2/gray.gif","img/card_backs/set2/blue.gif","img/card_backs/set2/orange.gif","""event"",""trial"",""time""
""fullscreenenter"",""1"",""3633""
","
","
","""event"",""trial"",""time""
""fullscreenenter"",""1"",""3633""
","
","","20249.700000047684","Let's try practicing that! </br> First, try to put your fingers over the '2', '4', '6', and '8' keys. </br>  You can use whatever fingers are most comfortable for you. Try to find a comfortable position now. ","50","","instructions","2021-06-17 22:40:09.169","","","","","",""
"casino-keyboard-response","14","96745","0.0-8.0-0.3","930","true","img/card_backs/set1/green.gif","img/card_backs/set1/purple.gif","img/card_backs/set1/red.gif","img/card_backs/set1/yellow.gif","img/card_backs/set2/pink.gif","img/card_backs/set2/gray.gif","img/card_backs/set2/blue.gif","img/card_backs/set2/orange.gif","""event"",""trial"",""time""
""fullscreenenter"",""1"",""3633""
","
","
","""event"",""trial"",""time""
""fullscreenenter"",""1"",""3633""
","
","","7174.899999976158","Okay ready? </br> On the next screen, press '2' to select the left deck. ","50","","instructions","2021-06-17 22:40:16.345","","","","","",""
"card-selection-trial","15","101124","0.0-9.0-0.0","930","true","img/card_backs/set1/green.gif","img/card_backs/set1/purple.gif","img/card_backs/set1/red.gif","img/card_backs/set1/yellow.gif","img/card_backs/set2/pink.gif","img/card_backs/set2/gray.gif","img/card_backs/set2/blue.gif","img/card_backs/set2/orange.gif","""event"",""trial"",""time""
""fullscreenenter"",""1"",""3633""
","
","
","""event"",""trial"",""time""
""fullscreenenter"",""1"",""3633""
","
","","2364","","","","practice_card_selection","2021-06-17 22:40:20.724","img/practice_cards/backs/black.gif","0","-100","","",""
"casino-keyboard-response","16","107298","0.0-10.0-0.0","930","true","img/card_backs/set1/green.gif","img/card_backs/set1/purple.gif","img/card_backs/set1/red.gif","img/card_backs/set1/yellow.gif","img/card_backs/set2/pink.gif","img/card_backs/set2/gray.gif","img/card_backs/set2/blue.gif","img/card_backs/set2/orange.gif","""event"",""trial"",""time""
""fullscreenenter"",""1"",""3633""
","
","
","""event"",""trial"",""time""
""fullscreenenter"",""1"",""3633""
","
","","6167.800000071526","Great! Now on the next screen, try pressing '6' to select the third deck.","54","","instructions","2021-06-17 22:40:26.898","","","","","",""
"card-selection-trial","17","110551","0.0-11.0-0.0","930","true","img/card_backs/set1/green.gif","img/card_backs/set1/purple.gif","img/card_backs/set1/red.gif","img/card_backs/set1/yellow.gif","img/card_backs/set2/pink.gif","img/card_backs/set2/gray.gif","img/card_backs/set2/blue.gif","img/card_backs/set2/orange.gif","""event"",""trial"",""time""
""fullscreenenter"",""1"",""3633""
","
","
","""event"",""trial"",""time""
""fullscreenenter"",""1"",""3633""
","
","","1244.2999999523163","","","","practice_card_selection","2021-06-17 22:40:30.151","img/practice_cards/backs/dark_green.gif","2","200","","",""
"casino-keyboard-response","18","116433","0.0-12.0-0.0","930","true","img/card_backs/set1/green.gif","img/card_backs/set1/purple.gif","img/card_backs/set1/red.gif","img/card_backs/set1/yellow.gif","img/card_backs/set2/pink.gif","img/card_backs/set2/gray.gif","img/card_backs/set2/blue.gif","img/card_backs/set2/orange.gif","""event"",""trial"",""time""
""fullscreenenter"",""1"",""3633""
","
","
","""event"",""trial"",""time""
""fullscreenenter"",""1"",""3633""
","
","","5880.299999952316","Now on the next screen, try pressing '4' to select the second deck.","52","","instructions","2021-06-17 22:40:36.033","","","","","",""
"card-selection-trial","19","119247","0.0-13.0-0.0","930","true","img/card_backs/set1/green.gif","img/card_backs/set1/purple.gif","img/card_backs/set1/red.gif","img/card_backs/set1/yellow.gif","img/card_backs/set2/pink.gif","img/card_backs/set2/gray.gif","img/card_backs/set2/blue.gif","img/card_backs/set2/orange.gif","""event"",""trial"",""time""
""fullscreenenter"",""1"",""3633""
","
","
","""event"",""trial"",""time""
""fullscreenenter"",""1"",""3633""
","
","","806.6000000238419","","","","practice_card_selection","2021-06-17 22:40:38.847","img/practice_cards/backs/brown.gif","1","-100","","",""
"casino-keyboard-response","20","124275","0.0-14.0-0.0","930","true","img/card_backs/set1/green.gif","img/card_backs/set1/purple.gif","img/card_backs/set1/red.gif","img/card_backs/set1/yellow.gif","img/card_backs/set2/pink.gif","img/card_backs/set2/gray.gif","img/card_backs/set2/blue.gif","img/card_backs/set2/orange.gif","""event"",""trial"",""time""
""fullscreenenter"",""1"",""3633""
","
","
","""event"",""trial"",""time""
""fullscreenenter"",""1"",""3633""
","
","","5026.399999976158","Finally, try pressing '8' to select the deck all the way on the right.","56","","instructions","2021-06-17 22:40:43.875","","","","","",""
"card-selection-trial","21","127380","0.0-15.0-0.0","930","true","img/card_backs/set1/green.gif","img/card_backs/set1/purple.gif","img/card_backs/set1/red.gif","img/card_backs/set1/yellow.gif","img/card_backs/set2/pink.gif","img/card_backs/set2/gray.gif","img/card_backs/set2/blue.gif","img/card_backs/set2/orange.gif","""event"",""trial"",""time""
""fullscreenenter"",""1"",""3633""
","
","
","""event"",""trial"",""time""
""fullscreenenter"",""1"",""3633""
","
","","1098.5","","","","practice_card_selection","2021-06-17 22:40:46.980","img/practice_cards/backs/dark_green.gif","3","200","","",""
"casino-keyboard-response","22","133128","0.0-16.0-0.0","930","true","img/card_backs/set1/green.gif","img/card_backs/set1/purple.gif","img/card_backs/set1/red.gif","img/card_backs/set1/yellow.gif","img/card_backs/set2/pink.gif","img/card_backs/set2/gray.gif","img/card_backs/set2/blue.gif","img/card_backs/set2/orange.gif","""event"",""trial"",""time""
""fullscreenenter"",""1"",""3633""
","
","
","""event"",""trial"",""time""
""fullscreenenter"",""1"",""3633""
","
","","5747.100000023842","Great! It seems like you are getting the hang of this.","80","","instructions","2021-06-17 22:40:52.728","","","","","",""
"casino-keyboard-response","23","141903","0.0-16.0-0.1","930","true","img/card_backs/set1/green.gif","img/card_backs/set1/purple.gif","img/card_backs/set1/red.gif","img/card_backs/set1/yellow.gif","img/card_backs/set2/pink.gif","img/card_backs/set2/gray.gif","img/card_backs/set2/blue.gif","img/card_backs/set2/orange.gif","""event"",""trial"",""time""
""fullscreenenter"",""1"",""3633""
","
","
","""event"",""trial"",""time""
""fullscreenenter"",""1"",""3633""
","
","","8774.100000023842","You may have noticed that some cards will cause you to <b> win </b> tokens while other cards will cause you to <b> lose </b>  tokens.","70","","instructions","2021-06-17 22:41:01.503","","","","","",""
"casino-keyboard-response","24","151106","0.0-16.0-0.2","930","true","img/card_backs/set1/green.gif","img/card_backs/set1/purple.gif","img/card_backs/set1/red.gif","img/card_backs/set1/yellow.gif","img/card_backs/set2/pink.gif","img/card_backs/set2/gray.gif","img/card_backs/set2/blue.gif","img/card_backs/set2/orange.gif","""event"",""trial"",""time""
""fullscreenenter"",""1"",""3633""
","
","
","""event"",""trial"",""time""
""fullscreenenter"",""1"",""3633""
","
","","9201.200000047684","Each deck has a mix of cards that will cause you to win and lose tokens. </br> However, the cards in each colored deck are different.","73","","instructions","2021-06-17 22:41:10.706","","","","","",""
"casino-keyboard-response","25","159802","0.0-16.0-0.3","930","true","img/card_backs/set1/green.gif","img/card_backs/set1/purple.gif","img/card_backs/set1/red.gif","img/card_backs/set1/yellow.gif","img/card_backs/set2/pink.gif","img/card_backs/set2/gray.gif","img/card_backs/set2/blue.gif","img/card_backs/set2/orange.gif","""event"",""trial"",""time""
""fullscreenenter"",""1"",""3633""
","
","
","""event"",""trial"",""time""
""fullscreenenter"",""1"",""3633""
","
","","8695.300000071526","Some colored decks are luckier than others. </br> If you choose the lucky decks, you will earn more tokens than if you choose the unlucky decks.","69","","instructions","2021-06-17 22:41:19.403","","","","","",""
"casino-keyboard-response","26","167654","0.0-16.0-0.4","930","true","img/card_backs/set1/green.gif","img/card_backs/set1/purple.gif","img/card_backs/set1/red.gif","img/card_backs/set1/yellow.gif","img/card_backs/set2/pink.gif","img/card_backs/set2/gray.gif","img/card_backs/set2/blue.gif","img/card_backs/set2/orange.gif","""event"",""trial"",""time""
""fullscreenenter"",""1"",""3633""
","
","
","""event"",""trial"",""time""
""fullscreenenter"",""1"",""3633""
","
","","7850.399999976158","You should try to figure out which decks are lucky. </br> Then, try to choose the lucky decks so you can win the most tokens.","87","","instructions","2021-06-17 22:41:27.254","","","","","",""
"casino-keyboard-response","27","181144","0.0-16.0-0.5","930","true","img/card_backs/set1/green.gif","img/card_backs/set1/purple.gif","img/card_backs/set1/red.gif","img/card_backs/set1/yellow.gif","img/card_backs/set2/pink.gif","img/card_backs/set2/gray.gif","img/card_backs/set2/blue.gif","img/card_backs/set2/orange.gif","""event"",""trial"",""time""
""fullscreenenter"",""1"",""3633""
","
","
","""event"",""trial"",""time""
""fullscreenenter"",""1"",""3633""
","
","","13488.5","To make it trickier, the casino dealer will switch the locations of the decks on every turn. </br> The color of the deck determines how lucky it is. The location does not matter.","88","","instructions","2021-06-17 22:41:40.744","","","","","",""
"casino-keyboard-response","28","190999","0.0-16.0-0.6","930","true","img/card_backs/set1/green.gif","img/card_backs/set1/purple.gif","img/card_backs/set1/red.gif","img/card_backs/set1/yellow.gif","img/card_backs/set2/pink.gif","img/card_backs/set2/gray.gif","img/card_backs/set2/blue.gif","img/card_backs/set2/orange.gif","""event"",""trial"",""time""
""fullscreenenter"",""1"",""3633""
","
","
","""event"",""trial"",""time""
""fullscreenenter"",""1"",""3633""
","
","","9853.599999904633","The mix of cards in each colored deck will stay the same throughout the game. </br> That means that a deck that is lucky early on will stay lucky.","79","","instructions","2021-06-17 22:41:50.599","","","","","",""
"casino-keyboard-response","29","200325","0.0-16.0-0.7","930","true","img/card_backs/set1/green.gif","img/card_backs/set1/purple.gif","img/card_backs/set1/red.gif","img/card_backs/set1/yellow.gif","img/card_backs/set2/pink.gif","img/card_backs/set2/gray.gif","img/card_backs/set2/blue.gif","img/card_backs/set2/orange.gif","""event"",""trial"",""time""
""fullscreenenter"",""1"",""3633""
","
","
","""event"",""trial"",""time""
""fullscreenenter"",""1"",""3633""
","
","","9325.200000047684","Remember though, all the decks have a <b> mix </b> of both <b> good </b> and <b> bad </b> cards so it may take a couple of turns to figure out if a deck is lucky.","69","","instructions","2021-06-17 22:41:59.925","","","","","",""
"casino-keyboard-response","30","210079","0.0-16.0-0.8","930","true","img/card_backs/set1/green.gif","img/card_backs/set1/purple.gif","img/card_backs/set1/red.gif","img/card_backs/set1/yellow.gif","img/card_backs/set2/pink.gif","img/card_backs/set2/gray.gif","img/card_backs/set2/blue.gif","img/card_backs/set2/orange.gif","""event"",""trial"",""time""
""fullscreenenter"",""1"",""3633""
","
","
","""event"",""trial"",""time""
""fullscreenenter"",""1"",""3633""
","
","","9752.300000071526","At the end of the game, you will be paid bonus money based on how many tokens you win. </br> If you win more tokens, you will earn more money!","72","","instructions","2021-06-17 22:42:09.679","","","","","",""
"casino-keyboard-response","31","221768","0.0-16.0-0.9","930","true","img/card_backs/set1/green.gif","img/card_backs/set1/purple.gif","img/card_backs/set1/red.gif","img/card_backs/set1/yellow.gif","img/card_backs/set2/pink.gif","img/card_backs/set2/gray.gif","img/card_backs/set2/blue.gif","img/card_backs/set2/orange.gif","""event"",""trial"",""time""
""fullscreenenter"",""1"",""3633""
","
","
","""event"",""trial"",""time""
""fullscreenenter"",""1"",""3633""
","
","","11688.200000047684","You will never <b> lose </b> money. </br> If you end up with fewer than 0 tokens, you will earn $0 of bonus money, but you will still be paid for playing the game.","83","","instructions","2021-06-17 22:42:21.368","","","","","",""
"casino-keyboard-response","32","227381","0.0-16.0-0.10","930","true","img/card_backs/set1/green.gif","img/card_backs/set1/purple.gif","img/card_backs/set1/red.gif","img/card_backs/set1/yellow.gif","img/card_backs/set2/pink.gif","img/card_backs/set2/gray.gif","img/card_backs/set2/blue.gif","img/card_backs/set2/orange.gif","""event"",""trial"",""time""
""fullscreenenter"",""1"",""3633""
","
","
","""event"",""trial"",""time""
""fullscreenenter"",""1"",""3633""
","
","","5611.5","You will have 10 seconds to make each choice.","82","","instructions","2021-06-17 22:42:26.981","","","","","",""
"casino-keyboard-response","33","238386","0.0-16.0-0.11","930","true","img/card_backs/set1/green.gif","img/card_backs/set1/purple.gif","img/card_backs/set1/red.gif","img/card_backs/set1/yellow.gif","img/card_backs/set2/pink.gif","img/card_backs/set2/gray.gif","img/card_backs/set2/blue.gif","img/card_backs/set2/orange.gif","""event"",""trial"",""time""
""fullscreenenter"",""1"",""3633""
","
","
","""event"",""trial"",""time""
""fullscreenenter"",""1"",""3633""
","
","","11001.199999928474","Before you play the game for real, you will play with practice decks. </br> The tokens you earn during practice won't count toward your total.","86","","instructions","2021-06-17 22:42:37.986","","","","","",""
"casino-keyboard-response","34","251795","0.0-16.0-0.12","930","true","img/card_backs/set1/green.gif","img/card_backs/set1/purple.gif","img/card_backs/set1/red.gif","img/card_backs/set1/yellow.gif","img/card_backs/set2/pink.gif","img/card_backs/set2/gray.gif","img/card_backs/set2/blue.gif","img/card_backs/set2/orange.gif","""event"",""trial"",""time""
""fullscreenenter"",""1"",""3633""
","
","
","""event"",""trial"",""time""
""fullscreenenter"",""1"",""3633""
","
","","13408","Ready? Remember, use the '2', '4', '6', and '8' keys to select the decks. </br> Put your fingers on those keys now and then press '2' to begin.","50","","instructions","2021-06-17 22:42:51.395","","","","","",""
"casino-fixation","35","252298","0.0-17.0-0.0","930","true","img/card_backs/set1/green.gif","img/card_backs/set1/purple.gif","img/card_backs/set1/red.gif","img/card_backs/set1/yellow.gif","img/card_backs/set2/pink.gif","img/card_backs/set2/gray.gif","img/card_backs/set2/blue.gif","img/card_backs/set2/orange.gif","""event"",""trial"",""time""
""fullscreenenter"",""1"",""3633""
","
","
","""event"",""trial"",""time""
""fullscreenenter"",""1"",""3633""
","
","","null","","null","","fixation","2021-06-17 22:42:51.898","","","","","",""
"card-selection-trial","36","256959","0.0-17.0-1.0","930","true","img/card_backs/set1/green.gif","img/card_backs/set1/purple.gif","img/card_backs/set1/red.gif","img/card_backs/set1/yellow.gif","img/card_backs/set2/pink.gif","img/card_backs/set2/gray.gif","img/card_backs/set2/blue.gif","img/card_backs/set2/orange.gif","""event"",""trial"",""time""
""fullscreenenter"",""1"",""3633""
","
","
","""event"",""trial"",""time""
""fullscreenenter"",""1"",""3633""
","
","","2653.899999976158","","","","practice","2021-06-17 22:42:56.559","img/practice_cards/backs/dark_green.gif","1","-200","0","",""
"casino-fixation","37","257465","0.0-17.0-0.1","930","true","img/card_backs/set1/green.gif","img/card_backs/set1/purple.gif","img/card_backs/set1/red.gif","img/card_backs/set1/yellow.gif","img/card_backs/set2/pink.gif","img/card_backs/set2/gray.gif","img/card_backs/set2/blue.gif","img/card_backs/set2/orange.gif","""event"",""trial"",""time""
""fullscreenenter"",""1"",""3633""
","
","
","""event"",""trial"",""time""
""fullscreenenter"",""1"",""3633""
","
","","null","","null","","fixation","2021-06-17 22:42:57.065","","","","","",""
"card-selection-trial","38","261279","0.0-17.0-1.1","930","true","img/card_backs/set1/green.gif","img/card_backs/set1/purple.gif","img/card_backs/set1/red.gif","img/card_backs/set1/yellow.gif","img/card_backs/set2/pink.gif","img/card_backs/set2/gray.gif","img/card_backs/set2/blue.gif","img/card_backs/set2/orange.gif","""event"",""trial"",""time""
""fullscreenenter"",""1"",""3633""
","
","
","""event"",""trial"",""time""
""fullscreenenter"",""1"",""3633""
","
","","1807.5","","","","practice","2021-06-17 22:43:00.879","img/practice_cards/backs/dark_blue.gif","2","-200","0","",""
"casino-fixation","39","261784","0.0-17.0-0.2","930","true","img/card_backs/set1/green.gif","img/card_backs/set1/purple.gif","img/card_backs/set1/red.gif","img/card_backs/set1/yellow.gif","img/card_backs/set2/pink.gif","img/card_backs/set2/gray.gif","img/card_backs/set2/blue.gif","img/card_backs/set2/orange.gif","""event"",""trial"",""time""
""fullscreenenter"",""1"",""3633""
","
","
","""event"",""trial"",""time""
""fullscreenenter"",""1"",""3633""
","
","","null","","null","","fixation","2021-06-17 22:43:01.384","","","","","",""
"card-selection-trial","40","266172","0.0-17.0-1.2","930","true","img/card_backs/set1/green.gif","img/card_backs/set1/purple.gif","img/card_backs/set1/red.gif","img/card_backs/set1/yellow.gif","img/card_backs/set2/pink.gif","img/card_backs/set2/gray.gif","img/card_backs/set2/blue.gif","img/card_backs/set2/orange.gif","""event"",""trial"",""time""
""fullscreenenter"",""1"",""3633""
","
","
","""event"",""trial"",""time""
""fullscreenenter"",""1"",""3633""
","
","","2383.399999976158","","","","practice","2021-06-17 22:43:05.772","img/practice_cards/backs/black.gif","0","100","0","",""
"casino-fixation","41","266677","0.0-17.0-0.3","930","true","img/card_backs/set1/green.gif","img/card_backs/set1/purple.gif","img/card_backs/set1/red.gif","img/card_backs/set1/yellow.gif","img/card_backs/set2/pink.gif","img/card_backs/set2/gray.gif","img/card_backs/set2/blue.gif","img/card_backs/set2/orange.gif","""event"",""trial"",""time""
""fullscreenenter"",""1"",""3633""
","
","
","""event"",""trial"",""time""
""fullscreenenter"",""1"",""3633""
","
","","null","","null","","fixation","2021-06-17 22:43:06.277","","","","","",""
"card-selection-trial","42","270020","0.0-17.0-1.3","930","true","img/card_backs/set1/green.gif","img/card_backs/set1/purple.gif","img/card_backs/set1/red.gif","img/card_backs/set1/yellow.gif","img/card_backs/set2/pink.gif","img/card_backs/set2/gray.gif","img/card_backs/set2/blue.gif","img/card_backs/set2/orange.gif","""event"",""trial"",""time""
""fullscreenenter"",""1"",""3633""
","
","
","""event"",""trial"",""time""
""fullscreenenter"",""1"",""3633""
","
","","1336.2999999523163","","","","practice","2021-06-17 22:43:09.620","img/practice_cards/backs/dark_green.gif","3","-200","0","",""
"casino-fixation","43","270526","0.0-17.0-0.4","930","true","img/card_backs/set1/green.gif","img/card_backs/set1/purple.gif","img/card_backs/set1/red.gif","img/card_backs/set1/yellow.gif","img/card_backs/set2/pink.gif","img/card_backs/set2/gray.gif","img/card_backs/set2/blue.gif","img/card_backs/set2/orange.gif","""event"",""trial"",""time""
""fullscreenenter"",""1"",""3633""
","
","
","""event"",""trial"",""time""
""fullscreenenter"",""1"",""3633""
","
","","null","","null","","fixation","2021-06-17 22:43:10.126","","","","","",""
"card-selection-trial","44","275960","0.0-17.0-1.4","930","true","img/card_backs/set1/green.gif","img/card_backs/set1/purple.gif","img/card_backs/set1/red.gif","img/card_backs/set1/yellow.gif","img/card_backs/set2/pink.gif","img/card_backs/set2/gray.gif","img/card_backs/set2/blue.gif","img/card_backs/set2/orange.gif","""event"",""trial"",""time""
""fullscreenenter"",""1"",""3633""
","
","
","""event"",""trial"",""time""
""fullscreenenter"",""1"",""3633""
","
","","3428.1999999284744","","","","practice","2021-06-17 22:43:15.560","img/practice_cards/backs/black.gif","2","-100","0","",""
"casino-fixation","45","276462","0.0-17.0-0.5","930","true","img/card_backs/set1/green.gif","img/card_backs/set1/purple.gif","img/card_backs/set1/red.gif","img/card_backs/set1/yellow.gif","img/card_backs/set2/pink.gif","img/card_backs/set2/gray.gif","img/card_backs/set2/blue.gif","img/card_backs/set2/orange.gif","""event"",""trial"",""time""
""fullscreenenter"",""1"",""3633""
","
","
","""event"",""trial"",""time""
""fullscreenenter"",""1"",""3633""
","
","","null","","null","","fixation","2021-06-17 22:43:16.062","","","","","",""
"card-selection-trial","46","280564","0.0-17.0-1.5","930","true","img/card_backs/set1/green.gif","img/card_backs/set1/purple.gif","img/card_backs/set1/red.gif","img/card_backs/set1/yellow.gif","img/card_backs/set2/pink.gif","img/card_backs/set2/gray.gif","img/card_backs/set2/blue.gif","img/card_backs/set2/orange.gif","""event"",""trial"",""time""
""fullscreenenter"",""1"",""3633""
","
","
","""event"",""trial"",""time""
""fullscreenenter"",""1"",""3633""
","
","","2092.7000000476837","","","","practice","2021-06-17 22:43:20.164","img/practice_cards/backs/brown.gif","1","-100","0","",""
"casino-fixation","47","281069","0.0-17.0-0.6","930","true","img/card_backs/set1/green.gif","img/card_backs/set1/purple.gif","img/card_backs/set1/red.gif","img/card_backs/set1/yellow.gif","img/card_backs/set2/pink.gif","img/card_backs/set2/gray.gif","img/card_backs/set2/blue.gif","img/card_backs/set2/orange.gif","""event"",""trial"",""time""
""fullscreenenter"",""1"",""3633""
","
","
","""event"",""trial"",""time""
""fullscreenenter"",""1"",""3633""
","
","","null","","null","","fixation","2021-06-17 22:43:20.669","","","","","",""
"card-selection-trial","48","286648","0.0-17.0-1.6","930","true","img/card_backs/set1/green.gif","img/card_backs/set1/purple.gif","img/card_backs/set1/red.gif","img/card_backs/set1/yellow.gif","img/card_backs/set2/pink.gif","img/card_backs/set2/gray.gif","img/card_backs/set2/blue.gif","img/card_backs/set2/orange.gif","""event"",""trial"",""time""
""fullscreenenter"",""1"",""3633""
","
","
","""event"",""trial"",""time""
""fullscreenenter"",""1"",""3633""
","
","","3572","","","","practice","2021-06-17 22:43:26.248","img/practice_cards/backs/dark_green.gif","3","200","0","",""
"casino-fixation","49","287152","0.0-17.0-0.7","930","true","img/card_backs/set1/green.gif","img/card_backs/set1/purple.gif","img/card_backs/set1/red.gif","img/card_backs/set1/yellow.gif","img/card_backs/set2/pink.gif","img/card_backs/set2/gray.gif","img/card_backs/set2/blue.gif","img/card_backs/set2/orange.gif","""event"",""trial"",""time""
""fullscreenenter"",""1"",""3633""
","
","
","""event"",""trial"",""time""
""fullscreenenter"",""1"",""3633""
","
","","null","","null","","fixation","2021-06-17 22:43:26.753","","","","","",""
"card-selection-trial","50","291658","0.0-17.0-1.7","930","true","img/card_backs/set1/green.gif","img/card_backs/set1/purple.gif","img/card_backs/set1/red.gif","img/card_backs/set1/yellow.gif","img/card_backs/set2/pink.gif","img/card_backs/set2/gray.gif","img/card_backs/set2/blue.gif","img/card_backs/set2/orange.gif","""event"",""trial"",""time""
""fullscreenenter"",""1"",""3633""
","
","
","""event"",""trial"",""time""
""fullscreenenter"",""1"",""3633""
","
","","2495.399999976158","","","","practice","2021-06-17 22:43:31.258","img/practice_cards/backs/brown.gif","2","-100","0","",""
"casino-fixation","51","292163","0.0-17.0-0.8","930","true","img/card_backs/set1/green.gif","img/card_backs/set1/purple.gif","img/card_backs/set1/red.gif","img/card_backs/set1/yellow.gif","img/card_backs/set2/pink.gif","img/card_backs/set2/gray.gif","img/card_backs/set2/blue.gif","img/card_backs/set2/orange.gif","""event"",""trial"",""time""
""fullscreenenter"",""1"",""3633""
","
","
","""event"",""trial"",""time""
""fullscreenenter"",""1"",""3633""
","
","","null","","null","","fixation","2021-06-17 22:43:31.763","","","","","",""
"card-selection-trial","52","297629","0.0-17.0-1.8","930","true","img/card_backs/set1/green.gif","img/card_backs/set1/purple.gif","img/card_backs/set1/red.gif","img/card_backs/set1/yellow.gif","img/card_backs/set2/pink.gif","img/card_backs/set2/gray.gif","img/card_backs/set2/blue.gif","img/card_backs/set2/orange.gif","""event"",""trial"",""time""
""fullscreenenter"",""1"",""3633""
","
","
","""event"",""trial"",""time""
""fullscreenenter"",""1"",""3633""
","
","","3458.399999976158","","","","practice","2021-06-17 22:43:37.229","img/practice_cards/backs/dark_blue.gif","0","200","0","",""
"casino-fixation","53","298130","0.0-17.0-0.9","930","true","img/card_backs/set1/green.gif","img/card_backs/set1/purple.gif","img/card_backs/set1/red.gif","img/card_backs/set1/yellow.gif","img/card_backs/set2/pink.gif","img/card_backs/set2/gray.gif","img/card_backs/set2/blue.gif","img/card_backs/set2/orange.gif","""event"",""trial"",""time""
""fullscreenenter"",""1"",""3633""
","
","
","""event"",""trial"",""time""
""fullscreenenter"",""1"",""3633""
","
","","null","","null","","fixation","2021-06-17 22:43:37.730","","","","","",""
"card-selection-trial","54","302490","0.0-17.0-1.9","930","true","img/card_backs/set1/green.gif","img/card_backs/set1/purple.gif","img/card_backs/set1/red.gif","img/card_backs/set1/yellow.gif","img/card_backs/set2/pink.gif","img/card_backs/set2/gray.gif","img/card_backs/set2/blue.gif","img/card_backs/set2/orange.gif","""event"",""trial"",""time""
""fullscreenenter"",""1"",""3633""
","
","
","""event"",""trial"",""time""
""fullscreenenter"",""1"",""3633""
","
","","2351.5","","","","practice","2021-06-17 22:43:42.090","img/practice_cards/backs/black.gif","2","-100","0","",""
"casino-keyboard-response","55","306796","0.0-18.0","930","true","img/card_backs/set1/green.gif","img/card_backs/set1/purple.gif","img/card_backs/set1/red.gif","img/card_backs/set1/yellow.gif","img/card_backs/set2/pink.gif","img/card_backs/set2/gray.gif","img/card_backs/set2/blue.gif","img/card_backs/set2/orange.gif","""event"",""trial"",""time""
""fullscreenenter"",""1"",""3633""
","
","
","""event"",""trial"",""time""
""fullscreenenter"",""1"",""3633""
","
","","4304.5","You earned -500 tokens during the practice round!","82","","","2021-06-17 22:43:46.396","","","","","",""
"casino-keyboard-response","56","313265","0.0-19.0-0.0","930","true","img/card_backs/set1/green.gif","img/card_backs/set1/purple.gif","img/card_backs/set1/red.gif","img/card_backs/set1/yellow.gif","img/card_backs/set2/pink.gif","img/card_backs/set2/gray.gif","img/card_backs/set2/blue.gif","img/card_backs/set2/orange.gif","""event"",""trial"",""time""
""fullscreenenter"",""1"",""3633""
","
","
","""event"",""trial"",""time""
""fullscreenenter"",""1"",""3633""
","
","","6468.100000023842","Nice job! You are almost ready to play the real game.","86","","instructions","2021-06-17 22:43:52.865","","","","","",""
"casino-keyboard-response","57","320206","0.0-19.0-0.1","930","true","img/card_backs/set1/green.gif","img/card_backs/set1/purple.gif","img/card_backs/set1/red.gif","img/card_backs/set1/yellow.gif","img/card_backs/set2/pink.gif","img/card_backs/set2/gray.gif","img/card_backs/set2/blue.gif","img/card_backs/set2/orange.gif","""event"",""trial"",""time""
""fullscreenenter"",""1"",""3633""
","
","
","""event"",""trial"",""time""
""fullscreenenter"",""1"",""3633""
","
","","6939.600000023842","You will play two rounds of the real game. In each round, you will pick 100 cards in total.","73","","instructions","2021-06-17 22:43:59.806","","","","","",""
"casino-keyboard-response","58","326338","0.0-19.0-0.2","930","true","img/card_backs/set1/green.gif","img/card_backs/set1/purple.gif","img/card_backs/set1/red.gif","img/card_backs/set1/yellow.gif","img/card_backs/set2/pink.gif","img/card_backs/set2/gray.gif","img/card_backs/set2/blue.gif","img/card_backs/set2/orange.gif","""event"",""trial"",""time""
""fullscreenenter"",""1"",""3633""
","
","
","""event"",""trial"",""time""
""fullscreenenter"",""1"",""3633""
","
","","6130.800000071526","We are now going to ask you some questions about how the game works.","66","","instructions","2021-06-17 22:44:05.938","","","","","",""
"casino-keyboard-response","59","332840","0.0-19.0-0.3","930","true","img/card_backs/set1/green.gif","img/card_backs/set1/purple.gif","img/card_backs/set1/red.gif","img/card_backs/set1/yellow.gif","img/card_backs/set2/pink.gif","img/card_backs/set2/gray.gif","img/card_backs/set2/blue.gif","img/card_backs/set2/orange.gif","""event"",""trial"",""time""
""fullscreenenter"",""1"",""3633""
","
","
","""event"",""trial"",""time""
""fullscreenenter"",""1"",""3633""
","
","","6501","Answer carefully. You will not be able to begin the game until you answer them correctly.","67","","instructions","2021-06-17 22:44:12.440","","","","","",""
"casino-comp_q","60","341458","0.0-20.0-0.0","930","true","img/card_backs/set1/green.gif","img/card_backs/set1/purple.gif","img/card_backs/set1/red.gif","img/card_backs/set1/yellow.gif","img/card_backs/set2/pink.gif","img/card_backs/set2/gray.gif","img/card_backs/set2/blue.gif","img/card_backs/set2/orange.gif","""event"",""trial"",""time""
""fullscreenenter"",""1"",""3633""
","
","
","""event"",""trial"",""time""
""fullscreenenter"",""1"",""3633""
","
","","8616.5","True or False: All the decks have some cards that cause you to win tokens and some cards that cause you to lose tokens.","84","","","2021-06-17 22:44:21.058","","","","","",""
"casino-keyboard-response","61","346318","0.0-20.0-1.0","930","true","img/card_backs/set1/green.gif","img/card_backs/set1/purple.gif","img/card_backs/set1/red.gif","img/card_backs/set1/yellow.gif","img/card_backs/set2/pink.gif","img/card_backs/set2/gray.gif","img/card_backs/set2/blue.gif","img/card_backs/set2/orange.gif","""event"",""trial"",""time""
""fullscreenenter"",""1"",""3633""
","
","
","""event"",""trial"",""time""
""fullscreenenter"",""1"",""3633""
","
","","4857.800000071526","True is correct! All the decks have a mix of winning and losing cards.","77","","","2021-06-17 22:44:25.918","","","","","true",""
"casino-comp_q","62","352100","0.0-21.0-0.0","930","true","img/card_backs/set1/green.gif","img/card_backs/set1/purple.gif","img/card_backs/set1/red.gif","img/card_backs/set1/yellow.gif","img/card_backs/set2/pink.gif","img/card_backs/set2/gray.gif","img/card_backs/set2/blue.gif","img/card_backs/set2/orange.gif","""event"",""trial"",""time""
""fullscreenenter"",""1"",""3633""
","
","
","""event"",""trial"",""time""
""fullscreenenter"",""1"",""3633""
","
","","5780.700000047684","True or False: You will have as much time as you want to make your response.","70","","","2021-06-17 22:44:31.701","","","","","",""
"casino-keyboard-response","63","356780","0.0-21.0-1.0","930","true","img/card_backs/set1/green.gif","img/card_backs/set1/purple.gif","img/card_backs/set1/red.gif","img/card_backs/set1/yellow.gif","img/card_backs/set2/pink.gif","img/card_backs/set2/gray.gif","img/card_backs/set2/blue.gif","img/card_backs/set2/orange.gif","""event"",""trial"",""time""
""fullscreenenter"",""1"",""3633""
","
","
","""event"",""trial"",""time""
""fullscreenenter"",""1"",""3633""
","
","","4677","False is correct! You will only have 10 seconds to make each choice.","75","","","2021-06-17 22:44:36.380","","","","","true",""
"casino-comp_q","64","362957","0.0-22.0-0.0","930","true","img/card_backs/set1/green.gif","img/card_backs/set1/purple.gif","img/card_backs/set1/red.gif","img/card_backs/set1/yellow.gif","img/card_backs/set2/pink.gif","img/card_backs/set2/gray.gif","img/card_backs/set2/blue.gif","img/card_backs/set2/orange.gif","""event"",""trial"",""time""
""fullscreenenter"",""1"",""3633""
","
","
","""event"",""trial"",""time""
""fullscreenenter"",""1"",""3633""
","
","","6175.799999952316","True or False: The location of the deck determines how lucky it is.","84","","","2021-06-17 22:44:42.557","","","","","",""
"casino-keyboard-response","65","369977","0.0-22.0-1.0","930","true","img/card_backs/set1/green.gif","img/card_backs/set1/purple.gif","img/card_backs/set1/red.gif","img/card_backs/set1/yellow.gif","img/card_backs/set2/pink.gif","img/card_backs/set2/gray.gif","img/card_backs/set2/blue.gif","img/card_backs/set2/orange.gif","""event"",""trial"",""time""
""fullscreenenter"",""1"",""3633""
","
","
","""event"",""trial"",""time""
""fullscreenenter"",""1"",""3633""
","
","","7018","True is incorrect. The <i>color</i> of the deck determines how lucky or unlucky it is.","68","","","2021-06-17 22:44:49.577","","","","","false",""
"casino-comp_q","66","377064","0.0-22.1-0.1","930","true","img/card_backs/set1/green.gif","img/card_backs/set1/purple.gif","img/card_backs/set1/red.gif","img/card_backs/set1/yellow.gif","img/card_backs/set2/pink.gif","img/card_backs/set2/gray.gif","img/card_backs/set2/blue.gif","img/card_backs/set2/orange.gif","""event"",""trial"",""time""
""fullscreenenter"",""1"",""3633""
","
","
","""event"",""trial"",""time""
""fullscreenenter"",""1"",""3633""
","
","","7086.700000047684","True or False: The location of the deck determines how lucky it is.","70","","","2021-06-17 22:44:56.665","","","","","",""
"casino-keyboard-response","67","385152","0.0-22.1-1.1","930","true","img/card_backs/set1/green.gif","img/card_backs/set1/purple.gif","img/card_backs/set1/red.gif","img/card_backs/set1/yellow.gif","img/card_backs/set2/pink.gif","img/card_backs/set2/gray.gif","img/card_backs/set2/blue.gif","img/card_backs/set2/orange.gif","""event"",""trial"",""time""
""fullscreenenter"",""1"",""3633""
","
","
","""event"",""trial"",""time""
""fullscreenenter"",""1"",""3633""
","
","","8086.699999928474","False is correct! The <i>color</i>  of the deck determines how lucky or unlucky it is.","68","","","2021-06-17 22:45:04.752","","","","","true",""
"casino-keyboard-response","68","391037","0.0-23.0-0.0","930","true","img/card_backs/set1/green.gif","img/card_backs/set1/purple.gif","img/card_backs/set1/red.gif","img/card_backs/set1/yellow.gif","img/card_backs/set2/pink.gif","img/card_backs/set2/gray.gif","img/card_backs/set2/blue.gif","img/card_backs/set2/orange.gif","""event"",""trial"",""time""
""fullscreenenter"",""1"",""3633""
","
","
","""event"",""trial"",""time""
""fullscreenenter"",""1"",""3633""
","
","","5883.899999976158","Great job! Now it's time to start the real game.","82","","instructions","2021-06-17 22:45:10.637","","","","","",""
"casino-keyboard-response","69","396887","0.0-23.0-0.1","930","true","img/card_backs/set1/green.gif","img/card_backs/set1/purple.gif","img/card_backs/set1/red.gif","img/card_backs/set1/yellow.gif","img/card_backs/set2/pink.gif","img/card_backs/set2/gray.gif","img/card_backs/set2/blue.gif","img/card_backs/set2/orange.gif","""event"",""trial"",""time""
""fullscreenenter"",""1"",""3633""
","
","
","""event"",""trial"",""time""
""fullscreenenter"",""1"",""3633""
","
","","5847.899999976158","Before we start, we're going to head into a new room of the casino.","86","","instructions","2021-06-17 22:45:16.487","","","","","",""
"casino-keyboard-response","70","404717","0.0-24.0-0.0","930","true","img/card_backs/set1/green.gif","img/card_backs/set1/purple.gif","img/card_backs/set1/red.gif","img/card_backs/set1/yellow.gif","img/card_backs/set2/pink.gif","img/card_backs/set2/gray.gif","img/card_backs/set2/blue.gif","img/card_backs/set2/orange.gif","""event"",""trial"",""time""
""fullscreenenter"",""1"",""3633""
","
","
","""event"",""trial"",""time""
""fullscreenenter"",""1"",""3633""
","
","","7829.5","Here we are! The real game will use different cards, but the rules will be the same.","71","","instructions","2021-06-17 22:45:24.317","","","","","",""
"casino-keyboard-response","71","415619","0.0-24.0-0.1","930","true","img/card_backs/set1/green.gif","img/card_backs/set1/purple.gif","img/card_backs/set1/red.gif","img/card_backs/set1/yellow.gif","img/card_backs/set2/pink.gif","img/card_backs/set2/gray.gif","img/card_backs/set2/blue.gif","img/card_backs/set2/orange.gif","""event"",""trial"",""time""
""fullscreenenter"",""1"",""3633""
","
","
","""event"",""trial"",""time""
""fullscreenenter"",""1"",""3633""
","
","","10900.200000047684","Ready? Put your fingers over the '2', '4', 6', and '8' keys so you are ready to play the game. </br> Then press 2 to start.","50","","instructions","2021-06-17 22:45:35.219","","","","","",""
"casino-fixation","72","416121","0.0-25.0-0.0","930","true","img/card_backs/set1/green.gif","img/card_backs/set1/purple.gif","img/card_backs/set1/red.gif","img/card_backs/set1/yellow.gif","img/card_backs/set2/pink.gif","img/card_backs/set2/gray.gif","img/card_backs/set2/blue.gif","img/card_backs/set2/orange.gif","""event"",""trial"",""time""
""fullscreenenter"",""1"",""3633""
","
","
","""event"",""trial"",""time""
""fullscreenenter"",""1"",""3633""
","
","","null","","null","","fixation","2021-06-17 22:45:35.721","","","","","",""
"card-selection-trial","73","419993","0.0-25.0-1.0","930","true","img/card_backs/set1/green.gif","img/card_backs/set1/purple.gif","img/card_backs/set1/red.gif","img/card_backs/set1/yellow.gif","img/card_backs/set2/pink.gif","img/card_backs/set2/gray.gif","img/card_backs/set2/blue.gif","img/card_backs/set2/orange.gif","""event"",""trial"",""time""
""fullscreenenter"",""1"",""3633""
","
","
","""event"",""trial"",""time""
""fullscreenenter"",""1"",""3633""
","
","","1867.8999999761581","","","","real_trial","2021-06-17 22:45:39.593","img/card_backs/set1/yellow.gif","1","-90","1","",""
"casino-fixation","74","420497","0.0-25.0-0.1","930","true","img/card_backs/set1/green.gif","img/card_backs/set1/purple.gif","img/card_backs/set1/red.gif","img/card_backs/set1/yellow.gif","img/card_backs/set2/pink.gif","img/card_backs/set2/gray.gif","img/card_backs/set2/blue.gif","img/card_backs/set2/orange.gif","""event"",""trial"",""time""
""fullscreenenter"",""1"",""3633""
","
","
","""event"",""trial"",""time""
""fullscreenenter"",""1"",""3633""
","
","","null","","null","","fixation","2021-06-17 22:45:40.097","","","","","",""
"card-selection-trial","75","424166","0.0-25.0-1.1","930","true","img/card_backs/set1/green.gif","img/card_backs/set1/purple.gif","img/card_backs/set1/red.gif","img/card_backs/set1/yellow.gif","img/card_backs/set2/pink.gif","img/card_backs/set2/gray.gif","img/card_backs/set2/blue.gif","img/card_backs/set2/orange.gif","""event"",""trial"",""time""
""fullscreenenter"",""1"",""3633""
","
","
","""event"",""trial"",""time""
""fullscreenenter"",""1"",""3633""
","
","","1665.1000000238419","","","","real_trial","2021-06-17 22:45:43.766","img/card_backs/set1/purple.gif","2","-200","1","",""
"casino-fixation","76","424671","0.0-25.0-0.2","930","true","img/card_backs/set1/green.gif","img/card_backs/set1/purple.gif","img/card_backs/set1/red.gif","img/card_backs/set1/yellow.gif","img/card_backs/set2/pink.gif","img/card_backs/set2/gray.gif","img/card_backs/set2/blue.gif","img/card_backs/set2/orange.gif","""event"",""trial"",""time""
""fullscreenenter"",""1"",""3633""
","
","
","""event"",""trial"",""time""
""fullscreenenter"",""1"",""3633""
","
","","null","","null","","fixation","2021-06-17 22:45:44.271","","","","","",""
"card-selection-trial","77","429356","0.0-25.0-1.2","930","true","img/card_backs/set1/green.gif","img/card_backs/set1/purple.gif","img/card_backs/set1/red.gif","img/card_backs/set1/yellow.gif","img/card_backs/set2/pink.gif","img/card_backs/set2/gray.gif","img/card_backs/set2/blue.gif","img/card_backs/set2/orange.gif","""event"",""trial"",""time""
""fullscreenenter"",""1"",""3633""
","
","
","""event"",""trial"",""time""
""fullscreenenter"",""1"",""3633""
","
","","2678.4000000953674","","","","real_trial","2021-06-17 22:45:48.956","img/card_backs/set1/green.gif","0","250","1","",""
"casino-fixation","78","429861","0.0-25.0-0.3","930","true","img/card_backs/set1/green.gif","img/card_backs/set1/purple.gif","img/card_backs/set1/red.gif","img/card_backs/set1/yellow.gif","img/card_backs/set2/pink.gif","img/card_backs/set2/gray.gif","img/card_backs/set2/blue.gif","img/card_backs/set2/orange.gif","""event"",""trial"",""time""
""fullscreenenter"",""1"",""3633""
","
","
","""event"",""trial"",""time""
""fullscreenenter"",""1"",""3633""
","
","","null","","null","","fixation","2021-06-17 22:45:49.461","","","","","",""
"card-selection-trial","79","434460","0.0-25.0-1.3","930","true","img/card_backs/set1/green.gif","img/card_backs/set1/purple.gif","img/card_backs/set1/red.gif","img/card_backs/set1/yellow.gif","img/card_backs/set2/pink.gif","img/card_backs/set2/gray.gif","img/card_backs/set2/blue.gif","img/card_backs/set2/orange.gif","""event"",""trial"",""time""
""fullscreenenter"",""1"",""3633""
","
","
","""event"",""trial"",""time""
""fullscreenenter"",""1"",""3633""
","
","","2595.600000023842","","","","real_trial","2021-06-17 22:45:54.060","img/card_backs/set1/yellow.gif","2","60","1","",""
"casino-fixation","80","434962","0.0-25.0-0.4","930","true","img/card_backs/set1/green.gif","img/card_backs/set1/purple.gif","img/card_backs/set1/red.gif","img/card_backs/set1/yellow.gif","img/card_backs/set2/pink.gif","img/card_backs/set2/gray.gif","img/card_backs/set2/blue.gif","img/card_backs/set2/orange.gif","""event"",""trial"",""time""
""fullscreenenter"",""1"",""3633""
","
","
","""event"",""trial"",""time""
""fullscreenenter"",""1"",""3633""
","
","","null","","null","","fixation","2021-06-17 22:45:54.562","","","","","",""
"card-selection-trial","81","440391","0.0-25.0-1.4","930","true","img/card_backs/set1/green.gif","img/card_backs/set1/purple.gif","img/card_backs/set1/red.gif","img/card_backs/set1/yellow.gif","img/card_backs/set2/pink.gif","img/card_backs/set2/gray.gif","img/card_backs/set2/blue.gif","img/card_backs/set2/orange.gif","""event"",""trial"",""time""
""fullscreenenter"",""1"",""3633""
","
","
","""event"",""trial"",""time""
""fullscreenenter"",""1"",""3633""
","
","","3424","","","","real_trial","2021-06-17 22:45:59.991","img/card_backs/set1/green.gif","3","-190","1","",""
"casino-fixation","82","440896","0.0-25.0-0.5","930","true","img/card_backs/set1/green.gif","img/card_backs/set1/purple.gif","img/card_backs/set1/red.gif","img/card_backs/set1/yellow.gif","img/card_backs/set2/pink.gif","img/card_backs/set2/gray.gif","img/card_backs/set2/blue.gif","img/card_backs/set2/orange.gif","""event"",""trial"",""time""
""fullscreenenter"",""1"",""3633""
","
","
","""event"",""trial"",""time""
""fullscreenenter"",""1"",""3633""
","
","","null","","null","","fixation","2021-06-17 22:46:00.496","","","","","",""
"card-selection-trial","83","444980","0.0-25.0-1.5","930","true","img/card_backs/set1/green.gif","img/card_backs/set1/purple.gif","img/card_backs/set1/red.gif","img/card_backs/set1/yellow.gif","img/card_backs/set2/pink.gif","img/card_backs/set2/gray.gif","img/card_backs/set2/blue.gif","img/card_backs/set2/orange.gif","""event"",""trial"",""time""
""fullscreenenter"",""1"",""3633""
","
","
","""event"",""trial"",""time""
""fullscreenenter"",""1"",""3633""
","
","","2079.0999999046326","","","","real_trial","2021-06-17 22:46:04.581","img/card_backs/set1/purple.gif","2","-200","1","",""
"casino-fixation","84","445483","0.0-25.0-0.6","930","true","img/card_backs/set1/green.gif","img/card_backs/set1/purple.gif","img/card_backs/set1/red.gif","img/card_backs/set1/yellow.gif","img/card_backs/set2/pink.gif","img/card_backs/set2/gray.gif","img/card_backs/set2/blue.gif","img/card_backs/set2/orange.gif","""event"",""trial"",""time""
""fullscreenenter"",""1"",""3633""
","
","
","""event"",""trial"",""time""
""fullscreenenter"",""1"",""3633""
","
","","null","","null","","fixation","2021-06-17 22:46:05.083","","","","","",""
"card-selection-trial","85","450476","0.0-25.0-1.6","930","true","img/card_backs/set1/green.gif","img/card_backs/set1/purple.gif","img/card_backs/set1/red.gif","img/card_backs/set1/yellow.gif","img/card_backs/set2/pink.gif","img/card_backs/set2/gray.gif","img/card_backs/set2/blue.gif","img/card_backs/set2/orange.gif","""event"",""trial"",""time""
""fullscreenenter"",""1"",""3633""
","
","
","""event"",""trial"",""time""
""fullscreenenter"",""1"",""3633""
","
","","2982.399999976158","","","","real_trial","2021-06-17 22:46:10.076","img/card_backs/set1/green.gif","1","-210","1","",""
"casino-fixation","86","450981","0.0-25.0-0.7","930","true","img/card_backs/set1/green.gif","img/card_backs/set1/purple.gif","img/card_backs/set1/red.gif","img/card_backs/set1/yellow.gif","img/card_backs/set2/pink.gif","img/card_backs/set2/gray.gif","img/card_backs/set2/blue.gif","img/card_backs/set2/orange.gif","""event"",""trial"",""time""
""fullscreenenter"",""1"",""3633""
","
","
","""event"",""trial"",""time""
""fullscreenenter"",""1"",""3633""
","
","","null","","null","","fixation","2021-06-17 22:46:10.581","","","","","",""
"card-selection-trial","87","455579","0.0-25.0-1.7","930","true","img/card_backs/set1/green.gif","img/card_backs/set1/purple.gif","img/card_backs/set1/red.gif","img/card_backs/set1/yellow.gif","img/card_backs/set2/pink.gif","img/card_backs/set2/gray.gif","img/card_backs/set2/blue.gif","img/card_backs/set2/orange.gif","""event"",""trial"",""time""
""fullscreenenter"",""1"",""3633""
","
","
","""event"",""trial"",""time""
""fullscreenenter"",""1"",""3633""
","
","","2591.899999976158","","","","real_trial","2021-06-17 22:46:15.179","img/card_backs/set1/red.gif","3","40","1","",""
"casino-fixation","88","456083","0.0-25.0-0.8","930","true","img/card_backs/set1/green.gif","img/card_backs/set1/purple.gif","img/card_backs/set1/red.gif","img/card_backs/set1/yellow.gif","img/card_backs/set2/pink.gif","img/card_backs/set2/gray.gif","img/card_backs/set2/blue.gif","img/card_backs/set2/orange.gif","""event"",""trial"",""time""
""fullscreenenter"",""1"",""3633""
","
","
","""event"",""trial"",""time""
""fullscreenenter"",""1"",""3633""
","
","","null","","null","","fixation","2021-06-17 22:46:15.684","","","","","",""
"card-selection-trial","89","460408","0.0-25.0-1.8","930","true","img/card_backs/set1/green.gif","img/card_backs/set1/purple.gif","img/card_backs/set1/red.gif","img/card_backs/set1/yellow.gif","img/card_backs/set2/pink.gif","img/card_backs/set2/gray.gif","img/card_backs/set2/blue.gif","img/card_backs/set2/orange.gif","""event"",""trial"",""time""
""fullscreenenter"",""1"",""3633""
","
","
","""event"",""trial"",""time""
""fullscreenenter"",""1"",""3633""
","
","","2315.2000000476837","","","","real_trial","2021-06-17 22:46:20.009","img/card_backs/set1/yellow.gif","2","60","1","",""
"casino-fixation","90","460913","0.0-25.0-0.9","930","true","img/card_backs/set1/green.gif","img/card_backs/set1/purple.gif","img/card_backs/set1/red.gif","img/card_backs/set1/yellow.gif","img/card_backs/set2/pink.gif","img/card_backs/set2/gray.gif","img/card_backs/set2/blue.gif","img/card_backs/set2/orange.gif","""event"",""trial"",""time""
""fullscreenenter"",""1"",""3633""
","
","
","""event"",""trial"",""time""
""fullscreenenter"",""1"",""3633""
","
","","null","","null","","fixation","2021-06-17 22:46:20.513","","","","","",""
"card-selection-trial","91","465772","0.0-25.0-1.9","930","true","img/card_backs/set1/green.gif","img/card_backs/set1/purple.gif","img/card_backs/set1/red.gif","img/card_backs/set1/yellow.gif","img/card_backs/set2/pink.gif","img/card_backs/set2/gray.gif","img/card_backs/set2/blue.gif","img/card_backs/set2/orange.gif","""event"",""trial"",""time""
""fullscreenenter"",""1"",""3633""
","
","
","""event"",""trial"",""time""
""fullscreenenter"",""1"",""3633""
","
","","2852.399999976158","","","","real_trial","2021-06-17 22:46:25.372","img/card_backs/set1/yellow.gif","0","40","1","",""
"casino-fixation","92","466277","0.0-25.0-0.10","930","true","img/card_backs/set1/green.gif","img/card_backs/set1/purple.gif","img/card_backs/set1/red.gif","img/card_backs/set1/yellow.gif","img/card_backs/set2/pink.gif","img/card_backs/set2/gray.gif","img/card_backs/set2/blue.gif","img/card_backs/set2/orange.gif","""event"",""trial"",""time""
""fullscreenenter"",""1"",""3633""
","
","
","""event"",""trial"",""time""
""fullscreenenter"",""1"",""3633""
","
","","null","","null","","fixation","2021-06-17 22:46:25.877","","","","","",""
"card-selection-trial","93","470579","0.0-25.0-1.10","930","true","img/card_backs/set1/green.gif","img/card_backs/set1/purple.gif","img/card_backs/set1/red.gif","img/card_backs/set1/yellow.gif","img/card_backs/set2/pink.gif","img/card_backs/set2/gray.gif","img/card_backs/set2/blue.gif","img/card_backs/set2/orange.gif","""event"",""trial"",""time""
""fullscreenenter"",""1"",""3633""
","
","
","""event"",""trial"",""time""
""fullscreenenter"",""1"",""3633""
","
","","2292","","","","real_trial","2021-06-17 22:46:30.179","img/card_backs/set1/yellow.gif","1","50","1","",""
"casino-fixation","94","471084","0.0-25.0-0.11","930","true","img/card_backs/set1/green.gif","img/card_backs/set1/purple.gif","img/card_backs/set1/red.gif","img/card_backs/set1/yellow.gif","img/card_backs/set2/pink.gif","img/card_backs/set2/gray.gif","img/card_backs/set2/blue.gif","img/card_backs/set2/orange.gif","""event"",""trial"",""time""
""fullscreenenter"",""1"",""3633""
","
","
","""event"",""trial"",""time""
""fullscreenenter"",""1"",""3633""
","
","","null","","null","","fixation","2021-06-17 22:46:30.684","","","","","",""
"card-selection-trial","95","474457","0.0-25.0-1.11","930","true","img/card_backs/set1/green.gif","img/card_backs/set1/purple.gif","img/card_backs/set1/red.gif","img/card_backs/set1/yellow.gif","img/card_backs/set2/pink.gif","img/card_backs/set2/gray.gif","img/card_backs/set2/blue.gif","img/card_backs/set2/orange.gif","""event"",""trial"",""time""
""fullscreenenter"",""1"",""3633""
","
","
","""event"",""trial"",""time""
""fullscreenenter"",""1"",""3633""
","
","","1367.1000000238419","","","","real_trial","2021-06-17 22:46:34.057","img/card_backs/set1/yellow.gif","1","-110","1","",""
"casino-fixation","96","474961","0.0-25.0-0.12","930","true","img/card_backs/set1/green.gif","img/card_backs/set1/purple.gif","img/card_backs/set1/red.gif","img/card_backs/set1/yellow.gif","img/card_backs/set2/pink.gif","img/card_backs/set2/gray.gif","img/card_backs/set2/blue.gif","img/card_backs/set2/orange.gif","""event"",""trial"",""time""
""fullscreenenter"",""1"",""3633""
","
","
","""event"",""trial"",""time""
""fullscreenenter"",""1"",""3633""
","
","","null","","null","","fixation","2021-06-17 22:46:34.561","","","","","",""
"card-selection-trial","97","478793","0.0-25.0-1.12","930","true","img/card_backs/set1/green.gif","img/card_backs/set1/purple.gif","img/card_backs/set1/red.gif","img/card_backs/set1/yellow.gif","img/card_backs/set2/pink.gif","img/card_backs/set2/gray.gif","img/card_backs/set2/blue.gif","img/card_backs/set2/orange.gif","""event"",""trial"",""time""
""fullscreenenter"",""1"",""3633""
","
","
","""event"",""trial"",""time""
""fullscreenenter"",""1"",""3633""
","
","","1824.6000000238419","","","","real_trial","2021-06-17 22:46:38.393","img/card_backs/set1/green.gif","0","240","1","",""
"casino-fixation","98","479298","0.0-25.0-0.13","930","true","img/card_backs/set1/green.gif","img/card_backs/set1/purple.gif","img/card_backs/set1/red.gif","img/card_backs/set1/yellow.gif","img/card_backs/set2/pink.gif","img/card_backs/set2/gray.gif","img/card_backs/set2/blue.gif","img/card_backs/set2/orange.gif","""event"",""trial"",""time""
""fullscreenenter"",""1"",""3633""
","
","
","""event"",""trial"",""time""
""fullscreenenter"",""1"",""3633""
","
","","null","","null","","fixation","2021-06-17 22:46:38.898","","","","","",""
"card-selection-trial","99","485585","0.0-25.0-1.13","930","true","img/card_backs/set1/green.gif","img/card_backs/set1/purple.gif","img/card_backs/set1/red.gif","img/card_backs/set1/yellow.gif","img/card_backs/set2/pink.gif","img/card_backs/set2/gray.gif","img/card_backs/set2/blue.gif","img/card_backs/set2/orange.gif","""event"",""trial"",""time""
""fullscreenenter"",""1"",""3633""
","
","
","""event"",""trial"",""time""
""fullscreenenter"",""1"",""3633""
","
","","4279","","","","real_trial","2021-06-17 22:46:45.185","img/card_backs/set1/green.gif","0","-190","1","",""
"casino-fixation","100","486090","0.0-25.0-0.14","930","true","img/card_backs/set1/green.gif","img/card_backs/set1/purple.gif","img/card_backs/set1/red.gif","img/card_backs/set1/yellow.gif","img/card_backs/set2/pink.gif","img/card_backs/set2/gray.gif","img/card_backs/set2/blue.gif","img/card_backs/set2/orange.gif","""event"",""trial"",""time""
""fullscreenenter"",""1"",""3633""
","
","
","""event"",""trial"",""time""
""fullscreenenter"",""1"",""3633""
","
","","null","","null","","fixation","2021-06-17 22:46:45.690","","","","","",""
"card-selection-trial","101","490420","0.0-25.0-1.14","930","true","img/card_backs/set1/green.gif","img/card_backs/set1/purple.gif","img/card_backs/set1/red.gif","img/card_backs/set1/yellow.gif","img/card_backs/set2/pink.gif","img/card_backs/set2/gray.gif","img/card_backs/set2/blue.gif","img/card_backs/set2/orange.gif","""event"",""trial"",""time""
""fullscreenenter"",""1"",""3633""
","
","
","""event"",""trial"",""time""
""fullscreenenter"",""1"",""3633""
","
","","2324.6999999284744","","","","real_trial","2021-06-17 22:46:50.021","img/card_backs/set1/purple.gif","3","-190","1","",""
"casino-fixation","102","490925","0.0-25.0-0.15","930","true","img/card_backs/set1/green.gif","img/card_backs/set1/purple.gif","img/card_backs/set1/red.gif","img/card_backs/set1/yellow.gif","img/card_backs/set2/pink.gif","img/card_backs/set2/gray.gif","img/card_backs/set2/blue.gif","img/card_backs/set2/orange.gif","""event"",""trial"",""time""
""fullscreenenter"",""1"",""3633""
","
","
","""event"",""trial"",""time""
""fullscreenenter"",""1"",""3633""
","
","","null","","null","","fixation","2021-06-17 22:46:50.525","","","","","",""
"card-selection-trial","103","494809","0.0-25.0-1.15","930","true","img/card_backs/set1/green.gif","img/card_backs/set1/purple.gif","img/card_backs/set1/red.gif","img/card_backs/set1/yellow.gif","img/card_backs/set2/pink.gif","img/card_backs/set2/gray.gif","img/card_backs/set2/blue.gif","img/card_backs/set2/orange.gif","""event"",""trial"",""time""
""fullscreenenter"",""1"",""3633""
","
","
","""event"",""trial"",""time""
""fullscreenenter"",""1"",""3633""
","
","","1875.7000000476837","","","","real_trial","2021-06-17 22:46:54.409","img/card_backs/set1/yellow.gif","1","40","1","",""
"casino-fixation","104","495314","0.0-25.0-0.16","930","true","img/card_backs/set1/green.gif","img/card_backs/set1/purple.gif","img/card_backs/set1/red.gif","img/card_backs/set1/yellow.gif","img/card_backs/set2/pink.gif","img/card_backs/set2/gray.gif","img/card_backs/set2/blue.gif","img/card_backs/set2/orange.gif","""event"",""trial"",""time""
""fullscreenenter"",""1"",""3633""
","
","
","""event"",""trial"",""time""
""fullscreenenter"",""1"",""3633""
","
","","null","","null","","fixation","2021-06-17 22:46:54.914","","","","","",""
"card-selection-trial","105","498703","0.0-25.0-1.16","930","true","img/card_backs/set1/green.gif","img/card_backs/set1/purple.gif","img/card_backs/set1/red.gif","img/card_backs/set1/yellow.gif","img/card_backs/set2/pink.gif","img/card_backs/set2/gray.gif","img/card_backs/set2/blue.gif","img/card_backs/set2/orange.gif","""event"",""trial"",""time""
""fullscreenenter"",""1"",""3633""
","
","
","""event"",""trial"",""time""
""fullscreenenter"",""1"",""3633""
","
","","1381.3999999761581","","","","real_trial","2021-06-17 22:46:58.303","img/card_backs/set1/green.gif","0","-200","1","",""
"casino-fixation","106","499209","0.0-25.0-0.17","930","true","img/card_backs/set1/green.gif","img/card_backs/set1/purple.gif","img/card_backs/set1/red.gif","img/card_backs/set1/yellow.gif","img/card_backs/set2/pink.gif","img/card_backs/set2/gray.gif","img/card_backs/set2/blue.gif","img/card_backs/set2/orange.gif","""event"",""trial"",""time""
""fullscreenenter"",""1"",""3633""
","
","
","""event"",""trial"",""time""
""fullscreenenter"",""1"",""3633""
","
","","null","","null","","fixation","2021-06-17 22:46:58.809","","","","","",""
"card-selection-trial","107","504225","0.0-25.0-1.17","930","true","img/card_backs/set1/green.gif","img/card_backs/set1/purple.gif","img/card_backs/set1/red.gif","img/card_backs/set1/yellow.gif","img/card_backs/set2/pink.gif","img/card_backs/set2/gray.gif","img/card_backs/set2/blue.gif","img/card_backs/set2/orange.gif","""event"",""trial"",""time""
""fullscreenenter"",""1"",""3633""
","
","
","""event"",""trial"",""time""
""fullscreenenter"",""1"",""3633""
","
","","3010.3000000715256","","","","real_trial","2021-06-17 22:47:03.825","img/card_backs/set1/red.gif","2","50","1","",""
"casino-fixation","108","504730","0.0-25.0-0.18","930","true","img/card_backs/set1/green.gif","img/card_backs/set1/purple.gif","img/card_backs/set1/red.gif","img/card_backs/set1/yellow.gif","img/card_backs/set2/pink.gif","img/card_backs/set2/gray.gif","img/card_backs/set2/blue.gif","img/card_backs/set2/orange.gif","""event"",""trial"",""time""
""fullscreenenter"",""1"",""3633""
","
","
","""event"",""trial"",""time""
""fullscreenenter"",""1"",""3633""
","
","","null","","null","","fixation","2021-06-17 22:47:04.330","","","","","",""
"card-selection-trial","109","508602","0.0-25.0-1.18","930","true","img/card_backs/set1/green.gif","img/card_backs/set1/purple.gif","img/card_backs/set1/red.gif","img/card_backs/set1/yellow.gif","img/card_backs/set2/pink.gif","img/card_backs/set2/gray.gif","img/card_backs/set2/blue.gif","img/card_backs/set2/orange.gif","""event"",""trial"",""time""
""fullscreenenter"",""1"",""3633""
","
","
","""event"",""trial"",""time""
""fullscreenenter"",""1"",""3633""
","
","","1864.7999999523163","","","","real_trial","2021-06-17 22:47:08.202","img/card_backs/set1/yellow.gif","0","-90","1","",""
"casino-fixation","110","509107","0.0-25.0-0.19","930","true","img/card_backs/set1/green.gif","img/card_backs/set1/purple.gif","img/card_backs/set1/red.gif","img/card_backs/set1/yellow.gif","img/card_backs/set2/pink.gif","img/card_backs/set2/gray.gif","img/card_backs/set2/blue.gif","img/card_backs/set2/orange.gif","""event"",""trial"",""time""
""fullscreenenter"",""1"",""3633""
","
","
","""event"",""trial"",""time""
""fullscreenenter"",""1"",""3633""
","
","","null","","null","","fixation","2021-06-17 22:47:08.707","","","","","",""
"card-selection-trial","111","513124","0.0-25.0-1.19","930","true","img/card_backs/set1/green.gif","img/card_backs/set1/purple.gif","img/card_backs/set1/red.gif","img/card_backs/set1/yellow.gif","img/card_backs/set2/pink.gif","img/card_backs/set2/gray.gif","img/card_backs/set2/blue.gif","img/card_backs/set2/orange.gif","""event"",""trial"",""time""
""fullscreenenter"",""1"",""3633""
","
","
","""event"",""trial"",""time""
""fullscreenenter"",""1"",""3633""
","
","","2010.2000000476837","","","","real_trial","2021-06-17 22:47:12.724","img/card_backs/set1/green.gif","0","250","1","",""
"casino-fixation","112","513631","0.0-25.0-0.20","930","true","img/card_backs/set1/green.gif","img/card_backs/set1/purple.gif","img/card_backs/set1/red.gif","img/card_backs/set1/yellow.gif","img/card_backs/set2/pink.gif","img/card_backs/set2/gray.gif","img/card_backs/set2/blue.gif","img/card_backs/set2/orange.gif","""event"",""trial"",""time""
""fullscreenenter"",""1"",""3633""
","
","
","""event"",""trial"",""time""
""fullscreenenter"",""1"",""3633""
","
","","null","","null","","fixation","2021-06-17 22:47:13.231","","","","","",""
"card-selection-trial","113","518796","0.0-25.0-1.20","930","true","img/card_backs/set1/green.gif","img/card_backs/set1/purple.gif","img/card_backs/set1/red.gif","img/card_backs/set1/yellow.gif","img/card_backs/set2/pink.gif","img/card_backs/set2/gray.gif","img/card_backs/set2/blue.gif","img/card_backs/set2/orange.gif","""event"",""trial"",""time""
""fullscreenenter"",""1"",""3633""
","
","
","""event"",""trial"",""time""
""fullscreenenter"",""1"",""3633""
","
","","3157.0999999046326","","","","real_trial","2021-06-17 22:47:18.396","img/card_backs/set1/green.gif","1","260","1","",""
"casino-fixation","114","519300","0.0-25.0-0.21","930","true","img/card_backs/set1/green.gif","img/card_backs/set1/purple.gif","img/card_backs/set1/red.gif","img/card_backs/set1/yellow.gif","img/card_backs/set2/pink.gif","img/card_backs/set2/gray.gif","img/card_backs/set2/blue.gif","img/card_backs/set2/orange.gif","""event"",""trial"",""time""
""fullscreenenter"",""1"",""3633""
","
","
","""event"",""trial"",""time""
""fullscreenenter"",""1"",""3633""
","
","","null","","null","","fixation","2021-06-17 22:47:18.900","","","","","",""
"card-selection-trial","115","522551","0.0-25.0-1.21","930","true","img/card_backs/set1/green.gif","img/card_backs/set1/purple.gif","img/card_backs/set1/red.gif","img/card_backs/set1/yellow.gif","img/card_backs/set2/pink.gif","img/card_backs/set2/gray.gif","img/card_backs/set2/blue.gif","img/card_backs/set2/orange.gif","""event"",""trial"",""time""
""fullscreenenter"",""1"",""3633""
","
","
","""event"",""trial"",""time""
""fullscreenenter"",""1"",""3633""
","
","","1244.1999999284744","","","","real_trial","2021-06-17 22:47:22.151","img/card_backs/set1/green.gif","1","260","1","",""
"casino-fixation","116","523056","0.0-25.0-0.22","930","true","img/card_backs/set1/green.gif","img/card_backs/set1/purple.gif","img/card_backs/set1/red.gif","img/card_backs/set1/yellow.gif","img/card_backs/set2/pink.gif","img/card_backs/set2/gray.gif","img/card_backs/set2/blue.gif","img/card_backs/set2/orange.gif","""event"",""trial"",""time""
""fullscreenenter"",""1"",""3633""
","
","
","""event"",""trial"",""time""
""fullscreenenter"",""1"",""3633""
","
","","null","","null","","fixation","2021-06-17 22:47:22.656","","","","","",""
"card-selection-trial","117","527433","0.0-25.0-1.22","930","true","img/card_backs/set1/green.gif","img/card_backs/set1/purple.gif","img/card_backs/set1/red.gif","img/card_backs/set1/yellow.gif","img/card_backs/set2/pink.gif","img/card_backs/set2/gray.gif","img/card_backs/set2/blue.gif","img/card_backs/set2/orange.gif","""event"",""trial"",""time""
""fullscreenenter"",""1"",""3633""
","
","
","""event"",""trial"",""time""
""fullscreenenter"",""1"",""3633""
","
","","2369.899999976158","","","","real_trial","2021-06-17 22:47:27.033","img/card_backs/set1/green.gif","3","250","1","",""
"casino-fixation","118","527938","0.0-25.0-0.23","930","true","img/card_backs/set1/green.gif","img/card_backs/set1/purple.gif","img/card_backs/set1/red.gif","img/card_backs/set1/yellow.gif","img/card_backs/set2/pink.gif","img/card_backs/set2/gray.gif","img/card_backs/set2/blue.gif","img/card_backs/set2/orange.gif","""event"",""trial"",""time""
""fullscreenenter"",""1"",""3633""
","
","
","""event"",""trial"",""time""
""fullscreenenter"",""1"",""3633""
","
","","null","","null","","fixation","2021-06-17 22:47:27.538","","","","","",""
"card-selection-trial","119","531363","0.0-25.0-1.23","930","true","img/card_backs/set1/green.gif","img/card_backs/set1/purple.gif","img/card_backs/set1/red.gif","img/card_backs/set1/yellow.gif","img/card_backs/set2/pink.gif","img/card_backs/set2/gray.gif","img/card_backs/set2/blue.gif","img/card_backs/set2/orange.gif","""event"",""trial"",""time""
""fullscreenenter"",""1"",""3633""
","
","
","""event"",""trial"",""time""
""fullscreenenter"",""1"",""3633""
","
","","1415.5","","","","real_trial","2021-06-17 22:47:30.963","img/card_backs/set1/green.gif","0","250","1","",""
"casino-fixation","120","531868","0.0-25.0-0.24","930","true","img/card_backs/set1/green.gif","img/card_backs/set1/purple.gif","img/card_backs/set1/red.gif","img/card_backs/set1/yellow.gif","img/card_backs/set2/pink.gif","img/card_backs/set2/gray.gif","img/card_backs/set2/blue.gif","img/card_backs/set2/orange.gif","""event"",""trial"",""time""
""fullscreenenter"",""1"",""3633""
","
","
","""event"",""trial"",""time""
""fullscreenenter"",""1"",""3633""
","
","","null","","null","","fixation","2021-06-17 22:47:31.468","","","","","",""
"card-selection-trial","121","535218","0.0-25.0-1.24","930","true","img/card_backs/set1/green.gif","img/card_backs/set1/purple.gif","img/card_backs/set1/red.gif","img/card_backs/set1/yellow.gif","img/card_backs/set2/pink.gif","img/card_backs/set2/gray.gif","img/card_backs/set2/blue.gif","img/card_backs/set2/orange.gif","""event"",""trial"",""time""
""fullscreenenter"",""1"",""3633""
","
","
","""event"",""trial"",""time""
""fullscreenenter"",""1"",""3633""
","
","","1344","","","","real_trial","2021-06-17 22:47:34.818","img/card_backs/set1/green.gif","1","-200","1","",""
"casino-fixation","122","535723","0.0-25.0-0.25","930","true","img/card_backs/set1/green.gif","img/card_backs/set1/purple.gif","img/card_backs/set1/red.gif","img/card_backs/set1/yellow.gif","img/card_backs/set2/pink.gif","img/card_backs/set2/gray.gif","img/card_backs/set2/blue.gif","img/card_backs/set2/orange.gif","""event"",""trial"",""time""
""fullscreenenter"",""1"",""3633""
","
","
","""event"",""trial"",""time""
""fullscreenenter"",""1"",""3633""
","
","","null","","null","","fixation","2021-06-17 22:47:35.323","","","","","",""
"card-selection-trial","123","539461","0.0-25.0-1.25","930","true","img/card_backs/set1/green.gif","img/card_backs/set1/purple.gif","img/card_backs/set1/red.gif","img/card_backs/set1/yellow.gif","img/card_backs/set2/pink.gif","img/card_backs/set2/gray.gif","img/card_backs/set2/blue.gif","img/card_backs/set2/orange.gif","""event"",""trial"",""time""
""fullscreenenter"",""1"",""3633""
","
","
","""event"",""trial"",""time""
""fullscreenenter"",""1"",""3633""
","
","","1731.3000000715256","","","","real_trial","2021-06-17 22:47:39.061","img/card_backs/set1/yellow.gif","0","40","1","",""
"casino-fixation","124","539968","0.0-25.0-0.26","930","true","img/card_backs/set1/green.gif","img/card_backs/set1/purple.gif","img/card_backs/set1/red.gif","img/card_backs/set1/yellow.gif","img/card_backs/set2/pink.gif","img/card_backs/set2/gray.gif","img/card_backs/set2/blue.gif","img/card_backs/set2/orange.gif","""event"",""trial"",""time""
""fullscreenenter"",""1"",""3633""
","
","
","""event"",""trial"",""time""
""fullscreenenter"",""1"",""3633""
","
","","null","","null","","fixation","2021-06-17 22:47:39.568","","","","","",""
"card-selection-trial","125","543885","0.0-25.0-1.26","930","true","img/card_backs/set1/green.gif","img/card_backs/set1/purple.gif","img/card_backs/set1/red.gif","img/card_backs/set1/yellow.gif","img/card_backs/set2/pink.gif","img/card_backs/set2/gray.gif","img/card_backs/set2/blue.gif","img/card_backs/set2/orange.gif","""event"",""trial"",""time""
""fullscreenenter"",""1"",""3633""
","
","
","""event"",""trial"",""time""
""fullscreenenter"",""1"",""3633""
","
","","1906.2999999523163","","","","real_trial","2021-06-17 22:47:43.485","img/card_backs/set1/yellow.gif","3","40","1","",""
"casino-fixation","126","544389","0.0-25.0-0.27","930","true","img/card_backs/set1/green.gif","img/card_backs/set1/purple.gif","img/card_backs/set1/red.gif","img/card_backs/set1/yellow.gif","img/card_backs/set2/pink.gif","img/card_backs/set2/gray.gif","img/card_backs/set2/blue.gif","img/card_backs/set2/orange.gif","""event"",""trial"",""time""
""fullscreenenter"",""1"",""3633""
","
","
","""event"",""trial"",""time""
""fullscreenenter"",""1"",""3633""
","
","","null","","null","","fixation","2021-06-17 22:47:43.990","","","","","",""
"card-selection-trial","127","547786","0.0-25.0-1.27","930","true","img/card_backs/set1/green.gif","img/card_backs/set1/purple.gif","img/card_backs/set1/red.gif","img/card_backs/set1/yellow.gif","img/card_backs/set2/pink.gif","img/card_backs/set2/gray.gif","img/card_backs/set2/blue.gif","img/card_backs/set2/orange.gif","""event"",""trial"",""time""
""fullscreenenter"",""1"",""3633""
","
","
","""event"",""trial"",""time""
""fullscreenenter"",""1"",""3633""
","
","","1389.2999999523163","","","","real_trial","2021-06-17 22:47:47.386","img/card_backs/set1/yellow.gif","0","50","1","",""
"casino-fixation","128","548291","0.0-25.0-0.28","930","true","img/card_backs/set1/green.gif","img/card_backs/set1/purple.gif","img/card_backs/set1/red.gif","img/card_backs/set1/yellow.gif","img/card_backs/set2/pink.gif","img/card_backs/set2/gray.gif","img/card_backs/set2/blue.gif","img/card_backs/set2/orange.gif","""event"",""trial"",""time""
""fullscreenenter"",""1"",""3633""
","
","
","""event"",""trial"",""time""
""fullscreenenter"",""1"",""3633""
","
","","null","","null","","fixation","2021-06-17 22:47:47.891","","","","","",""
"card-selection-trial","129","553121","0.0-25.0-1.28","930","true","img/card_backs/set1/green.gif","img/card_backs/set1/purple.gif","img/card_backs/set1/red.gif","img/card_backs/set1/yellow.gif","img/card_backs/set2/pink.gif","img/card_backs/set2/gray.gif","img/card_backs/set2/blue.gif","img/card_backs/set2/orange.gif","""event"",""trial"",""time""
""fullscreenenter"",""1"",""3633""
","
","
","""event"",""trial"",""time""
""fullscreenenter"",""1"",""3633""
","
","","2820.4000000953674","","","","real_trial","2021-06-17 22:47:52.721","img/card_backs/set1/yellow.gif","1","-100","1","",""
"casino-fixation","130","553625","0.0-25.0-0.29","930","true","img/card_backs/set1/green.gif","img/card_backs/set1/purple.gif","img/card_backs/set1/red.gif","img/card_backs/set1/yellow.gif","img/card_backs/set2/pink.gif","img/card_backs/set2/gray.gif","img/card_backs/set2/blue.gif","img/card_backs/set2/orange.gif","""event"",""trial"",""time""
""fullscreenenter"",""1"",""3633""
","
","
","""event"",""trial"",""time""
""fullscreenenter"",""1"",""3633""
","
","","null","","null","","fixation","2021-06-17 22:47:53.225","","","","","",""
"card-selection-trial","131","557137","0.0-25.0-1.29","930","true","img/card_backs/set1/green.gif","img/card_backs/set1/purple.gif","img/card_backs/set1/red.gif","img/card_backs/set1/yellow.gif","img/card_backs/set2/pink.gif","img/card_backs/set2/gray.gif","img/card_backs/set2/blue.gif","img/card_backs/set2/orange.gif","""event"",""trial"",""time""
""fullscreenenter"",""1"",""3633""
","
","
","""event"",""trial"",""time""
""fullscreenenter"",""1"",""3633""
","
","","1502.2999999523163","","","","real_trial","2021-06-17 22:47:56.737","img/card_backs/set1/green.gif","2","-200","1","",""
"casino-fixation","132","557643","0.0-25.0-0.30","930","true","img/card_backs/set1/green.gif","img/card_backs/set1/purple.gif","img/card_backs/set1/red.gif","img/card_backs/set1/yellow.gif","img/card_backs/set2/pink.gif","img/card_backs/set2/gray.gif","img/card_backs/set2/blue.gif","img/card_backs/set2/orange.gif","""event"",""trial"",""time""
""fullscreenenter"",""1"",""3633""
","
","
","""event"",""trial"",""time""
""fullscreenenter"",""1"",""3633""
","
","","null","","null","","fixation","2021-06-17 22:47:57.243","","","","","",""
"card-selection-trial","133","561387","0.0-25.0-1.30","930","true","img/card_backs/set1/green.gif","img/card_backs/set1/purple.gif","img/card_backs/set1/red.gif","img/card_backs/set1/yellow.gif","img/card_backs/set2/pink.gif","img/card_backs/set2/gray.gif","img/card_backs/set2/blue.gif","img/card_backs/set2/orange.gif","""event"",""trial"",""time""
""fullscreenenter"",""1"",""3633""
","
","
","""event"",""trial"",""time""
""fullscreenenter"",""1"",""3633""
","
","","1736.8999999761581","","","","real_trial","2021-06-17 22:48:00.987","img/card_backs/set1/red.gif","3","40","1","",""
"casino-fixation","134","561892","0.0-25.0-0.31","930","true","img/card_backs/set1/green.gif","img/card_backs/set1/purple.gif","img/card_backs/set1/red.gif","img/card_backs/set1/yellow.gif","img/card_backs/set2/pink.gif","img/card_backs/set2/gray.gif","img/card_backs/set2/blue.gif","img/card_backs/set2/orange.gif","""event"",""trial"",""time""
""fullscreenenter"",""1"",""3633""
","
","
","""event"",""trial"",""time""
""fullscreenenter"",""1"",""3633""
","
","","null","","null","","fixation","2021-06-17 22:48:01.492","","","","","",""
"card-selection-trial","135","565113","0.0-25.0-1.31","930","true","img/card_backs/set1/green.gif","img/card_backs/set1/purple.gif","img/card_backs/set1/red.gif","img/card_backs/set1/yellow.gif","img/card_backs/set2/pink.gif","img/card_backs/set2/gray.gif","img/card_backs/set2/blue.gif","img/card_backs/set2/orange.gif","""event"",""trial"",""time""
""fullscreenenter"",""1"",""3633""
","
","
","""event"",""trial"",""time""
""fullscreenenter"",""1"",""3633""
","
","","1211.8000000715256","","","","real_trial","2021-06-17 22:48:04.713","img/card_backs/set1/red.gif","0","-90","1","",""
"casino-fixation","136","565619","0.0-25.0-0.32","930","true","img/card_backs/set1/green.gif","img/card_backs/set1/purple.gif","img/card_backs/set1/red.gif","img/card_backs/set1/yellow.gif","img/card_backs/set2/pink.gif","img/card_backs/set2/gray.gif","img/card_backs/set2/blue.gif","img/card_backs/set2/orange.gif","""event"",""trial"",""time""
""fullscreenenter"",""1"",""3633""
","
","
","""event"",""trial"",""time""
""fullscreenenter"",""1"",""3633""
","
","","null","","null","","fixation","2021-06-17 22:48:05.219","","","","","",""
"card-selection-trial","137","569015","0.0-25.0-1.32","930","true","img/card_backs/set1/green.gif","img/card_backs/set1/purple.gif","img/card_backs/set1/red.gif","img/card_backs/set1/yellow.gif","img/card_backs/set2/pink.gif","img/card_backs/set2/gray.gif","img/card_backs/set2/blue.gif","img/card_backs/set2/orange.gif","""event"",""trial"",""time""
""fullscreenenter"",""1"",""3633""
","
","
","""event"",""trial"",""time""
""fullscreenenter"",""1"",""3633""
","
","","1389.0999999046326","","","","real_trial","2021-06-17 22:48:08.615","img/card_backs/set1/purple.gif","2","260","1","",""
"casino-fixation","138","569520","0.0-25.0-0.33","930","true","img/card_backs/set1/green.gif","img/card_backs/set1/purple.gif","img/card_backs/set1/red.gif","img/card_backs/set1/yellow.gif","img/card_backs/set2/pink.gif","img/card_backs/set2/gray.gif","img/card_backs/set2/blue.gif","img/card_backs/set2/orange.gif","""event"",""trial"",""time""
""fullscreenenter"",""1"",""3633""
","
","
","""event"",""trial"",""time""
""fullscreenenter"",""1"",""3633""
","
","","null","","null","","fixation","2021-06-17 22:48:09.120","","","","","",""
"card-selection-trial","139","573054","0.0-25.0-1.33","930","true","img/card_backs/set1/green.gif","img/card_backs/set1/purple.gif","img/card_backs/set1/red.gif","img/card_backs/set1/yellow.gif","img/card_backs/set2/pink.gif","img/card_backs/set2/gray.gif","img/card_backs/set2/blue.gif","img/card_backs/set2/orange.gif","""event"",""trial"",""time""
""fullscreenenter"",""1"",""3633""
","
","
","""event"",""trial"",""time""
""fullscreenenter"",""1"",""3633""
","
","","1526.6000000238419","","","","real_trial","2021-06-17 22:48:12.654","img/card_backs/set1/purple.gif","3","-210","1","",""
"casino-fixation","140","573560","0.0-25.0-0.34","930","true","img/card_backs/set1/green.gif","img/card_backs/set1/purple.gif","img/card_backs/set1/red.gif","img/card_backs/set1/yellow.gif","img/card_backs/set2/pink.gif","img/card_backs/set2/gray.gif","img/card_backs/set2/blue.gif","img/card_backs/set2/orange.gif","""event"",""trial"",""time""
""fullscreenenter"",""1"",""3633""
","
","
","""event"",""trial"",""time""
""fullscreenenter"",""1"",""3633""
","
","","null","","null","","fixation","2021-06-17 22:48:13.160","","","","","",""
"card-selection-trial","141","578680","0.0-25.0-1.34","930","true","img/card_backs/set1/green.gif","img/card_backs/set1/purple.gif","img/card_backs/set1/red.gif","img/card_backs/set1/yellow.gif","img/card_backs/set2/pink.gif","img/card_backs/set2/gray.gif","img/card_backs/set2/blue.gif","img/card_backs/set2/orange.gif","""event"",""trial"",""time""
""fullscreenenter"",""1"",""3633""
","
","
","""event"",""trial"",""time""
""fullscreenenter"",""1"",""3633""
","
","","3111.399999976158","","","","real_trial","2021-06-17 22:48:18.280","img/card_backs/set1/yellow.gif","3","-110","1","",""
"casino-fixation","142","579185","0.0-25.0-0.35","930","true","img/card_backs/set1/green.gif","img/card_backs/set1/purple.gif","img/card_backs/set1/red.gif","img/card_backs/set1/yellow.gif","img/card_backs/set2/pink.gif","img/card_backs/set2/gray.gif","img/card_backs/set2/blue.gif","img/card_backs/set2/orange.gif","""event"",""trial"",""time""
""fullscreenenter"",""1"",""3633""
","
","
","""event"",""trial"",""time""
""fullscreenenter"",""1"",""3633""
","
","","null","","null","","fixation","2021-06-17 22:48:18.785","","","","","",""
"card-selection-trial","143","582854","0.0-25.0-1.35","930","true","img/card_backs/set1/green.gif","img/card_backs/set1/purple.gif","img/card_backs/set1/red.gif","img/card_backs/set1/yellow.gif","img/card_backs/set2/pink.gif","img/card_backs/set2/gray.gif","img/card_backs/set2/blue.gif","img/card_backs/set2/orange.gif","""event"",""trial"",""time""
""fullscreenenter"",""1"",""3633""
","
","
","""event"",""trial"",""time""
""fullscreenenter"",""1"",""3633""
","
","","1660.8000000715256","","","","real_trial","2021-06-17 22:48:22.454","img/card_backs/set1/green.gif","1","-200","1","",""
"casino-fixation","144","583359","0.0-25.0-0.36","930","true","img/card_backs/set1/green.gif","img/card_backs/set1/purple.gif","img/card_backs/set1/red.gif","img/card_backs/set1/yellow.gif","img/card_backs/set2/pink.gif","img/card_backs/set2/gray.gif","img/card_backs/set2/blue.gif","img/card_backs/set2/orange.gif","""event"",""trial"",""time""
""fullscreenenter"",""1"",""3633""
","
","
","""event"",""trial"",""time""
""fullscreenenter"",""1"",""3633""
","
","","null","","null","","fixation","2021-06-17 22:48:22.959","","","","","",""
"card-selection-trial","145","586889","0.0-25.0-1.36","930","true","img/card_backs/set1/green.gif","img/card_backs/set1/purple.gif","img/card_backs/set1/red.gif","img/card_backs/set1/yellow.gif","img/card_backs/set2/pink.gif","img/card_backs/set2/gray.gif","img/card_backs/set2/blue.gif","img/card_backs/set2/orange.gif","""event"",""trial"",""time""
""fullscreenenter"",""1"",""3633""
","
","
","""event"",""trial"",""time""
""fullscreenenter"",""1"",""3633""
","
","","1525","","","","real_trial","2021-06-17 22:48:26.489","img/card_backs/set1/red.gif","2","40","1","",""
"casino-fixation","146","587393","0.0-25.0-0.37","930","true","img/card_backs/set1/green.gif","img/card_backs/set1/purple.gif","img/card_backs/set1/red.gif","img/card_backs/set1/yellow.gif","img/card_backs/set2/pink.gif","img/card_backs/set2/gray.gif","img/card_backs/set2/blue.gif","img/card_backs/set2/orange.gif","""event"",""trial"",""time""
""fullscreenenter"",""1"",""3633""
","
","
","""event"",""trial"",""time""
""fullscreenenter"",""1"",""3633""
","
","","null","","null","","fixation","2021-06-17 22:48:26.993","","","","","",""
"card-selection-trial","147","590882","0.0-25.0-1.37","930","true","img/card_backs/set1/green.gif","img/card_backs/set1/purple.gif","img/card_backs/set1/red.gif","img/card_backs/set1/yellow.gif","img/card_backs/set2/pink.gif","img/card_backs/set2/gray.gif","img/card_backs/set2/blue.gif","img/card_backs/set2/orange.gif","""event"",""trial"",""time""
""fullscreenenter"",""1"",""3633""
","
","
","""event"",""trial"",""time""
""fullscreenenter"",""1"",""3633""
","
","","1484.0999999046326","","","","real_trial","2021-06-17 22:48:30.482","img/card_backs/set1/red.gif","0","40","1","",""
"casino-fixation","148","591387","0.0-25.0-0.38","930","true","img/card_backs/set1/green.gif","img/card_backs/set1/purple.gif","img/card_backs/set1/red.gif","img/card_backs/set1/yellow.gif","img/card_backs/set2/pink.gif","img/card_backs/set2/gray.gif","img/card_backs/set2/blue.gif","img/card_backs/set2/orange.gif","""event"",""trial"",""time""
""fullscreenenter"",""1"",""3633""
","
","
","""event"",""trial"",""time""
""fullscreenenter"",""1"",""3633""
","
","","null","","null","","fixation","2021-06-17 22:48:30.987","","","","","",""
"card-selection-trial","149","595103","0.0-25.0-1.38","930","true","img/card_backs/set1/green.gif","img/card_backs/set1/purple.gif","img/card_backs/set1/red.gif","img/card_backs/set1/yellow.gif","img/card_backs/set2/pink.gif","img/card_backs/set2/gray.gif","img/card_backs/set2/blue.gif","img/card_backs/set2/orange.gif","""event"",""trial"",""time""
""fullscreenenter"",""1"",""3633""
","
","
","""event"",""trial"",""time""
""fullscreenenter"",""1"",""3633""
","
","","1710.2999999523163","","","","real_trial","2021-06-17 22:48:34.703","img/card_backs/set1/red.gif","2","50","1","",""
"casino-fixation","150","595607","0.0-25.0-0.39","930","true","img/card_backs/set1/green.gif","img/card_backs/set1/purple.gif","img/card_backs/set1/red.gif","img/card_backs/set1/yellow.gif","img/card_backs/set2/pink.gif","img/card_backs/set2/gray.gif","img/card_backs/set2/blue.gif","img/card_backs/set2/orange.gif","""event"",""trial"",""time""
""fullscreenenter"",""1"",""3633""
","
","
","""event"",""trial"",""time""
""fullscreenenter"",""1"",""3633""
","
","","null","","null","","fixation","2021-06-17 22:48:35.207","","","","","",""
"card-selection-trial","151","599433","0.0-25.0-1.39","930","true","img/card_backs/set1/green.gif","img/card_backs/set1/purple.gif","img/card_backs/set1/red.gif","img/card_backs/set1/yellow.gif","img/card_backs/set2/pink.gif","img/card_backs/set2/gray.gif","img/card_backs/set2/blue.gif","img/card_backs/set2/orange.gif","""event"",""trial"",""time""
""fullscreenenter"",""1"",""3633""
","
","
","""event"",""trial"",""time""
""fullscreenenter"",""1"",""3633""
","
","","1820.3000000715256","","","","real_trial","2021-06-17 22:48:39.033","img/card_backs/set1/red.gif","2","-100","1","",""
"casino-fixation","152","599938","0.0-25.0-0.40","930","true","img/card_backs/set1/green.gif","img/card_backs/set1/purple.gif","img/card_backs/set1/red.gif","img/card_backs/set1/yellow.gif","img/card_backs/set2/pink.gif","img/card_backs/set2/gray.gif","img/card_backs/set2/blue.gif","img/card_backs/set2/orange.gif","""event"",""trial"",""time""
""fullscreenenter"",""1"",""3633""
","
","
","""event"",""trial"",""time""
""fullscreenenter"",""1"",""3633""
","
","","null","","null","","fixation","2021-06-17 22:48:39.538","","","","","",""
"card-selection-trial","153","603352","0.0-25.0-1.40","930","true","img/card_backs/set1/green.gif","img/card_backs/set1/purple.gif","img/card_backs/set1/red.gif","img/card_backs/set1/yellow.gif","img/card_backs/set2/pink.gif","img/card_backs/set2/gray.gif","img/card_backs/set2/blue.gif","img/card_backs/set2/orange.gif","""event"",""trial"",""time""
""fullscreenenter"",""1"",""3633""
","
","
","""event"",""trial"",""time""
""fullscreenenter"",""1"",""3633""
","
","","1404.7999999523163","","","","real_trial","2021-06-17 22:48:42.953","img/card_backs/set1/yellow.gif","1","50","1","",""
"casino-fixation","154","603856","0.0-25.0-0.41","930","true","img/card_backs/set1/green.gif","img/card_backs/set1/purple.gif","img/card_backs/set1/red.gif","img/card_backs/set1/yellow.gif","img/card_backs/set2/pink.gif","img/card_backs/set2/gray.gif","img/card_backs/set2/blue.gif","img/card_backs/set2/orange.gif","""event"",""trial"",""time""
""fullscreenenter"",""1"",""3633""
","
","
","""event"",""trial"",""time""
""fullscreenenter"",""1"",""3633""
","
","","null","","null","","fixation","2021-06-17 22:48:43.457","","","","","",""
"card-selection-trial","155","607493","0.0-25.0-1.41","930","true","img/card_backs/set1/green.gif","img/card_backs/set1/purple.gif","img/card_backs/set1/red.gif","img/card_backs/set1/yellow.gif","img/card_backs/set2/pink.gif","img/card_backs/set2/gray.gif","img/card_backs/set2/blue.gif","img/card_backs/set2/orange.gif","""event"",""trial"",""time""
""fullscreenenter"",""1"",""3633""
","
","
","""event"",""trial"",""time""
""fullscreenenter"",""1"",""3633""
","
","","1628","","","","real_trial","2021-06-17 22:48:47.093","img/card_backs/set1/yellow.gif","0","-90","1","",""
"casino-fixation","156","607995","0.0-25.0-0.42","930","true","img/card_backs/set1/green.gif","img/card_backs/set1/purple.gif","img/card_backs/set1/red.gif","img/card_backs/set1/yellow.gif","img/card_backs/set2/pink.gif","img/card_backs/set2/gray.gif","img/card_backs/set2/blue.gif","img/card_backs/set2/orange.gif","""event"",""trial"",""time""
""fullscreenenter"",""1"",""3633""
","
","
","""event"",""trial"",""time""
""fullscreenenter"",""1"",""3633""
","
","","null","","null","","fixation","2021-06-17 22:48:47.595","","","","","",""
"card-selection-trial","157","612529","0.0-25.0-1.42","930","true","img/card_backs/set1/green.gif","img/card_backs/set1/purple.gif","img/card_backs/set1/red.gif","img/card_backs/set1/yellow.gif","img/card_backs/set2/pink.gif","img/card_backs/set2/gray.gif","img/card_backs/set2/blue.gif","img/card_backs/set2/orange.gif","""event"",""trial"",""time""
""fullscreenenter"",""1"",""3633""
","
","
","""event"",""trial"",""time""
""fullscreenenter"",""1"",""3633""
","
","","2527.2999999523163","","","","real_trial","2021-06-17 22:48:52.129","img/card_backs/set1/green.gif","2","-210","1","",""
"casino-fixation","158","613034","0.0-25.0-0.43","930","true","img/card_backs/set1/green.gif","img/card_backs/set1/purple.gif","img/card_backs/set1/red.gif","img/card_backs/set1/yellow.gif","img/card_backs/set2/pink.gif","img/card_backs/set2/gray.gif","img/card_backs/set2/blue.gif","img/card_backs/set2/orange.gif","""event"",""trial"",""time""
""fullscreenenter"",""1"",""3633""
","
","
","""event"",""trial"",""time""
""fullscreenenter"",""1"",""3633""
","
","","null","","null","","fixation","2021-06-17 22:48:52.634","","","","","",""
"card-selection-trial","159","617086","0.0-25.0-1.43","930","true","img/card_backs/set1/green.gif","img/card_backs/set1/purple.gif","img/card_backs/set1/red.gif","img/card_backs/set1/yellow.gif","img/card_backs/set2/pink.gif","img/card_backs/set2/gray.gif","img/card_backs/set2/blue.gif","img/card_backs/set2/orange.gif","""event"",""trial"",""time""
""fullscreenenter"",""1"",""3633""
","
","
","""event"",""trial"",""time""
""fullscreenenter"",""1"",""3633""
","
","","2044.8000000715256","","","","real_trial","2021-06-17 22:48:56.687","img/card_backs/set1/purple.gif","1","-200","1","",""
"casino-fixation","160","617591","0.0-25.0-0.44","930","true","img/card_backs/set1/green.gif","img/card_backs/set1/purple.gif","img/card_backs/set1/red.gif","img/card_backs/set1/yellow.gif","img/card_backs/set2/pink.gif","img/card_backs/set2/gray.gif","img/card_backs/set2/blue.gif","img/card_backs/set2/orange.gif","""event"",""trial"",""time""
""fullscreenenter"",""1"",""3633""
","
","
","""event"",""trial"",""time""
""fullscreenenter"",""1"",""3633""
","
","","null","","null","","fixation","2021-06-17 22:48:57.191","","","","","",""
"card-selection-trial","161","622578","0.0-25.0-1.44","930","true","img/card_backs/set1/green.gif","img/card_backs/set1/purple.gif","img/card_backs/set1/red.gif","img/card_backs/set1/yellow.gif","img/card_backs/set2/pink.gif","img/card_backs/set2/gray.gif","img/card_backs/set2/blue.gif","img/card_backs/set2/orange.gif","""event"",""trial"",""time""
""fullscreenenter"",""1"",""3633""
","
","
","""event"",""trial"",""time""
""fullscreenenter"",""1"",""3633""
","
","","2979","","","","real_trial","2021-06-17 22:49:02.178","img/card_backs/set1/red.gif","3","-110","1","",""
"casino-fixation","162","623083","0.0-25.0-0.45","930","true","img/card_backs/set1/green.gif","img/card_backs/set1/purple.gif","img/card_backs/set1/red.gif","img/card_backs/set1/yellow.gif","img/card_backs/set2/pink.gif","img/card_backs/set2/gray.gif","img/card_backs/set2/blue.gif","img/card_backs/set2/orange.gif","""event"",""trial"",""time""
""fullscreenenter"",""1"",""3633""
","
","
","""event"",""trial"",""time""
""fullscreenenter"",""1"",""3633""
","
","","null","","null","","fixation","2021-06-17 22:49:02.683","","","","","",""
"card-selection-trial","163","627326","0.0-25.0-1.45","930","true","img/card_backs/set1/green.gif","img/card_backs/set1/purple.gif","img/card_backs/set1/red.gif","img/card_backs/set1/yellow.gif","img/card_backs/set2/pink.gif","img/card_backs/set2/gray.gif","img/card_backs/set2/blue.gif","img/card_backs/set2/orange.gif","""event"",""trial"",""time""
""fullscreenenter"",""1"",""3633""
","
","
","""event"",""trial"",""time""
""fullscreenenter"",""1"",""3633""
","
","","2234.600000023842","","","","real_trial","2021-06-17 22:49:06.926","img/card_backs/set1/yellow.gif","2","-110","1","",""
"casino-fixation","164","627831","0.0-25.0-0.46","930","true","img/card_backs/set1/green.gif","img/card_backs/set1/purple.gif","img/card_backs/set1/red.gif","img/card_backs/set1/yellow.gif","img/card_backs/set2/pink.gif","img/card_backs/set2/gray.gif","img/card_backs/set2/blue.gif","img/card_backs/set2/orange.gif","""event"",""trial"",""time""
""fullscreenenter"",""1"",""3633""
","
","
","""event"",""trial"",""time""
""fullscreenenter"",""1"",""3633""
","
","","null","","null","","fixation","2021-06-17 22:49:07.431","","","","","",""
"card-selection-trial","165","632029","0.0-25.0-1.46","930","true","img/card_backs/set1/green.gif","img/card_backs/set1/purple.gif","img/card_backs/set1/red.gif","img/card_backs/set1/yellow.gif","img/card_backs/set2/pink.gif","img/card_backs/set2/gray.gif","img/card_backs/set2/blue.gif","img/card_backs/set2/orange.gif","""event"",""trial"",""time""
""fullscreenenter"",""1"",""3633""
","
","
","""event"",""trial"",""time""
""fullscreenenter"",""1"",""3633""
","
","","2188","","","","real_trial","2021-06-17 22:49:11.629","img/card_backs/set1/green.gif","1","-210","1","",""
"casino-fixation","166","632533","0.0-25.0-0.47","930","true","img/card_backs/set1/green.gif","img/card_backs/set1/purple.gif","img/card_backs/set1/red.gif","img/card_backs/set1/yellow.gif","img/card_backs/set2/pink.gif","img/card_backs/set2/gray.gif","img/card_backs/set2/blue.gif","img/card_backs/set2/orange.gif","""event"",""trial"",""time""
""fullscreenenter"",""1"",""3633""
","
","
","""event"",""trial"",""time""
""fullscreenenter"",""1"",""3633""
","
","","null","","null","","fixation","2021-06-17 22:49:12.133","","","","","",""
"card-selection-trial","167","636303","0.0-25.0-1.47","930","true","img/card_backs/set1/green.gif","img/card_backs/set1/purple.gif","img/card_backs/set1/red.gif","img/card_backs/set1/yellow.gif","img/card_backs/set2/pink.gif","img/card_backs/set2/gray.gif","img/card_backs/set2/blue.gif","img/card_backs/set2/orange.gif","""event"",""trial"",""time""
""fullscreenenter"",""1"",""3633""
","
","
","""event"",""trial"",""time""
""fullscreenenter"",""1"",""3633""
","
","","1761.8000000715256","","","","real_trial","2021-06-17 22:49:15.903","img/card_backs/set1/yellow.gif","2","-110","1","",""
