"trial_type","trial_index","time_elapsed","internal_node_id","sub_id","risk_good_first","block1_A","block1_B","block1_C","block1_D","block2_A","block2_B","block2_C","block2_D","interactions","blur_events","focus_events","fullscreenenter_events","fullscreenexit_events","success","rt","stimulus","key_press","button_pressed","task_part","timestamp","card_choice","choice_position","points_earned","block","correct","response"
"pavlovia","0","4","0.0-0.0","908","false","img/card_backs/set1/red.gif","img/card_backs/set1/green.gif","img/card_backs/set1/purple.gif","img/card_backs/set1/yellow.gif","img/card_backs/set2/blue.gif","img/card_backs/set2/orange.gif","img/card_backs/set2/gray.gif","img/card_backs/set2/pink.gif","""event"",""trial"",""time""
""fullscreenenter"",""1"",""3243""
","
","
","""event"",""trial"",""time""
""fullscreenenter"",""1"",""3243""
","
","","","","","","","","","","","","",""
"fullscreen","1","4242","0.0-1.0","908","false","img/card_backs/set1/red.gif","img/card_backs/set1/green.gif","img/card_backs/set1/purple.gif","img/card_backs/set1/yellow.gif","img/card_backs/set2/blue.gif","img/card_backs/set2/orange.gif","img/card_backs/set2/gray.gif","img/card_backs/set2/pink.gif","""event"",""trial"",""time""
""fullscreenenter"",""1"",""3243""
","
","
","""event"",""trial"",""time""
""fullscreenenter"",""1"",""3243""
","
","true","","","","","","","","","","","",""
"audio-keyboard-response","2","7010","0.0-2.0","908","false","img/card_backs/set1/red.gif","img/card_backs/set1/green.gif","img/card_backs/set1/purple.gif","img/card_backs/set1/yellow.gif","img/card_backs/set2/blue.gif","img/card_backs/set2/orange.gif","img/card_backs/set2/gray.gif","img/card_backs/set2/pink.gif","""event"",""trial"",""time""
""fullscreenenter"",""1"",""3243""
","
","
","""event"",""trial"",""time""
""fullscreenenter"",""1"",""3243""
","
","","2768","audio/beep_loop.wav","32","","","","","","","","",""
"audio-button-response","3","8974","0.0-3.0","908","false","img/card_backs/set1/red.gif","img/card_backs/set1/green.gif","img/card_backs/set1/purple.gif","img/card_backs/set1/yellow.gif","img/card_backs/set2/blue.gif","img/card_backs/set2/orange.gif","img/card_backs/set2/gray.gif","img/card_backs/set2/pink.gif","""event"",""trial"",""time""
""fullscreenenter"",""1"",""3243""
","
","
","""event"",""trial"",""time""
""fullscreenenter"",""1"",""3243""
","
","","NaN","audio/turtle.mp3","","3","","","","","","","",""
"audio-button-response","4","11705","0.0-4.0","908","false","img/card_backs/set1/red.gif","img/card_backs/set1/green.gif","img/card_backs/set1/purple.gif","img/card_backs/set1/yellow.gif","img/card_backs/set2/blue.gif","img/card_backs/set2/orange.gif","img/card_backs/set2/gray.gif","img/card_backs/set2/pink.gif","""event"",""trial"",""time""
""fullscreenenter"",""1"",""3243""
","
","
","""event"",""trial"",""time""
""fullscreenenter"",""1"",""3243""
","
","","NaN","audio/shark.mp3","","2","","","","","","","",""
"fullscreen","5","15889","0.0-5.0","908","false","img/card_backs/set1/red.gif","img/card_backs/set1/green.gif","img/card_backs/set1/purple.gif","img/card_backs/set1/yellow.gif","img/card_backs/set2/blue.gif","img/card_backs/set2/orange.gif","img/card_backs/set2/gray.gif","img/card_backs/set2/pink.gif","""event"",""trial"",""time""
""fullscreenenter"",""1"",""3243""
","
","
","""event"",""trial"",""time""
""fullscreenenter"",""1"",""3243""
","
","true","","","","","","","","","","","",""
"casino-keyboard-response","6","20036","0.0-6.0-0.0","908","false","img/card_backs/set1/red.gif","img/card_backs/set1/green.gif","img/card_backs/set1/purple.gif","img/card_backs/set1/yellow.gif","img/card_backs/set2/blue.gif","img/card_backs/set2/orange.gif","img/card_backs/set2/gray.gif","img/card_backs/set2/pink.gif","""event"",""trial"",""time""
""fullscreenenter"",""1"",""3243""
","
","
","""event"",""trial"",""time""
""fullscreenenter"",""1"",""3243""
","
","","4140.750000020489","Welcome to the casino!","71","","instructions","2021-06-23 18:58:48.967","","","","","",""
"casino-keyboard-response","7","29978","0.0-6.0-0.1","908","false","img/card_backs/set1/red.gif","img/card_backs/set1/green.gif","img/card_backs/set1/purple.gif","img/card_backs/set1/yellow.gif","img/card_backs/set2/blue.gif","img/card_backs/set2/orange.gif","img/card_backs/set2/gray.gif","img/card_backs/set2/pink.gif","""event"",""trial"",""time""
""fullscreenenter"",""1"",""3243""
","
","
","""event"",""trial"",""time""
""fullscreenenter"",""1"",""3243""
","
","","9939.21500002034","Today you will be playing a game to earn tokens. </br> At the end of the experiment, you will be paid a bonus based on how many tokens you win. ","69","","instructions","2021-06-23 18:58:58.909","","","","","",""
"casino-keyboard-response","8","37844","0.0-6.0-0.2","908","false","img/card_backs/set1/red.gif","img/card_backs/set1/green.gif","img/card_backs/set1/purple.gif","img/card_backs/set1/yellow.gif","img/card_backs/set2/blue.gif","img/card_backs/set2/orange.gif","img/card_backs/set2/gray.gif","img/card_backs/set2/pink.gif","""event"",""trial"",""time""
""fullscreenenter"",""1"",""3243""
","
","
","""event"",""trial"",""time""
""fullscreenenter"",""1"",""3243""
","
","","7864.034999976866","On every turn, you will be shown four different decks of cards. </br> You need to select a card from one of the four decks.  ","75","","instructions","2021-06-23 18:59:06.775","","","","","",""
"casino-keyboard-response","9","42859","0.0-6.0-0.3","908","false","img/card_backs/set1/red.gif","img/card_backs/set1/green.gif","img/card_backs/set1/purple.gif","img/card_backs/set1/yellow.gif","img/card_backs/set2/blue.gif","img/card_backs/set2/orange.gif","img/card_backs/set2/gray.gif","img/card_backs/set2/pink.gif","""event"",""trial"",""time""
""fullscreenenter"",""1"",""3243""
","
","
","""event"",""trial"",""time""
""fullscreenenter"",""1"",""3243""
","
","","5012.499999953434","On the next screen, you will see what the decks will look like. ","66","","instructions","2021-06-23 18:59:11.790","","","","","",""
"card-selection-trial","10","46867","0.0-7.0-0.0","908","false","img/card_backs/set1/red.gif","img/card_backs/set1/green.gif","img/card_backs/set1/purple.gif","img/card_backs/set1/yellow.gif","img/card_backs/set2/blue.gif","img/card_backs/set2/orange.gif","img/card_backs/set2/gray.gif","img/card_backs/set2/pink.gif","""event"",""trial"",""time""
""fullscreenenter"",""1"",""3243""
","
","
","""event"",""trial"",""time""
""fullscreenenter"",""1"",""3243""
","
","","null","","","","practice","2021-06-23 18:59:15.799","null","null","null","0","",""
"casino-keyboard-response","11","54891","0.0-8.0-0.0","908","false","img/card_backs/set1/red.gif","img/card_backs/set1/green.gif","img/card_backs/set1/purple.gif","img/card_backs/set1/yellow.gif","img/card_backs/set2/blue.gif","img/card_backs/set2/orange.gif","img/card_backs/set2/gray.gif","img/card_backs/set2/pink.gif","""event"",""trial"",""time""
""fullscreenenter"",""1"",""3243""
","
","
","""event"",""trial"",""time""
""fullscreenenter"",""1"",""3243""
","
","","8021.04500005953","You should pick a card from a deck using the '2', '4', '6', and '8' keys at the top of the keyboard.","85","","instructions","2021-06-23 18:59:23.822","","","","","",""
"casino-keyboard-response","12","60698","0.0-8.0-0.1","908","false","img/card_backs/set1/red.gif","img/card_backs/set1/green.gif","img/card_backs/set1/purple.gif","img/card_backs/set1/yellow.gif","img/card_backs/set2/blue.gif","img/card_backs/set2/orange.gif","img/card_backs/set2/gray.gif","img/card_backs/set2/pink.gif","""event"",""trial"",""time""
""fullscreenenter"",""1"",""3243""
","
","
","""event"",""trial"",""time""
""fullscreenenter"",""1"",""3243""
","
","","5804.374999948777","Once you select a card, it will turn over and you will see how many tokens you earned.","83","","instructions","2021-06-23 18:59:29.629","","","","","",""
"casino-keyboard-response","13","110045","0.0-8.0-0.2","908","false","img/card_backs/set1/red.gif","img/card_backs/set1/green.gif","img/card_backs/set1/purple.gif","img/card_backs/set1/yellow.gif","img/card_backs/set2/blue.gif","img/card_backs/set2/orange.gif","img/card_backs/set2/gray.gif","img/card_backs/set2/pink.gif","""event"",""trial"",""time""
""fullscreenenter"",""1"",""3243""
","
","
","""event"",""trial"",""time""
""fullscreenenter"",""1"",""3243""
","
","","49345.4999999376","Let's try practicing that! </br> First, try to put your fingers over the '2', '4', '6', and '8' keys. </br>  You can use whatever fingers are most comfortable for you. Try to find a comfortable position now. ","50","","instructions","2021-06-23 19:00:18.976","","","","","",""
"casino-keyboard-response","14","116100","0.0-8.0-0.3","908","false","img/card_backs/set1/red.gif","img/card_backs/set1/green.gif","img/card_backs/set1/purple.gif","img/card_backs/set1/yellow.gif","img/card_backs/set2/blue.gif","img/card_backs/set2/orange.gif","img/card_backs/set2/gray.gif","img/card_backs/set2/pink.gif","""event"",""trial"",""time""
""fullscreenenter"",""1"",""3243""
","
","
","""event"",""trial"",""time""
""fullscreenenter"",""1"",""3243""
","
","","6052.834999980405","Okay ready? </br> On the next screen, press '2' to select the left deck. ","50","","instructions","2021-06-23 19:00:25.031","","","","","",""
"card-selection-trial","15","123601","0.0-9.0-0.0","908","false","img/card_backs/set1/red.gif","img/card_backs/set1/green.gif","img/card_backs/set1/purple.gif","img/card_backs/set1/yellow.gif","img/card_backs/set2/blue.gif","img/card_backs/set2/orange.gif","img/card_backs/set2/gray.gif","img/card_backs/set2/pink.gif","""event"",""trial"",""time""
""fullscreenenter"",""1"",""3243""
","
","
","""event"",""trial"",""time""
""fullscreenenter"",""1"",""3243""
","
","","5486.914999899454","","","","practice_card_selection","2021-06-23 19:00:32.532","img/practice_cards/backs/brown.gif","0","100","","",""
"casino-keyboard-response","16","130257","0.0-10.0-0.0","908","false","img/card_backs/set1/red.gif","img/card_backs/set1/green.gif","img/card_backs/set1/purple.gif","img/card_backs/set1/yellow.gif","img/card_backs/set2/blue.gif","img/card_backs/set2/orange.gif","img/card_backs/set2/gray.gif","img/card_backs/set2/pink.gif","""event"",""trial"",""time""
""fullscreenenter"",""1"",""3243""
","
","
","""event"",""trial"",""time""
""fullscreenenter"",""1"",""3243""
","
","","6653.290000045672","Great! Now on the next screen, try pressing '6' to select the third deck.","54","","instructions","2021-06-23 19:00:39.188","","","","","",""
"card-selection-trial","17","134703","0.0-11.0-0.0","908","false","img/card_backs/set1/red.gif","img/card_backs/set1/green.gif","img/card_backs/set1/purple.gif","img/card_backs/set1/yellow.gif","img/card_backs/set2/blue.gif","img/card_backs/set2/orange.gif","img/card_backs/set2/gray.gif","img/card_backs/set2/pink.gif","""event"",""trial"",""time""
""fullscreenenter"",""1"",""3243""
","
","
","""event"",""trial"",""time""
""fullscreenenter"",""1"",""3243""
","
","","2436.6249999729916","","","","practice_card_selection","2021-06-23 19:00:43.634","img/practice_cards/backs/brown.gif","2","100","","",""
"casino-keyboard-response","18","139907","0.0-12.0-0.0","908","false","img/card_backs/set1/red.gif","img/card_backs/set1/green.gif","img/card_backs/set1/purple.gif","img/card_backs/set1/yellow.gif","img/card_backs/set2/blue.gif","img/card_backs/set2/orange.gif","img/card_backs/set2/gray.gif","img/card_backs/set2/pink.gif","""event"",""trial"",""time""
""fullscreenenter"",""1"",""3243""
","
","
","""event"",""trial"",""time""
""fullscreenenter"",""1"",""3243""
","
","","5202.335000038147","Now on the next screen, try pressing '4' to select the second deck.","52","","instructions","2021-06-23 19:00:48.839","","","","","",""
"card-selection-trial","19","143329","0.0-13.0-0.0","908","false","img/card_backs/set1/red.gif","img/card_backs/set1/green.gif","img/card_backs/set1/purple.gif","img/card_backs/set1/yellow.gif","img/card_backs/set2/blue.gif","img/card_backs/set2/orange.gif","img/card_backs/set2/gray.gif","img/card_backs/set2/pink.gif","""event"",""trial"",""time""
""fullscreenenter"",""1"",""3243""
","
","
","""event"",""trial"",""time""
""fullscreenenter"",""1"",""3243""
","
","","1413.5849999729544","","","","practice_card_selection","2021-06-23 19:00:52.260","img/practice_cards/backs/dark_blue.gif","1","-200","","",""
"casino-keyboard-response","20","148315","0.0-14.0-0.0","908","false","img/card_backs/set1/red.gif","img/card_backs/set1/green.gif","img/card_backs/set1/purple.gif","img/card_backs/set1/yellow.gif","img/card_backs/set2/blue.gif","img/card_backs/set2/orange.gif","img/card_backs/set2/gray.gif","img/card_backs/set2/pink.gif","""event"",""trial"",""time""
""fullscreenenter"",""1"",""3243""
","
","
","""event"",""trial"",""time""
""fullscreenenter"",""1"",""3243""
","
","","4983.160000061616","Finally, try pressing '8' to select the deck all the way on the right.","56","","instructions","2021-06-23 19:00:57.246","","","","","",""
"card-selection-trial","21","151605","0.0-15.0-0.0","908","false","img/card_backs/set1/red.gif","img/card_backs/set1/green.gif","img/card_backs/set1/purple.gif","img/card_backs/set1/yellow.gif","img/card_backs/set2/blue.gif","img/card_backs/set2/orange.gif","img/card_backs/set2/gray.gif","img/card_backs/set2/pink.gif","""event"",""trial"",""time""
""fullscreenenter"",""1"",""3243""
","
","
","""event"",""trial"",""time""
""fullscreenenter"",""1"",""3243""
","
","","1279.8349999357015","","","","practice_card_selection","2021-06-23 19:01:00.536","img/practice_cards/backs/brown.gif","3","100","","",""
"casino-keyboard-response","22","155626","0.0-16.0-0.0","908","false","img/card_backs/set1/red.gif","img/card_backs/set1/green.gif","img/card_backs/set1/purple.gif","img/card_backs/set1/yellow.gif","img/card_backs/set2/blue.gif","img/card_backs/set2/orange.gif","img/card_backs/set2/gray.gif","img/card_backs/set2/pink.gif","""event"",""trial"",""time""
""fullscreenenter"",""1"",""3243""
","
","
","""event"",""trial"",""time""
""fullscreenenter"",""1"",""3243""
","
","","4018.540000077337","Great! It seems like you are getting the hang of this.","80","","instructions","2021-06-23 19:01:04.557","","","","","",""
"casino-keyboard-response","23","163443","0.0-16.0-0.1","908","false","img/card_backs/set1/red.gif","img/card_backs/set1/green.gif","img/card_backs/set1/purple.gif","img/card_backs/set1/yellow.gif","img/card_backs/set2/blue.gif","img/card_backs/set2/orange.gif","img/card_backs/set2/gray.gif","img/card_backs/set2/pink.gif","""event"",""trial"",""time""
""fullscreenenter"",""1"",""3243""
","
","
","""event"",""trial"",""time""
""fullscreenenter"",""1"",""3243""
","
","","7814.750000019558","You may have noticed that some cards will cause you to <b> win </b> tokens while other cards will cause you to <b> lose </b>  tokens.","70","","instructions","2021-06-23 19:01:12.374","","","","","",""
"casino-keyboard-response","24","171890","0.0-16.0-0.2","908","false","img/card_backs/set1/red.gif","img/card_backs/set1/green.gif","img/card_backs/set1/purple.gif","img/card_backs/set1/yellow.gif","img/card_backs/set2/blue.gif","img/card_backs/set2/orange.gif","img/card_backs/set2/gray.gif","img/card_backs/set2/pink.gif","""event"",""trial"",""time""
""fullscreenenter"",""1"",""3243""
","
","
","""event"",""trial"",""time""
""fullscreenenter"",""1"",""3243""
","
","","8444.625000003725","Each deck has a mix of cards that will cause you to win and lose tokens. </br> However, the cards in each colored deck are different.","73","","instructions","2021-06-23 19:01:20.821","","","","","",""
"casino-keyboard-response","25","185313","0.0-16.0-0.3","908","false","img/card_backs/set1/red.gif","img/card_backs/set1/green.gif","img/card_backs/set1/purple.gif","img/card_backs/set1/yellow.gif","img/card_backs/set2/blue.gif","img/card_backs/set2/orange.gif","img/card_backs/set2/gray.gif","img/card_backs/set2/pink.gif","""event"",""trial"",""time""
""fullscreenenter"",""1"",""3243""
","
","
","""event"",""trial"",""time""
""fullscreenenter"",""1"",""3243""
","
","","13420.790000003763","Some colored decks are luckier than others. </br> If you choose the lucky decks, you will earn more tokens than if you choose the unlucky decks.","69","","instructions","2021-06-23 19:01:34.244","","","","","",""
"casino-keyboard-response","26","193577","0.0-16.0-0.4","908","false","img/card_backs/set1/red.gif","img/card_backs/set1/green.gif","img/card_backs/set1/purple.gif","img/card_backs/set1/yellow.gif","img/card_backs/set2/blue.gif","img/card_backs/set2/orange.gif","img/card_backs/set2/gray.gif","img/card_backs/set2/pink.gif","""event"",""trial"",""time""
""fullscreenenter"",""1"",""3243""
","
","
","""event"",""trial"",""time""
""fullscreenenter"",""1"",""3243""
","
","","8261.664999998175","You should try to figure out which decks are lucky. </br> Then, try to choose the lucky decks so you can win the most tokens.","87","","instructions","2021-06-23 19:01:42.508","","","","","",""
"casino-keyboard-response","27","205273","0.0-16.0-0.5","908","false","img/card_backs/set1/red.gif","img/card_backs/set1/green.gif","img/card_backs/set1/purple.gif","img/card_backs/set1/yellow.gif","img/card_backs/set2/blue.gif","img/card_backs/set2/orange.gif","img/card_backs/set2/gray.gif","img/card_backs/set2/pink.gif","""event"",""trial"",""time""
""fullscreenenter"",""1"",""3243""
","
","
","""event"",""trial"",""time""
""fullscreenenter"",""1"",""3243""
","
","","11693.8300000038","To make it trickier, the casino dealer will switch the locations of the decks on every turn. </br> The color of the deck determines how lucky it is. The location does not matter.","88","","instructions","2021-06-23 19:01:54.205","","","","","",""
"casino-keyboard-response","28","215060","0.0-16.0-0.6","908","false","img/card_backs/set1/red.gif","img/card_backs/set1/green.gif","img/card_backs/set1/purple.gif","img/card_backs/set1/yellow.gif","img/card_backs/set2/blue.gif","img/card_backs/set2/orange.gif","img/card_backs/set2/gray.gif","img/card_backs/set2/pink.gif","""event"",""trial"",""time""
""fullscreenenter"",""1"",""3243""
","
","
","""event"",""trial"",""time""
""fullscreenenter"",""1"",""3243""
","
","","9784.454999957234","The mix of cards in each colored deck will stay the same throughout the game. </br> That means that a deck that is lucky early on will stay lucky.","79","","instructions","2021-06-23 19:02:03.991","","","","","",""
"casino-keyboard-response","29","224162","0.0-16.0-0.7","908","false","img/card_backs/set1/red.gif","img/card_backs/set1/green.gif","img/card_backs/set1/purple.gif","img/card_backs/set1/yellow.gif","img/card_backs/set2/blue.gif","img/card_backs/set2/orange.gif","img/card_backs/set2/gray.gif","img/card_backs/set2/pink.gif","""event"",""trial"",""time""
""fullscreenenter"",""1"",""3243""
","
","
","""event"",""trial"",""time""
""fullscreenenter"",""1"",""3243""
","
","","9100.955000030808","Remember though, all the decks have a <b> mix </b> of both <b> good </b> and <b> bad </b> cards so it may take a couple of turns to figure out if a deck is lucky.","69","","instructions","2021-06-23 19:02:13.093","","","","","",""
"casino-keyboard-response","30","232945","0.0-16.0-0.8","908","false","img/card_backs/set1/red.gif","img/card_backs/set1/green.gif","img/card_backs/set1/purple.gif","img/card_backs/set1/yellow.gif","img/card_backs/set2/blue.gif","img/card_backs/set2/orange.gif","img/card_backs/set2/gray.gif","img/card_backs/set2/pink.gif","""event"",""trial"",""time""
""fullscreenenter"",""1"",""3243""
","
","
","""event"",""trial"",""time""
""fullscreenenter"",""1"",""3243""
","
","","8780.290000024252","At the end of the game, you will be paid bonus money based on how many tokens you win. </br> If you win more tokens, you will earn more money!","72","","instructions","2021-06-23 19:02:21.876","","","","","",""
"casino-keyboard-response","31","243825","0.0-16.0-0.9","908","false","img/card_backs/set1/red.gif","img/card_backs/set1/green.gif","img/card_backs/set1/purple.gif","img/card_backs/set1/yellow.gif","img/card_backs/set2/blue.gif","img/card_backs/set2/orange.gif","img/card_backs/set2/gray.gif","img/card_backs/set2/pink.gif","""event"",""trial"",""time""
""fullscreenenter"",""1"",""3243""
","
","
","""event"",""trial"",""time""
""fullscreenenter"",""1"",""3243""
","
","","10877.669999958016","You will never <b> lose </b> money. </br> If you end up with fewer than 0 tokens, you will earn $0 of bonus money, but you will still be paid for playing the game.","83","","instructions","2021-06-23 19:02:32.756","","","","","",""
"casino-keyboard-response","32","248400","0.0-16.0-0.10","908","false","img/card_backs/set1/red.gif","img/card_backs/set1/green.gif","img/card_backs/set1/purple.gif","img/card_backs/set1/yellow.gif","img/card_backs/set2/blue.gif","img/card_backs/set2/orange.gif","img/card_backs/set2/gray.gif","img/card_backs/set2/pink.gif","""event"",""trial"",""time""
""fullscreenenter"",""1"",""3243""
","
","
","""event"",""trial"",""time""
""fullscreenenter"",""1"",""3243""
","
","","4572.915000026114","You will have 10 seconds to make each choice.","82","","instructions","2021-06-23 19:02:37.331","","","","","",""
"casino-keyboard-response","33","257024","0.0-16.0-0.11","908","false","img/card_backs/set1/red.gif","img/card_backs/set1/green.gif","img/card_backs/set1/purple.gif","img/card_backs/set1/yellow.gif","img/card_backs/set2/blue.gif","img/card_backs/set2/orange.gif","img/card_backs/set2/gray.gif","img/card_backs/set2/pink.gif","""event"",""trial"",""time""
""fullscreenenter"",""1"",""3243""
","
","
","""event"",""trial"",""time""
""fullscreenenter"",""1"",""3243""
","
","","8619.544999906793","Before you play the game for real, you will play with practice decks. </br> The tokens you earn during practice won't count toward your total.","86","","instructions","2021-06-23 19:02:45.955","","","","","",""
"casino-keyboard-response","34","264832","0.0-16.0-0.12","908","false","img/card_backs/set1/red.gif","img/card_backs/set1/green.gif","img/card_backs/set1/purple.gif","img/card_backs/set1/yellow.gif","img/card_backs/set2/blue.gif","img/card_backs/set2/orange.gif","img/card_backs/set2/gray.gif","img/card_backs/set2/pink.gif","""event"",""trial"",""time""
""fullscreenenter"",""1"",""3243""
","
","
","""event"",""trial"",""time""
""fullscreenenter"",""1"",""3243""
","
","","7806.084999931045","Ready? Remember, use the '2', '4', '6', and '8' keys to select the decks. </br> Put your fingers on those keys now and then press '2' to begin.","50","","instructions","2021-06-23 19:02:53.763","","","","","",""
"casino-fixation","35","265337","0.0-17.0-0.0","908","false","img/card_backs/set1/red.gif","img/card_backs/set1/green.gif","img/card_backs/set1/purple.gif","img/card_backs/set1/yellow.gif","img/card_backs/set2/blue.gif","img/card_backs/set2/orange.gif","img/card_backs/set2/gray.gif","img/card_backs/set2/pink.gif","""event"",""trial"",""time""
""fullscreenenter"",""1"",""3243""
","
","
","""event"",""trial"",""time""
""fullscreenenter"",""1"",""3243""
","
","","null","","null","","fixation","2021-06-23 19:02:54.268","","","","","",""
"card-selection-trial","36","270278","0.0-17.0-1.0","908","false","img/card_backs/set1/red.gif","img/card_backs/set1/green.gif","img/card_backs/set1/purple.gif","img/card_backs/set1/yellow.gif","img/card_backs/set2/blue.gif","img/card_backs/set2/orange.gif","img/card_backs/set2/gray.gif","img/card_backs/set2/pink.gif","""event"",""trial"",""time""
""fullscreenenter"",""1"",""3243""
","
","
","""event"",""trial"",""time""
""fullscreenenter"",""1"",""3243""
","
","","2928.459999966435","","","","practice","2021-06-23 19:02:59.210","img/practice_cards/backs/black.gif","2","-100","0","",""
"casino-fixation","37","270782","0.0-17.0-0.1","908","false","img/card_backs/set1/red.gif","img/card_backs/set1/green.gif","img/card_backs/set1/purple.gif","img/card_backs/set1/yellow.gif","img/card_backs/set2/blue.gif","img/card_backs/set2/orange.gif","img/card_backs/set2/gray.gif","img/card_backs/set2/pink.gif","""event"",""trial"",""time""
""fullscreenenter"",""1"",""3243""
","
","
","""event"",""trial"",""time""
""fullscreenenter"",""1"",""3243""
","
","","null","","null","","fixation","2021-06-23 19:02:59.713","","","","","",""
"card-selection-trial","38","277169","0.0-17.0-1.1","908","false","img/card_backs/set1/red.gif","img/card_backs/set1/green.gif","img/card_backs/set1/purple.gif","img/card_backs/set1/yellow.gif","img/card_backs/set2/blue.gif","img/card_backs/set2/orange.gif","img/card_backs/set2/gray.gif","img/card_backs/set2/pink.gif","""event"",""trial"",""time""
""fullscreenenter"",""1"",""3243""
","
","
","""event"",""trial"",""time""
""fullscreenenter"",""1"",""3243""
","
","","4378.87499993667","","","","practice","2021-06-23 19:03:06.100","img/practice_cards/backs/dark_green.gif","0","200","0","",""
"casino-fixation","39","277676","0.0-17.0-0.2","908","false","img/card_backs/set1/red.gif","img/card_backs/set1/green.gif","img/card_backs/set1/purple.gif","img/card_backs/set1/yellow.gif","img/card_backs/set2/blue.gif","img/card_backs/set2/orange.gif","img/card_backs/set2/gray.gif","img/card_backs/set2/pink.gif","""event"",""trial"",""time""
""fullscreenenter"",""1"",""3243""
","
","
","""event"",""trial"",""time""
""fullscreenenter"",""1"",""3243""
","
","","null","","null","","fixation","2021-06-23 19:03:06.607","","","","","",""
"card-selection-trial","40","281383","0.0-17.0-1.2","908","false","img/card_backs/set1/red.gif","img/card_backs/set1/green.gif","img/card_backs/set1/purple.gif","img/card_backs/set1/yellow.gif","img/card_backs/set2/blue.gif","img/card_backs/set2/orange.gif","img/card_backs/set2/gray.gif","img/card_backs/set2/pink.gif","""event"",""trial"",""time""
""fullscreenenter"",""1"",""3243""
","
","
","""event"",""trial"",""time""
""fullscreenenter"",""1"",""3243""
","
","","1694.2099999869242","","","","practice","2021-06-23 19:03:10.315","img/practice_cards/backs/dark_green.gif","2","200","0","",""
"casino-fixation","41","281891","0.0-17.0-0.3","908","false","img/card_backs/set1/red.gif","img/card_backs/set1/green.gif","img/card_backs/set1/purple.gif","img/card_backs/set1/yellow.gif","img/card_backs/set2/blue.gif","img/card_backs/set2/orange.gif","img/card_backs/set2/gray.gif","img/card_backs/set2/pink.gif","""event"",""trial"",""time""
""fullscreenenter"",""1"",""3243""
","
","
","""event"",""trial"",""time""
""fullscreenenter"",""1"",""3243""
","
","","null","","null","","fixation","2021-06-23 19:03:10.822","","","","","",""
"card-selection-trial","42","285446","0.0-17.0-1.3","908","false","img/card_backs/set1/red.gif","img/card_backs/set1/green.gif","img/card_backs/set1/purple.gif","img/card_backs/set1/yellow.gif","img/card_backs/set2/blue.gif","img/card_backs/set2/orange.gif","img/card_backs/set2/gray.gif","img/card_backs/set2/pink.gif","""event"",""trial"",""time""
""fullscreenenter"",""1"",""3243""
","
","
","""event"",""trial"",""time""
""fullscreenenter"",""1"",""3243""
","
","","1543.0849998956546","","","","practice","2021-06-23 19:03:14.377","img/practice_cards/backs/dark_green.gif","1","-200","0","",""
"casino-fixation","43","285952","0.0-17.0-0.4","908","false","img/card_backs/set1/red.gif","img/card_backs/set1/green.gif","img/card_backs/set1/purple.gif","img/card_backs/set1/yellow.gif","img/card_backs/set2/blue.gif","img/card_backs/set2/orange.gif","img/card_backs/set2/gray.gif","img/card_backs/set2/pink.gif","""event"",""trial"",""time""
""fullscreenenter"",""1"",""3243""
","
","
","""event"",""trial"",""time""
""fullscreenenter"",""1"",""3243""
","
","","null","","null","","fixation","2021-06-23 19:03:14.883","","","","","",""
"card-selection-trial","44","290130","0.0-17.0-1.4","908","false","img/card_backs/set1/red.gif","img/card_backs/set1/green.gif","img/card_backs/set1/purple.gif","img/card_backs/set1/yellow.gif","img/card_backs/set2/blue.gif","img/card_backs/set2/orange.gif","img/card_backs/set2/gray.gif","img/card_backs/set2/pink.gif","""event"",""trial"",""time""
""fullscreenenter"",""1"",""3243""
","
","
","""event"",""trial"",""time""
""fullscreenenter"",""1"",""3243""
","
","","2168.3300000149757","","","","practice","2021-06-23 19:03:19.062","img/practice_cards/backs/dark_green.gif","3","-200","0","",""
"casino-fixation","45","290636","0.0-17.0-0.5","908","false","img/card_backs/set1/red.gif","img/card_backs/set1/green.gif","img/card_backs/set1/purple.gif","img/card_backs/set1/yellow.gif","img/card_backs/set2/blue.gif","img/card_backs/set2/orange.gif","img/card_backs/set2/gray.gif","img/card_backs/set2/pink.gif","""event"",""trial"",""time""
""fullscreenenter"",""1"",""3243""
","
","
","""event"",""trial"",""time""
""fullscreenenter"",""1"",""3243""
","
","","null","","null","","fixation","2021-06-23 19:03:19.568","","","","","",""
"card-selection-trial","46","295597","0.0-17.0-1.5","908","false","img/card_backs/set1/red.gif","img/card_backs/set1/green.gif","img/card_backs/set1/purple.gif","img/card_backs/set1/yellow.gif","img/card_backs/set2/blue.gif","img/card_backs/set2/orange.gif","img/card_backs/set2/gray.gif","img/card_backs/set2/pink.gif","""event"",""trial"",""time""
""fullscreenenter"",""1"",""3243""
","
","
","""event"",""trial"",""time""
""fullscreenenter"",""1"",""3243""
","
","","2948.2899999711663","","","","practice","2021-06-23 19:03:24.529","img/practice_cards/backs/brown.gif","0","100","0","",""
"casino-fixation","47","296104","0.0-17.0-0.6","908","false","img/card_backs/set1/red.gif","img/card_backs/set1/green.gif","img/card_backs/set1/purple.gif","img/card_backs/set1/yellow.gif","img/card_backs/set2/blue.gif","img/card_backs/set2/orange.gif","img/card_backs/set2/gray.gif","img/card_backs/set2/pink.gif","""event"",""trial"",""time""
""fullscreenenter"",""1"",""3243""
","
","
","""event"",""trial"",""time""
""fullscreenenter"",""1"",""3243""
","
","","null","","null","","fixation","2021-06-23 19:03:25.035","","","","","",""
"card-selection-trial","48","300162","0.0-17.0-1.6","908","false","img/card_backs/set1/red.gif","img/card_backs/set1/green.gif","img/card_backs/set1/purple.gif","img/card_backs/set1/yellow.gif","img/card_backs/set2/blue.gif","img/card_backs/set2/orange.gif","img/card_backs/set2/gray.gif","img/card_backs/set2/pink.gif","""event"",""trial"",""time""
""fullscreenenter"",""1"",""3243""
","
","
","""event"",""trial"",""time""
""fullscreenenter"",""1"",""3243""
","
","","2048.7450000364333","","","","practice","2021-06-23 19:03:29.094","img/practice_cards/backs/brown.gif","3","100","0","",""
"casino-fixation","49","300669","0.0-17.0-0.7","908","false","img/card_backs/set1/red.gif","img/card_backs/set1/green.gif","img/card_backs/set1/purple.gif","img/card_backs/set1/yellow.gif","img/card_backs/set2/blue.gif","img/card_backs/set2/orange.gif","img/card_backs/set2/gray.gif","img/card_backs/set2/pink.gif","""event"",""trial"",""time""
""fullscreenenter"",""1"",""3243""
","
","
","""event"",""trial"",""time""
""fullscreenenter"",""1"",""3243""
","
","","null","","null","","fixation","2021-06-23 19:03:29.600","","","","","",""
"card-selection-trial","50","304723","0.0-17.0-1.7","908","false","img/card_backs/set1/red.gif","img/card_backs/set1/green.gif","img/card_backs/set1/purple.gif","img/card_backs/set1/yellow.gif","img/card_backs/set2/blue.gif","img/card_backs/set2/orange.gif","img/card_backs/set2/gray.gif","img/card_backs/set2/pink.gif","""event"",""trial"",""time""
""fullscreenenter"",""1"",""3243""
","
","
","""event"",""trial"",""time""
""fullscreenenter"",""1"",""3243""
","
","","2043.62500004936","","","","practice","2021-06-23 19:03:33.654","img/practice_cards/backs/brown.gif","1","-100","0","",""
"casino-fixation","51","305229","0.0-17.0-0.8","908","false","img/card_backs/set1/red.gif","img/card_backs/set1/green.gif","img/card_backs/set1/purple.gif","img/card_backs/set1/yellow.gif","img/card_backs/set2/blue.gif","img/card_backs/set2/orange.gif","img/card_backs/set2/gray.gif","img/card_backs/set2/pink.gif","""event"",""trial"",""time""
""fullscreenenter"",""1"",""3243""
","
","
","""event"",""trial"",""time""
""fullscreenenter"",""1"",""3243""
","
","","null","","null","","fixation","2021-06-23 19:03:34.160","","","","","",""
"card-selection-trial","52","308946","0.0-17.0-1.8","908","false","img/card_backs/set1/red.gif","img/card_backs/set1/green.gif","img/card_backs/set1/purple.gif","img/card_backs/set1/yellow.gif","img/card_backs/set2/blue.gif","img/card_backs/set2/orange.gif","img/card_backs/set2/gray.gif","img/card_backs/set2/pink.gif","""event"",""trial"",""time""
""fullscreenenter"",""1"",""3243""
","
","
","""event"",""trial"",""time""
""fullscreenenter"",""1"",""3243""
","
","","1708.585000014864","","","","practice","2021-06-23 19:03:37.878","img/practice_cards/backs/dark_blue.gif","1","200","0","",""
"casino-fixation","53","309453","0.0-17.0-0.9","908","false","img/card_backs/set1/red.gif","img/card_backs/set1/green.gif","img/card_backs/set1/purple.gif","img/card_backs/set1/yellow.gif","img/card_backs/set2/blue.gif","img/card_backs/set2/orange.gif","img/card_backs/set2/gray.gif","img/card_backs/set2/pink.gif","""event"",""trial"",""time""
""fullscreenenter"",""1"",""3243""
","
","
","""event"",""trial"",""time""
""fullscreenenter"",""1"",""3243""
","
","","null","","null","","fixation","2021-06-23 19:03:38.384","","","","","",""
"card-selection-trial","54","312213","0.0-17.0-1.9","908","false","img/card_backs/set1/red.gif","img/card_backs/set1/green.gif","img/card_backs/set1/purple.gif","img/card_backs/set1/yellow.gif","img/card_backs/set2/blue.gif","img/card_backs/set2/orange.gif","img/card_backs/set2/gray.gif","img/card_backs/set2/pink.gif","""event"",""trial"",""time""
""fullscreenenter"",""1"",""3243""
","
","
","""event"",""trial"",""time""
""fullscreenenter"",""1"",""3243""
","
","","747.1600000280887","","","","practice","2021-06-23 19:03:41.144","img/practice_cards/backs/dark_blue.gif","1","-200","0","",""
"casino-keyboard-response","55","317217","0.0-18.0","908","false","img/card_backs/set1/red.gif","img/card_backs/set1/green.gif","img/card_backs/set1/purple.gif","img/card_backs/set1/yellow.gif","img/card_backs/set2/blue.gif","img/card_backs/set2/orange.gif","img/card_backs/set2/gray.gif","img/card_backs/set2/pink.gif","""event"",""trial"",""time""
""fullscreenenter"",""1"",""3243""
","
","
","""event"",""trial"",""time""
""fullscreenenter"",""1"",""3243""
","
","","5001.545000006445","You earned 0 tokens during the practice round!","82","","","2021-06-23 19:03:46.148","","","","","",""
"casino-keyboard-response","56","321936","0.0-19.0-0.0","908","false","img/card_backs/set1/red.gif","img/card_backs/set1/green.gif","img/card_backs/set1/purple.gif","img/card_backs/set1/yellow.gif","img/card_backs/set2/blue.gif","img/card_backs/set2/orange.gif","img/card_backs/set2/gray.gif","img/card_backs/set2/pink.gif","""event"",""trial"",""time""
""fullscreenenter"",""1"",""3243""
","
","
","""event"",""trial"",""time""
""fullscreenenter"",""1"",""3243""
","
","","4716.414999915287","Nice job! You are almost ready to play the real game.","86","","instructions","2021-06-23 19:03:50.867","","","","","",""
"casino-keyboard-response","57","330552","0.0-19.0-0.1","908","false","img/card_backs/set1/red.gif","img/card_backs/set1/green.gif","img/card_backs/set1/purple.gif","img/card_backs/set1/yellow.gif","img/card_backs/set2/blue.gif","img/card_backs/set2/orange.gif","img/card_backs/set2/gray.gif","img/card_backs/set2/pink.gif","""event"",""trial"",""time""
""fullscreenenter"",""1"",""3243""
","
","
","""event"",""trial"",""time""
""fullscreenenter"",""1"",""3243""
","
","","8613.959999987856","You will play two rounds of the real game. In each round, you will pick 100 cards in total.","73","","instructions","2021-06-23 19:03:59.483","","","","","",""
"casino-keyboard-response","58","335400","0.0-19.0-0.2","908","false","img/card_backs/set1/red.gif","img/card_backs/set1/green.gif","img/card_backs/set1/purple.gif","img/card_backs/set1/yellow.gif","img/card_backs/set2/blue.gif","img/card_backs/set2/orange.gif","img/card_backs/set2/gray.gif","img/card_backs/set2/pink.gif","""event"",""trial"",""time""
""fullscreenenter"",""1"",""3243""
","
","
","""event"",""trial"",""time""
""fullscreenenter"",""1"",""3243""
","
","","4845.464999903925","We are now going to ask you some questions about how the game works.","66","","instructions","2021-06-23 19:04:04.331","","","","","",""
"casino-keyboard-response","59","342009","0.0-19.0-0.3","908","false","img/card_backs/set1/red.gif","img/card_backs/set1/green.gif","img/card_backs/set1/purple.gif","img/card_backs/set1/yellow.gif","img/card_backs/set2/blue.gif","img/card_backs/set2/orange.gif","img/card_backs/set2/gray.gif","img/card_backs/set2/pink.gif","""event"",""trial"",""time""
""fullscreenenter"",""1"",""3243""
","
","
","""event"",""trial"",""time""
""fullscreenenter"",""1"",""3243""
","
","","6607.0850000251085","Answer carefully. You will not be able to begin the game until you answer them correctly.","67","","instructions","2021-06-23 19:04:10.940","","","","","",""
"casino-comp_q","60","349232","0.0-20.0-0.0","908","false","img/card_backs/set1/red.gif","img/card_backs/set1/green.gif","img/card_backs/set1/purple.gif","img/card_backs/set1/yellow.gif","img/card_backs/set2/blue.gif","img/card_backs/set2/orange.gif","img/card_backs/set2/gray.gif","img/card_backs/set2/pink.gif","""event"",""trial"",""time""
""fullscreenenter"",""1"",""3243""
","
","
","""event"",""trial"",""time""
""fullscreenenter"",""1"",""3243""
","
","","7219.539999961853","True or False: All the decks have some cards that cause you to win tokens and some cards that cause you to lose tokens.","84","","","2021-06-23 19:04:18.163","","","","","",""
"casino-keyboard-response","61","352872","0.0-20.0-1.0","908","false","img/card_backs/set1/red.gif","img/card_backs/set1/green.gif","img/card_backs/set1/purple.gif","img/card_backs/set1/yellow.gif","img/card_backs/set2/blue.gif","img/card_backs/set2/orange.gif","img/card_backs/set2/gray.gif","img/card_backs/set2/pink.gif","""event"",""trial"",""time""
""fullscreenenter"",""1"",""3243""
","
","
","""event"",""trial"",""time""
""fullscreenenter"",""1"",""3243""
","
","","3637.4599999981","True is correct! All the decks have a mix of winning and losing cards.","77","","","2021-06-23 19:04:21.804","","","","","true",""
"casino-comp_q","62","357807","0.0-21.0-0.0","908","false","img/card_backs/set1/red.gif","img/card_backs/set1/green.gif","img/card_backs/set1/purple.gif","img/card_backs/set1/yellow.gif","img/card_backs/set2/blue.gif","img/card_backs/set2/orange.gif","img/card_backs/set2/gray.gif","img/card_backs/set2/pink.gif","""event"",""trial"",""time""
""fullscreenenter"",""1"",""3243""
","
","
","""event"",""trial"",""time""
""fullscreenenter"",""1"",""3243""
","
","","4931.420000037178","True or False: You will have as much time as you want to make your response.","70","","","2021-06-23 19:04:26.738","","","","","",""
"casino-keyboard-response","63","362938","0.0-21.0-1.0","908","false","img/card_backs/set1/red.gif","img/card_backs/set1/green.gif","img/card_backs/set1/purple.gif","img/card_backs/set1/yellow.gif","img/card_backs/set2/blue.gif","img/card_backs/set2/orange.gif","img/card_backs/set2/gray.gif","img/card_backs/set2/pink.gif","""event"",""trial"",""time""
""fullscreenenter"",""1"",""3243""
","
","
","""event"",""trial"",""time""
""fullscreenenter"",""1"",""3243""
","
","","5127.669999958016","False is correct! You will only have 10 seconds to make each choice.","75","","","2021-06-23 19:04:31.870","","","","","true",""
"casino-comp_q","64","367695","0.0-22.0-0.0","908","false","img/card_backs/set1/red.gif","img/card_backs/set1/green.gif","img/card_backs/set1/purple.gif","img/card_backs/set1/yellow.gif","img/card_backs/set2/blue.gif","img/card_backs/set2/orange.gif","img/card_backs/set2/gray.gif","img/card_backs/set2/pink.gif","""event"",""trial"",""time""
""fullscreenenter"",""1"",""3243""
","
","
","""event"",""trial"",""time""
""fullscreenenter"",""1"",""3243""
","
","","4754.745000042021","True or False: The location of the deck determines how lucky it is.","70","","","2021-06-23 19:04:36.626","","","","","",""
"casino-keyboard-response","65","371031","0.0-22.0-1.0","908","false","img/card_backs/set1/red.gif","img/card_backs/set1/green.gif","img/card_backs/set1/purple.gif","img/card_backs/set1/yellow.gif","img/card_backs/set2/blue.gif","img/card_backs/set2/orange.gif","img/card_backs/set2/gray.gif","img/card_backs/set2/pink.gif","""event"",""trial"",""time""
""fullscreenenter"",""1"",""3243""
","
","
","""event"",""trial"",""time""
""fullscreenenter"",""1"",""3243""
","
","","3333.585000014864","False is correct! The <i>color</i>  of the deck determines how lucky or unlucky it is.","68","","","2021-06-23 19:04:39.962","","","","","true",""
"casino-keyboard-response","66","376544","0.0-23.0-0.0","908","false","img/card_backs/set1/red.gif","img/card_backs/set1/green.gif","img/card_backs/set1/purple.gif","img/card_backs/set1/yellow.gif","img/card_backs/set2/blue.gif","img/card_backs/set2/orange.gif","img/card_backs/set2/gray.gif","img/card_backs/set2/pink.gif","""event"",""trial"",""time""
""fullscreenenter"",""1"",""3243""
","
","
","""event"",""trial"",""time""
""fullscreenenter"",""1"",""3243""
","
","","5510.6650000670925","Great job! Now it's time to start the real game.","82","","instructions","2021-06-23 19:04:45.476","","","","","",""
"casino-keyboard-response","67","382087","0.0-23.0-0.1","908","false","img/card_backs/set1/red.gif","img/card_backs/set1/green.gif","img/card_backs/set1/purple.gif","img/card_backs/set1/yellow.gif","img/card_backs/set2/blue.gif","img/card_backs/set2/orange.gif","img/card_backs/set2/gray.gif","img/card_backs/set2/pink.gif","""event"",""trial"",""time""
""fullscreenenter"",""1"",""3243""
","
","
","""event"",""trial"",""time""
""fullscreenenter"",""1"",""3243""
","
","","5539.834999945015","Before we start, we're going to head into a new room of the casino.","86","","instructions","2021-06-23 19:04:51.018","","","","","",""
"casino-keyboard-response","68","388480","0.0-24.0-0.0","908","false","img/card_backs/set1/red.gif","img/card_backs/set1/green.gif","img/card_backs/set1/purple.gif","img/card_backs/set1/yellow.gif","img/card_backs/set2/blue.gif","img/card_backs/set2/orange.gif","img/card_backs/set2/gray.gif","img/card_backs/set2/pink.gif","""event"",""trial"",""time""
""fullscreenenter"",""1"",""3243""
","
","
","""event"",""trial"",""time""
""fullscreenenter"",""1"",""3243""
","
","","6390.959999989718","Here we are! The real game will use different cards, but the rules will be the same.","71","","instructions","2021-06-23 19:04:57.412","","","","","",""
"casino-keyboard-response","69","399400","0.0-24.0-0.1","908","false","img/card_backs/set1/red.gif","img/card_backs/set1/green.gif","img/card_backs/set1/purple.gif","img/card_backs/set1/yellow.gif","img/card_backs/set2/blue.gif","img/card_backs/set2/orange.gif","img/card_backs/set2/gray.gif","img/card_backs/set2/pink.gif","""event"",""trial"",""time""
""fullscreenenter"",""1"",""3243""
","
","
","""event"",""trial"",""time""
""fullscreenenter"",""1"",""3243""
","
","","10917.54499997478","Ready? Put your fingers over the '2', '4', 6', and '8' keys so you are ready to play the game. </br> Then press 2 to start.","50","","instructions","2021-06-23 19:05:08.331","","","","","",""
"casino-fixation","70","399903","0.0-25.0-0.0","908","false","img/card_backs/set1/red.gif","img/card_backs/set1/green.gif","img/card_backs/set1/purple.gif","img/card_backs/set1/yellow.gif","img/card_backs/set2/blue.gif","img/card_backs/set2/orange.gif","img/card_backs/set2/gray.gif","img/card_backs/set2/pink.gif","""event"",""trial"",""time""
""fullscreenenter"",""1"",""3243""
","
","
","""event"",""trial"",""time""
""fullscreenenter"",""1"",""3243""
","
","","null","","null","","fixation","2021-06-23 19:05:08.834","","","","","",""
"card-selection-trial","71","404061","0.0-25.0-1.0","908","false","img/card_backs/set1/red.gif","img/card_backs/set1/green.gif","img/card_backs/set1/purple.gif","img/card_backs/set1/yellow.gif","img/card_backs/set2/blue.gif","img/card_backs/set2/orange.gif","img/card_backs/set2/gray.gif","img/card_backs/set2/pink.gif","""event"",""trial"",""time""
""fullscreenenter"",""1"",""3243""
","
","
","""event"",""trial"",""time""
""fullscreenenter"",""1"",""3243""
","
","","2145.3350000083447","","","","real_trial","2021-06-23 19:05:12.992","img/card_backs/set1/green.gif","0","200","1","",""
"casino-fixation","72","404568","0.0-25.0-0.1","908","false","img/card_backs/set1/red.gif","img/card_backs/set1/green.gif","img/card_backs/set1/purple.gif","img/card_backs/set1/yellow.gif","img/card_backs/set2/blue.gif","img/card_backs/set2/orange.gif","img/card_backs/set2/gray.gif","img/card_backs/set2/pink.gif","""event"",""trial"",""time""
""fullscreenenter"",""1"",""3243""
","
","
","""event"",""trial"",""time""
""fullscreenenter"",""1"",""3243""
","
","","null","","null","","fixation","2021-06-23 19:05:13.500","","","","","",""
"card-selection-trial","73","407416","0.0-25.0-1.1","908","false","img/card_backs/set1/red.gif","img/card_backs/set1/green.gif","img/card_backs/set1/purple.gif","img/card_backs/set1/yellow.gif","img/card_backs/set2/blue.gif","img/card_backs/set2/orange.gif","img/card_backs/set2/gray.gif","img/card_backs/set2/pink.gif","""event"",""trial"",""time""
""fullscreenenter"",""1"",""3243""
","
","
","""event"",""trial"",""time""
""fullscreenenter"",""1"",""3243""
","
","","839.7950000362471","","","","real_trial","2021-06-23 19:05:16.348","img/card_backs/set1/green.gif","0","-240","1","",""
"casino-fixation","74","407923","0.0-25.0-0.2","908","false","img/card_backs/set1/red.gif","img/card_backs/set1/green.gif","img/card_backs/set1/purple.gif","img/card_backs/set1/yellow.gif","img/card_backs/set2/blue.gif","img/card_backs/set2/orange.gif","img/card_backs/set2/gray.gif","img/card_backs/set2/pink.gif","""event"",""trial"",""time""
""fullscreenenter"",""1"",""3243""
","
","
","""event"",""trial"",""time""
""fullscreenenter"",""1"",""3243""
","
","","null","","null","","fixation","2021-06-23 19:05:16.854","","","","","",""
"card-selection-trial","75","411393","0.0-25.0-1.2","908","false","img/card_backs/set1/red.gif","img/card_backs/set1/green.gif","img/card_backs/set1/purple.gif","img/card_backs/set1/yellow.gif","img/card_backs/set2/blue.gif","img/card_backs/set2/orange.gif","img/card_backs/set2/gray.gif","img/card_backs/set2/pink.gif","""event"",""trial"",""time""
""fullscreenenter"",""1"",""3243""
","
","
","""event"",""trial"",""time""
""fullscreenenter"",""1"",""3243""
","
","","1460.9550000168383","","","","real_trial","2021-06-23 19:05:20.325","img/card_backs/set1/green.gif","0","190","1","",""
"casino-fixation","76","411896","0.0-25.0-0.3","908","false","img/card_backs/set1/red.gif","img/card_backs/set1/green.gif","img/card_backs/set1/purple.gif","img/card_backs/set1/yellow.gif","img/card_backs/set2/blue.gif","img/card_backs/set2/orange.gif","img/card_backs/set2/gray.gif","img/card_backs/set2/pink.gif","""event"",""trial"",""time""
""fullscreenenter"",""1"",""3243""
","
","
","""event"",""trial"",""time""
""fullscreenenter"",""1"",""3243""
","
","","null","","null","","fixation","2021-06-23 19:05:20.828","","","","","",""
"card-selection-trial","77","415750","0.0-25.0-1.3","908","false","img/card_backs/set1/red.gif","img/card_backs/set1/green.gif","img/card_backs/set1/purple.gif","img/card_backs/set1/yellow.gif","img/card_backs/set2/blue.gif","img/card_backs/set2/orange.gif","img/card_backs/set2/gray.gif","img/card_backs/set2/pink.gif","""event"",""trial"",""time""
""fullscreenenter"",""1"",""3243""
","
","
","""event"",""trial"",""time""
""fullscreenenter"",""1"",""3243""
","
","","1842.3750000074506","","","","real_trial","2021-06-23 19:05:24.681","img/card_backs/set1/green.gif","2","180","1","",""
"casino-fixation","78","416258","0.0-25.0-0.4","908","false","img/card_backs/set1/red.gif","img/card_backs/set1/green.gif","img/card_backs/set1/purple.gif","img/card_backs/set1/yellow.gif","img/card_backs/set2/blue.gif","img/card_backs/set2/orange.gif","img/card_backs/set2/gray.gif","img/card_backs/set2/pink.gif","""event"",""trial"",""time""
""fullscreenenter"",""1"",""3243""
","
","
","""event"",""trial"",""time""
""fullscreenenter"",""1"",""3243""
","
","","null","","null","","fixation","2021-06-23 19:05:25.189","","","","","",""
"card-selection-trial","79","419504","0.0-25.0-1.4","908","false","img/card_backs/set1/red.gif","img/card_backs/set1/green.gif","img/card_backs/set1/purple.gif","img/card_backs/set1/yellow.gif","img/card_backs/set2/blue.gif","img/card_backs/set2/orange.gif","img/card_backs/set2/gray.gif","img/card_backs/set2/pink.gif","""event"",""trial"",""time""
""fullscreenenter"",""1"",""3243""
","
","
","""event"",""trial"",""time""
""fullscreenenter"",""1"",""3243""
","
","","1236.8349999887869","","","","real_trial","2021-06-23 19:05:28.436","img/card_backs/set1/green.gif","3","-240","1","",""
"casino-fixation","80","420008","0.0-25.0-0.5","908","false","img/card_backs/set1/red.gif","img/card_backs/set1/green.gif","img/card_backs/set1/purple.gif","img/card_backs/set1/yellow.gif","img/card_backs/set2/blue.gif","img/card_backs/set2/orange.gif","img/card_backs/set2/gray.gif","img/card_backs/set2/pink.gif","""event"",""trial"",""time""
""fullscreenenter"",""1"",""3243""
","
","
","""event"",""trial"",""time""
""fullscreenenter"",""1"",""3243""
","
","","null","","null","","fixation","2021-06-23 19:05:28.939","","","","","",""
"card-selection-trial","81","423661","0.0-25.0-1.5","908","false","img/card_backs/set1/red.gif","img/card_backs/set1/green.gif","img/card_backs/set1/purple.gif","img/card_backs/set1/yellow.gif","img/card_backs/set2/blue.gif","img/card_backs/set2/orange.gif","img/card_backs/set2/gray.gif","img/card_backs/set2/pink.gif","""event"",""trial"",""time""
""fullscreenenter"",""1"",""3243""
","
","
","""event"",""trial"",""time""
""fullscreenenter"",""1"",""3243""
","
","","1638.5800000280142","","","","real_trial","2021-06-23 19:05:32.592","img/card_backs/set1/green.gif","3","190","1","",""
"casino-fixation","82","424164","0.0-25.0-0.6","908","false","img/card_backs/set1/red.gif","img/card_backs/set1/green.gif","img/card_backs/set1/purple.gif","img/card_backs/set1/yellow.gif","img/card_backs/set2/blue.gif","img/card_backs/set2/orange.gif","img/card_backs/set2/gray.gif","img/card_backs/set2/pink.gif","""event"",""trial"",""time""
""fullscreenenter"",""1"",""3243""
","
","
","""event"",""trial"",""time""
""fullscreenenter"",""1"",""3243""
","
","","null","","null","","fixation","2021-06-23 19:05:33.096","","","","","",""
"card-selection-trial","83","426733","0.0-25.0-1.6","908","false","img/card_backs/set1/red.gif","img/card_backs/set1/green.gif","img/card_backs/set1/purple.gif","img/card_backs/set1/yellow.gif","img/card_backs/set2/blue.gif","img/card_backs/set2/orange.gif","img/card_backs/set2/gray.gif","img/card_backs/set2/pink.gif","""event"",""trial"",""time""
""fullscreenenter"",""1"",""3243""
","
","
","""event"",""trial"",""time""
""fullscreenenter"",""1"",""3243""
","
","","556.3749999273568","","","","real_trial","2021-06-23 19:05:35.664","img/card_backs/set1/green.gif","3","-240","1","",""
"casino-fixation","84","427236","0.0-25.0-0.7","908","false","img/card_backs/set1/red.gif","img/card_backs/set1/green.gif","img/card_backs/set1/purple.gif","img/card_backs/set1/yellow.gif","img/card_backs/set2/blue.gif","img/card_backs/set2/orange.gif","img/card_backs/set2/gray.gif","img/card_backs/set2/pink.gif","""event"",""trial"",""time""
""fullscreenenter"",""1"",""3243""
","
","
","""event"",""trial"",""time""
""fullscreenenter"",""1"",""3243""
","
","","null","","null","","fixation","2021-06-23 19:05:36.167","","","","","",""
"card-selection-trial","85","430588","0.0-25.0-1.7","908","false","img/card_backs/set1/red.gif","img/card_backs/set1/green.gif","img/card_backs/set1/purple.gif","img/card_backs/set1/yellow.gif","img/card_backs/set2/blue.gif","img/card_backs/set2/orange.gif","img/card_backs/set2/gray.gif","img/card_backs/set2/pink.gif","""event"",""trial"",""time""
""fullscreenenter"",""1"",""3243""
","
","
","""event"",""trial"",""time""
""fullscreenenter"",""1"",""3243""
","
","","1339.585000067018","","","","real_trial","2021-06-23 19:05:39.520","img/card_backs/set1/red.gif","2","-240","1","",""
"casino-fixation","86","431095","0.0-25.0-0.8","908","false","img/card_backs/set1/red.gif","img/card_backs/set1/green.gif","img/card_backs/set1/purple.gif","img/card_backs/set1/yellow.gif","img/card_backs/set2/blue.gif","img/card_backs/set2/orange.gif","img/card_backs/set2/gray.gif","img/card_backs/set2/pink.gif","""event"",""trial"",""time""
""fullscreenenter"",""1"",""3243""
","
","
","""event"",""trial"",""time""
""fullscreenenter"",""1"",""3243""
","
","","null","","null","","fixation","2021-06-23 19:05:40.026","","","","","",""
"card-selection-trial","87","434226","0.0-25.0-1.8","908","false","img/card_backs/set1/red.gif","img/card_backs/set1/green.gif","img/card_backs/set1/purple.gif","img/card_backs/set1/yellow.gif","img/card_backs/set2/blue.gif","img/card_backs/set2/orange.gif","img/card_backs/set2/gray.gif","img/card_backs/set2/pink.gif","""event"",""trial"",""time""
""fullscreenenter"",""1"",""3243""
","
","
","""event"",""trial"",""time""
""fullscreenenter"",""1"",""3243""
","
","","1121.0000000428408","","","","real_trial","2021-06-23 19:05:43.157","img/card_backs/set1/yellow.gif","2","100","1","",""
"casino-fixation","88","434732","0.0-25.0-0.9","908","false","img/card_backs/set1/red.gif","img/card_backs/set1/green.gif","img/card_backs/set1/purple.gif","img/card_backs/set1/yellow.gif","img/card_backs/set2/blue.gif","img/card_backs/set2/orange.gif","img/card_backs/set2/gray.gif","img/card_backs/set2/pink.gif","""event"",""trial"",""time""
""fullscreenenter"",""1"",""3243""
","
","
","""event"",""trial"",""time""
""fullscreenenter"",""1"",""3243""
","
","","null","","null","","fixation","2021-06-23 19:05:43.663","","","","","",""
"card-selection-trial","89","438124","0.0-25.0-1.9","908","false","img/card_backs/set1/red.gif","img/card_backs/set1/green.gif","img/card_backs/set1/purple.gif","img/card_backs/set1/yellow.gif","img/card_backs/set2/blue.gif","img/card_backs/set2/orange.gif","img/card_backs/set2/gray.gif","img/card_backs/set2/pink.gif","""event"",""trial"",""time""
""fullscreenenter"",""1"",""3243""
","
","
","""event"",""trial"",""time""
""fullscreenenter"",""1"",""3243""
","
","","1380.6249999906868","","","","real_trial","2021-06-23 19:05:47.055","img/card_backs/set1/yellow.gif","3","-70","1","",""
"casino-fixation","90","438632","0.0-25.0-0.10","908","false","img/card_backs/set1/red.gif","img/card_backs/set1/green.gif","img/card_backs/set1/purple.gif","img/card_backs/set1/yellow.gif","img/card_backs/set2/blue.gif","img/card_backs/set2/orange.gif","img/card_backs/set2/gray.gif","img/card_backs/set2/pink.gif","""event"",""trial"",""time""
""fullscreenenter"",""1"",""3243""
","
","
","""event"",""trial"",""time""
""fullscreenenter"",""1"",""3243""
","
","","null","","null","","fixation","2021-06-23 19:05:47.563","","","","","",""
"card-selection-trial","91","442395","0.0-25.0-1.10","908","false","img/card_backs/set1/red.gif","img/card_backs/set1/green.gif","img/card_backs/set1/purple.gif","img/card_backs/set1/yellow.gif","img/card_backs/set2/blue.gif","img/card_backs/set2/orange.gif","img/card_backs/set2/gray.gif","img/card_backs/set2/pink.gif","""event"",""trial"",""time""
""fullscreenenter"",""1"",""3243""
","
","
","""event"",""trial"",""time""
""fullscreenenter"",""1"",""3243""
","
","","1751.454999903217","","","","real_trial","2021-06-23 19:05:51.326","img/card_backs/set1/yellow.gif","0","110","1","",""
"casino-fixation","92","442902","0.0-25.0-0.11","908","false","img/card_backs/set1/red.gif","img/card_backs/set1/green.gif","img/card_backs/set1/purple.gif","img/card_backs/set1/yellow.gif","img/card_backs/set2/blue.gif","img/card_backs/set2/orange.gif","img/card_backs/set2/gray.gif","img/card_backs/set2/pink.gif","""event"",""trial"",""time""
""fullscreenenter"",""1"",""3243""
","
","
","""event"",""trial"",""time""
""fullscreenenter"",""1"",""3243""
","
","","null","","null","","fixation","2021-06-23 19:05:51.834","","","","","",""
"card-selection-trial","93","447351","0.0-25.0-1.11","908","false","img/card_backs/set1/red.gif","img/card_backs/set1/green.gif","img/card_backs/set1/purple.gif","img/card_backs/set1/yellow.gif","img/card_backs/set2/blue.gif","img/card_backs/set2/orange.gif","img/card_backs/set2/gray.gif","img/card_backs/set2/pink.gif","""event"",""trial"",""time""
""fullscreenenter"",""1"",""3243""
","
","
","""event"",""trial"",""time""
""fullscreenenter"",""1"",""3243""
","
","","2439.959999988787","","","","real_trial","2021-06-23 19:05:56.282","img/card_backs/set1/yellow.gif","3","-50","1","",""
"casino-fixation","94","447854","0.0-25.0-0.12","908","false","img/card_backs/set1/red.gif","img/card_backs/set1/green.gif","img/card_backs/set1/purple.gif","img/card_backs/set1/yellow.gif","img/card_backs/set2/blue.gif","img/card_backs/set2/orange.gif","img/card_backs/set2/gray.gif","img/card_backs/set2/pink.gif","""event"",""trial"",""time""
""fullscreenenter"",""1"",""3243""
","
","
","""event"",""trial"",""time""
""fullscreenenter"",""1"",""3243""
","
","","null","","null","","fixation","2021-06-23 19:05:56.785","","","","","",""
"card-selection-trial","95","451553","0.0-25.0-1.12","908","false","img/card_backs/set1/red.gif","img/card_backs/set1/green.gif","img/card_backs/set1/purple.gif","img/card_backs/set1/yellow.gif","img/card_backs/set2/blue.gif","img/card_backs/set2/orange.gif","img/card_backs/set2/gray.gif","img/card_backs/set2/pink.gif","""event"",""trial"",""time""
""fullscreenenter"",""1"",""3243""
","
","
","""event"",""trial"",""time""
""fullscreenenter"",""1"",""3243""
","
","","1694.954999955371","","","","real_trial","2021-06-23 19:06:00.485","img/card_backs/set1/yellow.gif","3","-50","1","",""
"casino-fixation","96","452060","0.0-25.0-0.13","908","false","img/card_backs/set1/red.gif","img/card_backs/set1/green.gif","img/card_backs/set1/purple.gif","img/card_backs/set1/yellow.gif","img/card_backs/set2/blue.gif","img/card_backs/set2/orange.gif","img/card_backs/set2/gray.gif","img/card_backs/set2/pink.gif","""event"",""trial"",""time""
""fullscreenenter"",""1"",""3243""
","
","
","""event"",""trial"",""time""
""fullscreenenter"",""1"",""3243""
","
","","null","","null","","fixation","2021-06-23 19:06:00.991","","","","","",""
"card-selection-trial","97","456289","0.0-25.0-1.13","908","false","img/card_backs/set1/red.gif","img/card_backs/set1/green.gif","img/card_backs/set1/purple.gif","img/card_backs/set1/yellow.gif","img/card_backs/set2/blue.gif","img/card_backs/set2/orange.gif","img/card_backs/set2/gray.gif","img/card_backs/set2/pink.gif","""event"",""trial"",""time""
""fullscreenenter"",""1"",""3243""
","
","
","""event"",""trial"",""time""
""fullscreenenter"",""1"",""3243""
","
","","2220.0000000884756","","","","real_trial","2021-06-23 19:06:05.221","img/card_backs/set1/red.gif","2","200","1","",""
"casino-fixation","98","456796","0.0-25.0-0.14","908","false","img/card_backs/set1/red.gif","img/card_backs/set1/green.gif","img/card_backs/set1/purple.gif","img/card_backs/set1/yellow.gif","img/card_backs/set2/blue.gif","img/card_backs/set2/orange.gif","img/card_backs/set2/gray.gif","img/card_backs/set2/pink.gif","""event"",""trial"",""time""
""fullscreenenter"",""1"",""3243""
","
","
","""event"",""trial"",""time""
""fullscreenenter"",""1"",""3243""
","
","","null","","null","","fixation","2021-06-23 19:06:05.727","","","","","",""
"card-selection-trial","99","462529","0.0-25.0-1.14","908","false","img/card_backs/set1/red.gif","img/card_backs/set1/green.gif","img/card_backs/set1/purple.gif","img/card_backs/set1/yellow.gif","img/card_backs/set2/blue.gif","img/card_backs/set2/orange.gif","img/card_backs/set2/gray.gif","img/card_backs/set2/pink.gif","""event"",""trial"",""time""
""fullscreenenter"",""1"",""3243""
","
","
","""event"",""trial"",""time""
""fullscreenenter"",""1"",""3243""
","
","","3725.129999918863","","","","real_trial","2021-06-23 19:06:11.460","img/card_backs/set1/red.gif","1","180","1","",""
"casino-fixation","100","463036","0.0-25.0-0.15","908","false","img/card_backs/set1/red.gif","img/card_backs/set1/green.gif","img/card_backs/set1/purple.gif","img/card_backs/set1/yellow.gif","img/card_backs/set2/blue.gif","img/card_backs/set2/orange.gif","img/card_backs/set2/gray.gif","img/card_backs/set2/pink.gif","""event"",""trial"",""time""
""fullscreenenter"",""1"",""3243""
","
","
","""event"",""trial"",""time""
""fullscreenenter"",""1"",""3243""
","
","","null","","null","","fixation","2021-06-23 19:06:11.967","","","","","",""
"card-selection-trial","101","466433","0.0-25.0-1.15","908","false","img/card_backs/set1/red.gif","img/card_backs/set1/green.gif","img/card_backs/set1/purple.gif","img/card_backs/set1/yellow.gif","img/card_backs/set2/blue.gif","img/card_backs/set2/orange.gif","img/card_backs/set2/gray.gif","img/card_backs/set2/pink.gif","""event"",""trial"",""time""
""fullscreenenter"",""1"",""3243""
","
","
","""event"",""trial"",""time""
""fullscreenenter"",""1"",""3243""
","
","","1387.0799998985603","","","","real_trial","2021-06-23 19:06:15.364","img/card_backs/set1/red.gif","0","190","1","",""
"casino-fixation","102","466939","0.0-25.0-0.16","908","false","img/card_backs/set1/red.gif","img/card_backs/set1/green.gif","img/card_backs/set1/purple.gif","img/card_backs/set1/yellow.gif","img/card_backs/set2/blue.gif","img/card_backs/set2/orange.gif","img/card_backs/set2/gray.gif","img/card_backs/set2/pink.gif","""event"",""trial"",""time""
""fullscreenenter"",""1"",""3243""
","
","
","""event"",""trial"",""time""
""fullscreenenter"",""1"",""3243""
","
","","null","","null","","fixation","2021-06-23 19:06:15.871","","","","","",""
"card-selection-trial","103","470383","0.0-25.0-1.16","908","false","img/card_backs/set1/red.gif","img/card_backs/set1/green.gif","img/card_backs/set1/purple.gif","img/card_backs/set1/yellow.gif","img/card_backs/set2/blue.gif","img/card_backs/set2/orange.gif","img/card_backs/set2/gray.gif","img/card_backs/set2/pink.gif","""event"",""trial"",""time""
""fullscreenenter"",""1"",""3243""
","
","
","""event"",""trial"",""time""
""fullscreenenter"",""1"",""3243""
","
","","1434.6699999878183","","","","real_trial","2021-06-23 19:06:19.315","img/card_backs/set1/red.gif","3","-240","1","",""
"casino-fixation","104","470886","0.0-25.0-0.17","908","false","img/card_backs/set1/red.gif","img/card_backs/set1/green.gif","img/card_backs/set1/purple.gif","img/card_backs/set1/yellow.gif","img/card_backs/set2/blue.gif","img/card_backs/set2/orange.gif","img/card_backs/set2/gray.gif","img/card_backs/set2/pink.gif","""event"",""trial"",""time""
""fullscreenenter"",""1"",""3243""
","
","
","""event"",""trial"",""time""
""fullscreenenter"",""1"",""3243""
","
","","null","","null","","fixation","2021-06-23 19:06:19.817","","","","","",""
"card-selection-trial","105","474321","0.0-25.0-1.17","908","false","img/card_backs/set1/red.gif","img/card_backs/set1/green.gif","img/card_backs/set1/purple.gif","img/card_backs/set1/yellow.gif","img/card_backs/set2/blue.gif","img/card_backs/set2/orange.gif","img/card_backs/set2/gray.gif","img/card_backs/set2/pink.gif","""event"",""trial"",""time""
""fullscreenenter"",""1"",""3243""
","
","
","""event"",""trial"",""time""
""fullscreenenter"",""1"",""3243""
","
","","1424.6249999850988","","","","real_trial","2021-06-23 19:06:23.252","img/card_backs/set1/red.gif","0","-230","1","",""
"casino-fixation","106","474827","0.0-25.0-0.18","908","false","img/card_backs/set1/red.gif","img/card_backs/set1/green.gif","img/card_backs/set1/purple.gif","img/card_backs/set1/yellow.gif","img/card_backs/set2/blue.gif","img/card_backs/set2/orange.gif","img/card_backs/set2/gray.gif","img/card_backs/set2/pink.gif","""event"",""trial"",""time""
""fullscreenenter"",""1"",""3243""
","
","
","""event"",""trial"",""time""
""fullscreenenter"",""1"",""3243""
","
","","null","","null","","fixation","2021-06-23 19:06:23.759","","","","","",""
"card-selection-trial","107","478605","0.0-25.0-1.18","908","false","img/card_backs/set1/red.gif","img/card_backs/set1/green.gif","img/card_backs/set1/purple.gif","img/card_backs/set1/yellow.gif","img/card_backs/set2/blue.gif","img/card_backs/set2/orange.gif","img/card_backs/set2/gray.gif","img/card_backs/set2/pink.gif","""event"",""trial"",""time""
""fullscreenenter"",""1"",""3243""
","
","
","""event"",""trial"",""time""
""fullscreenenter"",""1"",""3243""
","
","","1767.1649999683723","","","","real_trial","2021-06-23 19:06:27.536","img/card_backs/set1/red.gif","3","180","1","",""
"casino-fixation","108","479110","0.0-25.0-0.19","908","false","img/card_backs/set1/red.gif","img/card_backs/set1/green.gif","img/card_backs/set1/purple.gif","img/card_backs/set1/yellow.gif","img/card_backs/set2/blue.gif","img/card_backs/set2/orange.gif","img/card_backs/set2/gray.gif","img/card_backs/set2/pink.gif","""event"",""trial"",""time""
""fullscreenenter"",""1"",""3243""
","
","
","""event"",""trial"",""time""
""fullscreenenter"",""1"",""3243""
","
","","null","","null","","fixation","2021-06-23 19:06:28.041","","","","","",""
"card-selection-trial","109","482679","0.0-25.0-1.19","908","false","img/card_backs/set1/red.gif","img/card_backs/set1/green.gif","img/card_backs/set1/purple.gif","img/card_backs/set1/yellow.gif","img/card_backs/set2/blue.gif","img/card_backs/set2/orange.gif","img/card_backs/set2/gray.gif","img/card_backs/set2/pink.gif","""event"",""trial"",""time""
""fullscreenenter"",""1"",""3243""
","
","
","""event"",""trial"",""time""
""fullscreenenter"",""1"",""3243""
","
","","1559.789999970235","","","","real_trial","2021-06-23 19:06:31.610","img/card_backs/set1/red.gif","2","-240","1","",""
"casino-fixation","110","483185","0.0-25.0-0.20","908","false","img/card_backs/set1/red.gif","img/card_backs/set1/green.gif","img/card_backs/set1/purple.gif","img/card_backs/set1/yellow.gif","img/card_backs/set2/blue.gif","img/card_backs/set2/orange.gif","img/card_backs/set2/gray.gif","img/card_backs/set2/pink.gif","""event"",""trial"",""time""
""fullscreenenter"",""1"",""3243""
","
","
","""event"",""trial"",""time""
""fullscreenenter"",""1"",""3243""
","
","","null","","null","","fixation","2021-06-23 19:06:32.117","","","","","",""
"card-selection-trial","111","486908","0.0-25.0-1.20","908","false","img/card_backs/set1/red.gif","img/card_backs/set1/green.gif","img/card_backs/set1/purple.gif","img/card_backs/set1/yellow.gif","img/card_backs/set2/blue.gif","img/card_backs/set2/orange.gif","img/card_backs/set2/gray.gif","img/card_backs/set2/pink.gif","""event"",""trial"",""time""
""fullscreenenter"",""1"",""3243""
","
","
","""event"",""trial"",""time""
""fullscreenenter"",""1"",""3243""
","
","","1710.9199999831617","","","","real_trial","2021-06-23 19:06:35.839","img/card_backs/set1/green.gif","1","200","1","",""
"casino-fixation","112","487414","0.0-25.0-0.21","908","false","img/card_backs/set1/red.gif","img/card_backs/set1/green.gif","img/card_backs/set1/purple.gif","img/card_backs/set1/yellow.gif","img/card_backs/set2/blue.gif","img/card_backs/set2/orange.gif","img/card_backs/set2/gray.gif","img/card_backs/set2/pink.gif","""event"",""trial"",""time""
""fullscreenenter"",""1"",""3243""
","
","
","""event"",""trial"",""time""
""fullscreenenter"",""1"",""3243""
","
","","null","","null","","fixation","2021-06-23 19:06:36.345","","","","","",""
"card-selection-trial","113","490673","0.0-25.0-1.21","908","false","img/card_backs/set1/red.gif","img/card_backs/set1/green.gif","img/card_backs/set1/purple.gif","img/card_backs/set1/yellow.gif","img/card_backs/set2/blue.gif","img/card_backs/set2/orange.gif","img/card_backs/set2/gray.gif","img/card_backs/set2/pink.gif","""event"",""trial"",""time""
""fullscreenenter"",""1"",""3243""
","
","
","""event"",""trial"",""time""
""fullscreenenter"",""1"",""3243""
","
","","1249.7499999590218","","","","real_trial","2021-06-23 19:06:39.604","img/card_backs/set1/green.gif","2","-240","1","",""
"casino-fixation","114","491179","0.0-25.0-0.22","908","false","img/card_backs/set1/red.gif","img/card_backs/set1/green.gif","img/card_backs/set1/purple.gif","img/card_backs/set1/yellow.gif","img/card_backs/set2/blue.gif","img/card_backs/set2/orange.gif","img/card_backs/set2/gray.gif","img/card_backs/set2/pink.gif","""event"",""trial"",""time""
""fullscreenenter"",""1"",""3243""
","
","
","""event"",""trial"",""time""
""fullscreenenter"",""1"",""3243""
","
","","null","","null","","fixation","2021-06-23 19:06:40.110","","","","","",""
"card-selection-trial","115","494639","0.0-25.0-1.22","908","false","img/card_backs/set1/red.gif","img/card_backs/set1/green.gif","img/card_backs/set1/purple.gif","img/card_backs/set1/yellow.gif","img/card_backs/set2/blue.gif","img/card_backs/set2/orange.gif","img/card_backs/set2/gray.gif","img/card_backs/set2/pink.gif","""event"",""trial"",""time""
""fullscreenenter"",""1"",""3243""
","
","
","""event"",""trial"",""time""
""fullscreenenter"",""1"",""3243""
","
","","1447.039999999106","","","","real_trial","2021-06-23 19:06:43.571","img/card_backs/set1/green.gif","1","-230","1","",""
"casino-fixation","116","495142","0.0-25.0-0.23","908","false","img/card_backs/set1/red.gif","img/card_backs/set1/green.gif","img/card_backs/set1/purple.gif","img/card_backs/set1/yellow.gif","img/card_backs/set2/blue.gif","img/card_backs/set2/orange.gif","img/card_backs/set2/gray.gif","img/card_backs/set2/pink.gif","""event"",""trial"",""time""
""fullscreenenter"",""1"",""3243""
","
","
","""event"",""trial"",""time""
""fullscreenenter"",""1"",""3243""
","
","","null","","null","","fixation","2021-06-23 19:06:44.073","","","","","",""
"card-selection-trial","117","498881","0.0-25.0-1.23","908","false","img/card_backs/set1/red.gif","img/card_backs/set1/green.gif","img/card_backs/set1/purple.gif","img/card_backs/set1/yellow.gif","img/card_backs/set2/blue.gif","img/card_backs/set2/orange.gif","img/card_backs/set2/gray.gif","img/card_backs/set2/pink.gif","""event"",""trial"",""time""
""fullscreenenter"",""1"",""3243""
","
","
","""event"",""trial"",""time""
""fullscreenenter"",""1"",""3243""
","
","","1732.164999935776","","","","real_trial","2021-06-23 19:06:47.812","img/card_backs/set1/purple.gif","1","110","1","",""
"casino-fixation","118","499389","0.0-25.0-0.24","908","false","img/card_backs/set1/red.gif","img/card_backs/set1/green.gif","img/card_backs/set1/purple.gif","img/card_backs/set1/yellow.gif","img/card_backs/set2/blue.gif","img/card_backs/set2/orange.gif","img/card_backs/set2/gray.gif","img/card_backs/set2/pink.gif","""event"",""trial"",""time""
""fullscreenenter"",""1"",""3243""
","
","
","""event"",""trial"",""time""
""fullscreenenter"",""1"",""3243""
","
","","null","","null","","fixation","2021-06-23 19:06:48.320","","","","","",""
"card-selection-trial","119","503014","0.0-25.0-1.24","908","false","img/card_backs/set1/red.gif","img/card_backs/set1/green.gif","img/card_backs/set1/purple.gif","img/card_backs/set1/yellow.gif","img/card_backs/set2/blue.gif","img/card_backs/set2/orange.gif","img/card_backs/set2/gray.gif","img/card_backs/set2/pink.gif","""event"",""trial"",""time""
""fullscreenenter"",""1"",""3243""
","
","
","""event"",""trial"",""time""
""fullscreenenter"",""1"",""3243""
","
","","1616.3800000213087","","","","real_trial","2021-06-23 19:06:51.946","img/card_backs/set1/purple.gif","3","100","1","",""
"casino-fixation","120","503520","0.0-25.0-0.25","908","false","img/card_backs/set1/red.gif","img/card_backs/set1/green.gif","img/card_backs/set1/purple.gif","img/card_backs/set1/yellow.gif","img/card_backs/set2/blue.gif","img/card_backs/set2/orange.gif","img/card_backs/set2/gray.gif","img/card_backs/set2/pink.gif","""event"",""trial"",""time""
""fullscreenenter"",""1"",""3243""
","
","
","""event"",""trial"",""time""
""fullscreenenter"",""1"",""3243""
","
","","null","","null","","fixation","2021-06-23 19:06:52.451","","","","","",""
"card-selection-trial","121","506411","0.0-25.0-1.25","908","false","img/card_backs/set1/red.gif","img/card_backs/set1/green.gif","img/card_backs/set1/purple.gif","img/card_backs/set1/yellow.gif","img/card_backs/set2/blue.gif","img/card_backs/set2/orange.gif","img/card_backs/set2/gray.gif","img/card_backs/set2/pink.gif","""event"",""trial"",""time""
""fullscreenenter"",""1"",""3243""
","
","
","""event"",""trial"",""time""
""fullscreenenter"",""1"",""3243""
","
","","878.1200000084937","","","","real_trial","2021-06-23 19:06:55.342","img/card_backs/set1/purple.gif","3","120","1","",""
"casino-fixation","122","506918","0.0-25.0-0.26","908","false","img/card_backs/set1/red.gif","img/card_backs/set1/green.gif","img/card_backs/set1/purple.gif","img/card_backs/set1/yellow.gif","img/card_backs/set2/blue.gif","img/card_backs/set2/orange.gif","img/card_backs/set2/gray.gif","img/card_backs/set2/pink.gif","""event"",""trial"",""time""
""fullscreenenter"",""1"",""3243""
","
","
","""event"",""trial"",""time""
""fullscreenenter"",""1"",""3243""
","
","","null","","null","","fixation","2021-06-23 19:06:55.849","","","","","",""
"card-selection-trial","123","510316","0.0-25.0-1.26","908","false","img/card_backs/set1/red.gif","img/card_backs/set1/green.gif","img/card_backs/set1/purple.gif","img/card_backs/set1/yellow.gif","img/card_backs/set2/blue.gif","img/card_backs/set2/orange.gif","img/card_backs/set2/gray.gif","img/card_backs/set2/pink.gif","""event"",""trial"",""time""
""fullscreenenter"",""1"",""3243""
","
","
","""event"",""trial"",""time""
""fullscreenenter"",""1"",""3243""
","
","","1387.2499999124557","","","","real_trial","2021-06-23 19:06:59.247","img/card_backs/set1/purple.gif","2","-60","1","",""
"casino-fixation","124","510822","0.0-25.0-0.27","908","false","img/card_backs/set1/red.gif","img/card_backs/set1/green.gif","img/card_backs/set1/purple.gif","img/card_backs/set1/yellow.gif","img/card_backs/set2/blue.gif","img/card_backs/set2/orange.gif","img/card_backs/set2/gray.gif","img/card_backs/set2/pink.gif","""event"",""trial"",""time""
""fullscreenenter"",""1"",""3243""
","
","
","""event"",""trial"",""time""
""fullscreenenter"",""1"",""3243""
","
","","null","","null","","fixation","2021-06-23 19:06:59.753","","","","","",""
"card-selection-trial","125","514337","0.0-25.0-1.27","908","false","img/card_backs/set1/red.gif","img/card_backs/set1/green.gif","img/card_backs/set1/purple.gif","img/card_backs/set1/yellow.gif","img/card_backs/set2/blue.gif","img/card_backs/set2/orange.gif","img/card_backs/set2/gray.gif","img/card_backs/set2/pink.gif","""event"",""trial"",""time""
""fullscreenenter"",""1"",""3243""
","
","
","""event"",""trial"",""time""
""fullscreenenter"",""1"",""3243""
","
","","1504.0049999952316","","","","real_trial","2021-06-23 19:07:03.268","img/card_backs/set1/purple.gif","1","-50","1","",""
"casino-fixation","126","514843","0.0-25.0-0.28","908","false","img/card_backs/set1/red.gif","img/card_backs/set1/green.gif","img/card_backs/set1/purple.gif","img/card_backs/set1/yellow.gif","img/card_backs/set2/blue.gif","img/card_backs/set2/orange.gif","img/card_backs/set2/gray.gif","img/card_backs/set2/pink.gif","""event"",""trial"",""time""
""fullscreenenter"",""1"",""3243""
","
","
","""event"",""trial"",""time""
""fullscreenenter"",""1"",""3243""
","
","","null","","null","","fixation","2021-06-23 19:07:03.774","","","","","",""
"card-selection-trial","127","518507","0.0-25.0-1.28","908","false","img/card_backs/set1/red.gif","img/card_backs/set1/green.gif","img/card_backs/set1/purple.gif","img/card_backs/set1/yellow.gif","img/card_backs/set2/blue.gif","img/card_backs/set2/orange.gif","img/card_backs/set2/gray.gif","img/card_backs/set2/pink.gif","""event"",""trial"",""time""
""fullscreenenter"",""1"",""3243""
","
","
","""event"",""trial"",""time""
""fullscreenenter"",""1"",""3243""
","
","","1650.8750000502914","","","","real_trial","2021-06-23 19:07:07.439","img/card_backs/set1/yellow.gif","2","-60","1","",""
"casino-fixation","128","519014","0.0-25.0-0.29","908","false","img/card_backs/set1/red.gif","img/card_backs/set1/green.gif","img/card_backs/set1/purple.gif","img/card_backs/set1/yellow.gif","img/card_backs/set2/blue.gif","img/card_backs/set2/orange.gif","img/card_backs/set2/gray.gif","img/card_backs/set2/pink.gif","""event"",""trial"",""time""
""fullscreenenter"",""1"",""3243""
","
","
","""event"",""trial"",""time""
""fullscreenenter"",""1"",""3243""
","
","","null","","null","","fixation","2021-06-23 19:07:07.945","","","","","",""
"card-selection-trial","129","522369","0.0-25.0-1.29","908","false","img/card_backs/set1/red.gif","img/card_backs/set1/green.gif","img/card_backs/set1/purple.gif","img/card_backs/set1/yellow.gif","img/card_backs/set2/blue.gif","img/card_backs/set2/orange.gif","img/card_backs/set2/gray.gif","img/card_backs/set2/pink.gif","""event"",""trial"",""time""
""fullscreenenter"",""1"",""3243""
","
","
","""event"",""trial"",""time""
""fullscreenenter"",""1"",""3243""
","
","","1345.545000047423","","","","real_trial","2021-06-23 19:07:11.300","img/card_backs/set1/purple.gif","1","120","1","",""
"casino-fixation","130","522875","0.0-25.0-0.30","908","false","img/card_backs/set1/red.gif","img/card_backs/set1/green.gif","img/card_backs/set1/purple.gif","img/card_backs/set1/yellow.gif","img/card_backs/set2/blue.gif","img/card_backs/set2/orange.gif","img/card_backs/set2/gray.gif","img/card_backs/set2/pink.gif","""event"",""trial"",""time""
""fullscreenenter"",""1"",""3243""
","
","
","""event"",""trial"",""time""
""fullscreenenter"",""1"",""3243""
","
","","null","","null","","fixation","2021-06-23 19:07:11.806","","","","","",""
"card-selection-trial","131","526250","0.0-25.0-1.30","908","false","img/card_backs/set1/red.gif","img/card_backs/set1/green.gif","img/card_backs/set1/purple.gif","img/card_backs/set1/yellow.gif","img/card_backs/set2/blue.gif","img/card_backs/set2/orange.gif","img/card_backs/set2/gray.gif","img/card_backs/set2/pink.gif","""event"",""trial"",""time""
""fullscreenenter"",""1"",""3243""
","
","
","""event"",""trial"",""time""
""fullscreenenter"",""1"",""3243""
","
","","1362.705000094138","","","","real_trial","2021-06-23 19:07:15.181","img/card_backs/set1/purple.gif","0","100","1","",""
"casino-fixation","132","526752","0.0-25.0-0.31","908","false","img/card_backs/set1/red.gif","img/card_backs/set1/green.gif","img/card_backs/set1/purple.gif","img/card_backs/set1/yellow.gif","img/card_backs/set2/blue.gif","img/card_backs/set2/orange.gif","img/card_backs/set2/gray.gif","img/card_backs/set2/pink.gif","""event"",""trial"",""time""
""fullscreenenter"",""1"",""3243""
","
","
","""event"",""trial"",""time""
""fullscreenenter"",""1"",""3243""
","
","","null","","null","","fixation","2021-06-23 19:07:15.684","","","","","",""
"card-selection-trial","133","530161","0.0-25.0-1.31","908","false","img/card_backs/set1/red.gif","img/card_backs/set1/green.gif","img/card_backs/set1/purple.gif","img/card_backs/set1/yellow.gif","img/card_backs/set2/blue.gif","img/card_backs/set2/orange.gif","img/card_backs/set2/gray.gif","img/card_backs/set2/pink.gif","""event"",""trial"",""time""
""fullscreenenter"",""1"",""3243""
","
","
","""event"",""trial"",""time""
""fullscreenenter"",""1"",""3243""
","
","","1397.785000037402","","","","real_trial","2021-06-23 19:07:19.092","img/card_backs/set1/yellow.gif","0","-70","1","",""
"casino-fixation","134","530667","0.0-25.0-0.32","908","false","img/card_backs/set1/red.gif","img/card_backs/set1/green.gif","img/card_backs/set1/purple.gif","img/card_backs/set1/yellow.gif","img/card_backs/set2/blue.gif","img/card_backs/set2/orange.gif","img/card_backs/set2/gray.gif","img/card_backs/set2/pink.gif","""event"",""trial"",""time""
""fullscreenenter"",""1"",""3243""
","
","
","""event"",""trial"",""time""
""fullscreenenter"",""1"",""3243""
","
","","null","","null","","fixation","2021-06-23 19:07:19.598","","","","","",""
"card-selection-trial","135","534699","0.0-25.0-1.32","908","false","img/card_backs/set1/red.gif","img/card_backs/set1/green.gif","img/card_backs/set1/purple.gif","img/card_backs/set1/yellow.gif","img/card_backs/set2/blue.gif","img/card_backs/set2/orange.gif","img/card_backs/set2/gray.gif","img/card_backs/set2/pink.gif","""event"",""trial"",""time""
""fullscreenenter"",""1"",""3243""
","
","
","""event"",""trial"",""time""
""fullscreenenter"",""1"",""3243""
","
","","2021.5850000968203","","","","real_trial","2021-06-23 19:07:23.631","img/card_backs/set1/red.gif","1","200","1","",""
"casino-fixation","136","535206","0.0-25.0-0.33","908","false","img/card_backs/set1/red.gif","img/card_backs/set1/green.gif","img/card_backs/set1/purple.gif","img/card_backs/set1/yellow.gif","img/card_backs/set2/blue.gif","img/card_backs/set2/orange.gif","img/card_backs/set2/gray.gif","img/card_backs/set2/pink.gif","""event"",""trial"",""time""
""fullscreenenter"",""1"",""3243""
","
","
","""event"",""trial"",""time""
""fullscreenenter"",""1"",""3243""
","
","","null","","null","","fixation","2021-06-23 19:07:24.137","","","","","",""
"card-selection-trial","137","538683","0.0-25.0-1.33","908","false","img/card_backs/set1/red.gif","img/card_backs/set1/green.gif","img/card_backs/set1/purple.gif","img/card_backs/set1/yellow.gif","img/card_backs/set2/blue.gif","img/card_backs/set2/orange.gif","img/card_backs/set2/gray.gif","img/card_backs/set2/pink.gif","""event"",""trial"",""time""
""fullscreenenter"",""1"",""3243""
","
","
","""event"",""trial"",""time""
""fullscreenenter"",""1"",""3243""
","
","","1464.1650000121444","","","","real_trial","2021-06-23 19:07:27.615","img/card_backs/set1/purple.gif","1","120","1","",""
"casino-fixation","138","539190","0.0-25.0-0.34","908","false","img/card_backs/set1/red.gif","img/card_backs/set1/green.gif","img/card_backs/set1/purple.gif","img/card_backs/set1/yellow.gif","img/card_backs/set2/blue.gif","img/card_backs/set2/orange.gif","img/card_backs/set2/gray.gif","img/card_backs/set2/pink.gif","""event"",""trial"",""time""
""fullscreenenter"",""1"",""3243""
","
","
","""event"",""trial"",""time""
""fullscreenenter"",""1"",""3243""
","
","","null","","null","","fixation","2021-06-23 19:07:28.121","","","","","",""
"card-selection-trial","139","542651","0.0-25.0-1.34","908","false","img/card_backs/set1/red.gif","img/card_backs/set1/green.gif","img/card_backs/set1/purple.gif","img/card_backs/set1/yellow.gif","img/card_backs/set2/blue.gif","img/card_backs/set2/orange.gif","img/card_backs/set2/gray.gif","img/card_backs/set2/pink.gif","""event"",""trial"",""time""
""fullscreenenter"",""1"",""3243""
","
","
","""event"",""trial"",""time""
""fullscreenenter"",""1"",""3243""
","
","","1448.2099999440834","","","","real_trial","2021-06-23 19:07:31.583","img/card_backs/set1/yellow.gif","0","100","1","",""
"casino-fixation","140","543158","0.0-25.0-0.35","908","false","img/card_backs/set1/red.gif","img/card_backs/set1/green.gif","img/card_backs/set1/purple.gif","img/card_backs/set1/yellow.gif","img/card_backs/set2/blue.gif","img/card_backs/set2/orange.gif","img/card_backs/set2/gray.gif","img/card_backs/set2/pink.gif","""event"",""trial"",""time""
""fullscreenenter"",""1"",""3243""
","
","
","""event"",""trial"",""time""
""fullscreenenter"",""1"",""3243""
","
","","null","","null","","fixation","2021-06-23 19:07:32.089","","","","","",""
"card-selection-trial","141","547131","0.0-25.0-1.35","908","false","img/card_backs/set1/red.gif","img/card_backs/set1/green.gif","img/card_backs/set1/purple.gif","img/card_backs/set1/yellow.gif","img/card_backs/set2/blue.gif","img/card_backs/set2/orange.gif","img/card_backs/set2/gray.gif","img/card_backs/set2/pink.gif","""event"",""trial"",""time""
""fullscreenenter"",""1"",""3243""
","
","
","""event"",""trial"",""time""
""fullscreenenter"",""1"",""3243""
","
","","1961.0850000753999","","","","real_trial","2021-06-23 19:07:36.063","img/card_backs/set1/green.gif","3","-250","1","",""
"casino-fixation","142","547637","0.0-25.0-0.36","908","false","img/card_backs/set1/red.gif","img/card_backs/set1/green.gif","img/card_backs/set1/purple.gif","img/card_backs/set1/yellow.gif","img/card_backs/set2/blue.gif","img/card_backs/set2/orange.gif","img/card_backs/set2/gray.gif","img/card_backs/set2/pink.gif","""event"",""trial"",""time""
""fullscreenenter"",""1"",""3243""
","
","
","""event"",""trial"",""time""
""fullscreenenter"",""1"",""3243""
","
","","null","","null","","fixation","2021-06-23 19:07:36.569","","","","","",""
"card-selection-trial","143","551592","0.0-25.0-1.36","908","false","img/card_backs/set1/red.gif","img/card_backs/set1/green.gif","img/card_backs/set1/purple.gif","img/card_backs/set1/yellow.gif","img/card_backs/set2/blue.gif","img/card_backs/set2/orange.gif","img/card_backs/set2/gray.gif","img/card_backs/set2/pink.gif","""event"",""trial"",""time""
""fullscreenenter"",""1"",""3243""
","
","
","""event"",""trial"",""time""
""fullscreenenter"",""1"",""3243""
","
","","1943.5400000074878","","","","real_trial","2021-06-23 19:07:40.523","img/card_backs/set1/red.gif","1","-250","1","",""
"casino-fixation","144","552096","0.0-25.0-0.37","908","false","img/card_backs/set1/red.gif","img/card_backs/set1/green.gif","img/card_backs/set1/purple.gif","img/card_backs/set1/yellow.gif","img/card_backs/set2/blue.gif","img/card_backs/set2/orange.gif","img/card_backs/set2/gray.gif","img/card_backs/set2/pink.gif","""event"",""trial"",""time""
""fullscreenenter"",""1"",""3243""
","
","
","""event"",""trial"",""time""
""fullscreenenter"",""1"",""3243""
","
","","null","","null","","fixation","2021-06-23 19:07:41.027","","","","","",""
"card-selection-trial","145","556774","0.0-25.0-1.37","908","false","img/card_backs/set1/red.gif","img/card_backs/set1/green.gif","img/card_backs/set1/purple.gif","img/card_backs/set1/yellow.gif","img/card_backs/set2/blue.gif","img/card_backs/set2/orange.gif","img/card_backs/set2/gray.gif","img/card_backs/set2/pink.gif","""event"",""trial"",""time""
""fullscreenenter"",""1"",""3243""
","
","
","""event"",""trial"",""time""
""fullscreenenter"",""1"",""3243""
","
","","2669.205000041984","","","","real_trial","2021-06-23 19:07:45.706","img/card_backs/set1/yellow.gif","0","-50","1","",""
"casino-fixation","146","557276","0.0-25.0-0.38","908","false","img/card_backs/set1/red.gif","img/card_backs/set1/green.gif","img/card_backs/set1/purple.gif","img/card_backs/set1/yellow.gif","img/card_backs/set2/blue.gif","img/card_backs/set2/orange.gif","img/card_backs/set2/gray.gif","img/card_backs/set2/pink.gif","""event"",""trial"",""time""
""fullscreenenter"",""1"",""3243""
","
","
","""event"",""trial"",""time""
""fullscreenenter"",""1"",""3243""
","
","","null","","null","","fixation","2021-06-23 19:07:46.207","","","","","",""
"card-selection-trial","147","561131","0.0-25.0-1.38","908","false","img/card_backs/set1/red.gif","img/card_backs/set1/green.gif","img/card_backs/set1/purple.gif","img/card_backs/set1/yellow.gif","img/card_backs/set2/blue.gif","img/card_backs/set2/orange.gif","img/card_backs/set2/gray.gif","img/card_backs/set2/pink.gif","""event"",""trial"",""time""
""fullscreenenter"",""1"",""3243""
","
","
","""event"",""trial"",""time""
""fullscreenenter"",""1"",""3243""
","
","","1845.4950000159442","","","","real_trial","2021-06-23 19:07:50.062","img/card_backs/set1/purple.gif","1","100","1","",""
"casino-fixation","148","561637","0.0-25.0-0.39","908","false","img/card_backs/set1/red.gif","img/card_backs/set1/green.gif","img/card_backs/set1/purple.gif","img/card_backs/set1/yellow.gif","img/card_backs/set2/blue.gif","img/card_backs/set2/orange.gif","img/card_backs/set2/gray.gif","img/card_backs/set2/pink.gif","""event"",""trial"",""time""
""fullscreenenter"",""1"",""3243""
","
","
","""event"",""trial"",""time""
""fullscreenenter"",""1"",""3243""
","
","","null","","null","","fixation","2021-06-23 19:07:50.569","","","","","",""
"card-selection-trial","149","564854","0.0-25.0-1.39","908","false","img/card_backs/set1/red.gif","img/card_backs/set1/green.gif","img/card_backs/set1/purple.gif","img/card_backs/set1/yellow.gif","img/card_backs/set2/blue.gif","img/card_backs/set2/orange.gif","img/card_backs/set2/gray.gif","img/card_backs/set2/pink.gif","""event"",""trial"",""time""
""fullscreenenter"",""1"",""3243""
","
","
","""event"",""trial"",""time""
""fullscreenenter"",""1"",""3243""
","
","","1207.6250000391155","","","","real_trial","2021-06-23 19:07:53.785","img/card_backs/set1/purple.gif","3","-50","1","",""
"casino-fixation","150","565358","0.0-25.0-0.40","908","false","img/card_backs/set1/red.gif","img/card_backs/set1/green.gif","img/card_backs/set1/purple.gif","img/card_backs/set1/yellow.gif","img/card_backs/set2/blue.gif","img/card_backs/set2/orange.gif","img/card_backs/set2/gray.gif","img/card_backs/set2/pink.gif","""event"",""trial"",""time""
""fullscreenenter"",""1"",""3243""
","
","
","""event"",""trial"",""time""
""fullscreenenter"",""1"",""3243""
","
","","null","","null","","fixation","2021-06-23 19:07:54.289","","","","","",""
"card-selection-trial","151","568880","0.0-25.0-1.40","908","false","img/card_backs/set1/red.gif","img/card_backs/set1/green.gif","img/card_backs/set1/purple.gif","img/card_backs/set1/yellow.gif","img/card_backs/set2/blue.gif","img/card_backs/set2/orange.gif","img/card_backs/set2/gray.gif","img/card_backs/set2/pink.gif","""event"",""trial"",""time""
""fullscreenenter"",""1"",""3243""
","
","
","""event"",""trial"",""time""
""fullscreenenter"",""1"",""3243""
","
","","1514.2950000008568","","","","real_trial","2021-06-23 19:07:57.812","img/card_backs/set1/purple.gif","0","100","1","",""
"casino-fixation","152","569387","0.0-25.0-0.41","908","false","img/card_backs/set1/red.gif","img/card_backs/set1/green.gif","img/card_backs/set1/purple.gif","img/card_backs/set1/yellow.gif","img/card_backs/set2/blue.gif","img/card_backs/set2/orange.gif","img/card_backs/set2/gray.gif","img/card_backs/set2/pink.gif","""event"",""trial"",""time""
""fullscreenenter"",""1"",""3243""
","
","
","""event"",""trial"",""time""
""fullscreenenter"",""1"",""3243""
","
","","null","","null","","fixation","2021-06-23 19:07:58.318","","","","","",""
"card-selection-trial","153","573121","0.0-25.0-1.41","908","false","img/card_backs/set1/red.gif","img/card_backs/set1/green.gif","img/card_backs/set1/purple.gif","img/card_backs/set1/yellow.gif","img/card_backs/set2/blue.gif","img/card_backs/set2/orange.gif","img/card_backs/set2/gray.gif","img/card_backs/set2/pink.gif","""event"",""trial"",""time""
""fullscreenenter"",""1"",""3243""
","
","
","""event"",""trial"",""time""
""fullscreenenter"",""1"",""3243""
","
","","1723.3749999431893","","","","real_trial","2021-06-23 19:08:02.053","img/card_backs/set1/purple.gif","3","110","1","",""
"casino-fixation","154","573627","0.0-25.0-0.42","908","false","img/card_backs/set1/red.gif","img/card_backs/set1/green.gif","img/card_backs/set1/purple.gif","img/card_backs/set1/yellow.gif","img/card_backs/set2/blue.gif","img/card_backs/set2/orange.gif","img/card_backs/set2/gray.gif","img/card_backs/set2/pink.gif","""event"",""trial"",""time""
""fullscreenenter"",""1"",""3243""
","
","
","""event"",""trial"",""time""
""fullscreenenter"",""1"",""3243""
","
","","null","","null","","fixation","2021-06-23 19:08:02.558","","","","","",""
"card-selection-trial","155","576955","0.0-25.0-1.42","908","false","img/card_backs/set1/red.gif","img/card_backs/set1/green.gif","img/card_backs/set1/purple.gif","img/card_backs/set1/yellow.gif","img/card_backs/set2/blue.gif","img/card_backs/set2/orange.gif","img/card_backs/set2/gray.gif","img/card_backs/set2/pink.gif","""event"",""trial"",""time""
""fullscreenenter"",""1"",""3243""
","
","
","""event"",""trial"",""time""
""fullscreenenter"",""1"",""3243""
","
","","1314.4999999785796","","","","real_trial","2021-06-23 19:08:05.886","img/card_backs/set1/purple.gif","1","100","1","",""
"casino-fixation","156","577461","0.0-25.0-0.43","908","false","img/card_backs/set1/red.gif","img/card_backs/set1/green.gif","img/card_backs/set1/purple.gif","img/card_backs/set1/yellow.gif","img/card_backs/set2/blue.gif","img/card_backs/set2/orange.gif","img/card_backs/set2/gray.gif","img/card_backs/set2/pink.gif","""event"",""trial"",""time""
""fullscreenenter"",""1"",""3243""
","
","
","""event"",""trial"",""time""
""fullscreenenter"",""1"",""3243""
","
","","null","","null","","fixation","2021-06-23 19:08:06.392","","","","","",""
"card-selection-trial","157","581030","0.0-25.0-1.43","908","false","img/card_backs/set1/red.gif","img/card_backs/set1/green.gif","img/card_backs/set1/purple.gif","img/card_backs/set1/yellow.gif","img/card_backs/set2/blue.gif","img/card_backs/set2/orange.gif","img/card_backs/set2/gray.gif","img/card_backs/set2/pink.gif","""event"",""trial"",""time""
""fullscreenenter"",""1"",""3243""
","
","
","""event"",""trial"",""time""
""fullscreenenter"",""1"",""3243""
","
","","1559.874999918975","","","","real_trial","2021-06-23 19:08:09.961","img/card_backs/set1/purple.gif","0","-70","1","",""
"casino-fixation","158","581536","0.0-25.0-0.44","908","false","img/card_backs/set1/red.gif","img/card_backs/set1/green.gif","img/card_backs/set1/purple.gif","img/card_backs/set1/yellow.gif","img/card_backs/set2/blue.gif","img/card_backs/set2/orange.gif","img/card_backs/set2/gray.gif","img/card_backs/set2/pink.gif","""event"",""trial"",""time""
""fullscreenenter"",""1"",""3243""
","
","
","""event"",""trial"",""time""
""fullscreenenter"",""1"",""3243""
","
","","null","","null","","fixation","2021-06-23 19:08:10.467","","","","","",""
"card-selection-trial","159","585163","0.0-25.0-1.44","908","false","img/card_backs/set1/red.gif","img/card_backs/set1/green.gif","img/card_backs/set1/purple.gif","img/card_backs/set1/yellow.gif","img/card_backs/set2/blue.gif","img/card_backs/set2/orange.gif","img/card_backs/set2/gray.gif","img/card_backs/set2/pink.gif","""event"",""trial"",""time""
""fullscreenenter"",""1"",""3243""
","
","
","""event"",""trial"",""time""
""fullscreenenter"",""1"",""3243""
","
","","1615.6250000931323","","","","real_trial","2021-06-23 19:08:14.094","img/card_backs/set1/purple.gif","3","100","1","",""
"casino-fixation","160","585669","0.0-25.0-0.45","908","false","img/card_backs/set1/red.gif","img/card_backs/set1/green.gif","img/card_backs/set1/purple.gif","img/card_backs/set1/yellow.gif","img/card_backs/set2/blue.gif","img/card_backs/set2/orange.gif","img/card_backs/set2/gray.gif","img/card_backs/set2/pink.gif","""event"",""trial"",""time""
""fullscreenenter"",""1"",""3243""
","
","
","""event"",""trial"",""time""
""fullscreenenter"",""1"",""3243""
","
","","null","","null","","fixation","2021-06-23 19:08:14.600","","","","","",""
"card-selection-trial","161","589050","0.0-25.0-1.45","908","false","img/card_backs/set1/red.gif","img/card_backs/set1/green.gif","img/card_backs/set1/purple.gif","img/card_backs/set1/yellow.gif","img/card_backs/set2/blue.gif","img/card_backs/set2/orange.gif","img/card_backs/set2/gray.gif","img/card_backs/set2/pink.gif","""event"",""trial"",""time""
""fullscreenenter"",""1"",""3243""
","
","
","""event"",""trial"",""time""
""fullscreenenter"",""1"",""3243""
","
","","1368.125000037253","","","","real_trial","2021-06-23 19:08:17.981","img/card_backs/set1/purple.gif","2","-60","1","",""
"casino-fixation","162","589557","0.0-25.0-0.46","908","false","img/card_backs/set1/red.gif","img/card_backs/set1/green.gif","img/card_backs/set1/purple.gif","img/card_backs/set1/yellow.gif","img/card_backs/set2/blue.gif","img/card_backs/set2/orange.gif","img/card_backs/set2/gray.gif","img/card_backs/set2/pink.gif","""event"",""trial"",""time""
""fullscreenenter"",""1"",""3243""
","
","
","""event"",""trial"",""time""
""fullscreenenter"",""1"",""3243""
","
","","null","","null","","fixation","2021-06-23 19:08:18.488","","","","","",""
"card-selection-trial","163","592816","0.0-25.0-1.46","908","false","img/card_backs/set1/red.gif","img/card_backs/set1/green.gif","img/card_backs/set1/purple.gif","img/card_backs/set1/yellow.gif","img/card_backs/set2/blue.gif","img/card_backs/set2/orange.gif","img/card_backs/set2/gray.gif","img/card_backs/set2/pink.gif","""event"",""trial"",""time""
""fullscreenenter"",""1"",""3243""
","
","
","""event"",""trial"",""time""
""fullscreenenter"",""1"",""3243""
","
","","1248.0399999767542","","","","real_trial","2021-06-23 19:08:21.747","img/card_backs/set1/purple.gif","3","-70","1","",""
"casino-fixation","164","593322","0.0-25.0-0.47","908","false","img/card_backs/set1/red.gif","img/card_backs/set1/green.gif","img/card_backs/set1/purple.gif","img/card_backs/set1/yellow.gif","img/card_backs/set2/blue.gif","img/card_backs/set2/orange.gif","img/card_backs/set2/gray.gif","img/card_backs/set2/pink.gif","""event"",""trial"",""time""
""fullscreenenter"",""1"",""3243""
","
","
","""event"",""trial"",""time""
""fullscreenenter"",""1"",""3243""
","
","","null","","null","","fixation","2021-06-23 19:08:22.254","","","","","",""
"card-selection-trial","165","596368","0.0-25.0-1.47","908","false","img/card_backs/set1/red.gif","img/card_backs/set1/green.gif","img/card_backs/set1/purple.gif","img/card_backs/set1/yellow.gif","img/card_backs/set2/blue.gif","img/card_backs/set2/orange.gif","img/card_backs/set2/gray.gif","img/card_backs/set2/pink.gif","""event"",""trial"",""time""
""fullscreenenter"",""1"",""3243""
","
","
","""event"",""trial"",""time""
""fullscreenenter"",""1"",""3243""
","
","","1036.0449999570847","","","","real_trial","2021-06-23 19:08:25.299","img/card_backs/set1/purple.gif","3","-50","1","",""
"casino-fixation","166","596874","0.0-25.0-0.48","908","false","img/card_backs/set1/red.gif","img/card_backs/set1/green.gif","img/card_backs/set1/purple.gif","img/card_backs/set1/yellow.gif","img/card_backs/set2/blue.gif","img/card_backs/set2/orange.gif","img/card_backs/set2/gray.gif","img/card_backs/set2/pink.gif","""event"",""trial"",""time""
""fullscreenenter"",""1"",""3243""
","
","
","""event"",""trial"",""time""
""fullscreenenter"",""1"",""3243""
","
","","null","","null","","fixation","2021-06-23 19:08:25.805","","","","","",""
