"trial_type","trial_index","time_elapsed","internal_node_id","sub_id","risk_good_first","block1_A","block1_B","block1_C","block1_D","block2_A","block2_B","block2_C","block2_D","interactions","blur_events","focus_events","fullscreenenter_events","fullscreenexit_events","success","rt","stimulus","key_press","button_pressed","task_part","timestamp","card_choice","choice_position","points_earned","block","correct","response"
"pavlovia","0","9","0.0-0.0","A161","true","img/card_backs/set1/purple.gif","img/card_backs/set1/red.gif","img/card_backs/set1/green.gif","img/card_backs/set1/yellow.gif","img/card_backs/set2/pink.gif","img/card_backs/set2/blue.gif","img/card_backs/set2/orange.gif","img/card_backs/set2/gray.gif","""event"",""trial"",""time""
""fullscreenenter"",""1"",""2115""
","
","
","""event"",""trial"",""time""
""fullscreenenter"",""1"",""2115""
","
","","","","","","","","","","","","",""
"fullscreen","1","3023","0.0-1.0","A161","true","img/card_backs/set1/purple.gif","img/card_backs/set1/red.gif","img/card_backs/set1/green.gif","img/card_backs/set1/yellow.gif","img/card_backs/set2/pink.gif","img/card_backs/set2/blue.gif","img/card_backs/set2/orange.gif","img/card_backs/set2/gray.gif","""event"",""trial"",""time""
""fullscreenenter"",""1"",""2115""
","
","
","""event"",""trial"",""time""
""fullscreenenter"",""1"",""2115""
","
","true","","","","","","","","","","","",""
"audio-keyboard-response","2","4563","0.0-2.0","A161","true","img/card_backs/set1/purple.gif","img/card_backs/set1/red.gif","img/card_backs/set1/green.gif","img/card_backs/set1/yellow.gif","img/card_backs/set2/pink.gif","img/card_backs/set2/blue.gif","img/card_backs/set2/orange.gif","img/card_backs/set2/gray.gif","""event"",""trial"",""time""
""fullscreenenter"",""1"",""2115""
","
","
","""event"",""trial"",""time""
""fullscreenenter"",""1"",""2115""
","
","","1515","audio/beep_loop.wav","32","","","","","","","","",""
"audio-button-response","3","6017","0.0-3.0","A161","true","img/card_backs/set1/purple.gif","img/card_backs/set1/red.gif","img/card_backs/set1/green.gif","img/card_backs/set1/yellow.gif","img/card_backs/set2/pink.gif","img/card_backs/set2/blue.gif","img/card_backs/set2/orange.gif","img/card_backs/set2/gray.gif","""event"",""trial"",""time""
""fullscreenenter"",""1"",""2115""
","
","
","""event"",""trial"",""time""
""fullscreenenter"",""1"",""2115""
","
","","NaN","audio/turtle.mp3","","3","","","","","","","",""
"audio-button-response","4","8444","0.0-4.0","A161","true","img/card_backs/set1/purple.gif","img/card_backs/set1/red.gif","img/card_backs/set1/green.gif","img/card_backs/set1/yellow.gif","img/card_backs/set2/pink.gif","img/card_backs/set2/blue.gif","img/card_backs/set2/orange.gif","img/card_backs/set2/gray.gif","""event"",""trial"",""time""
""fullscreenenter"",""1"",""2115""
","
","
","""event"",""trial"",""time""
""fullscreenenter"",""1"",""2115""
","
","","NaN","audio/shark.mp3","","2","","","","","","","",""
"fullscreen","5","11589","0.0-5.0","A161","true","img/card_backs/set1/purple.gif","img/card_backs/set1/red.gif","img/card_backs/set1/green.gif","img/card_backs/set1/yellow.gif","img/card_backs/set2/pink.gif","img/card_backs/set2/blue.gif","img/card_backs/set2/orange.gif","img/card_backs/set2/gray.gif","""event"",""trial"",""time""
""fullscreenenter"",""1"",""2115""
","
","
","""event"",""trial"",""time""
""fullscreenenter"",""1"",""2115""
","
","true","","","","","","","","","","","",""
"casino-keyboard-response","6","14995","0.0-6.0-0.0","A161","true","img/card_backs/set1/purple.gif","img/card_backs/set1/red.gif","img/card_backs/set1/green.gif","img/card_backs/set1/yellow.gif","img/card_backs/set2/pink.gif","img/card_backs/set2/blue.gif","img/card_backs/set2/orange.gif","img/card_backs/set2/gray.gif","""event"",""trial"",""time""
""fullscreenenter"",""1"",""2115""
","
","
","""event"",""trial"",""time""
""fullscreenenter"",""1"",""2115""
","
","","3400.10000000149","Welcome to the casino!","71","","instructions","2021-07-20 08:50:00.928","","","","","",""
"casino-keyboard-response","7","24344","0.0-6.0-0.1","A161","true","img/card_backs/set1/purple.gif","img/card_backs/set1/red.gif","img/card_backs/set1/green.gif","img/card_backs/set1/yellow.gif","img/card_backs/set2/pink.gif","img/card_backs/set2/blue.gif","img/card_backs/set2/orange.gif","img/card_backs/set2/gray.gif","""event"",""trial"",""time""
""fullscreenenter"",""1"",""2115""
","
","
","""event"",""trial"",""time""
""fullscreenenter"",""1"",""2115""
","
","","9345.89999999851","Today you will be playing a game to earn tokens. </br> At the end of the experiment, you will be paid a bonus based on how many tokens you win. ","69","","instructions","2021-07-20 08:50:10.276","","","","","",""
"casino-keyboard-response","8","31573","0.0-6.0-0.2","A161","true","img/card_backs/set1/purple.gif","img/card_backs/set1/red.gif","img/card_backs/set1/green.gif","img/card_backs/set1/yellow.gif","img/card_backs/set2/pink.gif","img/card_backs/set2/blue.gif","img/card_backs/set2/orange.gif","img/card_backs/set2/gray.gif","""event"",""trial"",""time""
""fullscreenenter"",""1"",""2115""
","
","
","""event"",""trial"",""time""
""fullscreenenter"",""1"",""2115""
","
","","7226","On every turn, you will be shown four different decks of cards. </br> You need to select a card from one of the four decks.  ","75","","instructions","2021-07-20 08:50:17.505","","","","","",""
"casino-keyboard-response","9","36296","0.0-6.0-0.3","A161","true","img/card_backs/set1/purple.gif","img/card_backs/set1/red.gif","img/card_backs/set1/green.gif","img/card_backs/set1/yellow.gif","img/card_backs/set2/pink.gif","img/card_backs/set2/blue.gif","img/card_backs/set2/orange.gif","img/card_backs/set2/gray.gif","""event"",""trial"",""time""
""fullscreenenter"",""1"",""2115""
","
","
","""event"",""trial"",""time""
""fullscreenenter"",""1"",""2115""
","
","","4720","On the next screen, you will see what the decks will look like. ","66","","instructions","2021-07-20 08:50:22.228","","","","","",""
"card-selection-trial","10","40301","0.0-7.0-0.0","A161","true","img/card_backs/set1/purple.gif","img/card_backs/set1/red.gif","img/card_backs/set1/green.gif","img/card_backs/set1/yellow.gif","img/card_backs/set2/pink.gif","img/card_backs/set2/blue.gif","img/card_backs/set2/orange.gif","img/card_backs/set2/gray.gif","""event"",""trial"",""time""
""fullscreenenter"",""1"",""2115""
","
","
","""event"",""trial"",""time""
""fullscreenenter"",""1"",""2115""
","
","","null","","","","practice","2021-07-20 08:50:26.233","null","null","null","0","",""
"casino-keyboard-response","11","48039","0.0-8.0-0.0","A161","true","img/card_backs/set1/purple.gif","img/card_backs/set1/red.gif","img/card_backs/set1/green.gif","img/card_backs/set1/yellow.gif","img/card_backs/set2/pink.gif","img/card_backs/set2/blue.gif","img/card_backs/set2/orange.gif","img/card_backs/set2/gray.gif","""event"",""trial"",""time""
""fullscreenenter"",""1"",""2115""
","
","
","""event"",""trial"",""time""
""fullscreenenter"",""1"",""2115""
","
","","7736.599999997765","You should pick a card from a deck using the '2', '4', '6', and '8' keys at the top of the keyboard.","85","","instructions","2021-07-20 08:50:33.972","","","","","",""
"casino-keyboard-response","12","53440","0.0-8.0-0.1","A161","true","img/card_backs/set1/purple.gif","img/card_backs/set1/red.gif","img/card_backs/set1/green.gif","img/card_backs/set1/yellow.gif","img/card_backs/set2/pink.gif","img/card_backs/set2/blue.gif","img/card_backs/set2/orange.gif","img/card_backs/set2/gray.gif","""event"",""trial"",""time""
""fullscreenenter"",""1"",""2115""
","
","
","""event"",""trial"",""time""
""fullscreenenter"",""1"",""2115""
","
","","5397.800000000745","Once you select a card, it will turn over and you will see how many tokens you earned.","83","","instructions","2021-07-20 08:50:39.372","","","","","",""
"casino-keyboard-response","13","67665","0.0-8.0-0.2","A161","true","img/card_backs/set1/purple.gif","img/card_backs/set1/red.gif","img/card_backs/set1/green.gif","img/card_backs/set1/yellow.gif","img/card_backs/set2/pink.gif","img/card_backs/set2/blue.gif","img/card_backs/set2/orange.gif","img/card_backs/set2/gray.gif","""event"",""trial"",""time""
""fullscreenenter"",""1"",""2115""
","
","
","""event"",""trial"",""time""
""fullscreenenter"",""1"",""2115""
","
","","14222.699999999255","Let's try practicing that! </br> First, try to put your fingers over the '2', '4', '6', and '8' keys. </br>  You can use whatever fingers are most comfortable for you. Try to find a comfortable position now. ","50","","instructions","2021-07-20 08:50:53.597","","","","","",""
"casino-keyboard-response","14","73456","0.0-8.0-0.3","A161","true","img/card_backs/set1/purple.gif","img/card_backs/set1/red.gif","img/card_backs/set1/green.gif","img/card_backs/set1/yellow.gif","img/card_backs/set2/pink.gif","img/card_backs/set2/blue.gif","img/card_backs/set2/orange.gif","img/card_backs/set2/gray.gif","""event"",""trial"",""time""
""fullscreenenter"",""1"",""2115""
","
","
","""event"",""trial"",""time""
""fullscreenenter"",""1"",""2115""
","
","","5788.29999999702","Okay ready? </br> On the next screen, press '2' to select the left deck. ","50","","instructions","2021-07-20 08:50:59.388","","","","","",""
"card-selection-trial","15","77034","0.0-9.0-0.0","A161","true","img/card_backs/set1/purple.gif","img/card_backs/set1/red.gif","img/card_backs/set1/green.gif","img/card_backs/set1/yellow.gif","img/card_backs/set2/pink.gif","img/card_backs/set2/blue.gif","img/card_backs/set2/orange.gif","img/card_backs/set2/gray.gif","""event"",""trial"",""time""
""fullscreenenter"",""1"",""2115""
","
","
","""event"",""trial"",""time""
""fullscreenenter"",""1"",""2115""
","
","","1559","","","","practice_card_selection","2021-07-20 08:51:02.966","img/practice_cards/backs/black.gif","0","100","","",""
"casino-keyboard-response","16","82848","0.0-10.0-0.0","A161","true","img/card_backs/set1/purple.gif","img/card_backs/set1/red.gif","img/card_backs/set1/green.gif","img/card_backs/set1/yellow.gif","img/card_backs/set2/pink.gif","img/card_backs/set2/blue.gif","img/card_backs/set2/orange.gif","img/card_backs/set2/gray.gif","""event"",""trial"",""time""
""fullscreenenter"",""1"",""2115""
","
","
","""event"",""trial"",""time""
""fullscreenenter"",""1"",""2115""
","
","","5811.400000002235","Great! Now on the next screen, try pressing '6' to select the third deck.","54","","instructions","2021-07-20 08:51:08.780","","","","","",""
"card-selection-trial","17","85764","0.0-11.0-0.0","A161","true","img/card_backs/set1/purple.gif","img/card_backs/set1/red.gif","img/card_backs/set1/green.gif","img/card_backs/set1/yellow.gif","img/card_backs/set2/pink.gif","img/card_backs/set2/blue.gif","img/card_backs/set2/orange.gif","img/card_backs/set2/gray.gif","""event"",""trial"",""time""
""fullscreenenter"",""1"",""2115""
","
","
","""event"",""trial"",""time""
""fullscreenenter"",""1"",""2115""
","
","","901.8000000007451","","","","practice_card_selection","2021-07-20 08:51:11.696","img/practice_cards/backs/dark_green.gif","2","200","","",""
"casino-keyboard-response","18","90592","0.0-12.0-0.0","A161","true","img/card_backs/set1/purple.gif","img/card_backs/set1/red.gif","img/card_backs/set1/green.gif","img/card_backs/set1/yellow.gif","img/card_backs/set2/pink.gif","img/card_backs/set2/blue.gif","img/card_backs/set2/orange.gif","img/card_backs/set2/gray.gif","""event"",""trial"",""time""
""fullscreenenter"",""1"",""2115""
","
","
","""event"",""trial"",""time""
""fullscreenenter"",""1"",""2115""
","
","","4825","Now on the next screen, try pressing '4' to select the second deck.","52","","instructions","2021-07-20 08:51:16.524","","","","","",""
"card-selection-trial","19","93233","0.0-13.0-0.0","A161","true","img/card_backs/set1/purple.gif","img/card_backs/set1/red.gif","img/card_backs/set1/green.gif","img/card_backs/set1/yellow.gif","img/card_backs/set2/pink.gif","img/card_backs/set2/blue.gif","img/card_backs/set2/orange.gif","img/card_backs/set2/gray.gif","""event"",""trial"",""time""
""fullscreenenter"",""1"",""2115""
","
","
","""event"",""trial"",""time""
""fullscreenenter"",""1"",""2115""
","
","","633","","","","practice_card_selection","2021-07-20 08:51:19.166","img/practice_cards/backs/black.gif","1","-100","","",""
"casino-keyboard-response","20","97624","0.0-14.0-0.0","A161","true","img/card_backs/set1/purple.gif","img/card_backs/set1/red.gif","img/card_backs/set1/green.gif","img/card_backs/set1/yellow.gif","img/card_backs/set2/pink.gif","img/card_backs/set2/blue.gif","img/card_backs/set2/orange.gif","img/card_backs/set2/gray.gif","""event"",""trial"",""time""
""fullscreenenter"",""1"",""2115""
","
","
","""event"",""trial"",""time""
""fullscreenenter"",""1"",""2115""
","
","","4388.5","Finally, try pressing '8' to select the deck all the way on the right.","56","","instructions","2021-07-20 08:51:23.556","","","","","",""
"card-selection-trial","21","100046","0.0-15.0-0.0","A161","true","img/card_backs/set1/purple.gif","img/card_backs/set1/red.gif","img/card_backs/set1/green.gif","img/card_backs/set1/yellow.gif","img/card_backs/set2/pink.gif","img/card_backs/set2/blue.gif","img/card_backs/set2/orange.gif","img/card_backs/set2/gray.gif","""event"",""trial"",""time""
""fullscreenenter"",""1"",""2115""
","
","
","""event"",""trial"",""time""
""fullscreenenter"",""1"",""2115""
","
","","410.6000000014901","","","","practice_card_selection","2021-07-20 08:51:25.978","img/practice_cards/backs/brown.gif","3","-100","","",""
"casino-keyboard-response","22","103989","0.0-16.0-0.0","A161","true","img/card_backs/set1/purple.gif","img/card_backs/set1/red.gif","img/card_backs/set1/green.gif","img/card_backs/set1/yellow.gif","img/card_backs/set2/pink.gif","img/card_backs/set2/blue.gif","img/card_backs/set2/orange.gif","img/card_backs/set2/gray.gif","""event"",""trial"",""time""
""fullscreenenter"",""1"",""2115""
","
","
","""event"",""trial"",""time""
""fullscreenenter"",""1"",""2115""
","
","","3940.800000000745","Great! It seems like you are getting the hang of this.","80","","instructions","2021-07-20 08:51:29.921","","","","","",""
"casino-keyboard-response","23","111374","0.0-16.0-0.1","A161","true","img/card_backs/set1/purple.gif","img/card_backs/set1/red.gif","img/card_backs/set1/green.gif","img/card_backs/set1/yellow.gif","img/card_backs/set2/pink.gif","img/card_backs/set2/blue.gif","img/card_backs/set2/orange.gif","img/card_backs/set2/gray.gif","""event"",""trial"",""time""
""fullscreenenter"",""1"",""2115""
","
","
","""event"",""trial"",""time""
""fullscreenenter"",""1"",""2115""
","
","","7381.800000000745","You may have noticed that some cards will cause you to <b> win </b> tokens while other cards will cause you to <b> lose </b>  tokens.","70","","instructions","2021-07-20 08:51:37.306","","","","","",""
"casino-keyboard-response","24","119953","0.0-16.0-0.2","A161","true","img/card_backs/set1/purple.gif","img/card_backs/set1/red.gif","img/card_backs/set1/green.gif","img/card_backs/set1/yellow.gif","img/card_backs/set2/pink.gif","img/card_backs/set2/blue.gif","img/card_backs/set2/orange.gif","img/card_backs/set2/gray.gif","""event"",""trial"",""time""
""fullscreenenter"",""1"",""2115""
","
","
","""event"",""trial"",""time""
""fullscreenenter"",""1"",""2115""
","
","","8576.800000000745","Each deck has a mix of cards that will cause you to win and lose tokens. </br> However, the cards in each colored deck are different.","73","","instructions","2021-07-20 08:51:45.885","","","","","",""
"casino-keyboard-response","25","128426","0.0-16.0-0.3","A161","true","img/card_backs/set1/purple.gif","img/card_backs/set1/red.gif","img/card_backs/set1/green.gif","img/card_backs/set1/yellow.gif","img/card_backs/set2/pink.gif","img/card_backs/set2/blue.gif","img/card_backs/set2/orange.gif","img/card_backs/set2/gray.gif","""event"",""trial"",""time""
""fullscreenenter"",""1"",""2115""
","
","
","""event"",""trial"",""time""
""fullscreenenter"",""1"",""2115""
","
","","8470.60000000149","Some colored decks are luckier than others. </br> If you choose the lucky decks, you will earn more tokens than if you choose the unlucky decks.","69","","instructions","2021-07-20 08:51:54.359","","","","","",""
"casino-keyboard-response","26","135555","0.0-16.0-0.4","A161","true","img/card_backs/set1/purple.gif","img/card_backs/set1/red.gif","img/card_backs/set1/green.gif","img/card_backs/set1/yellow.gif","img/card_backs/set2/pink.gif","img/card_backs/set2/blue.gif","img/card_backs/set2/orange.gif","img/card_backs/set2/gray.gif","""event"",""trial"",""time""
""fullscreenenter"",""1"",""2115""
","
","
","""event"",""trial"",""time""
""fullscreenenter"",""1"",""2115""
","
","","7126.39999999851","You should try to figure out which decks are lucky. </br> Then, try to choose the lucky decks so you can win the most tokens.","87","","instructions","2021-07-20 08:52:01.487","","","","","",""
"casino-keyboard-response","27","146589","0.0-16.0-0.5","A161","true","img/card_backs/set1/purple.gif","img/card_backs/set1/red.gif","img/card_backs/set1/green.gif","img/card_backs/set1/yellow.gif","img/card_backs/set2/pink.gif","img/card_backs/set2/blue.gif","img/card_backs/set2/orange.gif","img/card_backs/set2/gray.gif","""event"",""trial"",""time""
""fullscreenenter"",""1"",""2115""
","
","
","""event"",""trial"",""time""
""fullscreenenter"",""1"",""2115""
","
","","11031.5","To make it trickier, the casino dealer will switch the locations of the decks on every turn. </br> The color of the deck determines how lucky it is. The location does not matter.","88","","instructions","2021-07-20 08:52:12.521","","","","","",""
"casino-keyboard-response","28","156060","0.0-16.0-0.6","A161","true","img/card_backs/set1/purple.gif","img/card_backs/set1/red.gif","img/card_backs/set1/green.gif","img/card_backs/set1/yellow.gif","img/card_backs/set2/pink.gif","img/card_backs/set2/blue.gif","img/card_backs/set2/orange.gif","img/card_backs/set2/gray.gif","""event"",""trial"",""time""
""fullscreenenter"",""1"",""2115""
","
","
","""event"",""trial"",""time""
""fullscreenenter"",""1"",""2115""
","
","","9468.699999999255","The mix of cards in each colored deck will stay the same throughout the game. </br> That means that a deck that is lucky early on will stay lucky.","79","","instructions","2021-07-20 08:52:21.992","","","","","",""
"casino-keyboard-response","29","163996","0.0-16.0-0.7","A161","true","img/card_backs/set1/purple.gif","img/card_backs/set1/red.gif","img/card_backs/set1/green.gif","img/card_backs/set1/yellow.gif","img/card_backs/set2/pink.gif","img/card_backs/set2/blue.gif","img/card_backs/set2/orange.gif","img/card_backs/set2/gray.gif","""event"",""trial"",""time""
""fullscreenenter"",""1"",""2115""
","
","
","""event"",""trial"",""time""
""fullscreenenter"",""1"",""2115""
","
","","7933","Remember though, all the decks have a <b> mix </b> of both <b> good </b> and <b> bad </b> cards so it may take a couple of turns to figure out if a deck is lucky.","69","","instructions","2021-07-20 08:52:29.928","","","","","",""
"casino-keyboard-response","30","171881","0.0-16.0-0.8","A161","true","img/card_backs/set1/purple.gif","img/card_backs/set1/red.gif","img/card_backs/set1/green.gif","img/card_backs/set1/yellow.gif","img/card_backs/set2/pink.gif","img/card_backs/set2/blue.gif","img/card_backs/set2/orange.gif","img/card_backs/set2/gray.gif","""event"",""trial"",""time""
""fullscreenenter"",""1"",""2115""
","
","
","""event"",""trial"",""time""
""fullscreenenter"",""1"",""2115""
","
","","7882.699999999255","At the end of the game, you will be paid bonus money based on how many tokens you win. </br> If you win more tokens, you will earn more money!","72","","instructions","2021-07-20 08:52:37.813","","","","","",""
"casino-keyboard-response","31","182019","0.0-16.0-0.9","A161","true","img/card_backs/set1/purple.gif","img/card_backs/set1/red.gif","img/card_backs/set1/green.gif","img/card_backs/set1/yellow.gif","img/card_backs/set2/pink.gif","img/card_backs/set2/blue.gif","img/card_backs/set2/orange.gif","img/card_backs/set2/gray.gif","""event"",""trial"",""time""
""fullscreenenter"",""1"",""2115""
","
","
","""event"",""trial"",""time""
""fullscreenenter"",""1"",""2115""
","
","","10135.400000002235","You will never <b> lose </b> money. </br> If you end up with fewer than 0 tokens, you will earn $0 of bonus money, but you will still be paid for playing the game.","83","","instructions","2021-07-20 08:52:47.951","","","","","",""
"casino-keyboard-response","32","185960","0.0-16.0-0.10","A161","true","img/card_backs/set1/purple.gif","img/card_backs/set1/red.gif","img/card_backs/set1/green.gif","img/card_backs/set1/yellow.gif","img/card_backs/set2/pink.gif","img/card_backs/set2/blue.gif","img/card_backs/set2/orange.gif","img/card_backs/set2/gray.gif","""event"",""trial"",""time""
""fullscreenenter"",""1"",""2115""
","
","
","""event"",""trial"",""time""
""fullscreenenter"",""1"",""2115""
","
","","3938.5","You will have 10 seconds to make each choice.","82","","instructions","2021-07-20 08:52:51.892","","","","","",""
"casino-keyboard-response","33","194278","0.0-16.0-0.11","A161","true","img/card_backs/set1/purple.gif","img/card_backs/set1/red.gif","img/card_backs/set1/green.gif","img/card_backs/set1/yellow.gif","img/card_backs/set2/pink.gif","img/card_backs/set2/blue.gif","img/card_backs/set2/orange.gif","img/card_backs/set2/gray.gif","""event"",""trial"",""time""
""fullscreenenter"",""1"",""2115""
","
","
","""event"",""trial"",""time""
""fullscreenenter"",""1"",""2115""
","
","","8315","Before you play the game for real, you will play with practice decks. </br> The tokens you earn during practice won't count toward your total.","86","","instructions","2021-07-20 08:53:00.210","","","","","",""
"casino-keyboard-response","34","205693","0.0-16.0-0.12","A161","true","img/card_backs/set1/purple.gif","img/card_backs/set1/red.gif","img/card_backs/set1/green.gif","img/card_backs/set1/yellow.gif","img/card_backs/set2/pink.gif","img/card_backs/set2/blue.gif","img/card_backs/set2/orange.gif","img/card_backs/set2/gray.gif","""event"",""trial"",""time""
""fullscreenenter"",""1"",""2115""
","
","
","""event"",""trial"",""time""
""fullscreenenter"",""1"",""2115""
","
","","11412.10000000149","Ready? Remember, use the '2', '4', '6', and '8' keys to select the decks. </br> Put your fingers on those keys now and then press '2' to begin.","50","","instructions","2021-07-20 08:53:11.625","","","","","",""
"casino-fixation","35","206196","0.0-17.0-0.0","A161","true","img/card_backs/set1/purple.gif","img/card_backs/set1/red.gif","img/card_backs/set1/green.gif","img/card_backs/set1/yellow.gif","img/card_backs/set2/pink.gif","img/card_backs/set2/blue.gif","img/card_backs/set2/orange.gif","img/card_backs/set2/gray.gif","""event"",""trial"",""time""
""fullscreenenter"",""1"",""2115""
","
","
","""event"",""trial"",""time""
""fullscreenenter"",""1"",""2115""
","
","","null","","null","","fixation","2021-07-20 08:53:12.128","","","","","",""
"card-selection-trial","36","209216","0.0-17.0-1.0","A161","true","img/card_backs/set1/purple.gif","img/card_backs/set1/red.gif","img/card_backs/set1/green.gif","img/card_backs/set1/yellow.gif","img/card_backs/set2/pink.gif","img/card_backs/set2/blue.gif","img/card_backs/set2/orange.gif","img/card_backs/set2/gray.gif","""event"",""trial"",""time""
""fullscreenenter"",""1"",""2115""
","
","
","""event"",""trial"",""time""
""fullscreenenter"",""1"",""2115""
","
","","1008.3999999985099","","","","practice","2021-07-20 08:53:15.149","img/practice_cards/backs/dark_green.gif","0","-200","0","",""
"casino-fixation","37","209721","0.0-17.0-0.1","A161","true","img/card_backs/set1/purple.gif","img/card_backs/set1/red.gif","img/card_backs/set1/green.gif","img/card_backs/set1/yellow.gif","img/card_backs/set2/pink.gif","img/card_backs/set2/blue.gif","img/card_backs/set2/orange.gif","img/card_backs/set2/gray.gif","""event"",""trial"",""time""
""fullscreenenter"",""1"",""2115""
","
","
","""event"",""trial"",""time""
""fullscreenenter"",""1"",""2115""
","
","","null","","null","","fixation","2021-07-20 08:53:15.653","","","","","",""
"card-selection-trial","38","212192","0.0-17.0-1.1","A161","true","img/card_backs/set1/purple.gif","img/card_backs/set1/red.gif","img/card_backs/set1/green.gif","img/card_backs/set1/yellow.gif","img/card_backs/set2/pink.gif","img/card_backs/set2/blue.gif","img/card_backs/set2/orange.gif","img/card_backs/set2/gray.gif","""event"",""trial"",""time""
""fullscreenenter"",""1"",""2115""
","
","
","""event"",""trial"",""time""
""fullscreenenter"",""1"",""2115""
","
","","460.29999999701977","","","","practice","2021-07-20 08:53:18.124","img/practice_cards/backs/dark_green.gif","1","-200","0","",""
"casino-fixation","39","212699","0.0-17.0-0.2","A161","true","img/card_backs/set1/purple.gif","img/card_backs/set1/red.gif","img/card_backs/set1/green.gif","img/card_backs/set1/yellow.gif","img/card_backs/set2/pink.gif","img/card_backs/set2/blue.gif","img/card_backs/set2/orange.gif","img/card_backs/set2/gray.gif","""event"",""trial"",""time""
""fullscreenenter"",""1"",""2115""
","
","
","""event"",""trial"",""time""
""fullscreenenter"",""1"",""2115""
","
","","null","","null","","fixation","2021-07-20 08:53:18.631","","","","","",""
"card-selection-trial","40","217761","0.0-17.0-1.2","A161","true","img/card_backs/set1/purple.gif","img/card_backs/set1/red.gif","img/card_backs/set1/green.gif","img/card_backs/set1/yellow.gif","img/card_backs/set2/pink.gif","img/card_backs/set2/blue.gif","img/card_backs/set2/orange.gif","img/card_backs/set2/gray.gif","""event"",""trial"",""time""
""fullscreenenter"",""1"",""2115""
","
","
","""event"",""trial"",""time""
""fullscreenenter"",""1"",""2115""
","
","","3051.699999999255","","","","practice","2021-07-20 08:53:23.693","img/practice_cards/backs/dark_blue.gif","1","-200","0","",""
"casino-fixation","41","218266","0.0-17.0-0.3","A161","true","img/card_backs/set1/purple.gif","img/card_backs/set1/red.gif","img/card_backs/set1/green.gif","img/card_backs/set1/yellow.gif","img/card_backs/set2/pink.gif","img/card_backs/set2/blue.gif","img/card_backs/set2/orange.gif","img/card_backs/set2/gray.gif","""event"",""trial"",""time""
""fullscreenenter"",""1"",""2115""
","
","
","""event"",""trial"",""time""
""fullscreenenter"",""1"",""2115""
","
","","null","","null","","fixation","2021-07-20 08:53:24.198","","","","","",""
"card-selection-trial","42","221477","0.0-17.0-1.3","A161","true","img/card_backs/set1/purple.gif","img/card_backs/set1/red.gif","img/card_backs/set1/green.gif","img/card_backs/set1/yellow.gif","img/card_backs/set2/pink.gif","img/card_backs/set2/blue.gif","img/card_backs/set2/orange.gif","img/card_backs/set2/gray.gif","""event"",""trial"",""time""
""fullscreenenter"",""1"",""2115""
","
","
","""event"",""trial"",""time""
""fullscreenenter"",""1"",""2115""
","
","","1201","","","","practice","2021-07-20 08:53:27.409","img/practice_cards/backs/brown.gif","0","-100","0","",""
"casino-fixation","43","221981","0.0-17.0-0.4","A161","true","img/card_backs/set1/purple.gif","img/card_backs/set1/red.gif","img/card_backs/set1/green.gif","img/card_backs/set1/yellow.gif","img/card_backs/set2/pink.gif","img/card_backs/set2/blue.gif","img/card_backs/set2/orange.gif","img/card_backs/set2/gray.gif","""event"",""trial"",""time""
""fullscreenenter"",""1"",""2115""
","
","
","""event"",""trial"",""time""
""fullscreenenter"",""1"",""2115""
","
","","null","","null","","fixation","2021-07-20 08:53:27.913","","","","","",""
"card-selection-trial","44","224768","0.0-17.0-1.4","A161","true","img/card_backs/set1/purple.gif","img/card_backs/set1/red.gif","img/card_backs/set1/green.gif","img/card_backs/set1/yellow.gif","img/card_backs/set2/pink.gif","img/card_backs/set2/blue.gif","img/card_backs/set2/orange.gif","img/card_backs/set2/gray.gif","""event"",""trial"",""time""
""fullscreenenter"",""1"",""2115""
","
","
","""event"",""trial"",""time""
""fullscreenenter"",""1"",""2115""
","
","","774.4000000022352","","","","practice","2021-07-20 08:53:30.700","img/practice_cards/backs/black.gif","0","100","0","",""
"casino-fixation","45","225272","0.0-17.0-0.5","A161","true","img/card_backs/set1/purple.gif","img/card_backs/set1/red.gif","img/card_backs/set1/green.gif","img/card_backs/set1/yellow.gif","img/card_backs/set2/pink.gif","img/card_backs/set2/blue.gif","img/card_backs/set2/orange.gif","img/card_backs/set2/gray.gif","""event"",""trial"",""time""
""fullscreenenter"",""1"",""2115""
","
","
","""event"",""trial"",""time""
""fullscreenenter"",""1"",""2115""
","
","","null","","null","","fixation","2021-07-20 08:53:31.204","","","","","",""
"card-selection-trial","46","227757","0.0-17.0-1.5","A161","true","img/card_backs/set1/purple.gif","img/card_backs/set1/red.gif","img/card_backs/set1/green.gif","img/card_backs/set1/yellow.gif","img/card_backs/set2/pink.gif","img/card_backs/set2/blue.gif","img/card_backs/set2/orange.gif","img/card_backs/set2/gray.gif","""event"",""trial"",""time""
""fullscreenenter"",""1"",""2115""
","
","
","""event"",""trial"",""time""
""fullscreenenter"",""1"",""2115""
","
","","474.5","","","","practice","2021-07-20 08:53:33.690","img/practice_cards/backs/black.gif","0","-100","0","",""
"casino-fixation","47","228262","0.0-17.0-0.6","A161","true","img/card_backs/set1/purple.gif","img/card_backs/set1/red.gif","img/card_backs/set1/green.gif","img/card_backs/set1/yellow.gif","img/card_backs/set2/pink.gif","img/card_backs/set2/blue.gif","img/card_backs/set2/orange.gif","img/card_backs/set2/gray.gif","""event"",""trial"",""time""
""fullscreenenter"",""1"",""2115""
","
","
","""event"",""trial"",""time""
""fullscreenenter"",""1"",""2115""
","
","","null","","null","","fixation","2021-07-20 08:53:34.194","","","","","",""
"card-selection-trial","48","230718","0.0-17.0-1.6","A161","true","img/card_backs/set1/purple.gif","img/card_backs/set1/red.gif","img/card_backs/set1/green.gif","img/card_backs/set1/yellow.gif","img/card_backs/set2/pink.gif","img/card_backs/set2/blue.gif","img/card_backs/set2/orange.gif","img/card_backs/set2/gray.gif","""event"",""trial"",""time""
""fullscreenenter"",""1"",""2115""
","
","
","""event"",""trial"",""time""
""fullscreenenter"",""1"",""2115""
","
","","446","","","","practice","2021-07-20 08:53:36.650","img/practice_cards/backs/black.gif","0","-100","0","",""
"casino-fixation","49","231222","0.0-17.0-0.7","A161","true","img/card_backs/set1/purple.gif","img/card_backs/set1/red.gif","img/card_backs/set1/green.gif","img/card_backs/set1/yellow.gif","img/card_backs/set2/pink.gif","img/card_backs/set2/blue.gif","img/card_backs/set2/orange.gif","img/card_backs/set2/gray.gif","""event"",""trial"",""time""
""fullscreenenter"",""1"",""2115""
","
","
","""event"",""trial"",""time""
""fullscreenenter"",""1"",""2115""
","
","","null","","null","","fixation","2021-07-20 08:53:37.154","","","","","",""
"card-selection-trial","50","234343","0.0-17.0-1.7","A161","true","img/card_backs/set1/purple.gif","img/card_backs/set1/red.gif","img/card_backs/set1/green.gif","img/card_backs/set1/yellow.gif","img/card_backs/set2/pink.gif","img/card_backs/set2/blue.gif","img/card_backs/set2/orange.gif","img/card_backs/set2/gray.gif","""event"",""trial"",""time""
""fullscreenenter"",""1"",""2115""
","
","
","""event"",""trial"",""time""
""fullscreenenter"",""1"",""2115""
","
","","1108.199999999255","","","","practice","2021-07-20 08:53:40.275","img/practice_cards/backs/brown.gif","3","100","0","",""
"casino-fixation","51","234851","0.0-17.0-0.8","A161","true","img/card_backs/set1/purple.gif","img/card_backs/set1/red.gif","img/card_backs/set1/green.gif","img/card_backs/set1/yellow.gif","img/card_backs/set2/pink.gif","img/card_backs/set2/blue.gif","img/card_backs/set2/orange.gif","img/card_backs/set2/gray.gif","""event"",""trial"",""time""
""fullscreenenter"",""1"",""2115""
","
","
","""event"",""trial"",""time""
""fullscreenenter"",""1"",""2115""
","
","","null","","null","","fixation","2021-07-20 08:53:40.783","","","","","",""
"card-selection-trial","52","237749","0.0-17.0-1.8","A161","true","img/card_backs/set1/purple.gif","img/card_backs/set1/red.gif","img/card_backs/set1/green.gif","img/card_backs/set1/yellow.gif","img/card_backs/set2/pink.gif","img/card_backs/set2/blue.gif","img/card_backs/set2/orange.gif","img/card_backs/set2/gray.gif","""event"",""trial"",""time""
""fullscreenenter"",""1"",""2115""
","
","
","""event"",""trial"",""time""
""fullscreenenter"",""1"",""2115""
","
","","888.3999999985099","","","","practice","2021-07-20 08:53:43.681","img/practice_cards/backs/brown.gif","0","100","0","",""
"casino-fixation","53","238253","0.0-17.0-0.9","A161","true","img/card_backs/set1/purple.gif","img/card_backs/set1/red.gif","img/card_backs/set1/green.gif","img/card_backs/set1/yellow.gif","img/card_backs/set2/pink.gif","img/card_backs/set2/blue.gif","img/card_backs/set2/orange.gif","img/card_backs/set2/gray.gif","""event"",""trial"",""time""
""fullscreenenter"",""1"",""2115""
","
","
","""event"",""trial"",""time""
""fullscreenenter"",""1"",""2115""
","
","","null","","null","","fixation","2021-07-20 08:53:44.185","","","","","",""
"card-selection-trial","54","241841","0.0-17.0-1.9","A161","true","img/card_backs/set1/purple.gif","img/card_backs/set1/red.gif","img/card_backs/set1/green.gif","img/card_backs/set1/yellow.gif","img/card_backs/set2/pink.gif","img/card_backs/set2/blue.gif","img/card_backs/set2/orange.gif","img/card_backs/set2/gray.gif","""event"",""trial"",""time""
""fullscreenenter"",""1"",""2115""
","
","
","""event"",""trial"",""time""
""fullscreenenter"",""1"",""2115""
","
","","1573.800000000745","","","","practice","2021-07-20 08:53:47.773","img/practice_cards/backs/brown.gif","2","100","0","",""
"casino-keyboard-response","55","244816","0.0-18.0","A161","true","img/card_backs/set1/purple.gif","img/card_backs/set1/red.gif","img/card_backs/set1/green.gif","img/card_backs/set1/yellow.gif","img/card_backs/set2/pink.gif","img/card_backs/set2/blue.gif","img/card_backs/set2/orange.gif","img/card_backs/set2/gray.gif","""event"",""trial"",""time""
""fullscreenenter"",""1"",""2115""
","
","
","""event"",""trial"",""time""
""fullscreenenter"",""1"",""2115""
","
","","2973","You earned -500 tokens during the practice round!","82","","","2021-07-20 08:53:50.748","","","","","",""
"casino-keyboard-response","56","249266","0.0-19.0-0.0","A161","true","img/card_backs/set1/purple.gif","img/card_backs/set1/red.gif","img/card_backs/set1/green.gif","img/card_backs/set1/yellow.gif","img/card_backs/set2/pink.gif","img/card_backs/set2/blue.gif","img/card_backs/set2/orange.gif","img/card_backs/set2/gray.gif","""event"",""trial"",""time""
""fullscreenenter"",""1"",""2115""
","
","
","""event"",""trial"",""time""
""fullscreenenter"",""1"",""2115""
","
","","4448.199999999255","Nice job! You are almost ready to play the real game.","86","","instructions","2021-07-20 08:53:55.198","","","","","",""
"casino-keyboard-response","57","255461","0.0-19.0-0.1","A161","true","img/card_backs/set1/purple.gif","img/card_backs/set1/red.gif","img/card_backs/set1/green.gif","img/card_backs/set1/yellow.gif","img/card_backs/set2/pink.gif","img/card_backs/set2/blue.gif","img/card_backs/set2/orange.gif","img/card_backs/set2/gray.gif","""event"",""trial"",""time""
""fullscreenenter"",""1"",""2115""
","
","
","""event"",""trial"",""time""
""fullscreenenter"",""1"",""2115""
","
","","6192.800000000745","You will play two rounds of the real game. In each round, you will pick 100 cards in total.","73","","instructions","2021-07-20 08:54:01.394","","","","","",""
"casino-keyboard-response","58","259358","0.0-19.0-0.2","A161","true","img/card_backs/set1/purple.gif","img/card_backs/set1/red.gif","img/card_backs/set1/green.gif","img/card_backs/set1/yellow.gif","img/card_backs/set2/pink.gif","img/card_backs/set2/blue.gif","img/card_backs/set2/orange.gif","img/card_backs/set2/gray.gif","""event"",""trial"",""time""
""fullscreenenter"",""1"",""2115""
","
","
","""event"",""trial"",""time""
""fullscreenenter"",""1"",""2115""
","
","","3894","We are now going to ask you some questions about how the game works.","66","","instructions","2021-07-20 08:54:05.290","","","","","",""
"casino-keyboard-response","59","265398","0.0-19.0-0.3","A161","true","img/card_backs/set1/purple.gif","img/card_backs/set1/red.gif","img/card_backs/set1/green.gif","img/card_backs/set1/yellow.gif","img/card_backs/set2/pink.gif","img/card_backs/set2/blue.gif","img/card_backs/set2/orange.gif","img/card_backs/set2/gray.gif","""event"",""trial"",""time""
""fullscreenenter"",""1"",""2115""
","
","
","""event"",""trial"",""time""
""fullscreenenter"",""1"",""2115""
","
","","6037.29999999702","Answer carefully. You will not be able to begin the game until you answer them correctly.","67","","instructions","2021-07-20 08:54:11.330","","","","","",""
"casino-comp_q","60","272358","0.0-20.0-0.0","A161","true","img/card_backs/set1/purple.gif","img/card_backs/set1/red.gif","img/card_backs/set1/green.gif","img/card_backs/set1/yellow.gif","img/card_backs/set2/pink.gif","img/card_backs/set2/blue.gif","img/card_backs/set2/orange.gif","img/card_backs/set2/gray.gif","""event"",""trial"",""time""
""fullscreenenter"",""1"",""2115""
","
","
","""event"",""trial"",""time""
""fullscreenenter"",""1"",""2115""
","
","","6957.29999999702","True or False: All the decks have some cards that cause you to win tokens and some cards that cause you to lose tokens.","84","","","2021-07-20 08:54:18.292","","","","","",""
"casino-keyboard-response","61","276497","0.0-20.0-1.0","A161","true","img/card_backs/set1/purple.gif","img/card_backs/set1/red.gif","img/card_backs/set1/green.gif","img/card_backs/set1/yellow.gif","img/card_backs/set2/pink.gif","img/card_backs/set2/blue.gif","img/card_backs/set2/orange.gif","img/card_backs/set2/gray.gif","""event"",""trial"",""time""
""fullscreenenter"",""1"",""2115""
","
","
","""event"",""trial"",""time""
""fullscreenenter"",""1"",""2115""
","
","","4135","True is correct! All the decks have a mix of winning and losing cards.","77","","","2021-07-20 08:54:22.430","","","","","true",""
"casino-comp_q","62","280827","0.0-21.0-0.0","A161","true","img/card_backs/set1/purple.gif","img/card_backs/set1/red.gif","img/card_backs/set1/green.gif","img/card_backs/set1/yellow.gif","img/card_backs/set2/pink.gif","img/card_backs/set2/blue.gif","img/card_backs/set2/orange.gif","img/card_backs/set2/gray.gif","""event"",""trial"",""time""
""fullscreenenter"",""1"",""2115""
","
","
","""event"",""trial"",""time""
""fullscreenenter"",""1"",""2115""
","
","","4325.800000000745","True or False: You will have as much time as you want to make your response.","70","","","2021-07-20 08:54:26.759","","","","","",""
"casino-keyboard-response","63","284518","0.0-21.0-1.0","A161","true","img/card_backs/set1/purple.gif","img/card_backs/set1/red.gif","img/card_backs/set1/green.gif","img/card_backs/set1/yellow.gif","img/card_backs/set2/pink.gif","img/card_backs/set2/blue.gif","img/card_backs/set2/orange.gif","img/card_backs/set2/gray.gif","""event"",""trial"",""time""
""fullscreenenter"",""1"",""2115""
","
","
","""event"",""trial"",""time""
""fullscreenenter"",""1"",""2115""
","
","","3682.199999999255","False is correct! You will only have 10 seconds to make each choice.","75","","","2021-07-20 08:54:30.450","","","","","true",""
"casino-comp_q","64","288735","0.0-22.0-0.0","A161","true","img/card_backs/set1/purple.gif","img/card_backs/set1/red.gif","img/card_backs/set1/green.gif","img/card_backs/set1/yellow.gif","img/card_backs/set2/pink.gif","img/card_backs/set2/blue.gif","img/card_backs/set2/orange.gif","img/card_backs/set2/gray.gif","""event"",""trial"",""time""
""fullscreenenter"",""1"",""2115""
","
","
","""event"",""trial"",""time""
""fullscreenenter"",""1"",""2115""
","
","","4213.800000000745","True or False: The location of the deck determines how lucky it is.","70","","","2021-07-20 08:54:34.667","","","","","",""
"casino-keyboard-response","65","293331","0.0-22.0-1.0","A161","true","img/card_backs/set1/purple.gif","img/card_backs/set1/red.gif","img/card_backs/set1/green.gif","img/card_backs/set1/yellow.gif","img/card_backs/set2/pink.gif","img/card_backs/set2/blue.gif","img/card_backs/set2/orange.gif","img/card_backs/set2/gray.gif","""event"",""trial"",""time""
""fullscreenenter"",""1"",""2115""
","
","
","""event"",""trial"",""time""
""fullscreenenter"",""1"",""2115""
","
","","4594.400000002235","False is correct! The <i>color</i>  of the deck determines how lucky or unlucky it is.","68","","","2021-07-20 08:54:39.263","","","","","true",""
"casino-keyboard-response","66","297516","0.0-23.0-0.0","A161","true","img/card_backs/set1/purple.gif","img/card_backs/set1/red.gif","img/card_backs/set1/green.gif","img/card_backs/set1/yellow.gif","img/card_backs/set2/pink.gif","img/card_backs/set2/blue.gif","img/card_backs/set2/orange.gif","img/card_backs/set2/gray.gif","""event"",""trial"",""time""
""fullscreenenter"",""1"",""2115""
","
","
","""event"",""trial"",""time""
""fullscreenenter"",""1"",""2115""
","
","","4182.10000000149","Great job! Now it's time to start the real game.","82","","instructions","2021-07-20 08:54:43.448","","","","","",""
"casino-keyboard-response","67","302538","0.0-23.0-0.1","A161","true","img/card_backs/set1/purple.gif","img/card_backs/set1/red.gif","img/card_backs/set1/green.gif","img/card_backs/set1/yellow.gif","img/card_backs/set2/pink.gif","img/card_backs/set2/blue.gif","img/card_backs/set2/orange.gif","img/card_backs/set2/gray.gif","""event"",""trial"",""time""
""fullscreenenter"",""1"",""2115""
","
","
","""event"",""trial"",""time""
""fullscreenenter"",""1"",""2115""
","
","","5019.300000000745","Before we start, we're going to head into a new room of the casino.","86","","instructions","2021-07-20 08:54:48.470","","","","","",""
"casino-keyboard-response","68","308452","0.0-24.0-0.0","A161","true","img/card_backs/set1/purple.gif","img/card_backs/set1/red.gif","img/card_backs/set1/green.gif","img/card_backs/set1/yellow.gif","img/card_backs/set2/pink.gif","img/card_backs/set2/blue.gif","img/card_backs/set2/orange.gif","img/card_backs/set2/gray.gif","""event"",""trial"",""time""
""fullscreenenter"",""1"",""2115""
","
","
","""event"",""trial"",""time""
""fullscreenenter"",""1"",""2115""
","
","","5911.800000000745","Here we are! The real game will use different cards, but the rules will be the same.","71","","instructions","2021-07-20 08:54:54.384","","","","","",""
"casino-keyboard-response","69","317363","0.0-24.0-0.1","A161","true","img/card_backs/set1/purple.gif","img/card_backs/set1/red.gif","img/card_backs/set1/green.gif","img/card_backs/set1/yellow.gif","img/card_backs/set2/pink.gif","img/card_backs/set2/blue.gif","img/card_backs/set2/orange.gif","img/card_backs/set2/gray.gif","""event"",""trial"",""time""
""fullscreenenter"",""1"",""2115""
","
","
","""event"",""trial"",""time""
""fullscreenenter"",""1"",""2115""
","
","","8908.699999999255","Ready? Put your fingers over the '2', '4', 6', and '8' keys so you are ready to play the game. </br> Then press 2 to start.","50","","instructions","2021-07-20 08:55:03.295","","","","","",""
"casino-fixation","70","317868","0.0-25.0-0.0","A161","true","img/card_backs/set1/purple.gif","img/card_backs/set1/red.gif","img/card_backs/set1/green.gif","img/card_backs/set1/yellow.gif","img/card_backs/set2/pink.gif","img/card_backs/set2/blue.gif","img/card_backs/set2/orange.gif","img/card_backs/set2/gray.gif","""event"",""trial"",""time""
""fullscreenenter"",""1"",""2115""
","
","
","""event"",""trial"",""time""
""fullscreenenter"",""1"",""2115""
","
","","null","","null","","fixation","2021-07-20 08:55:03.800","","","","","",""
"card-selection-trial","71","321072","0.0-25.0-1.0","A161","true","img/card_backs/set1/purple.gif","img/card_backs/set1/red.gif","img/card_backs/set1/green.gif","img/card_backs/set1/yellow.gif","img/card_backs/set2/pink.gif","img/card_backs/set2/blue.gif","img/card_backs/set2/orange.gif","img/card_backs/set2/gray.gif","""event"",""trial"",""time""
""fullscreenenter"",""1"",""2115""
","
","
","""event"",""trial"",""time""
""fullscreenenter"",""1"",""2115""
","
","","1190.699999999255","","","","real_trial","2021-07-20 08:55:07.005","img/card_backs/set1/purple.gif","0","250","1","",""
"casino-fixation","72","321577","0.0-25.0-0.1","A161","true","img/card_backs/set1/purple.gif","img/card_backs/set1/red.gif","img/card_backs/set1/green.gif","img/card_backs/set1/yellow.gif","img/card_backs/set2/pink.gif","img/card_backs/set2/blue.gif","img/card_backs/set2/orange.gif","img/card_backs/set2/gray.gif","""event"",""trial"",""time""
""fullscreenenter"",""1"",""2115""
","
","
","""event"",""trial"",""time""
""fullscreenenter"",""1"",""2115""
","
","","null","","null","","fixation","2021-07-20 08:55:07.509","","","","","",""
"card-selection-trial","73","324712","0.0-25.0-1.1","A161","true","img/card_backs/set1/purple.gif","img/card_backs/set1/red.gif","img/card_backs/set1/green.gif","img/card_backs/set1/yellow.gif","img/card_backs/set2/pink.gif","img/card_backs/set2/blue.gif","img/card_backs/set2/orange.gif","img/card_backs/set2/gray.gif","""event"",""trial"",""time""
""fullscreenenter"",""1"",""2115""
","
","
","""event"",""trial"",""time""
""fullscreenenter"",""1"",""2115""
","
","","1122.199999999255","","","","real_trial","2021-07-20 08:55:10.644","img/card_backs/set1/yellow.gif","1","-110","1","",""
"casino-fixation","74","325217","0.0-25.0-0.2","A161","true","img/card_backs/set1/purple.gif","img/card_backs/set1/red.gif","img/card_backs/set1/green.gif","img/card_backs/set1/yellow.gif","img/card_backs/set2/pink.gif","img/card_backs/set2/blue.gif","img/card_backs/set2/orange.gif","img/card_backs/set2/gray.gif","""event"",""trial"",""time""
""fullscreenenter"",""1"",""2115""
","
","
","""event"",""trial"",""time""
""fullscreenenter"",""1"",""2115""
","
","","null","","null","","fixation","2021-07-20 08:55:11.149","","","","","",""
"card-selection-trial","75","328857","0.0-25.0-1.2","A161","true","img/card_backs/set1/purple.gif","img/card_backs/set1/red.gif","img/card_backs/set1/green.gif","img/card_backs/set1/yellow.gif","img/card_backs/set2/pink.gif","img/card_backs/set2/blue.gif","img/card_backs/set2/orange.gif","img/card_backs/set2/gray.gif","""event"",""trial"",""time""
""fullscreenenter"",""1"",""2115""
","
","
","""event"",""trial"",""time""
""fullscreenenter"",""1"",""2115""
","
","","1625.5","","","","real_trial","2021-07-20 08:55:14.789","img/card_backs/set1/green.gif","0","60","1","",""
"casino-fixation","76","329361","0.0-25.0-0.3","A161","true","img/card_backs/set1/purple.gif","img/card_backs/set1/red.gif","img/card_backs/set1/green.gif","img/card_backs/set1/yellow.gif","img/card_backs/set2/pink.gif","img/card_backs/set2/blue.gif","img/card_backs/set2/orange.gif","img/card_backs/set2/gray.gif","""event"",""trial"",""time""
""fullscreenenter"",""1"",""2115""
","
","
","""event"",""trial"",""time""
""fullscreenenter"",""1"",""2115""
","
","","null","","null","","fixation","2021-07-20 08:55:15.294","","","","","",""
"card-selection-trial","77","332405","0.0-25.0-1.3","A161","true","img/card_backs/set1/purple.gif","img/card_backs/set1/red.gif","img/card_backs/set1/green.gif","img/card_backs/set1/yellow.gif","img/card_backs/set2/pink.gif","img/card_backs/set2/blue.gif","img/card_backs/set2/orange.gif","img/card_backs/set2/gray.gif","""event"",""trial"",""time""
""fullscreenenter"",""1"",""2115""
","
","
","""event"",""trial"",""time""
""fullscreenenter"",""1"",""2115""
","
","","1034.3999999985099","","","","real_trial","2021-07-20 08:55:18.337","img/card_backs/set1/red.gif","2","250","1","",""
"casino-fixation","78","332908","0.0-25.0-0.4","A161","true","img/card_backs/set1/purple.gif","img/card_backs/set1/red.gif","img/card_backs/set1/green.gif","img/card_backs/set1/yellow.gif","img/card_backs/set2/pink.gif","img/card_backs/set2/blue.gif","img/card_backs/set2/orange.gif","img/card_backs/set2/gray.gif","""event"",""trial"",""time""
""fullscreenenter"",""1"",""2115""
","
","
","""event"",""trial"",""time""
""fullscreenenter"",""1"",""2115""
","
","","null","","null","","fixation","2021-07-20 08:55:18.840","","","","","",""
"card-selection-trial","79","335901","0.0-25.0-1.4","A161","true","img/card_backs/set1/purple.gif","img/card_backs/set1/red.gif","img/card_backs/set1/green.gif","img/card_backs/set1/yellow.gif","img/card_backs/set2/pink.gif","img/card_backs/set2/blue.gif","img/card_backs/set2/orange.gif","img/card_backs/set2/gray.gif","""event"",""trial"",""time""
""fullscreenenter"",""1"",""2115""
","
","
","""event"",""trial"",""time""
""fullscreenenter"",""1"",""2115""
","
","","982.1999999992549","","","","real_trial","2021-07-20 08:55:21.833","img/card_backs/set1/purple.gif","2","240","1","",""
"casino-fixation","80","336404","0.0-25.0-0.5","A161","true","img/card_backs/set1/purple.gif","img/card_backs/set1/red.gif","img/card_backs/set1/green.gif","img/card_backs/set1/yellow.gif","img/card_backs/set2/pink.gif","img/card_backs/set2/blue.gif","img/card_backs/set2/orange.gif","img/card_backs/set2/gray.gif","""event"",""trial"",""time""
""fullscreenenter"",""1"",""2115""
","
","
","""event"",""trial"",""time""
""fullscreenenter"",""1"",""2115""
","
","","null","","null","","fixation","2021-07-20 08:55:22.336","","","","","",""
"card-selection-trial","81","338880","0.0-25.0-1.5","A161","true","img/card_backs/set1/purple.gif","img/card_backs/set1/red.gif","img/card_backs/set1/green.gif","img/card_backs/set1/yellow.gif","img/card_backs/set2/pink.gif","img/card_backs/set2/blue.gif","img/card_backs/set2/orange.gif","img/card_backs/set2/gray.gif","""event"",""trial"",""time""
""fullscreenenter"",""1"",""2115""
","
","
","""event"",""trial"",""time""
""fullscreenenter"",""1"",""2115""
","
","","463.19999999925494","","","","real_trial","2021-07-20 08:55:24.812","img/card_backs/set1/purple.gif","2","-190","1","",""
"casino-fixation","82","339382","0.0-25.0-0.6","A161","true","img/card_backs/set1/purple.gif","img/card_backs/set1/red.gif","img/card_backs/set1/green.gif","img/card_backs/set1/yellow.gif","img/card_backs/set2/pink.gif","img/card_backs/set2/blue.gif","img/card_backs/set2/orange.gif","img/card_backs/set2/gray.gif","""event"",""trial"",""time""
""fullscreenenter"",""1"",""2115""
","
","
","""event"",""trial"",""time""
""fullscreenenter"",""1"",""2115""
","
","","null","","null","","fixation","2021-07-20 08:55:25.314","","","","","",""
"card-selection-trial","83","342397","0.0-25.0-1.6","A161","true","img/card_backs/set1/purple.gif","img/card_backs/set1/red.gif","img/card_backs/set1/green.gif","img/card_backs/set1/yellow.gif","img/card_backs/set2/pink.gif","img/card_backs/set2/blue.gif","img/card_backs/set2/orange.gif","img/card_backs/set2/gray.gif","""event"",""trial"",""time""
""fullscreenenter"",""1"",""2115""
","
","
","""event"",""trial"",""time""
""fullscreenenter"",""1"",""2115""
","
","","1004.6999999992549","","","","real_trial","2021-07-20 08:55:28.329","img/card_backs/set1/purple.gif","1","250","1","",""
"casino-fixation","84","342900","0.0-25.0-0.7","A161","true","img/card_backs/set1/purple.gif","img/card_backs/set1/red.gif","img/card_backs/set1/green.gif","img/card_backs/set1/yellow.gif","img/card_backs/set2/pink.gif","img/card_backs/set2/blue.gif","img/card_backs/set2/orange.gif","img/card_backs/set2/gray.gif","""event"",""trial"",""time""
""fullscreenenter"",""1"",""2115""
","
","
","""event"",""trial"",""time""
""fullscreenenter"",""1"",""2115""
","
","","null","","null","","fixation","2021-07-20 08:55:28.832","","","","","",""
"card-selection-trial","85","345429","0.0-25.0-1.7","A161","true","img/card_backs/set1/purple.gif","img/card_backs/set1/red.gif","img/card_backs/set1/green.gif","img/card_backs/set1/yellow.gif","img/card_backs/set2/pink.gif","img/card_backs/set2/blue.gif","img/card_backs/set2/orange.gif","img/card_backs/set2/gray.gif","""event"",""trial"",""time""
""fullscreenenter"",""1"",""2115""
","
","
","""event"",""trial"",""time""
""fullscreenenter"",""1"",""2115""
","
","","519.1999999992549","","","","real_trial","2021-07-20 08:55:31.361","img/card_backs/set1/purple.gif","1","260","1","",""
"casino-fixation","86","345934","0.0-25.0-0.8","A161","true","img/card_backs/set1/purple.gif","img/card_backs/set1/red.gif","img/card_backs/set1/green.gif","img/card_backs/set1/yellow.gif","img/card_backs/set2/pink.gif","img/card_backs/set2/blue.gif","img/card_backs/set2/orange.gif","img/card_backs/set2/gray.gif","""event"",""trial"",""time""
""fullscreenenter"",""1"",""2115""
","
","
","""event"",""trial"",""time""
""fullscreenenter"",""1"",""2115""
","
","","null","","null","","fixation","2021-07-20 08:55:31.866","","","","","",""
"card-selection-trial","87","348606","0.0-25.0-1.8","A161","true","img/card_backs/set1/purple.gif","img/card_backs/set1/red.gif","img/card_backs/set1/green.gif","img/card_backs/set1/yellow.gif","img/card_backs/set2/pink.gif","img/card_backs/set2/blue.gif","img/card_backs/set2/orange.gif","img/card_backs/set2/gray.gif","""event"",""trial"",""time""
""fullscreenenter"",""1"",""2115""
","
","
","""event"",""trial"",""time""
""fullscreenenter"",""1"",""2115""
","
","","659.8999999985099","","","","real_trial","2021-07-20 08:55:34.538","img/card_backs/set1/purple.gif","0","-200","1","",""
"casino-fixation","88","349111","0.0-25.0-0.9","A161","true","img/card_backs/set1/purple.gif","img/card_backs/set1/red.gif","img/card_backs/set1/green.gif","img/card_backs/set1/yellow.gif","img/card_backs/set2/pink.gif","img/card_backs/set2/blue.gif","img/card_backs/set2/orange.gif","img/card_backs/set2/gray.gif","""event"",""trial"",""time""
""fullscreenenter"",""1"",""2115""
","
","
","""event"",""trial"",""time""
""fullscreenenter"",""1"",""2115""
","
","","null","","null","","fixation","2021-07-20 08:55:35.043","","","","","",""
"card-selection-trial","89","352252","0.0-25.0-1.9","A161","true","img/card_backs/set1/purple.gif","img/card_backs/set1/red.gif","img/card_backs/set1/green.gif","img/card_backs/set1/yellow.gif","img/card_backs/set2/pink.gif","img/card_backs/set2/blue.gif","img/card_backs/set2/orange.gif","img/card_backs/set2/gray.gif","""event"",""trial"",""time""
""fullscreenenter"",""1"",""2115""
","
","
","""event"",""trial"",""time""
""fullscreenenter"",""1"",""2115""
","
","","1131.6000000014901","","","","real_trial","2021-07-20 08:55:38.184","img/card_backs/set1/red.gif","2","240","1","",""
"casino-fixation","90","352756","0.0-25.0-0.10","A161","true","img/card_backs/set1/purple.gif","img/card_backs/set1/red.gif","img/card_backs/set1/green.gif","img/card_backs/set1/yellow.gif","img/card_backs/set2/pink.gif","img/card_backs/set2/blue.gif","img/card_backs/set2/orange.gif","img/card_backs/set2/gray.gif","""event"",""trial"",""time""
""fullscreenenter"",""1"",""2115""
","
","
","""event"",""trial"",""time""
""fullscreenenter"",""1"",""2115""
","
","","null","","null","","fixation","2021-07-20 08:55:38.688","","","","","",""
"card-selection-trial","91","355711","0.0-25.0-1.10","A161","true","img/card_backs/set1/purple.gif","img/card_backs/set1/red.gif","img/card_backs/set1/green.gif","img/card_backs/set1/yellow.gif","img/card_backs/set2/pink.gif","img/card_backs/set2/blue.gif","img/card_backs/set2/orange.gif","img/card_backs/set2/gray.gif","""event"",""trial"",""time""
""fullscreenenter"",""1"",""2115""
","
","
","""event"",""trial"",""time""
""fullscreenenter"",""1"",""2115""
","
","","942.5","","","","real_trial","2021-07-20 08:55:41.643","img/card_backs/set1/red.gif","3","240","1","",""
"casino-fixation","92","356216","0.0-25.0-0.11","A161","true","img/card_backs/set1/purple.gif","img/card_backs/set1/red.gif","img/card_backs/set1/green.gif","img/card_backs/set1/yellow.gif","img/card_backs/set2/pink.gif","img/card_backs/set2/blue.gif","img/card_backs/set2/orange.gif","img/card_backs/set2/gray.gif","""event"",""trial"",""time""
""fullscreenenter"",""1"",""2115""
","
","
","""event"",""trial"",""time""
""fullscreenenter"",""1"",""2115""
","
","","null","","null","","fixation","2021-07-20 08:55:42.148","","","","","",""
"card-selection-trial","93","358956","0.0-25.0-1.11","A161","true","img/card_backs/set1/purple.gif","img/card_backs/set1/red.gif","img/card_backs/set1/green.gif","img/card_backs/set1/yellow.gif","img/card_backs/set2/pink.gif","img/card_backs/set2/blue.gif","img/card_backs/set2/orange.gif","img/card_backs/set2/gray.gif","""event"",""trial"",""time""
""fullscreenenter"",""1"",""2115""
","
","
","""event"",""trial"",""time""
""fullscreenenter"",""1"",""2115""
","
","","730.0999999977648","","","","real_trial","2021-07-20 08:55:44.888","img/card_backs/set1/red.gif","2","240","1","",""
"casino-fixation","94","359461","0.0-25.0-0.12","A161","true","img/card_backs/set1/purple.gif","img/card_backs/set1/red.gif","img/card_backs/set1/green.gif","img/card_backs/set1/yellow.gif","img/card_backs/set2/pink.gif","img/card_backs/set2/blue.gif","img/card_backs/set2/orange.gif","img/card_backs/set2/gray.gif","""event"",""trial"",""time""
""fullscreenenter"",""1"",""2115""
","
","
","""event"",""trial"",""time""
""fullscreenenter"",""1"",""2115""
","
","","null","","null","","fixation","2021-07-20 08:55:45.393","","","","","",""
"card-selection-trial","95","362188","0.0-25.0-1.12","A161","true","img/card_backs/set1/purple.gif","img/card_backs/set1/red.gif","img/card_backs/set1/green.gif","img/card_backs/set1/yellow.gif","img/card_backs/set2/pink.gif","img/card_backs/set2/blue.gif","img/card_backs/set2/orange.gif","img/card_backs/set2/gray.gif","""event"",""trial"",""time""
""fullscreenenter"",""1"",""2115""
","
","
","""event"",""trial"",""time""
""fullscreenenter"",""1"",""2115""
","
","","716.3000000007451","","","","real_trial","2021-07-20 08:55:48.120","img/card_backs/set1/red.gif","2","240","1","",""
"casino-fixation","96","362694","0.0-25.0-0.13","A161","true","img/card_backs/set1/purple.gif","img/card_backs/set1/red.gif","img/card_backs/set1/green.gif","img/card_backs/set1/yellow.gif","img/card_backs/set2/pink.gif","img/card_backs/set2/blue.gif","img/card_backs/set2/orange.gif","img/card_backs/set2/gray.gif","""event"",""trial"",""time""
""fullscreenenter"",""1"",""2115""
","
","
","""event"",""trial"",""time""
""fullscreenenter"",""1"",""2115""
","
","","null","","null","","fixation","2021-07-20 08:55:48.626","","","","","",""
"card-selection-trial","97","365254","0.0-25.0-1.13","A161","true","img/card_backs/set1/purple.gif","img/card_backs/set1/red.gif","img/card_backs/set1/green.gif","img/card_backs/set1/yellow.gif","img/card_backs/set2/pink.gif","img/card_backs/set2/blue.gif","img/card_backs/set2/orange.gif","img/card_backs/set2/gray.gif","""event"",""trial"",""time""
""fullscreenenter"",""1"",""2115""
","
","
","""event"",""trial"",""time""
""fullscreenenter"",""1"",""2115""
","
","","547.5","","","","real_trial","2021-07-20 08:55:51.187","img/card_backs/set1/red.gif","3","240","1","",""
"casino-fixation","98","365759","0.0-25.0-0.14","A161","true","img/card_backs/set1/purple.gif","img/card_backs/set1/red.gif","img/card_backs/set1/green.gif","img/card_backs/set1/yellow.gif","img/card_backs/set2/pink.gif","img/card_backs/set2/blue.gif","img/card_backs/set2/orange.gif","img/card_backs/set2/gray.gif","""event"",""trial"",""time""
""fullscreenenter"",""1"",""2115""
","
","
","""event"",""trial"",""time""
""fullscreenenter"",""1"",""2115""
","
","","null","","null","","fixation","2021-07-20 08:55:51.691","","","","","",""
"card-selection-trial","99","368708","0.0-25.0-1.14","A161","true","img/card_backs/set1/purple.gif","img/card_backs/set1/red.gif","img/card_backs/set1/green.gif","img/card_backs/set1/yellow.gif","img/card_backs/set2/pink.gif","img/card_backs/set2/blue.gif","img/card_backs/set2/orange.gif","img/card_backs/set2/gray.gif","""event"",""trial"",""time""
""fullscreenenter"",""1"",""2115""
","
","
","""event"",""trial"",""time""
""fullscreenenter"",""1"",""2115""
","
","","939.5999999977648","","","","real_trial","2021-07-20 08:55:54.640","img/card_backs/set1/red.gif","1","260","1","",""
"casino-fixation","100","369213","0.0-25.0-0.15","A161","true","img/card_backs/set1/purple.gif","img/card_backs/set1/red.gif","img/card_backs/set1/green.gif","img/card_backs/set1/yellow.gif","img/card_backs/set2/pink.gif","img/card_backs/set2/blue.gif","img/card_backs/set2/orange.gif","img/card_backs/set2/gray.gif","""event"",""trial"",""time""
""fullscreenenter"",""1"",""2115""
","
","
","""event"",""trial"",""time""
""fullscreenenter"",""1"",""2115""
","
","","null","","null","","fixation","2021-07-20 08:55:55.145","","","","","",""
"card-selection-trial","101","371884","0.0-25.0-1.15","A161","true","img/card_backs/set1/purple.gif","img/card_backs/set1/red.gif","img/card_backs/set1/green.gif","img/card_backs/set1/yellow.gif","img/card_backs/set2/pink.gif","img/card_backs/set2/blue.gif","img/card_backs/set2/orange.gif","img/card_backs/set2/gray.gif","""event"",""trial"",""time""
""fullscreenenter"",""1"",""2115""
","
","
","""event"",""trial"",""time""
""fullscreenenter"",""1"",""2115""
","
","","660.5999999977648","","","","real_trial","2021-07-20 08:55:57.816","img/card_backs/set1/red.gif","0","-190","1","",""
"casino-fixation","102","372387","0.0-25.0-0.16","A161","true","img/card_backs/set1/purple.gif","img/card_backs/set1/red.gif","img/card_backs/set1/green.gif","img/card_backs/set1/yellow.gif","img/card_backs/set2/pink.gif","img/card_backs/set2/blue.gif","img/card_backs/set2/orange.gif","img/card_backs/set2/gray.gif","""event"",""trial"",""time""
""fullscreenenter"",""1"",""2115""
","
","
","""event"",""trial"",""time""
""fullscreenenter"",""1"",""2115""
","
","","null","","null","","fixation","2021-07-20 08:55:58.319","","","","","",""
"card-selection-trial","103","375779","0.0-25.0-1.16","A161","true","img/card_backs/set1/purple.gif","img/card_backs/set1/red.gif","img/card_backs/set1/green.gif","img/card_backs/set1/yellow.gif","img/card_backs/set2/pink.gif","img/card_backs/set2/blue.gif","img/card_backs/set2/orange.gif","img/card_backs/set2/gray.gif","""event"",""trial"",""time""
""fullscreenenter"",""1"",""2115""
","
","
","""event"",""trial"",""time""
""fullscreenenter"",""1"",""2115""
","
","","1380.9000000022352","","","","real_trial","2021-07-20 08:56:01.711","img/card_backs/set1/red.gif","2","-190","1","",""
"casino-fixation","104","376283","0.0-25.0-0.17","A161","true","img/card_backs/set1/purple.gif","img/card_backs/set1/red.gif","img/card_backs/set1/green.gif","img/card_backs/set1/yellow.gif","img/card_backs/set2/pink.gif","img/card_backs/set2/blue.gif","img/card_backs/set2/orange.gif","img/card_backs/set2/gray.gif","""event"",""trial"",""time""
""fullscreenenter"",""1"",""2115""
","
","
","""event"",""trial"",""time""
""fullscreenenter"",""1"",""2115""
","
","","null","","null","","fixation","2021-07-20 08:56:02.216","","","","","",""
"card-selection-trial","105","378998","0.0-25.0-1.17","A161","true","img/card_backs/set1/purple.gif","img/card_backs/set1/red.gif","img/card_backs/set1/green.gif","img/card_backs/set1/yellow.gif","img/card_backs/set2/pink.gif","img/card_backs/set2/blue.gif","img/card_backs/set2/orange.gif","img/card_backs/set2/gray.gif","""event"",""trial"",""time""
""fullscreenenter"",""1"",""2115""
","
","
","""event"",""trial"",""time""
""fullscreenenter"",""1"",""2115""
","
","","702.5","","","","real_trial","2021-07-20 08:56:04.930","img/card_backs/set1/red.gif","3","-190","1","",""
"casino-fixation","106","379500","0.0-25.0-0.18","A161","true","img/card_backs/set1/purple.gif","img/card_backs/set1/red.gif","img/card_backs/set1/green.gif","img/card_backs/set1/yellow.gif","img/card_backs/set2/pink.gif","img/card_backs/set2/blue.gif","img/card_backs/set2/orange.gif","img/card_backs/set2/gray.gif","""event"",""trial"",""time""
""fullscreenenter"",""1"",""2115""
","
","
","""event"",""trial"",""time""
""fullscreenenter"",""1"",""2115""
","
","","null","","null","","fixation","2021-07-20 08:56:05.432","","","","","",""
"card-selection-trial","107","382251","0.0-25.0-1.18","A161","true","img/card_backs/set1/purple.gif","img/card_backs/set1/red.gif","img/card_backs/set1/green.gif","img/card_backs/set1/yellow.gif","img/card_backs/set2/pink.gif","img/card_backs/set2/blue.gif","img/card_backs/set2/orange.gif","img/card_backs/set2/gray.gif","""event"",""trial"",""time""
""fullscreenenter"",""1"",""2115""
","
","
","""event"",""trial"",""time""
""fullscreenenter"",""1"",""2115""
","
","","741.2999999970198","","","","real_trial","2021-07-20 08:56:08.183","img/card_backs/set1/red.gif","1","260","1","",""
"casino-fixation","108","382758","0.0-25.0-0.19","A161","true","img/card_backs/set1/purple.gif","img/card_backs/set1/red.gif","img/card_backs/set1/green.gif","img/card_backs/set1/yellow.gif","img/card_backs/set2/pink.gif","img/card_backs/set2/blue.gif","img/card_backs/set2/orange.gif","img/card_backs/set2/gray.gif","""event"",""trial"",""time""
""fullscreenenter"",""1"",""2115""
","
","
","""event"",""trial"",""time""
""fullscreenenter"",""1"",""2115""
","
","","null","","null","","fixation","2021-07-20 08:56:08.690","","","","","",""
"card-selection-trial","109","385357","0.0-25.0-1.19","A161","true","img/card_backs/set1/purple.gif","img/card_backs/set1/red.gif","img/card_backs/set1/green.gif","img/card_backs/set1/yellow.gif","img/card_backs/set2/pink.gif","img/card_backs/set2/blue.gif","img/card_backs/set2/orange.gif","img/card_backs/set2/gray.gif","""event"",""trial"",""time""
""fullscreenenter"",""1"",""2115""
","
","
","""event"",""trial"",""time""
""fullscreenenter"",""1"",""2115""
","
","","588","","","","real_trial","2021-07-20 08:56:11.289","img/card_backs/set1/red.gif","2","250","1","",""
"casino-fixation","110","385862","0.0-25.0-0.20","A161","true","img/card_backs/set1/purple.gif","img/card_backs/set1/red.gif","img/card_backs/set1/green.gif","img/card_backs/set1/yellow.gif","img/card_backs/set2/pink.gif","img/card_backs/set2/blue.gif","img/card_backs/set2/orange.gif","img/card_backs/set2/gray.gif","""event"",""trial"",""time""
""fullscreenenter"",""1"",""2115""
","
","
","""event"",""trial"",""time""
""fullscreenenter"",""1"",""2115""
","
","","null","","null","","fixation","2021-07-20 08:56:11.794","","","","","",""
"card-selection-trial","111","388629","0.0-25.0-1.20","A161","true","img/card_backs/set1/purple.gif","img/card_backs/set1/red.gif","img/card_backs/set1/green.gif","img/card_backs/set1/yellow.gif","img/card_backs/set2/pink.gif","img/card_backs/set2/blue.gif","img/card_backs/set2/orange.gif","img/card_backs/set2/gray.gif","""event"",""trial"",""time""
""fullscreenenter"",""1"",""2115""
","
","
","""event"",""trial"",""time""
""fullscreenenter"",""1"",""2115""
","
","","754.9000000022352","","","","real_trial","2021-07-20 08:56:14.561","img/card_backs/set1/red.gif","2","-190","1","",""
"casino-fixation","112","389135","0.0-25.0-0.21","A161","true","img/card_backs/set1/purple.gif","img/card_backs/set1/red.gif","img/card_backs/set1/green.gif","img/card_backs/set1/yellow.gif","img/card_backs/set2/pink.gif","img/card_backs/set2/blue.gif","img/card_backs/set2/orange.gif","img/card_backs/set2/gray.gif","""event"",""trial"",""time""
""fullscreenenter"",""1"",""2115""
","
","
","""event"",""trial"",""time""
""fullscreenenter"",""1"",""2115""
","
","","null","","null","","fixation","2021-07-20 08:56:15.067","","","","","",""
"card-selection-trial","113","391719","0.0-25.0-1.21","A161","true","img/card_backs/set1/purple.gif","img/card_backs/set1/red.gif","img/card_backs/set1/green.gif","img/card_backs/set1/yellow.gif","img/card_backs/set2/pink.gif","img/card_backs/set2/blue.gif","img/card_backs/set2/orange.gif","img/card_backs/set2/gray.gif","""event"",""trial"",""time""
""fullscreenenter"",""1"",""2115""
","
","
","""event"",""trial"",""time""
""fullscreenenter"",""1"",""2115""
","
","","571","","","","real_trial","2021-07-20 08:56:17.652","img/card_backs/set1/red.gif","0","250","1","",""
"casino-fixation","114","392225","0.0-25.0-0.22","A161","true","img/card_backs/set1/purple.gif","img/card_backs/set1/red.gif","img/card_backs/set1/green.gif","img/card_backs/set1/yellow.gif","img/card_backs/set2/pink.gif","img/card_backs/set2/blue.gif","img/card_backs/set2/orange.gif","img/card_backs/set2/gray.gif","""event"",""trial"",""time""
""fullscreenenter"",""1"",""2115""
","
","
","""event"",""trial"",""time""
""fullscreenenter"",""1"",""2115""
","
","","null","","null","","fixation","2021-07-20 08:56:18.157","","","","","",""
"card-selection-trial","115","394767","0.0-25.0-1.22","A161","true","img/card_backs/set1/purple.gif","img/card_backs/set1/red.gif","img/card_backs/set1/green.gif","img/card_backs/set1/yellow.gif","img/card_backs/set2/pink.gif","img/card_backs/set2/blue.gif","img/card_backs/set2/orange.gif","img/card_backs/set2/gray.gif","""event"",""trial"",""time""
""fullscreenenter"",""1"",""2115""
","
","
","""event"",""trial"",""time""
""fullscreenenter"",""1"",""2115""
","
","","528.8999999985099","","","","real_trial","2021-07-20 08:56:20.699","img/card_backs/set1/red.gif","2","260","1","",""
"casino-fixation","116","395271","0.0-25.0-0.23","A161","true","img/card_backs/set1/purple.gif","img/card_backs/set1/red.gif","img/card_backs/set1/green.gif","img/card_backs/set1/yellow.gif","img/card_backs/set2/pink.gif","img/card_backs/set2/blue.gif","img/card_backs/set2/orange.gif","img/card_backs/set2/gray.gif","""event"",""trial"",""time""
""fullscreenenter"",""1"",""2115""
","
","
","""event"",""trial"",""time""
""fullscreenenter"",""1"",""2115""
","
","","null","","null","","fixation","2021-07-20 08:56:21.203","","","","","",""
"card-selection-trial","117","397727","0.0-25.0-1.23","A161","true","img/card_backs/set1/purple.gif","img/card_backs/set1/red.gif","img/card_backs/set1/green.gif","img/card_backs/set1/yellow.gif","img/card_backs/set2/pink.gif","img/card_backs/set2/blue.gif","img/card_backs/set2/orange.gif","img/card_backs/set2/gray.gif","""event"",""trial"",""time""
""fullscreenenter"",""1"",""2115""
","
","
","""event"",""trial"",""time""
""fullscreenenter"",""1"",""2115""
","
","","445.0999999977648","","","","real_trial","2021-07-20 08:56:23.659","img/card_backs/set1/red.gif","0","-200","1","",""
"casino-fixation","118","398231","0.0-25.0-0.24","A161","true","img/card_backs/set1/purple.gif","img/card_backs/set1/red.gif","img/card_backs/set1/green.gif","img/card_backs/set1/yellow.gif","img/card_backs/set2/pink.gif","img/card_backs/set2/blue.gif","img/card_backs/set2/orange.gif","img/card_backs/set2/gray.gif","""event"",""trial"",""time""
""fullscreenenter"",""1"",""2115""
","
","
","""event"",""trial"",""time""
""fullscreenenter"",""1"",""2115""
","
","","null","","null","","fixation","2021-07-20 08:56:24.164","","","","","",""
"card-selection-trial","119","400995","0.0-25.0-1.24","A161","true","img/card_backs/set1/purple.gif","img/card_backs/set1/red.gif","img/card_backs/set1/green.gif","img/card_backs/set1/yellow.gif","img/card_backs/set2/pink.gif","img/card_backs/set2/blue.gif","img/card_backs/set2/orange.gif","img/card_backs/set2/gray.gif","""event"",""trial"",""time""
""fullscreenenter"",""1"",""2115""
","
","
","""event"",""trial"",""time""
""fullscreenenter"",""1"",""2115""
","
","","753.8000000007451","","","","real_trial","2021-07-20 08:56:26.927","img/card_backs/set1/red.gif","0","-210","1","",""
"casino-fixation","120","401500","0.0-25.0-0.25","A161","true","img/card_backs/set1/purple.gif","img/card_backs/set1/red.gif","img/card_backs/set1/green.gif","img/card_backs/set1/yellow.gif","img/card_backs/set2/pink.gif","img/card_backs/set2/blue.gif","img/card_backs/set2/orange.gif","img/card_backs/set2/gray.gif","""event"",""trial"",""time""
""fullscreenenter"",""1"",""2115""
","
","
","""event"",""trial"",""time""
""fullscreenenter"",""1"",""2115""
","
","","null","","null","","fixation","2021-07-20 08:56:27.432","","","","","",""
"card-selection-trial","121","403988","0.0-25.0-1.25","A161","true","img/card_backs/set1/purple.gif","img/card_backs/set1/red.gif","img/card_backs/set1/green.gif","img/card_backs/set1/yellow.gif","img/card_backs/set2/pink.gif","img/card_backs/set2/blue.gif","img/card_backs/set2/orange.gif","img/card_backs/set2/gray.gif","""event"",""trial"",""time""
""fullscreenenter"",""1"",""2115""
","
","
","""event"",""trial"",""time""
""fullscreenenter"",""1"",""2115""
","
","","478.30000000074506","","","","real_trial","2021-07-20 08:56:29.920","img/card_backs/set1/red.gif","0","-210","1","",""
"casino-fixation","122","404495","0.0-25.0-0.26","A161","true","img/card_backs/set1/purple.gif","img/card_backs/set1/red.gif","img/card_backs/set1/green.gif","img/card_backs/set1/yellow.gif","img/card_backs/set2/pink.gif","img/card_backs/set2/blue.gif","img/card_backs/set2/orange.gif","img/card_backs/set2/gray.gif","""event"",""trial"",""time""
""fullscreenenter"",""1"",""2115""
","
","
","""event"",""trial"",""time""
""fullscreenenter"",""1"",""2115""
","
","","null","","null","","fixation","2021-07-20 08:56:30.427","","","","","",""
"card-selection-trial","123","407079","0.0-25.0-1.26","A161","true","img/card_backs/set1/purple.gif","img/card_backs/set1/red.gif","img/card_backs/set1/green.gif","img/card_backs/set1/yellow.gif","img/card_backs/set2/pink.gif","img/card_backs/set2/blue.gif","img/card_backs/set2/orange.gif","img/card_backs/set2/gray.gif","""event"",""trial"",""time""
""fullscreenenter"",""1"",""2115""
","
","
","""event"",""trial"",""time""
""fullscreenenter"",""1"",""2115""
","
","","570.4000000022352","","","","real_trial","2021-07-20 08:56:33.011","img/card_backs/set1/red.gif","2","240","1","",""
"casino-fixation","124","407583","0.0-25.0-0.27","A161","true","img/card_backs/set1/purple.gif","img/card_backs/set1/red.gif","img/card_backs/set1/green.gif","img/card_backs/set1/yellow.gif","img/card_backs/set2/pink.gif","img/card_backs/set2/blue.gif","img/card_backs/set2/orange.gif","img/card_backs/set2/gray.gif","""event"",""trial"",""time""
""fullscreenenter"",""1"",""2115""
","
","
","""event"",""trial"",""time""
""fullscreenenter"",""1"",""2115""
","
","","null","","null","","fixation","2021-07-20 08:56:33.515","","","","","",""
"card-selection-trial","125","410300","0.0-25.0-1.27","A161","true","img/card_backs/set1/purple.gif","img/card_backs/set1/red.gif","img/card_backs/set1/green.gif","img/card_backs/set1/yellow.gif","img/card_backs/set2/pink.gif","img/card_backs/set2/blue.gif","img/card_backs/set2/orange.gif","img/card_backs/set2/gray.gif","""event"",""trial"",""time""
""fullscreenenter"",""1"",""2115""
","
","
","""event"",""trial"",""time""
""fullscreenenter"",""1"",""2115""
","
","","707","","","","real_trial","2021-07-20 08:56:36.232","img/card_backs/set1/red.gif","3","-190","1","",""
"casino-fixation","126","410806","0.0-25.0-0.28","A161","true","img/card_backs/set1/purple.gif","img/card_backs/set1/red.gif","img/card_backs/set1/green.gif","img/card_backs/set1/yellow.gif","img/card_backs/set2/pink.gif","img/card_backs/set2/blue.gif","img/card_backs/set2/orange.gif","img/card_backs/set2/gray.gif","""event"",""trial"",""time""
""fullscreenenter"",""1"",""2115""
","
","
","""event"",""trial"",""time""
""fullscreenenter"",""1"",""2115""
","
","","null","","null","","fixation","2021-07-20 08:56:36.738","","","","","",""
"card-selection-trial","127","413679","0.0-25.0-1.28","A161","true","img/card_backs/set1/purple.gif","img/card_backs/set1/red.gif","img/card_backs/set1/green.gif","img/card_backs/set1/yellow.gif","img/card_backs/set2/pink.gif","img/card_backs/set2/blue.gif","img/card_backs/set2/orange.gif","img/card_backs/set2/gray.gif","""event"",""trial"",""time""
""fullscreenenter"",""1"",""2115""
","
","
","""event"",""trial"",""time""
""fullscreenenter"",""1"",""2115""
","
","","859.2000000029802","","","","real_trial","2021-07-20 08:56:39.611","img/card_backs/set1/purple.gif","3","240","1","",""
"casino-fixation","128","414184","0.0-25.0-0.29","A161","true","img/card_backs/set1/purple.gif","img/card_backs/set1/red.gif","img/card_backs/set1/green.gif","img/card_backs/set1/yellow.gif","img/card_backs/set2/pink.gif","img/card_backs/set2/blue.gif","img/card_backs/set2/orange.gif","img/card_backs/set2/gray.gif","""event"",""trial"",""time""
""fullscreenenter"",""1"",""2115""
","
","
","""event"",""trial"",""time""
""fullscreenenter"",""1"",""2115""
","
","","null","","null","","fixation","2021-07-20 08:56:40.116","","","","","",""
"card-selection-trial","129","417527","0.0-25.0-1.29","A161","true","img/card_backs/set1/purple.gif","img/card_backs/set1/red.gif","img/card_backs/set1/green.gif","img/card_backs/set1/yellow.gif","img/card_backs/set2/pink.gif","img/card_backs/set2/blue.gif","img/card_backs/set2/orange.gif","img/card_backs/set2/gray.gif","""event"",""trial"",""time""
""fullscreenenter"",""1"",""2115""
","
","
","""event"",""trial"",""time""
""fullscreenenter"",""1"",""2115""
","
","","1330.300000000745","","","","real_trial","2021-07-20 08:56:43.460","img/card_backs/set1/green.gif","1","-90","1","",""
"casino-fixation","130","418031","0.0-25.0-0.30","A161","true","img/card_backs/set1/purple.gif","img/card_backs/set1/red.gif","img/card_backs/set1/green.gif","img/card_backs/set1/yellow.gif","img/card_backs/set2/pink.gif","img/card_backs/set2/blue.gif","img/card_backs/set2/orange.gif","img/card_backs/set2/gray.gif","""event"",""trial"",""time""
""fullscreenenter"",""1"",""2115""
","
","
","""event"",""trial"",""time""
""fullscreenenter"",""1"",""2115""
","
","","null","","null","","fixation","2021-07-20 08:56:43.964","","","","","",""
"card-selection-trial","131","420854","0.0-25.0-1.30","A161","true","img/card_backs/set1/purple.gif","img/card_backs/set1/red.gif","img/card_backs/set1/green.gif","img/card_backs/set1/yellow.gif","img/card_backs/set2/pink.gif","img/card_backs/set2/blue.gif","img/card_backs/set2/orange.gif","img/card_backs/set2/gray.gif","""event"",""trial"",""time""
""fullscreenenter"",""1"",""2115""
","
","
","""event"",""trial"",""time""
""fullscreenenter"",""1"",""2115""
","
","","810.9000000022352","","","","real_trial","2021-07-20 08:56:46.786","img/card_backs/set1/yellow.gif","1","-90","1","",""
"casino-fixation","132","421358","0.0-25.0-0.31","A161","true","img/card_backs/set1/purple.gif","img/card_backs/set1/red.gif","img/card_backs/set1/green.gif","img/card_backs/set1/yellow.gif","img/card_backs/set2/pink.gif","img/card_backs/set2/blue.gif","img/card_backs/set2/orange.gif","img/card_backs/set2/gray.gif","""event"",""trial"",""time""
""fullscreenenter"",""1"",""2115""
","
","
","""event"",""trial"",""time""
""fullscreenenter"",""1"",""2115""
","
","","null","","null","","fixation","2021-07-20 08:56:47.290","","","","","",""
"card-selection-trial","133","425613","0.0-25.0-1.31","A161","true","img/card_backs/set1/purple.gif","img/card_backs/set1/red.gif","img/card_backs/set1/green.gif","img/card_backs/set1/yellow.gif","img/card_backs/set2/pink.gif","img/card_backs/set2/blue.gif","img/card_backs/set2/orange.gif","img/card_backs/set2/gray.gif","""event"",""trial"",""time""
""fullscreenenter"",""1"",""2115""
","
","
","""event"",""trial"",""time""
""fullscreenenter"",""1"",""2115""
","
","","2241.60000000149","","","","real_trial","2021-07-20 08:56:51.545","img/card_backs/set1/purple.gif","2","250","1","",""
"casino-fixation","134","426118","0.0-25.0-0.32","A161","true","img/card_backs/set1/purple.gif","img/card_backs/set1/red.gif","img/card_backs/set1/green.gif","img/card_backs/set1/yellow.gif","img/card_backs/set2/pink.gif","img/card_backs/set2/blue.gif","img/card_backs/set2/orange.gif","img/card_backs/set2/gray.gif","""event"",""trial"",""time""
""fullscreenenter"",""1"",""2115""
","
","
","""event"",""trial"",""time""
""fullscreenenter"",""1"",""2115""
","
","","null","","null","","fixation","2021-07-20 08:56:52.050","","","","","",""
"card-selection-trial","135","428638","0.0-25.0-1.32","A161","true","img/card_backs/set1/purple.gif","img/card_backs/set1/red.gif","img/card_backs/set1/green.gif","img/card_backs/set1/yellow.gif","img/card_backs/set2/pink.gif","img/card_backs/set2/blue.gif","img/card_backs/set2/orange.gif","img/card_backs/set2/gray.gif","""event"",""trial"",""time""
""fullscreenenter"",""1"",""2115""
","
","
","""event"",""trial"",""time""
""fullscreenenter"",""1"",""2115""
","
","","506.5","","","","real_trial","2021-07-20 08:56:54.570","img/card_backs/set1/purple.gif","3","260","1","",""
"casino-fixation","136","429143","0.0-25.0-0.33","A161","true","img/card_backs/set1/purple.gif","img/card_backs/set1/red.gif","img/card_backs/set1/green.gif","img/card_backs/set1/yellow.gif","img/card_backs/set2/pink.gif","img/card_backs/set2/blue.gif","img/card_backs/set2/orange.gif","img/card_backs/set2/gray.gif","""event"",""trial"",""time""
""fullscreenenter"",""1"",""2115""
","
","
","""event"",""trial"",""time""
""fullscreenenter"",""1"",""2115""
","
","","null","","null","","fixation","2021-07-20 08:56:55.075","","","","","",""
"card-selection-trial","137","431743","0.0-25.0-1.33","A161","true","img/card_backs/set1/purple.gif","img/card_backs/set1/red.gif","img/card_backs/set1/green.gif","img/card_backs/set1/yellow.gif","img/card_backs/set2/pink.gif","img/card_backs/set2/blue.gif","img/card_backs/set2/orange.gif","img/card_backs/set2/gray.gif","""event"",""trial"",""time""
""fullscreenenter"",""1"",""2115""
","
","
","""event"",""trial"",""time""
""fullscreenenter"",""1"",""2115""
","
","","585.5","","","","real_trial","2021-07-20 08:56:57.675","img/card_backs/set1/purple.gif","0","-210","1","",""
"casino-fixation","138","432248","0.0-25.0-0.34","A161","true","img/card_backs/set1/purple.gif","img/card_backs/set1/red.gif","img/card_backs/set1/green.gif","img/card_backs/set1/yellow.gif","img/card_backs/set2/pink.gif","img/card_backs/set2/blue.gif","img/card_backs/set2/orange.gif","img/card_backs/set2/gray.gif","""event"",""trial"",""time""
""fullscreenenter"",""1"",""2115""
","
","
","""event"",""trial"",""time""
""fullscreenenter"",""1"",""2115""
","
","","null","","null","","fixation","2021-07-20 08:56:58.180","","","","","",""
"card-selection-trial","139","434820","0.0-25.0-1.34","A161","true","img/card_backs/set1/purple.gif","img/card_backs/set1/red.gif","img/card_backs/set1/green.gif","img/card_backs/set1/yellow.gif","img/card_backs/set2/pink.gif","img/card_backs/set2/blue.gif","img/card_backs/set2/orange.gif","img/card_backs/set2/gray.gif","""event"",""trial"",""time""
""fullscreenenter"",""1"",""2115""
","
","
","""event"",""trial"",""time""
""fullscreenenter"",""1"",""2115""
","
","","560.0999999977648","","","","real_trial","2021-07-20 08:57:00.752","img/card_backs/set1/purple.gif","0","-200","1","",""
"casino-fixation","140","435325","0.0-25.0-0.35","A161","true","img/card_backs/set1/purple.gif","img/card_backs/set1/red.gif","img/card_backs/set1/green.gif","img/card_backs/set1/yellow.gif","img/card_backs/set2/pink.gif","img/card_backs/set2/blue.gif","img/card_backs/set2/orange.gif","img/card_backs/set2/gray.gif","""event"",""trial"",""time""
""fullscreenenter"",""1"",""2115""
","
","
","""event"",""trial"",""time""
""fullscreenenter"",""1"",""2115""
","
","","null","","null","","fixation","2021-07-20 08:57:01.257","","","","","",""
"card-selection-trial","141","437774","0.0-25.0-1.35","A161","true","img/card_backs/set1/purple.gif","img/card_backs/set1/red.gif","img/card_backs/set1/green.gif","img/card_backs/set1/yellow.gif","img/card_backs/set2/pink.gif","img/card_backs/set2/blue.gif","img/card_backs/set2/orange.gif","img/card_backs/set2/gray.gif","""event"",""trial"",""time""
""fullscreenenter"",""1"",""2115""
","
","
","""event"",""trial"",""time""
""fullscreenenter"",""1"",""2115""
","
","","435.5","","","","real_trial","2021-07-20 08:57:03.707","img/card_backs/set1/purple.gif","0","250","1","",""
"casino-fixation","142","438279","0.0-25.0-0.36","A161","true","img/card_backs/set1/purple.gif","img/card_backs/set1/red.gif","img/card_backs/set1/green.gif","img/card_backs/set1/yellow.gif","img/card_backs/set2/pink.gif","img/card_backs/set2/blue.gif","img/card_backs/set2/orange.gif","img/card_backs/set2/gray.gif","""event"",""trial"",""time""
""fullscreenenter"",""1"",""2115""
","
","
","""event"",""trial"",""time""
""fullscreenenter"",""1"",""2115""
","
","","null","","null","","fixation","2021-07-20 08:57:04.211","","","","","",""
"card-selection-trial","143","440979","0.0-25.0-1.36","A161","true","img/card_backs/set1/purple.gif","img/card_backs/set1/red.gif","img/card_backs/set1/green.gif","img/card_backs/set1/yellow.gif","img/card_backs/set2/pink.gif","img/card_backs/set2/blue.gif","img/card_backs/set2/orange.gif","img/card_backs/set2/gray.gif","""event"",""trial"",""time""
""fullscreenenter"",""1"",""2115""
","
","
","""event"",""trial"",""time""
""fullscreenenter"",""1"",""2115""
","
","","690.3000000007451","","","","real_trial","2021-07-20 08:57:06.911","img/card_backs/set1/purple.gif","1","260","1","",""
"casino-fixation","144","441484","0.0-25.0-0.37","A161","true","img/card_backs/set1/purple.gif","img/card_backs/set1/red.gif","img/card_backs/set1/green.gif","img/card_backs/set1/yellow.gif","img/card_backs/set2/pink.gif","img/card_backs/set2/blue.gif","img/card_backs/set2/orange.gif","img/card_backs/set2/gray.gif","""event"",""trial"",""time""
""fullscreenenter"",""1"",""2115""
","
","
","""event"",""trial"",""time""
""fullscreenenter"",""1"",""2115""
","
","","null","","null","","fixation","2021-07-20 08:57:07.416","","","","","",""
"card-selection-trial","145","443986","0.0-25.0-1.37","A161","true","img/card_backs/set1/purple.gif","img/card_backs/set1/red.gif","img/card_backs/set1/green.gif","img/card_backs/set1/yellow.gif","img/card_backs/set2/pink.gif","img/card_backs/set2/blue.gif","img/card_backs/set2/orange.gif","img/card_backs/set2/gray.gif","""event"",""trial"",""time""
""fullscreenenter"",""1"",""2115""
","
","
","""event"",""trial"",""time""
""fullscreenenter"",""1"",""2115""
","
","","492.1000000014901","","","","real_trial","2021-07-20 08:57:09.918","img/card_backs/set1/purple.gif","0","260","1","",""
"casino-fixation","146","444491","0.0-25.0-0.38","A161","true","img/card_backs/set1/purple.gif","img/card_backs/set1/red.gif","img/card_backs/set1/green.gif","img/card_backs/set1/yellow.gif","img/card_backs/set2/pink.gif","img/card_backs/set2/blue.gif","img/card_backs/set2/orange.gif","img/card_backs/set2/gray.gif","""event"",""trial"",""time""
""fullscreenenter"",""1"",""2115""
","
","
","""event"",""trial"",""time""
""fullscreenenter"",""1"",""2115""
","
","","null","","null","","fixation","2021-07-20 08:57:10.423","","","","","",""
"card-selection-trial","147","447028","0.0-25.0-1.38","A161","true","img/card_backs/set1/purple.gif","img/card_backs/set1/red.gif","img/card_backs/set1/green.gif","img/card_backs/set1/yellow.gif","img/card_backs/set2/pink.gif","img/card_backs/set2/blue.gif","img/card_backs/set2/orange.gif","img/card_backs/set2/gray.gif","""event"",""trial"",""time""
""fullscreenenter"",""1"",""2115""
","
","
","""event"",""trial"",""time""
""fullscreenenter"",""1"",""2115""
","
","","524.8000000007451","","","","real_trial","2021-07-20 08:57:12.960","img/card_backs/set1/purple.gif","3","260","1","",""
"casino-fixation","148","447532","0.0-25.0-0.39","A161","true","img/card_backs/set1/purple.gif","img/card_backs/set1/red.gif","img/card_backs/set1/green.gif","img/card_backs/set1/yellow.gif","img/card_backs/set2/pink.gif","img/card_backs/set2/blue.gif","img/card_backs/set2/orange.gif","img/card_backs/set2/gray.gif","""event"",""trial"",""time""
""fullscreenenter"",""1"",""2115""
","
","
","""event"",""trial"",""time""
""fullscreenenter"",""1"",""2115""
","
","","null","","null","","fixation","2021-07-20 08:57:13.464","","","","","",""
"card-selection-trial","149","450342","0.0-25.0-1.39","A161","true","img/card_backs/set1/purple.gif","img/card_backs/set1/red.gif","img/card_backs/set1/green.gif","img/card_backs/set1/yellow.gif","img/card_backs/set2/pink.gif","img/card_backs/set2/blue.gif","img/card_backs/set2/orange.gif","img/card_backs/set2/gray.gif","""event"",""trial"",""time""
""fullscreenenter"",""1"",""2115""
","
","
","""event"",""trial"",""time""
""fullscreenenter"",""1"",""2115""
","
","","796.6999999992549","","","","real_trial","2021-07-20 08:57:16.275","img/card_backs/set1/purple.gif","1","260","1","",""
"casino-fixation","150","450847","0.0-25.0-0.40","A161","true","img/card_backs/set1/purple.gif","img/card_backs/set1/red.gif","img/card_backs/set1/green.gif","img/card_backs/set1/yellow.gif","img/card_backs/set2/pink.gif","img/card_backs/set2/blue.gif","img/card_backs/set2/orange.gif","img/card_backs/set2/gray.gif","""event"",""trial"",""time""
""fullscreenenter"",""1"",""2115""
","
","
","""event"",""trial"",""time""
""fullscreenenter"",""1"",""2115""
","
","","null","","null","","fixation","2021-07-20 08:57:16.779","","","","","",""
"card-selection-trial","151","453547","0.0-25.0-1.40","A161","true","img/card_backs/set1/purple.gif","img/card_backs/set1/red.gif","img/card_backs/set1/green.gif","img/card_backs/set1/yellow.gif","img/card_backs/set2/pink.gif","img/card_backs/set2/blue.gif","img/card_backs/set2/orange.gif","img/card_backs/set2/gray.gif","""event"",""trial"",""time""
""fullscreenenter"",""1"",""2115""
","
","
","""event"",""trial"",""time""
""fullscreenenter"",""1"",""2115""
","
","","690.5","","","","real_trial","2021-07-20 08:57:19.479","img/card_backs/set1/purple.gif","2","-190","1","",""
"casino-fixation","152","454051","0.0-25.0-0.41","A161","true","img/card_backs/set1/purple.gif","img/card_backs/set1/red.gif","img/card_backs/set1/green.gif","img/card_backs/set1/yellow.gif","img/card_backs/set2/pink.gif","img/card_backs/set2/blue.gif","img/card_backs/set2/orange.gif","img/card_backs/set2/gray.gif","""event"",""trial"",""time""
""fullscreenenter"",""1"",""2115""
","
","
","""event"",""trial"",""time""
""fullscreenenter"",""1"",""2115""
","
","","null","","null","","fixation","2021-07-20 08:57:19.983","","","","","",""
"card-selection-trial","153","456526","0.0-25.0-1.41","A161","true","img/card_backs/set1/purple.gif","img/card_backs/set1/red.gif","img/card_backs/set1/green.gif","img/card_backs/set1/yellow.gif","img/card_backs/set2/pink.gif","img/card_backs/set2/blue.gif","img/card_backs/set2/orange.gif","img/card_backs/set2/gray.gif","""event"",""trial"",""time""
""fullscreenenter"",""1"",""2115""
","
","
","""event"",""trial"",""time""
""fullscreenenter"",""1"",""2115""
","
","","461.30000000074506","","","","real_trial","2021-07-20 08:57:22.458","img/card_backs/set1/purple.gif","0","250","1","",""
"casino-fixation","154","457029","0.0-25.0-0.42","A161","true","img/card_backs/set1/purple.gif","img/card_backs/set1/red.gif","img/card_backs/set1/green.gif","img/card_backs/set1/yellow.gif","img/card_backs/set2/pink.gif","img/card_backs/set2/blue.gif","img/card_backs/set2/orange.gif","img/card_backs/set2/gray.gif","""event"",""trial"",""time""
""fullscreenenter"",""1"",""2115""
","
","
","""event"",""trial"",""time""
""fullscreenenter"",""1"",""2115""
","
","","null","","null","","fixation","2021-07-20 08:57:22.961","","","","","",""
"card-selection-trial","155","459537","0.0-25.0-1.42","A161","true","img/card_backs/set1/purple.gif","img/card_backs/set1/red.gif","img/card_backs/set1/green.gif","img/card_backs/set1/yellow.gif","img/card_backs/set2/pink.gif","img/card_backs/set2/blue.gif","img/card_backs/set2/orange.gif","img/card_backs/set2/gray.gif","""event"",""trial"",""time""
""fullscreenenter"",""1"",""2115""
","
","
","""event"",""trial"",""time""
""fullscreenenter"",""1"",""2115""
","
","","499","","","","real_trial","2021-07-20 08:57:25.469","img/card_backs/set1/purple.gif","2","-200","1","",""
"casino-fixation","156","460042","0.0-25.0-0.43","A161","true","img/card_backs/set1/purple.gif","img/card_backs/set1/red.gif","img/card_backs/set1/green.gif","img/card_backs/set1/yellow.gif","img/card_backs/set2/pink.gif","img/card_backs/set2/blue.gif","img/card_backs/set2/orange.gif","img/card_backs/set2/gray.gif","""event"",""trial"",""time""
""fullscreenenter"",""1"",""2115""
","
","
","""event"",""trial"",""time""
""fullscreenenter"",""1"",""2115""
","
","","null","","null","","fixation","2021-07-20 08:57:25.974","","","","","",""
"card-selection-trial","157","462538","0.0-25.0-1.43","A161","true","img/card_backs/set1/purple.gif","img/card_backs/set1/red.gif","img/card_backs/set1/green.gif","img/card_backs/set1/yellow.gif","img/card_backs/set2/pink.gif","img/card_backs/set2/blue.gif","img/card_backs/set2/orange.gif","img/card_backs/set2/gray.gif","""event"",""trial"",""time""
""fullscreenenter"",""1"",""2115""
","
","
","""event"",""trial"",""time""
""fullscreenenter"",""1"",""2115""
","
","","486.1000000014901","","","","real_trial","2021-07-20 08:57:28.471","img/card_backs/set1/purple.gif","2","-200","1","",""
"casino-fixation","158","463043","0.0-25.0-0.44","A161","true","img/card_backs/set1/purple.gif","img/card_backs/set1/red.gif","img/card_backs/set1/green.gif","img/card_backs/set1/yellow.gif","img/card_backs/set2/pink.gif","img/card_backs/set2/blue.gif","img/card_backs/set2/orange.gif","img/card_backs/set2/gray.gif","""event"",""trial"",""time""
""fullscreenenter"",""1"",""2115""
","
","
","""event"",""trial"",""time""
""fullscreenenter"",""1"",""2115""
","
","","null","","null","","fixation","2021-07-20 08:57:28.975","","","","","",""
"card-selection-trial","159","465483","0.0-25.0-1.44","A161","true","img/card_backs/set1/purple.gif","img/card_backs/set1/red.gif","img/card_backs/set1/green.gif","img/card_backs/set1/yellow.gif","img/card_backs/set2/pink.gif","img/card_backs/set2/blue.gif","img/card_backs/set2/orange.gif","img/card_backs/set2/gray.gif","""event"",""trial"",""time""
""fullscreenenter"",""1"",""2115""
","
","
","""event"",""trial"",""time""
""fullscreenenter"",""1"",""2115""
","
","","430.19999999925494","","","","real_trial","2021-07-20 08:57:31.415","img/card_backs/set1/purple.gif","2","250","1","",""
"casino-fixation","160","465985","0.0-25.0-0.45","A161","true","img/card_backs/set1/purple.gif","img/card_backs/set1/red.gif","img/card_backs/set1/green.gif","img/card_backs/set1/yellow.gif","img/card_backs/set2/pink.gif","img/card_backs/set2/blue.gif","img/card_backs/set2/orange.gif","img/card_backs/set2/gray.gif","""event"",""trial"",""time""
""fullscreenenter"",""1"",""2115""
","
","
","""event"",""trial"",""time""
""fullscreenenter"",""1"",""2115""
","
","","null","","null","","fixation","2021-07-20 08:57:31.917","","","","","",""
"card-selection-trial","161","468460","0.0-25.0-1.45","A161","true","img/card_backs/set1/purple.gif","img/card_backs/set1/red.gif","img/card_backs/set1/green.gif","img/card_backs/set1/yellow.gif","img/card_backs/set2/pink.gif","img/card_backs/set2/blue.gif","img/card_backs/set2/orange.gif","img/card_backs/set2/gray.gif","""event"",""trial"",""time""
""fullscreenenter"",""1"",""2115""
","
","
","""event"",""trial"",""time""
""fullscreenenter"",""1"",""2115""
","
","","462.69999999925494","","","","real_trial","2021-07-20 08:57:34.392","img/card_backs/set1/purple.gif","2","-190","1","",""
"casino-fixation","162","468964","0.0-25.0-0.46","A161","true","img/card_backs/set1/purple.gif","img/card_backs/set1/red.gif","img/card_backs/set1/green.gif","img/card_backs/set1/yellow.gif","img/card_backs/set2/pink.gif","img/card_backs/set2/blue.gif","img/card_backs/set2/orange.gif","img/card_backs/set2/gray.gif","""event"",""trial"",""time""
""fullscreenenter"",""1"",""2115""
","
","
","""event"",""trial"",""time""
""fullscreenenter"",""1"",""2115""
","
","","null","","null","","fixation","2021-07-20 08:57:34.896","","","","","",""
"card-selection-trial","163","471692","0.0-25.0-1.46","A161","true","img/card_backs/set1/purple.gif","img/card_backs/set1/red.gif","img/card_backs/set1/green.gif","img/card_backs/set1/yellow.gif","img/card_backs/set2/pink.gif","img/card_backs/set2/blue.gif","img/card_backs/set2/orange.gif","img/card_backs/set2/gray.gif","""event"",""trial"",""time""
""fullscreenenter"",""1"",""2115""
","
","
","""event"",""trial"",""time""
""fullscreenenter"",""1"",""2115""
","
","","716.5","","","","real_trial","2021-07-20 08:57:37.625","img/card_backs/set1/purple.gif","1","260","1","",""
"casino-fixation","164","472197","0.0-25.0-0.47","A161","true","img/card_backs/set1/purple.gif","img/card_backs/set1/red.gif","img/card_backs/set1/green.gif","img/card_backs/set1/yellow.gif","img/card_backs/set2/pink.gif","img/card_backs/set2/blue.gif","img/card_backs/set2/orange.gif","img/card_backs/set2/gray.gif","""event"",""trial"",""time""
""fullscreenenter"",""1"",""2115""
","
","
","""event"",""trial"",""time""
""fullscreenenter"",""1"",""2115""
","
","","null","","null","","fixation","2021-07-20 08:57:38.130","","","","","",""
"card-selection-trial","165","474682","0.0-25.0-1.47","A161","true","img/card_backs/set1/purple.gif","img/card_backs/set1/red.gif","img/card_backs/set1/green.gif","img/card_backs/set1/yellow.gif","img/card_backs/set2/pink.gif","img/card_backs/set2/blue.gif","img/card_backs/set2/orange.gif","img/card_backs/set2/gray.gif","""event"",""trial"",""time""
""fullscreenenter"",""1"",""2115""
","
","
","""event"",""trial"",""time""
""fullscreenenter"",""1"",""2115""
","
","","473.5","","","","real_trial","2021-07-20 08:57:40.614","img/card_backs/set1/purple.gif","0","250","1","",""
"casino-fixation","166","475184","0.0-25.0-0.48","A161","true","img/card_backs/set1/purple.gif","img/card_backs/set1/red.gif","img/card_backs/set1/green.gif","img/card_backs/set1/yellow.gif","img/card_backs/set2/pink.gif","img/card_backs/set2/blue.gif","img/card_backs/set2/orange.gif","img/card_backs/set2/gray.gif","""event"",""trial"",""time""
""fullscreenenter"",""1"",""2115""
","
","
","""event"",""trial"",""time""
""fullscreenenter"",""1"",""2115""
","
","","null","","null","","fixation","2021-07-20 08:57:41.116","","","","","",""
"card-selection-trial","167","477685","0.0-25.0-1.48","A161","true","img/card_backs/set1/purple.gif","img/card_backs/set1/red.gif","img/card_backs/set1/green.gif","img/card_backs/set1/yellow.gif","img/card_backs/set2/pink.gif","img/card_backs/set2/blue.gif","img/card_backs/set2/orange.gif","img/card_backs/set2/gray.gif","""event"",""trial"",""time""
""fullscreenenter"",""1"",""2115""
","
","
","""event"",""trial"",""time""
""fullscreenenter"",""1"",""2115""
","
","","488.3999999985099","","","","real_trial","2021-07-20 08:57:43.617","img/card_backs/set1/purple.gif","0","260","1","",""
