"trial_type","trial_index","time_elapsed","internal_node_id","sub_id","risk_good_first","block1_A","block1_B","block1_C","block1_D","block2_A","block2_B","block2_C","block2_D","interactions","blur_events","focus_events","fullscreenenter_events","fullscreenexit_events","success","rt","stimulus","key_press","button_pressed","task_part","timestamp","card_choice","choice_position","points_earned","block","correct","response"
"pavlovia","0","13","0.0-0.0","217","false","img/card_backs/set1/purple.gif","img/card_backs/set1/yellow.gif","img/card_backs/set1/green.gif","img/card_backs/set1/red.gif","img/card_backs/set2/blue.gif","img/card_backs/set2/pink.gif","img/card_backs/set2/orange.gif","img/card_backs/set2/gray.gif","""event"",""trial"",""time""
""fullscreenenter"",""1"",""13934""
","
","
","""event"",""trial"",""time""
""fullscreenenter"",""1"",""13934""
","
","","","","","","","","","","","","",""
"fullscreen","1","14896","0.0-1.0","217","false","img/card_backs/set1/purple.gif","img/card_backs/set1/yellow.gif","img/card_backs/set1/green.gif","img/card_backs/set1/red.gif","img/card_backs/set2/blue.gif","img/card_backs/set2/pink.gif","img/card_backs/set2/orange.gif","img/card_backs/set2/gray.gif","""event"",""trial"",""time""
""fullscreenenter"",""1"",""13934""
","
","
","""event"",""trial"",""time""
""fullscreenenter"",""1"",""13934""
","
","true","","","","","","","","","","","",""
"audio-keyboard-response","2","25835","0.0-2.0","217","false","img/card_backs/set1/purple.gif","img/card_backs/set1/yellow.gif","img/card_backs/set1/green.gif","img/card_backs/set1/red.gif","img/card_backs/set2/blue.gif","img/card_backs/set2/pink.gif","img/card_backs/set2/orange.gif","img/card_backs/set2/gray.gif","""event"",""trial"",""time""
""fullscreenenter"",""1"",""13934""
","
","
","""event"",""trial"",""time""
""fullscreenenter"",""1"",""13934""
","
","","10336","audio/beep_loop.wav","32","","","","","","","","",""
"audio-button-response","3","30455","0.0-3.0","217","false","img/card_backs/set1/purple.gif","img/card_backs/set1/yellow.gif","img/card_backs/set1/green.gif","img/card_backs/set1/red.gif","img/card_backs/set2/blue.gif","img/card_backs/set2/pink.gif","img/card_backs/set2/orange.gif","img/card_backs/set2/gray.gif","""event"",""trial"",""time""
""fullscreenenter"",""1"",""13934""
","
","
","""event"",""trial"",""time""
""fullscreenenter"",""1"",""13934""
","
","","NaN","audio/turtle.mp3","","3","","","","","","","",""
"audio-button-response","4","33314","0.0-4.0","217","false","img/card_backs/set1/purple.gif","img/card_backs/set1/yellow.gif","img/card_backs/set1/green.gif","img/card_backs/set1/red.gif","img/card_backs/set2/blue.gif","img/card_backs/set2/pink.gif","img/card_backs/set2/orange.gif","img/card_backs/set2/gray.gif","""event"",""trial"",""time""
""fullscreenenter"",""1"",""13934""
","
","
","""event"",""trial"",""time""
""fullscreenenter"",""1"",""13934""
","
","","NaN","audio/shark.mp3","","2","","","","","","","",""
"fullscreen","5","37113","0.0-5.0","217","false","img/card_backs/set1/purple.gif","img/card_backs/set1/yellow.gif","img/card_backs/set1/green.gif","img/card_backs/set1/red.gif","img/card_backs/set2/blue.gif","img/card_backs/set2/pink.gif","img/card_backs/set2/orange.gif","img/card_backs/set2/gray.gif","""event"",""trial"",""time""
""fullscreenenter"",""1"",""13934""
","
","
","""event"",""trial"",""time""
""fullscreenenter"",""1"",""13934""
","
","true","","","","","","","","","","","",""
"casino-keyboard-response","6","41421","0.0-6.0-0.0","217","false","img/card_backs/set1/purple.gif","img/card_backs/set1/yellow.gif","img/card_backs/set1/green.gif","img/card_backs/set1/red.gif","img/card_backs/set2/blue.gif","img/card_backs/set2/pink.gif","img/card_backs/set2/orange.gif","img/card_backs/set2/gray.gif","""event"",""trial"",""time""
""fullscreenenter"",""1"",""13934""
","
","
","""event"",""trial"",""time""
""fullscreenenter"",""1"",""13934""
","
","","4297.790000000532","Welcome to the casino!","71","","instructions","2021-03-30 21:55:26.731","","","","","",""
"casino-keyboard-response","7","52583","0.0-6.0-0.1","217","false","img/card_backs/set1/purple.gif","img/card_backs/set1/yellow.gif","img/card_backs/set1/green.gif","img/card_backs/set1/red.gif","img/card_backs/set2/blue.gif","img/card_backs/set2/pink.gif","img/card_backs/set2/orange.gif","img/card_backs/set2/gray.gif","""event"",""trial"",""time""
""fullscreenenter"",""1"",""13934""
","
","
","""event"",""trial"",""time""
""fullscreenenter"",""1"",""13934""
","
","","11155.240000000049","Today you will be playing a game to earn tokens. </br> At the end of the experiment, you will be paid a bonus based on how many tokens you win. ","69","","instructions","2021-03-30 21:55:37.891","","","","","",""
"casino-keyboard-response","8","60697","0.0-6.0-0.2","217","false","img/card_backs/set1/purple.gif","img/card_backs/set1/yellow.gif","img/card_backs/set1/green.gif","img/card_backs/set1/red.gif","img/card_backs/set2/blue.gif","img/card_backs/set2/pink.gif","img/card_backs/set2/orange.gif","img/card_backs/set2/gray.gif","""event"",""trial"",""time""
""fullscreenenter"",""1"",""13934""
","
","
","""event"",""trial"",""time""
""fullscreenenter"",""1"",""13934""
","
","","8107.300000003306","On every turn, you will be shown four different decks of cards. </br> You need to select a card from one of the four decks.  ","75","","instructions","2021-03-30 21:55:46.005","","","","","",""
"casino-keyboard-response","9","65402","0.0-6.0-0.3","217","false","img/card_backs/set1/purple.gif","img/card_backs/set1/yellow.gif","img/card_backs/set1/green.gif","img/card_backs/set1/red.gif","img/card_backs/set2/blue.gif","img/card_backs/set2/pink.gif","img/card_backs/set2/orange.gif","img/card_backs/set2/gray.gif","""event"",""trial"",""time""
""fullscreenenter"",""1"",""13934""
","
","
","""event"",""trial"",""time""
""fullscreenenter"",""1"",""13934""
","
","","4698.114999999234","On the next screen, you will see what the decks will look like. ","66","","instructions","2021-03-30 21:55:50.711","","","","","",""
"card-selection-trial","10","69413","0.0-7.0-0.0","217","false","img/card_backs/set1/purple.gif","img/card_backs/set1/yellow.gif","img/card_backs/set1/green.gif","img/card_backs/set1/red.gif","img/card_backs/set2/blue.gif","img/card_backs/set2/pink.gif","img/card_backs/set2/orange.gif","img/card_backs/set2/gray.gif","""event"",""trial"",""time""
""fullscreenenter"",""1"",""13934""
","
","
","""event"",""trial"",""time""
""fullscreenenter"",""1"",""13934""
","
","","null","","","","practice","2021-03-30 21:55:54.722","null","null","null","0","",""
"casino-keyboard-response","11","85317","0.0-8.0-0.0","217","false","img/card_backs/set1/purple.gif","img/card_backs/set1/yellow.gif","img/card_backs/set1/green.gif","img/card_backs/set1/red.gif","img/card_backs/set2/blue.gif","img/card_backs/set2/pink.gif","img/card_backs/set2/orange.gif","img/card_backs/set2/gray.gif","""event"",""trial"",""time""
""fullscreenenter"",""1"",""13934""
","
","
","""event"",""trial"",""time""
""fullscreenenter"",""1"",""13934""
","
","","15895.540000001347","You should pick a card from a deck using the '2', '4', '6', and '8' keys at the top of the keyboard.","85","","instructions","2021-03-30 21:56:10.625","","","","","",""
"casino-keyboard-response","12","90786","0.0-8.0-0.1","217","false","img/card_backs/set1/purple.gif","img/card_backs/set1/yellow.gif","img/card_backs/set1/green.gif","img/card_backs/set1/red.gif","img/card_backs/set2/blue.gif","img/card_backs/set2/pink.gif","img/card_backs/set2/orange.gif","img/card_backs/set2/gray.gif","""event"",""trial"",""time""
""fullscreenenter"",""1"",""13934""
","
","
","""event"",""trial"",""time""
""fullscreenenter"",""1"",""13934""
","
","","5463.565000001836","Once you select a card, it will turn over and you will see how many tokens you earned.","83","","instructions","2021-03-30 21:56:16.094","","","","","",""
"casino-keyboard-response","13","110933","0.0-8.0-0.2","217","false","img/card_backs/set1/purple.gif","img/card_backs/set1/yellow.gif","img/card_backs/set1/green.gif","img/card_backs/set1/red.gif","img/card_backs/set2/blue.gif","img/card_backs/set2/pink.gif","img/card_backs/set2/orange.gif","img/card_backs/set2/gray.gif","""event"",""trial"",""time""
""fullscreenenter"",""1"",""13934""
","
","
","""event"",""trial"",""time""
""fullscreenenter"",""1"",""13934""
","
","","20139.42500000121","Let's try practicing that! </br> First, try to put your fingers over the '2', '4', '6', and '8' keys. </br>  You can use whatever fingers are most comfortable for you. Try to find a comfortable position now. ","50","","instructions","2021-03-30 21:56:36.241","","","","","",""
"casino-keyboard-response","14","116972","0.0-8.0-0.3","217","false","img/card_backs/set1/purple.gif","img/card_backs/set1/yellow.gif","img/card_backs/set1/green.gif","img/card_backs/set1/red.gif","img/card_backs/set2/blue.gif","img/card_backs/set2/pink.gif","img/card_backs/set2/orange.gif","img/card_backs/set2/gray.gif","""event"",""trial"",""time""
""fullscreenenter"",""1"",""13934""
","
","
","""event"",""trial"",""time""
""fullscreenenter"",""1"",""13934""
","
","","6031.374999998661","Okay ready? </br> On the next screen, press '2' to select the left deck. ","50","","instructions","2021-03-30 21:56:42.280","","","","","",""
"card-selection-trial","15","120052","0.0-9.0-0.0","217","false","img/card_backs/set1/purple.gif","img/card_backs/set1/yellow.gif","img/card_backs/set1/green.gif","img/card_backs/set1/red.gif","img/card_backs/set2/blue.gif","img/card_backs/set2/pink.gif","img/card_backs/set2/orange.gif","img/card_backs/set2/gray.gif","""event"",""trial"",""time""
""fullscreenenter"",""1"",""13934""
","
","
","""event"",""trial"",""time""
""fullscreenenter"",""1"",""13934""
","
","","917.4050000001444","","","","practice_card_selection","2021-03-30 21:56:45.362","img/practice_cards/backs/dark_green.gif","0","-200","","",""
"casino-keyboard-response","16","126338","0.0-10.0-0.0","217","false","img/card_backs/set1/purple.gif","img/card_backs/set1/yellow.gif","img/card_backs/set1/green.gif","img/card_backs/set1/red.gif","img/card_backs/set2/blue.gif","img/card_backs/set2/pink.gif","img/card_backs/set2/orange.gif","img/card_backs/set2/gray.gif","""event"",""trial"",""time""
""fullscreenenter"",""1"",""13934""
","
","
","""event"",""trial"",""time""
""fullscreenenter"",""1"",""13934""
","
","","6279.630000000907","Great! Now on the next screen, try pressing '6' to select the third deck.","54","","instructions","2021-03-30 21:56:51.646","","","","","",""
"card-selection-trial","17","129120","0.0-11.0-0.0","217","false","img/card_backs/set1/purple.gif","img/card_backs/set1/yellow.gif","img/card_backs/set1/green.gif","img/card_backs/set1/red.gif","img/card_backs/set2/blue.gif","img/card_backs/set2/pink.gif","img/card_backs/set2/orange.gif","img/card_backs/set2/gray.gif","""event"",""trial"",""time""
""fullscreenenter"",""1"",""13934""
","
","
","""event"",""trial"",""time""
""fullscreenenter"",""1"",""13934""
","
","","761.5050000022165","","","","practice_card_selection","2021-03-30 21:56:54.429","img/practice_cards/backs/dark_blue.gif","2","-200","","",""
"casino-keyboard-response","18","134224","0.0-12.0-0.0","217","false","img/card_backs/set1/purple.gif","img/card_backs/set1/yellow.gif","img/card_backs/set1/green.gif","img/card_backs/set1/red.gif","img/card_backs/set2/blue.gif","img/card_backs/set2/pink.gif","img/card_backs/set2/orange.gif","img/card_backs/set2/gray.gif","""event"",""trial"",""time""
""fullscreenenter"",""1"",""13934""
","
","
","""event"",""trial"",""time""
""fullscreenenter"",""1"",""13934""
","
","","5095.9100000000035","Now on the next screen, try pressing '4' to select the second deck.","52","","instructions","2021-03-30 21:56:59.532","","","","","",""
"card-selection-trial","19","136863","0.0-13.0-0.0","217","false","img/card_backs/set1/purple.gif","img/card_backs/set1/yellow.gif","img/card_backs/set1/green.gif","img/card_backs/set1/red.gif","img/card_backs/set2/blue.gif","img/card_backs/set2/pink.gif","img/card_backs/set2/orange.gif","img/card_backs/set2/gray.gif","""event"",""trial"",""time""
""fullscreenenter"",""1"",""13934""
","
","
","""event"",""trial"",""time""
""fullscreenenter"",""1"",""13934""
","
","","614.3950000005134","","","","practice_card_selection","2021-03-30 21:57:02.172","img/practice_cards/backs/black.gif","1","100","","",""
"casino-keyboard-response","20","142306","0.0-14.0-0.0","217","false","img/card_backs/set1/purple.gif","img/card_backs/set1/yellow.gif","img/card_backs/set1/green.gif","img/card_backs/set1/red.gif","img/card_backs/set2/blue.gif","img/card_backs/set2/pink.gif","img/card_backs/set2/orange.gif","img/card_backs/set2/gray.gif","""event"",""trial"",""time""
""fullscreenenter"",""1"",""13934""
","
","
","""event"",""trial"",""time""
""fullscreenenter"",""1"",""13934""
","
","","5435.165000002598","Finally, try pressing '8' to select the deck all the way on the right.","56","","instructions","2021-03-30 21:57:07.614","","","","","",""
"card-selection-trial","21","144994","0.0-15.0-0.0","217","false","img/card_backs/set1/purple.gif","img/card_backs/set1/yellow.gif","img/card_backs/set1/green.gif","img/card_backs/set1/red.gif","img/card_backs/set2/blue.gif","img/card_backs/set2/pink.gif","img/card_backs/set2/orange.gif","img/card_backs/set2/gray.gif","""event"",""trial"",""time""
""fullscreenenter"",""1"",""13934""
","
","
","""event"",""trial"",""time""
""fullscreenenter"",""1"",""13934""
","
","","668.8600000015867","","","","practice_card_selection","2021-03-30 21:57:10.303","img/practice_cards/backs/black.gif","3","-100","","",""
"casino-keyboard-response","22","153034","0.0-16.0-0.0","217","false","img/card_backs/set1/purple.gif","img/card_backs/set1/yellow.gif","img/card_backs/set1/green.gif","img/card_backs/set1/red.gif","img/card_backs/set2/blue.gif","img/card_backs/set2/pink.gif","img/card_backs/set2/orange.gif","img/card_backs/set2/gray.gif","""event"",""trial"",""time""
""fullscreenenter"",""1"",""13934""
","
","
","""event"",""trial"",""time""
""fullscreenenter"",""1"",""13934""
","
","","8030.064999999013","Great! It seems like you are getting the hang of this.","80","","instructions","2021-03-30 21:57:18.342","","","","","",""
"casino-keyboard-response","23","160296","0.0-16.0-0.1","217","false","img/card_backs/set1/purple.gif","img/card_backs/set1/yellow.gif","img/card_backs/set1/green.gif","img/card_backs/set1/red.gif","img/card_backs/set2/blue.gif","img/card_backs/set2/pink.gif","img/card_backs/set2/orange.gif","img/card_backs/set2/gray.gif","""event"",""trial"",""time""
""fullscreenenter"",""1"",""13934""
","
","
","""event"",""trial"",""time""
""fullscreenenter"",""1"",""13934""
","
","","7254.775000001246","You may have noticed that some cards will cause you to <b> win </b> tokens while other cards will cause you to <b> lose </b>  tokens.","70","","instructions","2021-03-30 21:57:25.604","","","","","",""
"casino-keyboard-response","24","169062","0.0-16.0-0.2","217","false","img/card_backs/set1/purple.gif","img/card_backs/set1/yellow.gif","img/card_backs/set1/green.gif","img/card_backs/set1/red.gif","img/card_backs/set2/blue.gif","img/card_backs/set2/pink.gif","img/card_backs/set2/orange.gif","img/card_backs/set2/gray.gif","""event"",""trial"",""time""
""fullscreenenter"",""1"",""13934""
","
","
","""event"",""trial"",""time""
""fullscreenenter"",""1"",""13934""
","
","","8759.365000001708","Each deck has a mix of cards that will cause you to win and lose tokens. </br> However, the cards in each colored deck are different.","73","","instructions","2021-03-30 21:57:34.371","","","","","",""
"casino-keyboard-response","25","177763","0.0-16.0-0.3","217","false","img/card_backs/set1/purple.gif","img/card_backs/set1/yellow.gif","img/card_backs/set1/green.gif","img/card_backs/set1/red.gif","img/card_backs/set2/blue.gif","img/card_backs/set2/pink.gif","img/card_backs/set2/orange.gif","img/card_backs/set2/gray.gif","""event"",""trial"",""time""
""fullscreenenter"",""1"",""13934""
","
","
","""event"",""trial"",""time""
""fullscreenenter"",""1"",""13934""
","
","","8690.12500000099","Some colored decks are luckier than others. </br> If you choose the lucky decks, you will earn more tokens than if you choose the unlucky decks.","69","","instructions","2021-03-30 21:57:43.071","","","","","",""
"casino-keyboard-response","26","184959","0.0-16.0-0.4","217","false","img/card_backs/set1/purple.gif","img/card_backs/set1/yellow.gif","img/card_backs/set1/green.gif","img/card_backs/set1/red.gif","img/card_backs/set2/blue.gif","img/card_backs/set2/pink.gif","img/card_backs/set2/orange.gif","img/card_backs/set2/gray.gif","""event"",""trial"",""time""
""fullscreenenter"",""1"",""13934""
","
","
","""event"",""trial"",""time""
""fullscreenenter"",""1"",""13934""
","
","","7188.9699999992445","You should try to figure out which decks are lucky. </br> Then, try to choose the lucky decks so you can win the most tokens.","87","","instructions","2021-03-30 21:57:50.268","","","","","",""
"casino-keyboard-response","27","196614","0.0-16.0-0.5","217","false","img/card_backs/set1/purple.gif","img/card_backs/set1/yellow.gif","img/card_backs/set1/green.gif","img/card_backs/set1/red.gif","img/card_backs/set2/blue.gif","img/card_backs/set2/pink.gif","img/card_backs/set2/orange.gif","img/card_backs/set2/gray.gif","""event"",""trial"",""time""
""fullscreenenter"",""1"",""13934""
","
","
","""event"",""trial"",""time""
""fullscreenenter"",""1"",""13934""
","
","","11646.785000000818","To make it trickier, the casino dealer will switch the locations of the decks on every turn. </br> The color of the deck determines how lucky it is. The location does not matter.","88","","instructions","2021-03-30 21:58:01.922","","","","","",""
"casino-keyboard-response","28","209831","0.0-16.0-0.6","217","false","img/card_backs/set1/purple.gif","img/card_backs/set1/yellow.gif","img/card_backs/set1/green.gif","img/card_backs/set1/red.gif","img/card_backs/set2/blue.gif","img/card_backs/set2/pink.gif","img/card_backs/set2/orange.gif","img/card_backs/set2/gray.gif","""event"",""trial"",""time""
""fullscreenenter"",""1"",""13934""
","
","
","""event"",""trial"",""time""
""fullscreenenter"",""1"",""13934""
","
","","13209.599999998318","The mix of cards in each colored deck will stay the same throughout the game. </br> That means that a deck that is lucky early on will stay lucky.","79","","instructions","2021-03-30 21:58:15.139","","","","","",""
"casino-keyboard-response","29","218666","0.0-16.0-0.7","217","false","img/card_backs/set1/purple.gif","img/card_backs/set1/yellow.gif","img/card_backs/set1/green.gif","img/card_backs/set1/red.gif","img/card_backs/set2/blue.gif","img/card_backs/set2/pink.gif","img/card_backs/set2/orange.gif","img/card_backs/set2/gray.gif","""event"",""trial"",""time""
""fullscreenenter"",""1"",""13934""
","
","
","""event"",""trial"",""time""
""fullscreenenter"",""1"",""13934""
","
","","8829.224999997678","Remember though, all the decks have a <b> mix </b> of both <b> good </b> and <b> bad </b> cards so it may take a couple of turns to figure out if a deck is lucky.","69","","instructions","2021-03-30 21:58:23.974","","","","","",""
"casino-keyboard-response","30","229650","0.0-16.0-0.8","217","false","img/card_backs/set1/purple.gif","img/card_backs/set1/yellow.gif","img/card_backs/set1/green.gif","img/card_backs/set1/red.gif","img/card_backs/set2/blue.gif","img/card_backs/set2/pink.gif","img/card_backs/set2/orange.gif","img/card_backs/set2/gray.gif","""event"",""trial"",""time""
""fullscreenenter"",""1"",""13934""
","
","
","""event"",""trial"",""time""
""fullscreenenter"",""1"",""13934""
","
","","10977.420000002894","At the end of the game, you will be paid bonus money based on how many tokens you win. </br> If you win more tokens, you will earn more money!","72","","instructions","2021-03-30 21:58:34.958","","","","","",""
"casino-keyboard-response","31","240030","0.0-16.0-0.9","217","false","img/card_backs/set1/purple.gif","img/card_backs/set1/yellow.gif","img/card_backs/set1/green.gif","img/card_backs/set1/red.gif","img/card_backs/set2/blue.gif","img/card_backs/set2/pink.gif","img/card_backs/set2/orange.gif","img/card_backs/set2/gray.gif","""event"",""trial"",""time""
""fullscreenenter"",""1"",""13934""
","
","
","""event"",""trial"",""time""
""fullscreenenter"",""1"",""13934""
","
","","10372.849999999744","You will never <b> lose </b> money. </br> If you end up with fewer than 0 tokens, you will earn $0 of bonus money, but you will still be paid for playing the game.","83","","instructions","2021-03-30 21:58:45.338","","","","","",""
"casino-keyboard-response","32","244039","0.0-16.0-0.10","217","false","img/card_backs/set1/purple.gif","img/card_backs/set1/yellow.gif","img/card_backs/set1/green.gif","img/card_backs/set1/red.gif","img/card_backs/set2/blue.gif","img/card_backs/set2/pink.gif","img/card_backs/set2/orange.gif","img/card_backs/set2/gray.gif","""event"",""trial"",""time""
""fullscreenenter"",""1"",""13934""
","
","
","""event"",""trial"",""time""
""fullscreenenter"",""1"",""13934""
","
","","3999.469999998837","You will have 10 seconds to make each choice.","82","","instructions","2021-03-30 21:58:49.347","","","","","",""
"casino-keyboard-response","33","252302","0.0-16.0-0.11","217","false","img/card_backs/set1/purple.gif","img/card_backs/set1/yellow.gif","img/card_backs/set1/green.gif","img/card_backs/set1/red.gif","img/card_backs/set2/blue.gif","img/card_backs/set2/pink.gif","img/card_backs/set2/orange.gif","img/card_backs/set2/gray.gif","""event"",""trial"",""time""
""fullscreenenter"",""1"",""13934""
","
","
","""event"",""trial"",""time""
""fullscreenenter"",""1"",""13934""
","
","","8256.505000001198","Before you play the game for real, you will play with practice decks. </br> The tokens you earn during practice won't count toward your total.","86","","instructions","2021-03-30 21:58:57.610","","","","","",""
"casino-keyboard-response","34","265257","0.0-16.0-0.12","217","false","img/card_backs/set1/purple.gif","img/card_backs/set1/yellow.gif","img/card_backs/set1/green.gif","img/card_backs/set1/red.gif","img/card_backs/set2/blue.gif","img/card_backs/set2/pink.gif","img/card_backs/set2/orange.gif","img/card_backs/set2/gray.gif","""event"",""trial"",""time""
""fullscreenenter"",""1"",""13934""
","
","
","""event"",""trial"",""time""
""fullscreenenter"",""1"",""13934""
","
","","12948.034999997646","Ready? Remember, use the '2', '4', '6', and '8' keys to select the decks. </br> Put your fingers on those keys now and then press '2' to begin.","50","","instructions","2021-03-30 21:59:10.565","","","","","",""
"casino-fixation","35","265763","0.0-17.0-0.0","217","false","img/card_backs/set1/purple.gif","img/card_backs/set1/yellow.gif","img/card_backs/set1/green.gif","img/card_backs/set1/red.gif","img/card_backs/set2/blue.gif","img/card_backs/set2/pink.gif","img/card_backs/set2/orange.gif","img/card_backs/set2/gray.gif","""event"",""trial"",""time""
""fullscreenenter"",""1"",""13934""
","
","
","""event"",""trial"",""time""
""fullscreenenter"",""1"",""13934""
","
","","null","","null","","fixation","2021-03-30 21:59:11.072","","","","","",""
"card-selection-trial","36","270368","0.0-17.0-1.0","217","false","img/card_backs/set1/purple.gif","img/card_backs/set1/yellow.gif","img/card_backs/set1/green.gif","img/card_backs/set1/red.gif","img/card_backs/set2/blue.gif","img/card_backs/set2/pink.gif","img/card_backs/set2/orange.gif","img/card_backs/set2/gray.gif","""event"",""trial"",""time""
""fullscreenenter"",""1"",""13934""
","
","
","""event"",""trial"",""time""
""fullscreenenter"",""1"",""13934""
","
","","2583.8399999993853","","","","practice","2021-03-30 21:59:15.677","img/practice_cards/backs/brown.gif","0","-100","0","",""
"casino-fixation","37","270876","0.0-17.0-0.1","217","false","img/card_backs/set1/purple.gif","img/card_backs/set1/yellow.gif","img/card_backs/set1/green.gif","img/card_backs/set1/red.gif","img/card_backs/set2/blue.gif","img/card_backs/set2/pink.gif","img/card_backs/set2/orange.gif","img/card_backs/set2/gray.gif","""event"",""trial"",""time""
""fullscreenenter"",""1"",""13934""
","
","
","""event"",""trial"",""time""
""fullscreenenter"",""1"",""13934""
","
","","null","","null","","fixation","2021-03-30 21:59:16.184","","","","","",""
"card-selection-trial","38","275025","0.0-17.0-1.1","217","false","img/card_backs/set1/purple.gif","img/card_backs/set1/yellow.gif","img/card_backs/set1/green.gif","img/card_backs/set1/red.gif","img/card_backs/set2/blue.gif","img/card_backs/set2/pink.gif","img/card_backs/set2/orange.gif","img/card_backs/set2/gray.gif","""event"",""trial"",""time""
""fullscreenenter"",""1"",""13934""
","
","
","""event"",""trial"",""time""
""fullscreenenter"",""1"",""13934""
","
","","2125.915000000503","","","","practice","2021-03-30 21:59:20.334","img/practice_cards/backs/brown.gif","2","-100","0","",""
"casino-fixation","39","275532","0.0-17.0-0.2","217","false","img/card_backs/set1/purple.gif","img/card_backs/set1/yellow.gif","img/card_backs/set1/green.gif","img/card_backs/set1/red.gif","img/card_backs/set2/blue.gif","img/card_backs/set2/pink.gif","img/card_backs/set2/orange.gif","img/card_backs/set2/gray.gif","""event"",""trial"",""time""
""fullscreenenter"",""1"",""13934""
","
","
","""event"",""trial"",""time""
""fullscreenenter"",""1"",""13934""
","
","","null","","null","","fixation","2021-03-30 21:59:20.841","","","","","",""
"card-selection-trial","40","278371","0.0-17.0-1.2","217","false","img/card_backs/set1/purple.gif","img/card_backs/set1/yellow.gif","img/card_backs/set1/green.gif","img/card_backs/set1/red.gif","img/card_backs/set2/blue.gif","img/card_backs/set2/pink.gif","img/card_backs/set2/orange.gif","img/card_backs/set2/gray.gif","""event"",""trial"",""time""
""fullscreenenter"",""1"",""13934""
","
","
","""event"",""trial"",""time""
""fullscreenenter"",""1"",""13934""
","
","","815.935000002326","","","","practice","2021-03-30 21:59:23.680","img/practice_cards/backs/dark_green.gif","3","-200","0","",""
"casino-fixation","41","278878","0.0-17.0-0.3","217","false","img/card_backs/set1/purple.gif","img/card_backs/set1/yellow.gif","img/card_backs/set1/green.gif","img/card_backs/set1/red.gif","img/card_backs/set2/blue.gif","img/card_backs/set2/pink.gif","img/card_backs/set2/orange.gif","img/card_backs/set2/gray.gif","""event"",""trial"",""time""
""fullscreenenter"",""1"",""13934""
","
","
","""event"",""trial"",""time""
""fullscreenenter"",""1"",""13934""
","
","","null","","null","","fixation","2021-03-30 21:59:24.186","","","","","",""
"card-selection-trial","42","281450","0.0-17.0-1.3","217","false","img/card_backs/set1/purple.gif","img/card_backs/set1/yellow.gif","img/card_backs/set1/green.gif","img/card_backs/set1/red.gif","img/card_backs/set2/blue.gif","img/card_backs/set2/pink.gif","img/card_backs/set2/orange.gif","img/card_backs/set2/gray.gif","""event"",""trial"",""time""
""fullscreenenter"",""1"",""13934""
","
","
","""event"",""trial"",""time""
""fullscreenenter"",""1"",""13934""
","
","","548.4700000016019","","","","practice","2021-03-30 21:59:26.759","img/practice_cards/backs/brown.gif","1","100","0","",""
"casino-fixation","43","281956","0.0-17.0-0.4","217","false","img/card_backs/set1/purple.gif","img/card_backs/set1/yellow.gif","img/card_backs/set1/green.gif","img/card_backs/set1/red.gif","img/card_backs/set2/blue.gif","img/card_backs/set2/pink.gif","img/card_backs/set2/orange.gif","img/card_backs/set2/gray.gif","""event"",""trial"",""time""
""fullscreenenter"",""1"",""13934""
","
","
","""event"",""trial"",""time""
""fullscreenenter"",""1"",""13934""
","
","","null","","null","","fixation","2021-03-30 21:59:27.265","","","","","",""
"card-selection-trial","44","284810","0.0-17.0-1.4","217","false","img/card_backs/set1/purple.gif","img/card_backs/set1/yellow.gif","img/card_backs/set1/green.gif","img/card_backs/set1/red.gif","img/card_backs/set2/blue.gif","img/card_backs/set2/pink.gif","img/card_backs/set2/orange.gif","img/card_backs/set2/gray.gif","""event"",""trial"",""time""
""fullscreenenter"",""1"",""13934""
","
","
","""event"",""trial"",""time""
""fullscreenenter"",""1"",""13934""
","
","","833.8049999983632","","","","practice","2021-03-30 21:59:30.118","img/practice_cards/backs/dark_blue.gif","1","-200","0","",""
"casino-fixation","45","285316","0.0-17.0-0.5","217","false","img/card_backs/set1/purple.gif","img/card_backs/set1/yellow.gif","img/card_backs/set1/green.gif","img/card_backs/set1/red.gif","img/card_backs/set2/blue.gif","img/card_backs/set2/pink.gif","img/card_backs/set2/orange.gif","img/card_backs/set2/gray.gif","""event"",""trial"",""time""
""fullscreenenter"",""1"",""13934""
","
","
","""event"",""trial"",""time""
""fullscreenenter"",""1"",""13934""
","
","","null","","null","","fixation","2021-03-30 21:59:30.624","","","","","",""
"card-selection-trial","46","288179","0.0-17.0-1.5","217","false","img/card_backs/set1/purple.gif","img/card_backs/set1/yellow.gif","img/card_backs/set1/green.gif","img/card_backs/set1/red.gif","img/card_backs/set2/blue.gif","img/card_backs/set2/pink.gif","img/card_backs/set2/orange.gif","img/card_backs/set2/gray.gif","""event"",""trial"",""time""
""fullscreenenter"",""1"",""13934""
","
","
","""event"",""trial"",""time""
""fullscreenenter"",""1"",""13934""
","
","","841.8399999972899","","","","practice","2021-03-30 21:59:33.488","img/practice_cards/backs/brown.gif","1","-100","0","",""
"casino-fixation","47","288685","0.0-17.0-0.6","217","false","img/card_backs/set1/purple.gif","img/card_backs/set1/yellow.gif","img/card_backs/set1/green.gif","img/card_backs/set1/red.gif","img/card_backs/set2/blue.gif","img/card_backs/set2/pink.gif","img/card_backs/set2/orange.gif","img/card_backs/set2/gray.gif","""event"",""trial"",""time""
""fullscreenenter"",""1"",""13934""
","
","
","""event"",""trial"",""time""
""fullscreenenter"",""1"",""13934""
","
","","null","","null","","fixation","2021-03-30 21:59:33.993","","","","","",""
"card-selection-trial","48","291340","0.0-17.0-1.6","217","false","img/card_backs/set1/purple.gif","img/card_backs/set1/yellow.gif","img/card_backs/set1/green.gif","img/card_backs/set1/red.gif","img/card_backs/set2/blue.gif","img/card_backs/set2/pink.gif","img/card_backs/set2/orange.gif","img/card_backs/set2/gray.gif","""event"",""trial"",""time""
""fullscreenenter"",""1"",""13934""
","
","
","""event"",""trial"",""time""
""fullscreenenter"",""1"",""13934""
","
","","632.195000001986","","","","practice","2021-03-30 21:59:36.648","img/practice_cards/backs/dark_blue.gif","2","200","0","",""
"casino-fixation","49","291848","0.0-17.0-0.7","217","false","img/card_backs/set1/purple.gif","img/card_backs/set1/yellow.gif","img/card_backs/set1/green.gif","img/card_backs/set1/red.gif","img/card_backs/set2/blue.gif","img/card_backs/set2/pink.gif","img/card_backs/set2/orange.gif","img/card_backs/set2/gray.gif","""event"",""trial"",""time""
""fullscreenenter"",""1"",""13934""
","
","
","""event"",""trial"",""time""
""fullscreenenter"",""1"",""13934""
","
","","null","","null","","fixation","2021-03-30 21:59:37.157","","","","","",""
"card-selection-trial","50","295523","0.0-17.0-1.7","217","false","img/card_backs/set1/purple.gif","img/card_backs/set1/yellow.gif","img/card_backs/set1/green.gif","img/card_backs/set1/red.gif","img/card_backs/set2/blue.gif","img/card_backs/set2/pink.gif","img/card_backs/set2/orange.gif","img/card_backs/set2/gray.gif","""event"",""trial"",""time""
""fullscreenenter"",""1"",""13934""
","
","
","""event"",""trial"",""time""
""fullscreenenter"",""1"",""13934""
","
","","1652.9000000009546","","","","practice","2021-03-30 21:59:40.832","img/practice_cards/backs/dark_green.gif","0","-200","0","",""
"casino-fixation","51","296033","0.0-17.0-0.8","217","false","img/card_backs/set1/purple.gif","img/card_backs/set1/yellow.gif","img/card_backs/set1/green.gif","img/card_backs/set1/red.gif","img/card_backs/set2/blue.gif","img/card_backs/set2/pink.gif","img/card_backs/set2/orange.gif","img/card_backs/set2/gray.gif","""event"",""trial"",""time""
""fullscreenenter"",""1"",""13934""
","
","
","""event"",""trial"",""time""
""fullscreenenter"",""1"",""13934""
","
","","null","","null","","fixation","2021-03-30 21:59:41.342","","","","","",""
"card-selection-trial","52","299014","0.0-17.0-1.8","217","false","img/card_backs/set1/purple.gif","img/card_backs/set1/yellow.gif","img/card_backs/set1/green.gif","img/card_backs/set1/red.gif","img/card_backs/set2/blue.gif","img/card_backs/set2/pink.gif","img/card_backs/set2/orange.gif","img/card_backs/set2/gray.gif","""event"",""trial"",""time""
""fullscreenenter"",""1"",""13934""
","
","
","""event"",""trial"",""time""
""fullscreenenter"",""1"",""13934""
","
","","957.7649999991991","","","","practice","2021-03-30 21:59:44.323","img/practice_cards/backs/dark_blue.gif","2","-200","0","",""
"casino-fixation","53","299522","0.0-17.0-0.9","217","false","img/card_backs/set1/purple.gif","img/card_backs/set1/yellow.gif","img/card_backs/set1/green.gif","img/card_backs/set1/red.gif","img/card_backs/set2/blue.gif","img/card_backs/set2/pink.gif","img/card_backs/set2/orange.gif","img/card_backs/set2/gray.gif","""event"",""trial"",""time""
""fullscreenenter"",""1"",""13934""
","
","
","""event"",""trial"",""time""
""fullscreenenter"",""1"",""13934""
","
","","null","","null","","fixation","2021-03-30 21:59:44.831","","","","","",""
"card-selection-trial","54","302167","0.0-17.0-1.9","217","false","img/card_backs/set1/purple.gif","img/card_backs/set1/yellow.gif","img/card_backs/set1/green.gif","img/card_backs/set1/red.gif","img/card_backs/set2/blue.gif","img/card_backs/set2/pink.gif","img/card_backs/set2/orange.gif","img/card_backs/set2/gray.gif","""event"",""trial"",""time""
""fullscreenenter"",""1"",""13934""
","
","
","""event"",""trial"",""time""
""fullscreenenter"",""1"",""13934""
","
","","623.1950000001816","","","","practice","2021-03-30 21:59:47.475","img/practice_cards/backs/dark_blue.gif","2","-200","0","",""
"casino-keyboard-response","55","306646","0.0-18.0","217","false","img/card_backs/set1/purple.gif","img/card_backs/set1/yellow.gif","img/card_backs/set1/green.gif","img/card_backs/set1/red.gif","img/card_backs/set2/blue.gif","img/card_backs/set2/pink.gif","img/card_backs/set2/orange.gif","img/card_backs/set2/gray.gif","""event"",""trial"",""time""
""fullscreenenter"",""1"",""13934""
","
","
","""event"",""trial"",""time""
""fullscreenenter"",""1"",""13934""
","
","","4469.72000000102","You earned -1000 tokens during the practice round!","75","","","2021-03-30 21:59:51.956","","","","","",""
"casino-keyboard-response","56","318430","0.0-19.0-0.0","217","false","img/card_backs/set1/purple.gif","img/card_backs/set1/yellow.gif","img/card_backs/set1/green.gif","img/card_backs/set1/red.gif","img/card_backs/set2/blue.gif","img/card_backs/set2/pink.gif","img/card_backs/set2/orange.gif","img/card_backs/set2/gray.gif","""event"",""trial"",""time""
""fullscreenenter"",""1"",""13934""
","
","
","""event"",""trial"",""time""
""fullscreenenter"",""1"",""13934""
","
","","11775.599999997241","Nice job! You are almost ready to play the real game.","86","","instructions","2021-03-30 22:00:03.739","","","","","",""
"casino-keyboard-response","57","328460","0.0-19.0-0.1","217","false","img/card_backs/set1/purple.gif","img/card_backs/set1/yellow.gif","img/card_backs/set1/green.gif","img/card_backs/set1/red.gif","img/card_backs/set2/blue.gif","img/card_backs/set2/pink.gif","img/card_backs/set2/orange.gif","img/card_backs/set2/gray.gif","""event"",""trial"",""time""
""fullscreenenter"",""1"",""13934""
","
","
","""event"",""trial"",""time""
""fullscreenenter"",""1"",""13934""
","
","","10023.134999999427","You will play two rounds of the real game. In each round, you will pick 100 cards in total.","73","","instructions","2021-03-30 22:00:13.768","","","","","",""
"casino-keyboard-response","58","334088","0.0-19.0-0.2","217","false","img/card_backs/set1/purple.gif","img/card_backs/set1/yellow.gif","img/card_backs/set1/green.gif","img/card_backs/set1/red.gif","img/card_backs/set2/blue.gif","img/card_backs/set2/pink.gif","img/card_backs/set2/orange.gif","img/card_backs/set2/gray.gif","""event"",""trial"",""time""
""fullscreenenter"",""1"",""13934""
","
","
","""event"",""trial"",""time""
""fullscreenenter"",""1"",""13934""
","
","","5623.2049999999","We are now going to ask you some questions about how the game works.","66","","instructions","2021-03-30 22:00:19.397","","","","","",""
"casino-keyboard-response","59","341009","0.0-19.0-0.3","217","false","img/card_backs/set1/purple.gif","img/card_backs/set1/yellow.gif","img/card_backs/set1/green.gif","img/card_backs/set1/red.gif","img/card_backs/set2/blue.gif","img/card_backs/set2/pink.gif","img/card_backs/set2/orange.gif","img/card_backs/set2/gray.gif","""event"",""trial"",""time""
""fullscreenenter"",""1"",""13934""
","
","
","""event"",""trial"",""time""
""fullscreenenter"",""1"",""13934""
","
","","6914.73500000214","Answer carefully. You will not be able to begin the game until you answer them correctly.","67","","instructions","2021-03-30 22:00:26.318","","","","","",""
"casino-comp_q","60","353305","0.0-20.0-0.0","217","false","img/card_backs/set1/purple.gif","img/card_backs/set1/yellow.gif","img/card_backs/set1/green.gif","img/card_backs/set1/red.gif","img/card_backs/set2/blue.gif","img/card_backs/set2/pink.gif","img/card_backs/set2/orange.gif","img/card_backs/set2/gray.gif","""event"",""trial"",""time""
""fullscreenenter"",""1"",""13934""
","
","
","""event"",""trial"",""time""
""fullscreenenter"",""1"",""13934""
","
","","12287.599999999686","True or False: All the decks have some cards that cause you to win tokens and some cards that cause you to lose tokens.","84","","","2021-03-30 22:00:38.614","","","","","",""
"casino-keyboard-response","61","358504","0.0-20.0-1.0","217","false","img/card_backs/set1/purple.gif","img/card_backs/set1/yellow.gif","img/card_backs/set1/green.gif","img/card_backs/set1/red.gif","img/card_backs/set2/blue.gif","img/card_backs/set2/pink.gif","img/card_backs/set2/orange.gif","img/card_backs/set2/gray.gif","""event"",""trial"",""time""
""fullscreenenter"",""1"",""13934""
","
","
","""event"",""trial"",""time""
""fullscreenenter"",""1"",""13934""
","
","","5189.474999999278","True is correct! All the decks have a mix of winning and losing cards.","77","","","2021-03-30 22:00:43.814","","","","","true",""
"casino-comp_q","62","363779","0.0-21.0-0.0","217","false","img/card_backs/set1/purple.gif","img/card_backs/set1/yellow.gif","img/card_backs/set1/green.gif","img/card_backs/set1/red.gif","img/card_backs/set2/blue.gif","img/card_backs/set2/pink.gif","img/card_backs/set2/orange.gif","img/card_backs/set2/gray.gif","""event"",""trial"",""time""
""fullscreenenter"",""1"",""13934""
","
","
","""event"",""trial"",""time""
""fullscreenenter"",""1"",""13934""
","
","","5261.945000001986","True or False: You will have as much time as you want to make your response.","70","","","2021-03-30 22:00:49.087","","","","","",""
"casino-keyboard-response","63","370912","0.0-21.0-1.0","217","false","img/card_backs/set1/purple.gif","img/card_backs/set1/yellow.gif","img/card_backs/set1/green.gif","img/card_backs/set1/red.gif","img/card_backs/set2/blue.gif","img/card_backs/set2/pink.gif","img/card_backs/set2/orange.gif","img/card_backs/set2/gray.gif","""event"",""trial"",""time""
""fullscreenenter"",""1"",""13934""
","
","
","""event"",""trial"",""time""
""fullscreenenter"",""1"",""13934""
","
","","7124.724999997881","False is correct! You will only have 10 seconds to make each choice.","75","","","2021-03-30 22:00:56.220","","","","","true",""
"casino-comp_q","64","378730","0.0-22.0-0.0","217","false","img/card_backs/set1/purple.gif","img/card_backs/set1/yellow.gif","img/card_backs/set1/green.gif","img/card_backs/set1/red.gif","img/card_backs/set2/blue.gif","img/card_backs/set2/pink.gif","img/card_backs/set2/orange.gif","img/card_backs/set2/gray.gif","""event"",""trial"",""time""
""fullscreenenter"",""1"",""13934""
","
","
","""event"",""trial"",""time""
""fullscreenenter"",""1"",""13934""
","
","","7810.869999997551","True or False: The location of the deck determines how lucky it is.","70","","","2021-03-30 22:01:04.039","","","","","",""
"casino-keyboard-response","65","394738","0.0-22.0-1.0","217","false","img/card_backs/set1/purple.gif","img/card_backs/set1/yellow.gif","img/card_backs/set1/green.gif","img/card_backs/set1/red.gif","img/card_backs/set2/blue.gif","img/card_backs/set2/pink.gif","img/card_backs/set2/orange.gif","img/card_backs/set2/gray.gif","""event"",""trial"",""time""
""fullscreenenter"",""1"",""13934""
","
","
","""event"",""trial"",""time""
""fullscreenenter"",""1"",""13934""
","
","","15998.410000000149","False is correct! The <i>color</i>  of the deck determines how lucky or unlucky it is.","68","","","2021-03-30 22:01:20.046","","","","","true",""
"casino-keyboard-response","66","399092","0.0-23.0-0.0","217","false","img/card_backs/set1/purple.gif","img/card_backs/set1/yellow.gif","img/card_backs/set1/green.gif","img/card_backs/set1/red.gif","img/card_backs/set2/blue.gif","img/card_backs/set2/pink.gif","img/card_backs/set2/orange.gif","img/card_backs/set2/gray.gif","""event"",""trial"",""time""
""fullscreenenter"",""1"",""13934""
","
","
","""event"",""trial"",""time""
""fullscreenenter"",""1"",""13934""
","
","","4347.359999999753","Great job! Now it's time to start the real game.","82","","instructions","2021-03-30 22:01:24.401","","","","","",""
"casino-keyboard-response","67","404509","0.0-23.0-0.1","217","false","img/card_backs/set1/purple.gif","img/card_backs/set1/yellow.gif","img/card_backs/set1/green.gif","img/card_backs/set1/red.gif","img/card_backs/set2/blue.gif","img/card_backs/set2/pink.gif","img/card_backs/set2/orange.gif","img/card_backs/set2/gray.gif","""event"",""trial"",""time""
""fullscreenenter"",""1"",""13934""
","
","
","""event"",""trial"",""time""
""fullscreenenter"",""1"",""13934""
","
","","5407.964999998512","Before we start, we're going to head into a new room of the casino.","86","","instructions","2021-03-30 22:01:29.818","","","","","",""
"casino-keyboard-response","68","411043","0.0-24.0-0.0","217","false","img/card_backs/set1/purple.gif","img/card_backs/set1/yellow.gif","img/card_backs/set1/green.gif","img/card_backs/set1/red.gif","img/card_backs/set2/blue.gif","img/card_backs/set2/pink.gif","img/card_backs/set2/orange.gif","img/card_backs/set2/gray.gif","""event"",""trial"",""time""
""fullscreenenter"",""1"",""13934""
","
","
","""event"",""trial"",""time""
""fullscreenenter"",""1"",""13934""
","
","","6526.065000001807","Here we are! The real game will use different cards, but the rules will be the same.","71","","instructions","2021-03-30 22:01:36.351","","","","","",""
"casino-keyboard-response","69","420085","0.0-24.0-0.1","217","false","img/card_backs/set1/purple.gif","img/card_backs/set1/yellow.gif","img/card_backs/set1/green.gif","img/card_backs/set1/red.gif","img/card_backs/set2/blue.gif","img/card_backs/set2/pink.gif","img/card_backs/set2/orange.gif","img/card_backs/set2/gray.gif","""event"",""trial"",""time""
""fullscreenenter"",""1"",""13934""
","
","
","""event"",""trial"",""time""
""fullscreenenter"",""1"",""13934""
","
","","9035.084999999497","Ready? Put your fingers over the '2', '4', 6', and '8' keys so you are ready to play the game. </br> Then press 2 to start.","50","","instructions","2021-03-30 22:01:45.393","","","","","",""
"casino-fixation","70","420591","0.0-25.0-0.0","217","false","img/card_backs/set1/purple.gif","img/card_backs/set1/yellow.gif","img/card_backs/set1/green.gif","img/card_backs/set1/red.gif","img/card_backs/set2/blue.gif","img/card_backs/set2/pink.gif","img/card_backs/set2/orange.gif","img/card_backs/set2/gray.gif","""event"",""trial"",""time""
""fullscreenenter"",""1"",""13934""
","
","
","""event"",""trial"",""time""
""fullscreenenter"",""1"",""13934""
","
","","null","","null","","fixation","2021-03-30 22:01:45.900","","","","","",""
"card-selection-trial","71","423675","0.0-25.0-1.0","217","false","img/card_backs/set1/purple.gif","img/card_backs/set1/yellow.gif","img/card_backs/set1/green.gif","img/card_backs/set1/red.gif","img/card_backs/set2/blue.gif","img/card_backs/set2/pink.gif","img/card_backs/set2/orange.gif","img/card_backs/set2/gray.gif","""event"",""trial"",""time""
""fullscreenenter"",""1"",""13934""
","
","
","""event"",""trial"",""time""
""fullscreenenter"",""1"",""13934""
","
","","1055.225000000035","","","","real_trial","2021-03-30 22:01:48.983","img/card_backs/set1/purple.gif","0","200","1","",""
"casino-fixation","72","424180","0.0-25.0-0.1","217","false","img/card_backs/set1/purple.gif","img/card_backs/set1/yellow.gif","img/card_backs/set1/green.gif","img/card_backs/set1/red.gif","img/card_backs/set2/blue.gif","img/card_backs/set2/pink.gif","img/card_backs/set2/orange.gif","img/card_backs/set2/gray.gif","""event"",""trial"",""time""
""fullscreenenter"",""1"",""13934""
","
","
","""event"",""trial"",""time""
""fullscreenenter"",""1"",""13934""
","
","","null","","null","","fixation","2021-03-30 22:01:49.489","","","","","",""
"card-selection-trial","73","427793","0.0-25.0-1.1","217","false","img/card_backs/set1/purple.gif","img/card_backs/set1/yellow.gif","img/card_backs/set1/green.gif","img/card_backs/set1/red.gif","img/card_backs/set2/blue.gif","img/card_backs/set2/pink.gif","img/card_backs/set2/orange.gif","img/card_backs/set2/gray.gif","""event"",""trial"",""time""
""fullscreenenter"",""1"",""13934""
","
","
","""event"",""trial"",""time""
""fullscreenenter"",""1"",""13934""
","
","","1588.7750000001397","","","","real_trial","2021-03-30 22:01:53.101","img/card_backs/set1/purple.gif","1","180","1","",""
"casino-fixation","74","428297","0.0-25.0-0.2","217","false","img/card_backs/set1/purple.gif","img/card_backs/set1/yellow.gif","img/card_backs/set1/green.gif","img/card_backs/set1/red.gif","img/card_backs/set2/blue.gif","img/card_backs/set2/pink.gif","img/card_backs/set2/orange.gif","img/card_backs/set2/gray.gif","""event"",""trial"",""time""
""fullscreenenter"",""1"",""13934""
","
","
","""event"",""trial"",""time""
""fullscreenenter"",""1"",""13934""
","
","","null","","null","","fixation","2021-03-30 22:01:53.606","","","","","",""
"card-selection-trial","75","431912","0.0-25.0-1.2","217","false","img/card_backs/set1/purple.gif","img/card_backs/set1/yellow.gif","img/card_backs/set1/green.gif","img/card_backs/set1/red.gif","img/card_backs/set2/blue.gif","img/card_backs/set2/pink.gif","img/card_backs/set2/orange.gif","img/card_backs/set2/gray.gif","""event"",""trial"",""time""
""fullscreenenter"",""1"",""13934""
","
","
","""event"",""trial"",""time""
""fullscreenenter"",""1"",""13934""
","
","","1590.9150000006193","","","","real_trial","2021-03-30 22:01:57.221","img/card_backs/set1/purple.gif","2","180","1","",""
"casino-fixation","76","432417","0.0-25.0-0.3","217","false","img/card_backs/set1/purple.gif","img/card_backs/set1/yellow.gif","img/card_backs/set1/green.gif","img/card_backs/set1/red.gif","img/card_backs/set2/blue.gif","img/card_backs/set2/pink.gif","img/card_backs/set2/orange.gif","img/card_backs/set2/gray.gif","""event"",""trial"",""time""
""fullscreenenter"",""1"",""13934""
","
","
","""event"",""trial"",""time""
""fullscreenenter"",""1"",""13934""
","
","","null","","null","","fixation","2021-03-30 22:01:57.726","","","","","",""
"card-selection-trial","77","435298","0.0-25.0-1.3","217","false","img/card_backs/set1/purple.gif","img/card_backs/set1/yellow.gif","img/card_backs/set1/green.gif","img/card_backs/set1/red.gif","img/card_backs/set2/blue.gif","img/card_backs/set2/pink.gif","img/card_backs/set2/orange.gif","img/card_backs/set2/gray.gif","""event"",""trial"",""time""
""fullscreenenter"",""1"",""13934""
","
","
","""event"",""trial"",""time""
""fullscreenenter"",""1"",""13934""
","
","","857.5400000009104","","","","real_trial","2021-03-30 22:02:00.606","img/card_backs/set1/purple.gif","0","190","1","",""
"casino-fixation","78","435802","0.0-25.0-0.4","217","false","img/card_backs/set1/purple.gif","img/card_backs/set1/yellow.gif","img/card_backs/set1/green.gif","img/card_backs/set1/red.gif","img/card_backs/set2/blue.gif","img/card_backs/set2/pink.gif","img/card_backs/set2/orange.gif","img/card_backs/set2/gray.gif","""event"",""trial"",""time""
""fullscreenenter"",""1"",""13934""
","
","
","""event"",""trial"",""time""
""fullscreenenter"",""1"",""13934""
","
","","null","","null","","fixation","2021-03-30 22:02:01.111","","","","","",""
"card-selection-trial","79","438543","0.0-25.0-1.4","217","false","img/card_backs/set1/purple.gif","img/card_backs/set1/yellow.gif","img/card_backs/set1/green.gif","img/card_backs/set1/red.gif","img/card_backs/set2/blue.gif","img/card_backs/set2/pink.gif","img/card_backs/set2/orange.gif","img/card_backs/set2/gray.gif","""event"",""trial"",""time""
""fullscreenenter"",""1"",""13934""
","
","
","""event"",""trial"",""time""
""fullscreenenter"",""1"",""13934""
","
","","721.6200000002282","","","","real_trial","2021-03-30 22:02:03.851","img/card_backs/set1/purple.gif","3","-230","1","",""
"casino-fixation","80","439049","0.0-25.0-0.5","217","false","img/card_backs/set1/purple.gif","img/card_backs/set1/yellow.gif","img/card_backs/set1/green.gif","img/card_backs/set1/red.gif","img/card_backs/set2/blue.gif","img/card_backs/set2/pink.gif","img/card_backs/set2/orange.gif","img/card_backs/set2/gray.gif","""event"",""trial"",""time""
""fullscreenenter"",""1"",""13934""
","
","
","""event"",""trial"",""time""
""fullscreenenter"",""1"",""13934""
","
","","null","","null","","fixation","2021-03-30 22:02:04.358","","","","","",""
"card-selection-trial","81","442381","0.0-25.0-1.5","217","false","img/card_backs/set1/purple.gif","img/card_backs/set1/yellow.gif","img/card_backs/set1/green.gif","img/card_backs/set1/red.gif","img/card_backs/set2/blue.gif","img/card_backs/set2/pink.gif","img/card_backs/set2/orange.gif","img/card_backs/set2/gray.gif","""event"",""trial"",""time""
""fullscreenenter"",""1"",""13934""
","
","
","""event"",""trial"",""time""
""fullscreenenter"",""1"",""13934""
","
","","1309.7799999996205","","","","real_trial","2021-03-30 22:02:07.689","img/card_backs/set1/green.gif","2","120","1","",""
"casino-fixation","82","442889","0.0-25.0-0.6","217","false","img/card_backs/set1/purple.gif","img/card_backs/set1/yellow.gif","img/card_backs/set1/green.gif","img/card_backs/set1/red.gif","img/card_backs/set2/blue.gif","img/card_backs/set2/pink.gif","img/card_backs/set2/orange.gif","img/card_backs/set2/gray.gif","""event"",""trial"",""time""
""fullscreenenter"",""1"",""13934""
","
","
","""event"",""trial"",""time""
""fullscreenenter"",""1"",""13934""
","
","","null","","null","","fixation","2021-03-30 22:02:08.197","","","","","",""
"card-selection-trial","83","446205","0.0-25.0-1.6","217","false","img/card_backs/set1/purple.gif","img/card_backs/set1/yellow.gif","img/card_backs/set1/green.gif","img/card_backs/set1/red.gif","img/card_backs/set2/blue.gif","img/card_backs/set2/pink.gif","img/card_backs/set2/orange.gif","img/card_backs/set2/gray.gif","""event"",""trial"",""time""
""fullscreenenter"",""1"",""13934""
","
","
","""event"",""trial"",""time""
""fullscreenenter"",""1"",""13934""
","
","","1296.0800000000745","","","","real_trial","2021-03-30 22:02:11.514","img/card_backs/set1/red.gif","0","120","1","",""
"casino-fixation","84","446711","0.0-25.0-0.7","217","false","img/card_backs/set1/purple.gif","img/card_backs/set1/yellow.gif","img/card_backs/set1/green.gif","img/card_backs/set1/red.gif","img/card_backs/set2/blue.gif","img/card_backs/set2/pink.gif","img/card_backs/set2/orange.gif","img/card_backs/set2/gray.gif","""event"",""trial"",""time""
""fullscreenenter"",""1"",""13934""
","
","
","""event"",""trial"",""time""
""fullscreenenter"",""1"",""13934""
","
","","null","","null","","fixation","2021-03-30 22:02:12.019","","","","","",""
"card-selection-trial","85","449744","0.0-25.0-1.7","217","false","img/card_backs/set1/purple.gif","img/card_backs/set1/yellow.gif","img/card_backs/set1/green.gif","img/card_backs/set1/red.gif","img/card_backs/set2/blue.gif","img/card_backs/set2/pink.gif","img/card_backs/set2/orange.gif","img/card_backs/set2/gray.gif","""event"",""trial"",""time""
""fullscreenenter"",""1"",""13934""
","
","
","""event"",""trial"",""time""
""fullscreenenter"",""1"",""13934""
","
","","1011.9300000005751","","","","real_trial","2021-03-30 22:02:15.053","img/card_backs/set1/green.gif","0","100","1","",""
"casino-fixation","86","450249","0.0-25.0-0.8","217","false","img/card_backs/set1/purple.gif","img/card_backs/set1/yellow.gif","img/card_backs/set1/green.gif","img/card_backs/set1/red.gif","img/card_backs/set2/blue.gif","img/card_backs/set2/pink.gif","img/card_backs/set2/orange.gif","img/card_backs/set2/gray.gif","""event"",""trial"",""time""
""fullscreenenter"",""1"",""13934""
","
","
","""event"",""trial"",""time""
""fullscreenenter"",""1"",""13934""
","
","","null","","null","","fixation","2021-03-30 22:02:15.557","","","","","",""
"card-selection-trial","87","453174","0.0-25.0-1.8","217","false","img/card_backs/set1/purple.gif","img/card_backs/set1/yellow.gif","img/card_backs/set1/green.gif","img/card_backs/set1/red.gif","img/card_backs/set2/blue.gif","img/card_backs/set2/pink.gif","img/card_backs/set2/orange.gif","img/card_backs/set2/gray.gif","""event"",""trial"",""time""
""fullscreenenter"",""1"",""13934""
","
","
","""event"",""trial"",""time""
""fullscreenenter"",""1"",""13934""
","
","","902.0700000001234","","","","real_trial","2021-03-30 22:02:18.482","img/card_backs/set1/yellow.gif","2","-240","1","",""
"casino-fixation","88","453679","0.0-25.0-0.9","217","false","img/card_backs/set1/purple.gif","img/card_backs/set1/yellow.gif","img/card_backs/set1/green.gif","img/card_backs/set1/red.gif","img/card_backs/set2/blue.gif","img/card_backs/set2/pink.gif","img/card_backs/set2/orange.gif","img/card_backs/set2/gray.gif","""event"",""trial"",""time""
""fullscreenenter"",""1"",""13934""
","
","
","""event"",""trial"",""time""
""fullscreenenter"",""1"",""13934""
","
","","null","","null","","fixation","2021-03-30 22:02:18.987","","","","","",""
"card-selection-trial","89","457197","0.0-25.0-1.9","217","false","img/card_backs/set1/purple.gif","img/card_backs/set1/yellow.gif","img/card_backs/set1/green.gif","img/card_backs/set1/red.gif","img/card_backs/set2/blue.gif","img/card_backs/set2/pink.gif","img/card_backs/set2/orange.gif","img/card_backs/set2/gray.gif","""event"",""trial"",""time""
""fullscreenenter"",""1"",""13934""
","
","
","""event"",""trial"",""time""
""fullscreenenter"",""1"",""13934""
","
","","1504.000000000815","","","","real_trial","2021-03-30 22:02:22.506","img/card_backs/set1/purple.gif","3","200","1","",""
"casino-fixation","90","457702","0.0-25.0-0.10","217","false","img/card_backs/set1/purple.gif","img/card_backs/set1/yellow.gif","img/card_backs/set1/green.gif","img/card_backs/set1/red.gif","img/card_backs/set2/blue.gif","img/card_backs/set2/pink.gif","img/card_backs/set2/orange.gif","img/card_backs/set2/gray.gif","""event"",""trial"",""time""
""fullscreenenter"",""1"",""13934""
","
","
","""event"",""trial"",""time""
""fullscreenenter"",""1"",""13934""
","
","","null","","null","","fixation","2021-03-30 22:02:23.010","","","","","",""
"card-selection-trial","91","460630","0.0-25.0-1.10","217","false","img/card_backs/set1/purple.gif","img/card_backs/set1/yellow.gif","img/card_backs/set1/green.gif","img/card_backs/set1/red.gif","img/card_backs/set2/blue.gif","img/card_backs/set2/pink.gif","img/card_backs/set2/orange.gif","img/card_backs/set2/gray.gif","""event"",""trial"",""time""
""fullscreenenter"",""1"",""13934""
","
","
","""event"",""trial"",""time""
""fullscreenenter"",""1"",""13934""
","
","","909.8999999987427","","","","real_trial","2021-03-30 22:02:25.938","img/card_backs/set1/purple.gif","0","190","1","",""
"casino-fixation","92","461136","0.0-25.0-0.11","217","false","img/card_backs/set1/purple.gif","img/card_backs/set1/yellow.gif","img/card_backs/set1/green.gif","img/card_backs/set1/red.gif","img/card_backs/set2/blue.gif","img/card_backs/set2/pink.gif","img/card_backs/set2/orange.gif","img/card_backs/set2/gray.gif","""event"",""trial"",""time""
""fullscreenenter"",""1"",""13934""
","
","
","""event"",""trial"",""time""
""fullscreenenter"",""1"",""13934""
","
","","null","","null","","fixation","2021-03-30 22:02:26.445","","","","","",""
"card-selection-trial","93","464129","0.0-25.0-1.11","217","false","img/card_backs/set1/purple.gif","img/card_backs/set1/yellow.gif","img/card_backs/set1/green.gif","img/card_backs/set1/red.gif","img/card_backs/set2/blue.gif","img/card_backs/set2/pink.gif","img/card_backs/set2/orange.gif","img/card_backs/set2/gray.gif","""event"",""trial"",""time""
""fullscreenenter"",""1"",""13934""
","
","
","""event"",""trial"",""time""
""fullscreenenter"",""1"",""13934""
","
","","970.0249999986845","","","","real_trial","2021-03-30 22:02:29.438","img/card_backs/set1/green.gif","2","110","1","",""
"casino-fixation","94","464638","0.0-25.0-0.12","217","false","img/card_backs/set1/purple.gif","img/card_backs/set1/yellow.gif","img/card_backs/set1/green.gif","img/card_backs/set1/red.gif","img/card_backs/set2/blue.gif","img/card_backs/set2/pink.gif","img/card_backs/set2/orange.gif","img/card_backs/set2/gray.gif","""event"",""trial"",""time""
""fullscreenenter"",""1"",""13934""
","
","
","""event"",""trial"",""time""
""fullscreenenter"",""1"",""13934""
","
","","null","","null","","fixation","2021-03-30 22:02:29.946","","","","","",""
"card-selection-trial","95","468444","0.0-25.0-1.12","217","false","img/card_backs/set1/purple.gif","img/card_backs/set1/yellow.gif","img/card_backs/set1/green.gif","img/card_backs/set1/red.gif","img/card_backs/set2/blue.gif","img/card_backs/set2/pink.gif","img/card_backs/set2/orange.gif","img/card_backs/set2/gray.gif","""event"",""trial"",""time""
""fullscreenenter"",""1"",""13934""
","
","
","""event"",""trial"",""time""
""fullscreenenter"",""1"",""13934""
","
","","1791.9399999991292","","","","real_trial","2021-03-30 22:02:33.753","img/card_backs/set1/purple.gif","1","-250","1","",""
"casino-fixation","96","468953","0.0-25.0-0.13","217","false","img/card_backs/set1/purple.gif","img/card_backs/set1/yellow.gif","img/card_backs/set1/green.gif","img/card_backs/set1/red.gif","img/card_backs/set2/blue.gif","img/card_backs/set2/pink.gif","img/card_backs/set2/orange.gif","img/card_backs/set2/gray.gif","""event"",""trial"",""time""
""fullscreenenter"",""1"",""13934""
","
","
","""event"",""trial"",""time""
""fullscreenenter"",""1"",""13934""
","
","","null","","null","","fixation","2021-03-30 22:02:34.261","","","","","",""
"card-selection-trial","97","471417","0.0-25.0-1.13","217","false","img/card_backs/set1/purple.gif","img/card_backs/set1/yellow.gif","img/card_backs/set1/green.gif","img/card_backs/set1/red.gif","img/card_backs/set2/blue.gif","img/card_backs/set2/pink.gif","img/card_backs/set2/orange.gif","img/card_backs/set2/gray.gif","""event"",""trial"",""time""
""fullscreenenter"",""1"",""13934""
","
","
","""event"",""trial"",""time""
""fullscreenenter"",""1"",""13934""
","
","","440.6649999982328","","","","real_trial","2021-03-30 22:02:36.726","img/card_backs/set1/red.gif","0","120","1","",""
"casino-fixation","98","471924","0.0-25.0-0.14","217","false","img/card_backs/set1/purple.gif","img/card_backs/set1/yellow.gif","img/card_backs/set1/green.gif","img/card_backs/set1/red.gif","img/card_backs/set2/blue.gif","img/card_backs/set2/pink.gif","img/card_backs/set2/orange.gif","img/card_backs/set2/gray.gif","""event"",""trial"",""time""
""fullscreenenter"",""1"",""13934""
","
","
","""event"",""trial"",""time""
""fullscreenenter"",""1"",""13934""
","
","","null","","null","","fixation","2021-03-30 22:02:37.232","","","","","",""
"card-selection-trial","99","474758","0.0-25.0-1.14","217","false","img/card_backs/set1/purple.gif","img/card_backs/set1/yellow.gif","img/card_backs/set1/green.gif","img/card_backs/set1/red.gif","img/card_backs/set2/blue.gif","img/card_backs/set2/pink.gif","img/card_backs/set2/orange.gif","img/card_backs/set2/gray.gif","""event"",""trial"",""time""
""fullscreenenter"",""1"",""13934""
","
","
","""event"",""trial"",""time""
""fullscreenenter"",""1"",""13934""
","
","","812.2949999997509","","","","real_trial","2021-03-30 22:02:40.066","img/card_backs/set1/purple.gif","3","200","1","",""
"casino-fixation","100","475266","0.0-25.0-0.15","217","false","img/card_backs/set1/purple.gif","img/card_backs/set1/yellow.gif","img/card_backs/set1/green.gif","img/card_backs/set1/red.gif","img/card_backs/set2/blue.gif","img/card_backs/set2/pink.gif","img/card_backs/set2/orange.gif","img/card_backs/set2/gray.gif","""event"",""trial"",""time""
""fullscreenenter"",""1"",""13934""
","
","
","""event"",""trial"",""time""
""fullscreenenter"",""1"",""13934""
","
","","null","","null","","fixation","2021-03-30 22:02:40.575","","","","","",""
"card-selection-trial","101","478023","0.0-25.0-1.15","217","false","img/card_backs/set1/purple.gif","img/card_backs/set1/yellow.gif","img/card_backs/set1/green.gif","img/card_backs/set1/red.gif","img/card_backs/set2/blue.gif","img/card_backs/set2/pink.gif","img/card_backs/set2/orange.gif","img/card_backs/set2/gray.gif","""event"",""trial"",""time""
""fullscreenenter"",""1"",""13934""
","
","
","""event"",""trial"",""time""
""fullscreenenter"",""1"",""13934""
","
","","735.7899999987567","","","","real_trial","2021-03-30 22:02:43.331","img/card_backs/set1/green.gif","0","110","1","",""
"casino-fixation","102","478529","0.0-25.0-0.16","217","false","img/card_backs/set1/purple.gif","img/card_backs/set1/yellow.gif","img/card_backs/set1/green.gif","img/card_backs/set1/red.gif","img/card_backs/set2/blue.gif","img/card_backs/set2/pink.gif","img/card_backs/set2/orange.gif","img/card_backs/set2/gray.gif","""event"",""trial"",""time""
""fullscreenenter"",""1"",""13934""
","
","
","""event"",""trial"",""time""
""fullscreenenter"",""1"",""13934""
","
","","null","","null","","fixation","2021-03-30 22:02:43.837","","","","","",""
"card-selection-trial","103","481904","0.0-25.0-1.16","217","false","img/card_backs/set1/purple.gif","img/card_backs/set1/yellow.gif","img/card_backs/set1/green.gif","img/card_backs/set1/red.gif","img/card_backs/set2/blue.gif","img/card_backs/set2/pink.gif","img/card_backs/set2/orange.gif","img/card_backs/set2/gray.gif","""event"",""trial"",""time""
""fullscreenenter"",""1"",""13934""
","
","
","""event"",""trial"",""time""
""fullscreenenter"",""1"",""13934""
","
","","1351.2899999986985","","","","real_trial","2021-03-30 22:02:47.213","img/card_backs/set1/green.gif","2","120","1","",""
"casino-fixation","104","482410","0.0-25.0-0.17","217","false","img/card_backs/set1/purple.gif","img/card_backs/set1/yellow.gif","img/card_backs/set1/green.gif","img/card_backs/set1/red.gif","img/card_backs/set2/blue.gif","img/card_backs/set2/pink.gif","img/card_backs/set2/orange.gif","img/card_backs/set2/gray.gif","""event"",""trial"",""time""
""fullscreenenter"",""1"",""13934""
","
","
","""event"",""trial"",""time""
""fullscreenenter"",""1"",""13934""
","
","","null","","null","","fixation","2021-03-30 22:02:47.718","","","","","",""
"card-selection-trial","105","486211","0.0-25.0-1.17","217","false","img/card_backs/set1/purple.gif","img/card_backs/set1/yellow.gif","img/card_backs/set1/green.gif","img/card_backs/set1/red.gif","img/card_backs/set2/blue.gif","img/card_backs/set2/pink.gif","img/card_backs/set2/orange.gif","img/card_backs/set2/gray.gif","""event"",""trial"",""time""
""fullscreenenter"",""1"",""13934""
","
","
","""event"",""trial"",""time""
""fullscreenenter"",""1"",""13934""
","
","","1780.4850000028964","","","","real_trial","2021-03-30 22:02:51.520","img/card_backs/set1/green.gif","1","110","1","",""
"casino-fixation","106","486721","0.0-25.0-0.18","217","false","img/card_backs/set1/purple.gif","img/card_backs/set1/yellow.gif","img/card_backs/set1/green.gif","img/card_backs/set1/red.gif","img/card_backs/set2/blue.gif","img/card_backs/set2/pink.gif","img/card_backs/set2/orange.gif","img/card_backs/set2/gray.gif","""event"",""trial"",""time""
""fullscreenenter"",""1"",""13934""
","
","
","""event"",""trial"",""time""
""fullscreenenter"",""1"",""13934""
","
","","null","","null","","fixation","2021-03-30 22:02:52.030","","","","","",""
"card-selection-trial","107","489610","0.0-25.0-1.18","217","false","img/card_backs/set1/purple.gif","img/card_backs/set1/yellow.gif","img/card_backs/set1/green.gif","img/card_backs/set1/red.gif","img/card_backs/set2/blue.gif","img/card_backs/set2/pink.gif","img/card_backs/set2/orange.gif","img/card_backs/set2/gray.gif","""event"",""trial"",""time""
""fullscreenenter"",""1"",""13934""
","
","
","""event"",""trial"",""time""
""fullscreenenter"",""1"",""13934""
","
","","867.0649999985471","","","","real_trial","2021-03-30 22:02:54.919","img/card_backs/set1/purple.gif","3","200","1","",""
"casino-fixation","108","490117","0.0-25.0-0.19","217","false","img/card_backs/set1/purple.gif","img/card_backs/set1/yellow.gif","img/card_backs/set1/green.gif","img/card_backs/set1/red.gif","img/card_backs/set2/blue.gif","img/card_backs/set2/pink.gif","img/card_backs/set2/orange.gif","img/card_backs/set2/gray.gif","""event"",""trial"",""time""
""fullscreenenter"",""1"",""13934""
","
","
","""event"",""trial"",""time""
""fullscreenenter"",""1"",""13934""
","
","","null","","null","","fixation","2021-03-30 22:02:55.426","","","","","",""
"card-selection-trial","109","493436","0.0-25.0-1.19","217","false","img/card_backs/set1/purple.gif","img/card_backs/set1/yellow.gif","img/card_backs/set1/green.gif","img/card_backs/set1/red.gif","img/card_backs/set2/blue.gif","img/card_backs/set2/pink.gif","img/card_backs/set2/orange.gif","img/card_backs/set2/gray.gif","""event"",""trial"",""time""
""fullscreenenter"",""1"",""13934""
","
","
","""event"",""trial"",""time""
""fullscreenenter"",""1"",""13934""
","
","","1297.979999999341","","","","real_trial","2021-03-30 22:02:58.745","img/card_backs/set1/red.gif","0","120","1","",""
"casino-fixation","110","493943","0.0-25.0-0.20","217","false","img/card_backs/set1/purple.gif","img/card_backs/set1/yellow.gif","img/card_backs/set1/green.gif","img/card_backs/set1/red.gif","img/card_backs/set2/blue.gif","img/card_backs/set2/pink.gif","img/card_backs/set2/orange.gif","img/card_backs/set2/gray.gif","""event"",""trial"",""time""
""fullscreenenter"",""1"",""13934""
","
","
","""event"",""trial"",""time""
""fullscreenenter"",""1"",""13934""
","
","","null","","null","","fixation","2021-03-30 22:02:59.251","","","","","",""
"card-selection-trial","111","497366","0.0-25.0-1.20","217","false","img/card_backs/set1/purple.gif","img/card_backs/set1/yellow.gif","img/card_backs/set1/green.gif","img/card_backs/set1/red.gif","img/card_backs/set2/blue.gif","img/card_backs/set2/pink.gif","img/card_backs/set2/orange.gif","img/card_backs/set2/gray.gif","""event"",""trial"",""time""
""fullscreenenter"",""1"",""13934""
","
","
","""event"",""trial"",""time""
""fullscreenenter"",""1"",""13934""
","
","","1399.2099999996135","","","","real_trial","2021-03-30 22:03:02.675","img/card_backs/set1/green.gif","1","120","1","",""
"casino-fixation","112","497876","0.0-25.0-0.21","217","false","img/card_backs/set1/purple.gif","img/card_backs/set1/yellow.gif","img/card_backs/set1/green.gif","img/card_backs/set1/red.gif","img/card_backs/set2/blue.gif","img/card_backs/set2/pink.gif","img/card_backs/set2/orange.gif","img/card_backs/set2/gray.gif","""event"",""trial"",""time""
""fullscreenenter"",""1"",""13934""
","
","
","""event"",""trial"",""time""
""fullscreenenter"",""1"",""13934""
","
","","null","","null","","fixation","2021-03-30 22:03:03.184","","","","","",""
"card-selection-trial","113","500739","0.0-25.0-1.21","217","false","img/card_backs/set1/purple.gif","img/card_backs/set1/yellow.gif","img/card_backs/set1/green.gif","img/card_backs/set1/red.gif","img/card_backs/set2/blue.gif","img/card_backs/set2/pink.gif","img/card_backs/set2/orange.gif","img/card_backs/set2/gray.gif","""event"",""trial"",""time""
""fullscreenenter"",""1"",""13934""
","
","
","""event"",""trial"",""time""
""fullscreenenter"",""1"",""13934""
","
","","836.5200000007753","","","","real_trial","2021-03-30 22:03:06.048","img/card_backs/set1/red.gif","2","110","1","",""
"casino-fixation","114","501245","0.0-25.0-0.22","217","false","img/card_backs/set1/purple.gif","img/card_backs/set1/yellow.gif","img/card_backs/set1/green.gif","img/card_backs/set1/red.gif","img/card_backs/set2/blue.gif","img/card_backs/set2/pink.gif","img/card_backs/set2/orange.gif","img/card_backs/set2/gray.gif","""event"",""trial"",""time""
""fullscreenenter"",""1"",""13934""
","
","
","""event"",""trial"",""time""
""fullscreenenter"",""1"",""13934""
","
","","null","","null","","fixation","2021-03-30 22:03:06.553","","","","","",""
"card-selection-trial","115","504116","0.0-25.0-1.22","217","false","img/card_backs/set1/purple.gif","img/card_backs/set1/yellow.gif","img/card_backs/set1/green.gif","img/card_backs/set1/red.gif","img/card_backs/set2/blue.gif","img/card_backs/set2/pink.gif","img/card_backs/set2/orange.gif","img/card_backs/set2/gray.gif","""event"",""trial"",""time""
""fullscreenenter"",""1"",""13934""
","
","
","""event"",""trial"",""time""
""fullscreenenter"",""1"",""13934""
","
","","850.0700000004144","","","","real_trial","2021-03-30 22:03:09.424","img/card_backs/set1/red.gif","1","-70","1","",""
"casino-fixation","116","504623","0.0-25.0-0.23","217","false","img/card_backs/set1/purple.gif","img/card_backs/set1/yellow.gif","img/card_backs/set1/green.gif","img/card_backs/set1/red.gif","img/card_backs/set2/blue.gif","img/card_backs/set2/pink.gif","img/card_backs/set2/orange.gif","img/card_backs/set2/gray.gif","""event"",""trial"",""time""
""fullscreenenter"",""1"",""13934""
","
","
","""event"",""trial"",""time""
""fullscreenenter"",""1"",""13934""
","
","","null","","null","","fixation","2021-03-30 22:03:09.932","","","","","",""
"card-selection-trial","117","507424","0.0-25.0-1.23","217","false","img/card_backs/set1/purple.gif","img/card_backs/set1/yellow.gif","img/card_backs/set1/green.gif","img/card_backs/set1/red.gif","img/card_backs/set2/blue.gif","img/card_backs/set2/pink.gif","img/card_backs/set2/orange.gif","img/card_backs/set2/gray.gif","""event"",""trial"",""time""
""fullscreenenter"",""1"",""13934""
","
","
","""event"",""trial"",""time""
""fullscreenenter"",""1"",""13934""
","
","","778.3249999993131","","","","real_trial","2021-03-30 22:03:12.732","img/card_backs/set1/purple.gif","2","-250","1","",""
"casino-fixation","118","507930","0.0-25.0-0.24","217","false","img/card_backs/set1/purple.gif","img/card_backs/set1/yellow.gif","img/card_backs/set1/green.gif","img/card_backs/set1/red.gif","img/card_backs/set2/blue.gif","img/card_backs/set2/pink.gif","img/card_backs/set2/orange.gif","img/card_backs/set2/gray.gif","""event"",""trial"",""time""
""fullscreenenter"",""1"",""13934""
","
","
","""event"",""trial"",""time""
""fullscreenenter"",""1"",""13934""
","
","","null","","null","","fixation","2021-03-30 22:03:13.238","","","","","",""
"card-selection-trial","119","511493","0.0-25.0-1.24","217","false","img/card_backs/set1/purple.gif","img/card_backs/set1/yellow.gif","img/card_backs/set1/green.gif","img/card_backs/set1/red.gif","img/card_backs/set2/blue.gif","img/card_backs/set2/pink.gif","img/card_backs/set2/orange.gif","img/card_backs/set2/gray.gif","""event"",""trial"",""time""
""fullscreenenter"",""1"",""13934""
","
","
","""event"",""trial"",""time""
""fullscreenenter"",""1"",""13934""
","
","","1540.4899999994086","","","","real_trial","2021-03-30 22:03:16.801","img/card_backs/set1/green.gif","1","100","1","",""
"casino-fixation","120","512002","0.0-25.0-0.25","217","false","img/card_backs/set1/purple.gif","img/card_backs/set1/yellow.gif","img/card_backs/set1/green.gif","img/card_backs/set1/red.gif","img/card_backs/set2/blue.gif","img/card_backs/set2/pink.gif","img/card_backs/set2/orange.gif","img/card_backs/set2/gray.gif","""event"",""trial"",""time""
""fullscreenenter"",""1"",""13934""
","
","
","""event"",""trial"",""time""
""fullscreenenter"",""1"",""13934""
","
","","null","","null","","fixation","2021-03-30 22:03:17.310","","","","","",""
"card-selection-trial","121","514480","0.0-25.0-1.25","217","false","img/card_backs/set1/purple.gif","img/card_backs/set1/yellow.gif","img/card_backs/set1/green.gif","img/card_backs/set1/red.gif","img/card_backs/set2/blue.gif","img/card_backs/set2/pink.gif","img/card_backs/set2/orange.gif","img/card_backs/set2/gray.gif","""event"",""trial"",""time""
""fullscreenenter"",""1"",""13934""
","
","
","""event"",""trial"",""time""
""fullscreenenter"",""1"",""13934""
","
","","454.73999999737134","","","","real_trial","2021-03-30 22:03:19.789","img/card_backs/set1/red.gif","3","-70","1","",""
"casino-fixation","122","514988","0.0-25.0-0.26","217","false","img/card_backs/set1/purple.gif","img/card_backs/set1/yellow.gif","img/card_backs/set1/green.gif","img/card_backs/set1/red.gif","img/card_backs/set2/blue.gif","img/card_backs/set2/pink.gif","img/card_backs/set2/orange.gif","img/card_backs/set2/gray.gif","""event"",""trial"",""time""
""fullscreenenter"",""1"",""13934""
","
","
","""event"",""trial"",""time""
""fullscreenenter"",""1"",""13934""
","
","","null","","null","","fixation","2021-03-30 22:03:20.297","","","","","",""
"card-selection-trial","123","517511","0.0-25.0-1.26","217","false","img/card_backs/set1/purple.gif","img/card_backs/set1/yellow.gif","img/card_backs/set1/green.gif","img/card_backs/set1/red.gif","img/card_backs/set2/blue.gif","img/card_backs/set2/pink.gif","img/card_backs/set2/orange.gif","img/card_backs/set2/gray.gif","""event"",""trial"",""time""
""fullscreenenter"",""1"",""13934""
","
","
","""event"",""trial"",""time""
""fullscreenenter"",""1"",""13934""
","
","","500.8849999976228","","","","real_trial","2021-03-30 22:03:22.819","img/card_backs/set1/yellow.gif","1","-230","1","",""
"casino-fixation","124","518016","0.0-25.0-0.27","217","false","img/card_backs/set1/purple.gif","img/card_backs/set1/yellow.gif","img/card_backs/set1/green.gif","img/card_backs/set1/red.gif","img/card_backs/set2/blue.gif","img/card_backs/set2/pink.gif","img/card_backs/set2/orange.gif","img/card_backs/set2/gray.gif","""event"",""trial"",""time""
""fullscreenenter"",""1"",""13934""
","
","
","""event"",""trial"",""time""
""fullscreenenter"",""1"",""13934""
","
","","null","","null","","fixation","2021-03-30 22:03:23.324","","","","","",""
"card-selection-trial","125","520689","0.0-25.0-1.27","217","false","img/card_backs/set1/purple.gif","img/card_backs/set1/yellow.gif","img/card_backs/set1/green.gif","img/card_backs/set1/red.gif","img/card_backs/set2/blue.gif","img/card_backs/set2/pink.gif","img/card_backs/set2/orange.gif","img/card_backs/set2/gray.gif","""event"",""trial"",""time""
""fullscreenenter"",""1"",""13934""
","
","
","""event"",""trial"",""time""
""fullscreenenter"",""1"",""13934""
","
","","651.4399999978486","","","","real_trial","2021-03-30 22:03:25.998","img/card_backs/set1/green.gif","0","100","1","",""
"casino-fixation","126","521199","0.0-25.0-0.28","217","false","img/card_backs/set1/purple.gif","img/card_backs/set1/yellow.gif","img/card_backs/set1/green.gif","img/card_backs/set1/red.gif","img/card_backs/set2/blue.gif","img/card_backs/set2/pink.gif","img/card_backs/set2/orange.gif","img/card_backs/set2/gray.gif","""event"",""trial"",""time""
""fullscreenenter"",""1"",""13934""
","
","
","""event"",""trial"",""time""
""fullscreenenter"",""1"",""13934""
","
","","null","","null","","fixation","2021-03-30 22:03:26.507","","","","","",""
"card-selection-trial","127","523743","0.0-25.0-1.28","217","false","img/card_backs/set1/purple.gif","img/card_backs/set1/yellow.gif","img/card_backs/set1/green.gif","img/card_backs/set1/red.gif","img/card_backs/set2/blue.gif","img/card_backs/set2/pink.gif","img/card_backs/set2/orange.gif","img/card_backs/set2/gray.gif","""event"",""trial"",""time""
""fullscreenenter"",""1"",""13934""
","
","
","""event"",""trial"",""time""
""fullscreenenter"",""1"",""13934""
","
","","521.5199999983888","","","","real_trial","2021-03-30 22:03:29.052","img/card_backs/set1/purple.gif","3","200","1","",""
"casino-fixation","128","524247","0.0-25.0-0.29","217","false","img/card_backs/set1/purple.gif","img/card_backs/set1/yellow.gif","img/card_backs/set1/green.gif","img/card_backs/set1/red.gif","img/card_backs/set2/blue.gif","img/card_backs/set2/pink.gif","img/card_backs/set2/orange.gif","img/card_backs/set2/gray.gif","""event"",""trial"",""time""
""fullscreenenter"",""1"",""13934""
","
","
","""event"",""trial"",""time""
""fullscreenenter"",""1"",""13934""
","
","","null","","null","","fixation","2021-03-30 22:03:29.556","","","","","",""
"card-selection-trial","129","527147","0.0-25.0-1.29","217","false","img/card_backs/set1/purple.gif","img/card_backs/set1/yellow.gif","img/card_backs/set1/green.gif","img/card_backs/set1/red.gif","img/card_backs/set2/blue.gif","img/card_backs/set2/pink.gif","img/card_backs/set2/orange.gif","img/card_backs/set2/gray.gif","""event"",""trial"",""time""
""fullscreenenter"",""1"",""13934""
","
","
","""event"",""trial"",""time""
""fullscreenenter"",""1"",""13934""
","
","","880.1899999998277","","","","real_trial","2021-03-30 22:03:32.455","img/card_backs/set1/red.gif","0","-50","1","",""
"casino-fixation","130","527650","0.0-25.0-0.30","217","false","img/card_backs/set1/purple.gif","img/card_backs/set1/yellow.gif","img/card_backs/set1/green.gif","img/card_backs/set1/red.gif","img/card_backs/set2/blue.gif","img/card_backs/set2/pink.gif","img/card_backs/set2/orange.gif","img/card_backs/set2/gray.gif","""event"",""trial"",""time""
""fullscreenenter"",""1"",""13934""
","
","
","""event"",""trial"",""time""
""fullscreenenter"",""1"",""13934""
","
","","null","","null","","fixation","2021-03-30 22:03:32.958","","","","","",""
"card-selection-trial","131","530412","0.0-25.0-1.30","217","false","img/card_backs/set1/purple.gif","img/card_backs/set1/yellow.gif","img/card_backs/set1/green.gif","img/card_backs/set1/red.gif","img/card_backs/set2/blue.gif","img/card_backs/set2/pink.gif","img/card_backs/set2/orange.gif","img/card_backs/set2/gray.gif","""event"",""trial"",""time""
""fullscreenenter"",""1"",""13934""
","
","
","""event"",""trial"",""time""
""fullscreenenter"",""1"",""13934""
","
","","744.2650000011781","","","","real_trial","2021-03-30 22:03:35.721","img/card_backs/set1/purple.gif","0","-240","1","",""
"casino-fixation","132","530922","0.0-25.0-0.31","217","false","img/card_backs/set1/purple.gif","img/card_backs/set1/yellow.gif","img/card_backs/set1/green.gif","img/card_backs/set1/red.gif","img/card_backs/set2/blue.gif","img/card_backs/set2/pink.gif","img/card_backs/set2/orange.gif","img/card_backs/set2/gray.gif","""event"",""trial"",""time""
""fullscreenenter"",""1"",""13934""
","
","
","""event"",""trial"",""time""
""fullscreenenter"",""1"",""13934""
","
","","null","","null","","fixation","2021-03-30 22:03:36.230","","","","","",""
"card-selection-trial","133","533369","0.0-25.0-1.31","217","false","img/card_backs/set1/purple.gif","img/card_backs/set1/yellow.gif","img/card_backs/set1/green.gif","img/card_backs/set1/red.gif","img/card_backs/set2/blue.gif","img/card_backs/set2/pink.gif","img/card_backs/set2/orange.gif","img/card_backs/set2/gray.gif","""event"",""trial"",""time""
""fullscreenenter"",""1"",""13934""
","
","
","""event"",""trial"",""time""
""fullscreenenter"",""1"",""13934""
","
","","426.86500000138767","","","","real_trial","2021-03-30 22:03:38.677","img/card_backs/set1/red.gif","3","-50","1","",""
"casino-fixation","134","533876","0.0-25.0-0.32","217","false","img/card_backs/set1/purple.gif","img/card_backs/set1/yellow.gif","img/card_backs/set1/green.gif","img/card_backs/set1/red.gif","img/card_backs/set2/blue.gif","img/card_backs/set2/pink.gif","img/card_backs/set2/orange.gif","img/card_backs/set2/gray.gif","""event"",""trial"",""time""
""fullscreenenter"",""1"",""13934""
","
","
","""event"",""trial"",""time""
""fullscreenenter"",""1"",""13934""
","
","","null","","null","","fixation","2021-03-30 22:03:39.184","","","","","",""
"card-selection-trial","135","536312","0.0-25.0-1.32","217","false","img/card_backs/set1/purple.gif","img/card_backs/set1/yellow.gif","img/card_backs/set1/green.gif","img/card_backs/set1/red.gif","img/card_backs/set2/blue.gif","img/card_backs/set2/pink.gif","img/card_backs/set2/orange.gif","img/card_backs/set2/gray.gif","""event"",""trial"",""time""
""fullscreenenter"",""1"",""13934""
","
","
","""event"",""trial"",""time""
""fullscreenenter"",""1"",""13934""
","
","","415.58500000240747","","","","real_trial","2021-03-30 22:03:41.621","img/card_backs/set1/yellow.gif","1","-230","1","",""
"casino-fixation","136","536817","0.0-25.0-0.33","217","false","img/card_backs/set1/purple.gif","img/card_backs/set1/yellow.gif","img/card_backs/set1/green.gif","img/card_backs/set1/red.gif","img/card_backs/set2/blue.gif","img/card_backs/set2/pink.gif","img/card_backs/set2/orange.gif","img/card_backs/set2/gray.gif","""event"",""trial"",""time""
""fullscreenenter"",""1"",""13934""
","
","
","""event"",""trial"",""time""
""fullscreenenter"",""1"",""13934""
","
","","null","","null","","fixation","2021-03-30 22:03:42.125","","","","","",""
"card-selection-trial","137","541743","0.0-25.0-1.33","217","false","img/card_backs/set1/purple.gif","img/card_backs/set1/yellow.gif","img/card_backs/set1/green.gif","img/card_backs/set1/red.gif","img/card_backs/set2/blue.gif","img/card_backs/set2/pink.gif","img/card_backs/set2/orange.gif","img/card_backs/set2/gray.gif","""event"",""trial"",""time""
""fullscreenenter"",""1"",""13934""
","
","
","""event"",""trial"",""time""
""fullscreenenter"",""1"",""13934""
","
","","2907.9500000007683","","","","real_trial","2021-03-30 22:03:47.051","img/card_backs/set1/purple.gif","2","-250","1","",""
"casino-fixation","138","542249","0.0-25.0-0.34","217","false","img/card_backs/set1/purple.gif","img/card_backs/set1/yellow.gif","img/card_backs/set1/green.gif","img/card_backs/set1/red.gif","img/card_backs/set2/blue.gif","img/card_backs/set2/pink.gif","img/card_backs/set2/orange.gif","img/card_backs/set2/gray.gif","""event"",""trial"",""time""
""fullscreenenter"",""1"",""13934""
","
","
","""event"",""trial"",""time""
""fullscreenenter"",""1"",""13934""
","
","","null","","null","","fixation","2021-03-30 22:03:47.558","","","","","",""
"card-selection-trial","139","544876","0.0-25.0-1.34","217","false","img/card_backs/set1/purple.gif","img/card_backs/set1/yellow.gif","img/card_backs/set1/green.gif","img/card_backs/set1/red.gif","img/card_backs/set2/blue.gif","img/card_backs/set2/pink.gif","img/card_backs/set2/orange.gif","img/card_backs/set2/gray.gif","""event"",""trial"",""time""
""fullscreenenter"",""1"",""13934""
","
","
","""event"",""trial"",""time""
""fullscreenenter"",""1"",""13934""
","
","","604.089999997057","","","","real_trial","2021-03-30 22:03:50.185","img/card_backs/set1/yellow.gif","1","180","1","",""
"casino-fixation","140","545380","0.0-25.0-0.35","217","false","img/card_backs/set1/purple.gif","img/card_backs/set1/yellow.gif","img/card_backs/set1/green.gif","img/card_backs/set1/red.gif","img/card_backs/set2/blue.gif","img/card_backs/set2/pink.gif","img/card_backs/set2/orange.gif","img/card_backs/set2/gray.gif","""event"",""trial"",""time""
""fullscreenenter"",""1"",""13934""
","
","
","""event"",""trial"",""time""
""fullscreenenter"",""1"",""13934""
","
","","null","","null","","fixation","2021-03-30 22:03:50.689","","","","","",""
"card-selection-trial","141","548251","0.0-25.0-1.35","217","false","img/card_backs/set1/purple.gif","img/card_backs/set1/yellow.gif","img/card_backs/set1/green.gif","img/card_backs/set1/red.gif","img/card_backs/set2/blue.gif","img/card_backs/set2/pink.gif","img/card_backs/set2/orange.gif","img/card_backs/set2/gray.gif","""event"",""trial"",""time""
""fullscreenenter"",""1"",""13934""
","
","
","""event"",""trial"",""time""
""fullscreenenter"",""1"",""13934""
","
","","848.4449999995995","","","","real_trial","2021-03-30 22:03:53.559","img/card_backs/set1/green.gif","0","100","1","",""
"casino-fixation","142","548760","0.0-25.0-0.36","217","false","img/card_backs/set1/purple.gif","img/card_backs/set1/yellow.gif","img/card_backs/set1/green.gif","img/card_backs/set1/red.gif","img/card_backs/set2/blue.gif","img/card_backs/set2/pink.gif","img/card_backs/set2/orange.gif","img/card_backs/set2/gray.gif","""event"",""trial"",""time""
""fullscreenenter"",""1"",""13934""
","
","
","""event"",""trial"",""time""
""fullscreenenter"",""1"",""13934""
","
","","null","","null","","fixation","2021-03-30 22:03:54.069","","","","","",""
"card-selection-trial","143","551757","0.0-25.0-1.36","217","false","img/card_backs/set1/purple.gif","img/card_backs/set1/yellow.gif","img/card_backs/set1/green.gif","img/card_backs/set1/red.gif","img/card_backs/set2/blue.gif","img/card_backs/set2/pink.gif","img/card_backs/set2/orange.gif","img/card_backs/set2/gray.gif","""event"",""trial"",""time""
""fullscreenenter"",""1"",""13934""
","
","
","""event"",""trial"",""time""
""fullscreenenter"",""1"",""13934""
","
","","976.9249999991152","","","","real_trial","2021-03-30 22:03:57.066","img/card_backs/set1/purple.gif","2","-240","1","",""
"casino-fixation","144","552264","0.0-25.0-0.37","217","false","img/card_backs/set1/purple.gif","img/card_backs/set1/yellow.gif","img/card_backs/set1/green.gif","img/card_backs/set1/red.gif","img/card_backs/set2/blue.gif","img/card_backs/set2/pink.gif","img/card_backs/set2/orange.gif","img/card_backs/set2/gray.gif","""event"",""trial"",""time""
""fullscreenenter"",""1"",""13934""
","
","
","""event"",""trial"",""time""
""fullscreenenter"",""1"",""13934""
","
","","null","","null","","fixation","2021-03-30 22:03:57.573","","","","","",""
"card-selection-trial","145","554800","0.0-25.0-1.37","217","false","img/card_backs/set1/purple.gif","img/card_backs/set1/yellow.gif","img/card_backs/set1/green.gif","img/card_backs/set1/red.gif","img/card_backs/set2/blue.gif","img/card_backs/set2/pink.gif","img/card_backs/set2/orange.gif","img/card_backs/set2/gray.gif","""event"",""trial"",""time""
""fullscreenenter"",""1"",""13934""
","
","
","""event"",""trial"",""time""
""fullscreenenter"",""1"",""13934""
","
","","511.679999999702","","","","real_trial","2021-03-30 22:04:00.109","img/card_backs/set1/purple.gif","3","190","1","",""
"casino-fixation","146","555313","0.0-25.0-0.38","217","false","img/card_backs/set1/purple.gif","img/card_backs/set1/yellow.gif","img/card_backs/set1/green.gif","img/card_backs/set1/red.gif","img/card_backs/set2/blue.gif","img/card_backs/set2/pink.gif","img/card_backs/set2/orange.gif","img/card_backs/set2/gray.gif","""event"",""trial"",""time""
""fullscreenenter"",""1"",""13934""
","
","
","""event"",""trial"",""time""
""fullscreenenter"",""1"",""13934""
","
","","null","","null","","fixation","2021-03-30 22:04:00.621","","","","","",""
"card-selection-trial","147","557830","0.0-25.0-1.38","217","false","img/card_backs/set1/purple.gif","img/card_backs/set1/yellow.gif","img/card_backs/set1/green.gif","img/card_backs/set1/red.gif","img/card_backs/set2/blue.gif","img/card_backs/set2/pink.gif","img/card_backs/set2/orange.gif","img/card_backs/set2/gray.gif","""event"",""trial"",""time""
""fullscreenenter"",""1"",""13934""
","
","
","""event"",""trial"",""time""
""fullscreenenter"",""1"",""13934""
","
","","497.26000000012573","","","","real_trial","2021-03-30 22:04:03.138","img/card_backs/set1/red.gif","0","-70","1","",""
"casino-fixation","148","558336","0.0-25.0-0.39","217","false","img/card_backs/set1/purple.gif","img/card_backs/set1/yellow.gif","img/card_backs/set1/green.gif","img/card_backs/set1/red.gif","img/card_backs/set2/blue.gif","img/card_backs/set2/pink.gif","img/card_backs/set2/orange.gif","img/card_backs/set2/gray.gif","""event"",""trial"",""time""
""fullscreenenter"",""1"",""13934""
","
","
","""event"",""trial"",""time""
""fullscreenenter"",""1"",""13934""
","
","","null","","null","","fixation","2021-03-30 22:04:03.644","","","","","",""
"card-selection-trial","149","561349","0.0-25.0-1.39","217","false","img/card_backs/set1/purple.gif","img/card_backs/set1/yellow.gif","img/card_backs/set1/green.gif","img/card_backs/set1/red.gif","img/card_backs/set2/blue.gif","img/card_backs/set2/pink.gif","img/card_backs/set2/orange.gif","img/card_backs/set2/gray.gif","""event"",""trial"",""time""
""fullscreenenter"",""1"",""13934""
","
","
","""event"",""trial"",""time""
""fullscreenenter"",""1"",""13934""
","
","","991.4800000006799","","","","real_trial","2021-03-30 22:04:06.657","img/card_backs/set1/purple.gif","1","180","1","",""
"casino-fixation","150","561854","0.0-25.0-0.40","217","false","img/card_backs/set1/purple.gif","img/card_backs/set1/yellow.gif","img/card_backs/set1/green.gif","img/card_backs/set1/red.gif","img/card_backs/set2/blue.gif","img/card_backs/set2/pink.gif","img/card_backs/set2/orange.gif","img/card_backs/set2/gray.gif","""event"",""trial"",""time""
""fullscreenenter"",""1"",""13934""
","
","
","""event"",""trial"",""time""
""fullscreenenter"",""1"",""13934""
","
","","null","","null","","fixation","2021-03-30 22:04:07.163","","","","","",""
"card-selection-trial","151","564658","0.0-25.0-1.40","217","false","img/card_backs/set1/purple.gif","img/card_backs/set1/yellow.gif","img/card_backs/set1/green.gif","img/card_backs/set1/red.gif","img/card_backs/set2/blue.gif","img/card_backs/set2/pink.gif","img/card_backs/set2/orange.gif","img/card_backs/set2/gray.gif","""event"",""trial"",""time""
""fullscreenenter"",""1"",""13934""
","
","
","""event"",""trial"",""time""
""fullscreenenter"",""1"",""13934""
","
","","782.5499999999302","","","","real_trial","2021-03-30 22:04:09.966","img/card_backs/set1/red.gif","2","100","1","",""
"casino-fixation","152","565165","0.0-25.0-0.41","217","false","img/card_backs/set1/purple.gif","img/card_backs/set1/yellow.gif","img/card_backs/set1/green.gif","img/card_backs/set1/red.gif","img/card_backs/set2/blue.gif","img/card_backs/set2/pink.gif","img/card_backs/set2/orange.gif","img/card_backs/set2/gray.gif","""event"",""trial"",""time""
""fullscreenenter"",""1"",""13934""
","
","
","""event"",""trial"",""time""
""fullscreenenter"",""1"",""13934""
","
","","null","","null","","fixation","2021-03-30 22:04:10.473","","","","","",""
"card-selection-trial","153","568053","0.0-25.0-1.41","217","false","img/card_backs/set1/purple.gif","img/card_backs/set1/yellow.gif","img/card_backs/set1/green.gif","img/card_backs/set1/red.gif","img/card_backs/set2/blue.gif","img/card_backs/set2/pink.gif","img/card_backs/set2/orange.gif","img/card_backs/set2/gray.gif","""event"",""trial"",""time""
""fullscreenenter"",""1"",""13934""
","
","
","""event"",""trial"",""time""
""fullscreenenter"",""1"",""13934""
","
","","866.0300000009593","","","","real_trial","2021-03-30 22:04:13.362","img/card_backs/set1/yellow.gif","1","180","1","",""
"casino-fixation","154","568560","0.0-25.0-0.42","217","false","img/card_backs/set1/purple.gif","img/card_backs/set1/yellow.gif","img/card_backs/set1/green.gif","img/card_backs/set1/red.gif","img/card_backs/set2/blue.gif","img/card_backs/set2/pink.gif","img/card_backs/set2/orange.gif","img/card_backs/set2/gray.gif","""event"",""trial"",""time""
""fullscreenenter"",""1"",""13934""
","
","
","""event"",""trial"",""time""
""fullscreenenter"",""1"",""13934""
","
","","null","","null","","fixation","2021-03-30 22:04:13.869","","","","","",""
"card-selection-trial","155","571074","0.0-25.0-1.42","217","false","img/card_backs/set1/purple.gif","img/card_backs/set1/yellow.gif","img/card_backs/set1/green.gif","img/card_backs/set1/red.gif","img/card_backs/set2/blue.gif","img/card_backs/set2/pink.gif","img/card_backs/set2/orange.gif","img/card_backs/set2/gray.gif","""event"",""trial"",""time""
""fullscreenenter"",""1"",""13934""
","
","
","""event"",""trial"",""time""
""fullscreenenter"",""1"",""13934""
","
","","491.8150000012247","","","","real_trial","2021-03-30 22:04:16.383","img/card_backs/set1/red.gif","3","-50","1","",""
"casino-fixation","156","571580","0.0-25.0-0.43","217","false","img/card_backs/set1/purple.gif","img/card_backs/set1/yellow.gif","img/card_backs/set1/green.gif","img/card_backs/set1/red.gif","img/card_backs/set2/blue.gif","img/card_backs/set2/pink.gif","img/card_backs/set2/orange.gif","img/card_backs/set2/gray.gif","""event"",""trial"",""time""
""fullscreenenter"",""1"",""13934""
","
","
","""event"",""trial"",""time""
""fullscreenenter"",""1"",""13934""
","
","","null","","null","","fixation","2021-03-30 22:04:16.894","","","","","",""
"card-selection-trial","157","574242","0.0-25.0-1.43","217","false","img/card_backs/set1/purple.gif","img/card_backs/set1/yellow.gif","img/card_backs/set1/green.gif","img/card_backs/set1/red.gif","img/card_backs/set2/blue.gif","img/card_backs/set2/pink.gif","img/card_backs/set2/orange.gif","img/card_backs/set2/gray.gif","""event"",""trial"",""time""
""fullscreenenter"",""1"",""13934""
","
","
","""event"",""trial"",""time""
""fullscreenenter"",""1"",""13934""
","
","","640.9999999996508","","","","real_trial","2021-03-30 22:04:19.551","img/card_backs/set1/yellow.gif","0","180","1","",""
"casino-fixation","158","574753","0.0-25.0-0.44","217","false","img/card_backs/set1/purple.gif","img/card_backs/set1/yellow.gif","img/card_backs/set1/green.gif","img/card_backs/set1/red.gif","img/card_backs/set2/blue.gif","img/card_backs/set2/pink.gif","img/card_backs/set2/orange.gif","img/card_backs/set2/gray.gif","""event"",""trial"",""time""
""fullscreenenter"",""1"",""13934""
","
","
","""event"",""trial"",""time""
""fullscreenenter"",""1"",""13934""
","
","","null","","null","","fixation","2021-03-30 22:04:20.061","","","","","",""
"card-selection-trial","159","577402","0.0-25.0-1.44","217","false","img/card_backs/set1/purple.gif","img/card_backs/set1/yellow.gif","img/card_backs/set1/green.gif","img/card_backs/set1/red.gif","img/card_backs/set2/blue.gif","img/card_backs/set2/pink.gif","img/card_backs/set2/orange.gif","img/card_backs/set2/gray.gif","""event"",""trial"",""time""
""fullscreenenter"",""1"",""13934""
","
","
","""event"",""trial"",""time""
""fullscreenenter"",""1"",""13934""
","
","","626.7850000003818","","","","real_trial","2021-03-30 22:04:22.711","img/card_backs/set1/green.gif","1","120","1","",""
"casino-fixation","160","577908","0.0-25.0-0.45","217","false","img/card_backs/set1/purple.gif","img/card_backs/set1/yellow.gif","img/card_backs/set1/green.gif","img/card_backs/set1/red.gif","img/card_backs/set2/blue.gif","img/card_backs/set2/pink.gif","img/card_backs/set2/orange.gif","img/card_backs/set2/gray.gif","""event"",""trial"",""time""
""fullscreenenter"",""1"",""13934""
","
","
","""event"",""trial"",""time""
""fullscreenenter"",""1"",""13934""
","
","","null","","null","","fixation","2021-03-30 22:04:23.217","","","","","",""
"card-selection-trial","161","580776","0.0-25.0-1.45","217","false","img/card_backs/set1/purple.gif","img/card_backs/set1/yellow.gif","img/card_backs/set1/green.gif","img/card_backs/set1/red.gif","img/card_backs/set2/blue.gif","img/card_backs/set2/pink.gif","img/card_backs/set2/orange.gif","img/card_backs/set2/gray.gif","""event"",""trial"",""time""
""fullscreenenter"",""1"",""13934""
","
","
","""event"",""trial"",""time""
""fullscreenenter"",""1"",""13934""
","
","","843.769999999553","","","","real_trial","2021-03-30 22:04:26.085","img/card_backs/set1/green.gif","3","100","1","",""
"casino-fixation","162","581284","0.0-25.0-0.46","217","false","img/card_backs/set1/purple.gif","img/card_backs/set1/yellow.gif","img/card_backs/set1/green.gif","img/card_backs/set1/red.gif","img/card_backs/set2/blue.gif","img/card_backs/set2/pink.gif","img/card_backs/set2/orange.gif","img/card_backs/set2/gray.gif","""event"",""trial"",""time""
""fullscreenenter"",""1"",""13934""
","
","
","""event"",""trial"",""time""
""fullscreenenter"",""1"",""13934""
","
","","null","","null","","fixation","2021-03-30 22:04:26.592","","","","","",""
"card-selection-trial","163","583824","0.0-25.0-1.46","217","false","img/card_backs/set1/purple.gif","img/card_backs/set1/yellow.gif","img/card_backs/set1/green.gif","img/card_backs/set1/red.gif","img/card_backs/set2/blue.gif","img/card_backs/set2/pink.gif","img/card_backs/set2/orange.gif","img/card_backs/set2/gray.gif","""event"",""trial"",""time""
""fullscreenenter"",""1"",""13934""
","
","
","""event"",""trial"",""time""
""fullscreenenter"",""1"",""13934""
","
","","518.2050000003073","","","","real_trial","2021-03-30 22:04:29.133","img/card_backs/set1/purple.gif","3","-250","1","",""
"casino-fixation","164","584331","0.0-25.0-0.47","217","false","img/card_backs/set1/purple.gif","img/card_backs/set1/yellow.gif","img/card_backs/set1/green.gif","img/card_backs/set1/red.gif","img/card_backs/set2/blue.gif","img/card_backs/set2/pink.gif","img/card_backs/set2/orange.gif","img/card_backs/set2/gray.gif","""event"",""trial"",""time""
""fullscreenenter"",""1"",""13934""
","
","
","""event"",""trial"",""time""
""fullscreenenter"",""1"",""13934""
","
","","null","","null","","fixation","2021-03-30 22:04:29.640","","","","","",""
"card-selection-trial","165","586856","0.0-25.0-1.47","217","false","img/card_backs/set1/purple.gif","img/card_backs/set1/yellow.gif","img/card_backs/set1/green.gif","img/card_backs/set1/red.gif","img/card_backs/set2/blue.gif","img/card_backs/set2/pink.gif","img/card_backs/set2/orange.gif","img/card_backs/set2/gray.gif","""event"",""trial"",""time""
""fullscreenenter"",""1"",""13934""
","
","
","""event"",""trial"",""time""
""fullscreenenter"",""1"",""13934""
","
","","501.1999999987893","","","","real_trial","2021-03-30 22:04:32.165","img/card_backs/set1/yellow.gif","0","180","1","",""
"casino-fixation","166","587363","0.0-25.0-0.48","217","false","img/card_backs/set1/purple.gif","img/card_backs/set1/yellow.gif","img/card_backs/set1/green.gif","img/card_backs/set1/red.gif","img/card_backs/set2/blue.gif","img/card_backs/set2/pink.gif","img/card_backs/set2/orange.gif","img/card_backs/set2/gray.gif","""event"",""trial"",""time""
""fullscreenenter"",""1"",""13934""
","
","
","""event"",""trial"",""time""
""fullscreenenter"",""1"",""13934""
","
