"trial_type","trial_index","time_elapsed","internal_node_id","sub_id","risk_good_first","block1_A","block1_B","block1_C","block1_D","block2_A","block2_B","block2_C","block2_D","interactions","blur_events","focus_events","fullscreenenter_events","fullscreenexit_events","success","rt","stimulus","key_press","button_pressed","task_part","timestamp","card_choice","choice_position","points_earned","block","correct","response"
"pavlovia","0","5","0.0-0.0","782","true","img/card_backs/set1/purple.gif","img/card_backs/set1/red.gif","img/card_backs/set1/yellow.gif","img/card_backs/set1/green.gif","img/card_backs/set2/orange.gif","img/card_backs/set2/gray.gif","img/card_backs/set2/blue.gif","img/card_backs/set2/pink.gif","""event"",""trial"",""time""
""fullscreenenter"",""1"",""3187""
","
","
","""event"",""trial"",""time""
""fullscreenenter"",""1"",""3187""
","
","","","","","","","","","","","","",""
"fullscreen","1","4145","0.0-1.0","782","true","img/card_backs/set1/purple.gif","img/card_backs/set1/red.gif","img/card_backs/set1/yellow.gif","img/card_backs/set1/green.gif","img/card_backs/set2/orange.gif","img/card_backs/set2/gray.gif","img/card_backs/set2/blue.gif","img/card_backs/set2/pink.gif","""event"",""trial"",""time""
""fullscreenenter"",""1"",""3187""
","
","
","""event"",""trial"",""time""
""fullscreenenter"",""1"",""3187""
","
","true","","","","","","","","","","","",""
"audio-keyboard-response","2","9655","0.0-2.0","782","true","img/card_backs/set1/purple.gif","img/card_backs/set1/red.gif","img/card_backs/set1/yellow.gif","img/card_backs/set1/green.gif","img/card_backs/set2/orange.gif","img/card_backs/set2/gray.gif","img/card_backs/set2/blue.gif","img/card_backs/set2/pink.gif","""event"",""trial"",""time""
""fullscreenenter"",""1"",""3187""
","
","
","""event"",""trial"",""time""
""fullscreenenter"",""1"",""3187""
","
","","4560","audio/beep_loop.wav","32","","","","","","","","",""
"audio-button-response","3","11767","0.0-3.0","782","true","img/card_backs/set1/purple.gif","img/card_backs/set1/red.gif","img/card_backs/set1/yellow.gif","img/card_backs/set1/green.gif","img/card_backs/set2/orange.gif","img/card_backs/set2/gray.gif","img/card_backs/set2/blue.gif","img/card_backs/set2/pink.gif","""event"",""trial"",""time""
""fullscreenenter"",""1"",""3187""
","
","
","""event"",""trial"",""time""
""fullscreenenter"",""1"",""3187""
","
","","NaN","audio/turtle.mp3","","3","","","","","","","",""
"audio-button-response","4","14232","0.0-4.0","782","true","img/card_backs/set1/purple.gif","img/card_backs/set1/red.gif","img/card_backs/set1/yellow.gif","img/card_backs/set1/green.gif","img/card_backs/set2/orange.gif","img/card_backs/set2/gray.gif","img/card_backs/set2/blue.gif","img/card_backs/set2/pink.gif","""event"",""trial"",""time""
""fullscreenenter"",""1"",""3187""
","
","
","""event"",""trial"",""time""
""fullscreenenter"",""1"",""3187""
","
","","NaN","audio/shark.mp3","","2","","","","","","","",""
"fullscreen","5","18919","0.0-5.0","782","true","img/card_backs/set1/purple.gif","img/card_backs/set1/red.gif","img/card_backs/set1/yellow.gif","img/card_backs/set1/green.gif","img/card_backs/set2/orange.gif","img/card_backs/set2/gray.gif","img/card_backs/set2/blue.gif","img/card_backs/set2/pink.gif","""event"",""trial"",""time""
""fullscreenenter"",""1"",""3187""
","
","
","""event"",""trial"",""time""
""fullscreenenter"",""1"",""3187""
","
","true","","","","","","","","","","","",""
"casino-keyboard-response","6","22616","0.0-6.0-0.0","782","true","img/card_backs/set1/purple.gif","img/card_backs/set1/red.gif","img/card_backs/set1/yellow.gif","img/card_backs/set1/green.gif","img/card_backs/set2/orange.gif","img/card_backs/set2/gray.gif","img/card_backs/set2/blue.gif","img/card_backs/set2/pink.gif","""event"",""trial"",""time""
""fullscreenenter"",""1"",""3187""
","
","
","""event"",""trial"",""time""
""fullscreenenter"",""1"",""3187""
","
","","3691.4749999996275","Welcome to the casino!","71","","instructions","2021-04-21 00:18:25.690","","","","","",""
"casino-keyboard-response","7","33034","0.0-6.0-0.1","782","true","img/card_backs/set1/purple.gif","img/card_backs/set1/red.gif","img/card_backs/set1/yellow.gif","img/card_backs/set1/green.gif","img/card_backs/set2/orange.gif","img/card_backs/set2/gray.gif","img/card_backs/set2/blue.gif","img/card_backs/set2/pink.gif","""event"",""trial"",""time""
""fullscreenenter"",""1"",""3187""
","
","
","""event"",""trial"",""time""
""fullscreenenter"",""1"",""3187""
","
","","10416.819999984","Today you will be playing a game to earn tokens. </br> At the end of the experiment, you will be paid a bonus based on how many tokens you win. ","69","","instructions","2021-04-21 00:18:36.108","","","","","",""
"casino-keyboard-response","8","40583","0.0-6.0-0.2","782","true","img/card_backs/set1/purple.gif","img/card_backs/set1/red.gif","img/card_backs/set1/yellow.gif","img/card_backs/set1/green.gif","img/card_backs/set2/orange.gif","img/card_backs/set2/gray.gif","img/card_backs/set2/blue.gif","img/card_backs/set2/pink.gif","""event"",""trial"",""time""
""fullscreenenter"",""1"",""3187""
","
","
","""event"",""trial"",""time""
""fullscreenenter"",""1"",""3187""
","
","","7548.475000017788","On every turn, you will be shown four different decks of cards. </br> You need to select a card from one of the four decks.  ","75","","instructions","2021-04-21 00:18:43.657","","","","","",""
"casino-keyboard-response","9","45790","0.0-6.0-0.3","782","true","img/card_backs/set1/purple.gif","img/card_backs/set1/red.gif","img/card_backs/set1/yellow.gif","img/card_backs/set1/green.gif","img/card_backs/set2/orange.gif","img/card_backs/set2/gray.gif","img/card_backs/set2/blue.gif","img/card_backs/set2/pink.gif","""event"",""trial"",""time""
""fullscreenenter"",""1"",""3187""
","
","
","""event"",""trial"",""time""
""fullscreenenter"",""1"",""3187""
","
","","5205.610000004526","On the next screen, you will see what the decks will look like. ","66","","instructions","2021-04-21 00:18:48.864","","","","","",""
"card-selection-trial","10","49810","0.0-7.0-0.0","782","true","img/card_backs/set1/purple.gif","img/card_backs/set1/red.gif","img/card_backs/set1/yellow.gif","img/card_backs/set1/green.gif","img/card_backs/set2/orange.gif","img/card_backs/set2/gray.gif","img/card_backs/set2/blue.gif","img/card_backs/set2/pink.gif","""event"",""trial"",""time""
""fullscreenenter"",""1"",""3187""
","
","
","""event"",""trial"",""time""
""fullscreenenter"",""1"",""3187""
","
","","null","","","","practice","2021-04-21 00:18:52.885","null","null","null","0","",""
"casino-keyboard-response","11","60456","0.0-8.0-0.0","782","true","img/card_backs/set1/purple.gif","img/card_backs/set1/red.gif","img/card_backs/set1/yellow.gif","img/card_backs/set1/green.gif","img/card_backs/set2/orange.gif","img/card_backs/set2/gray.gif","img/card_backs/set2/blue.gif","img/card_backs/set2/pink.gif","""event"",""trial"",""time""
""fullscreenenter"",""1"",""3187""
","
","
","""event"",""trial"",""time""
""fullscreenenter"",""1"",""3187""
","
","","10642.824999988079","You should pick a card from a deck using the '2', '4', '6', and '8' keys at the top of the keyboard.","85","","instructions","2021-04-21 00:19:03.531","","","","","",""
"casino-keyboard-response","12","66237","0.0-8.0-0.1","782","true","img/card_backs/set1/purple.gif","img/card_backs/set1/red.gif","img/card_backs/set1/yellow.gif","img/card_backs/set1/green.gif","img/card_backs/set2/orange.gif","img/card_backs/set2/gray.gif","img/card_backs/set2/blue.gif","img/card_backs/set2/pink.gif","""event"",""trial"",""time""
""fullscreenenter"",""1"",""3187""
","
","
","""event"",""trial"",""time""
""fullscreenenter"",""1"",""3187""
","
","","5777.430000016466","Once you select a card, it will turn over and you will see how many tokens you earned.","83","","instructions","2021-04-21 00:19:09.311","","","","","",""
"casino-keyboard-response","13","100609","0.0-8.0-0.2","782","true","img/card_backs/set1/purple.gif","img/card_backs/set1/red.gif","img/card_backs/set1/yellow.gif","img/card_backs/set1/green.gif","img/card_backs/set2/orange.gif","img/card_backs/set2/gray.gif","img/card_backs/set2/blue.gif","img/card_backs/set2/pink.gif","""event"",""trial"",""time""
""fullscreenenter"",""1"",""3187""
","
","
","""event"",""trial"",""time""
""fullscreenenter"",""1"",""3187""
","
","","34369.974999979604","Let's try practicing that! </br> First, try to put your fingers over the '2', '4', '6', and '8' keys. </br>  You can use whatever fingers are most comfortable for you. Try to find a comfortable position now. ","50","","instructions","2021-04-21 00:19:43.683","","","","","",""
"casino-keyboard-response","14","113249","0.0-8.0-0.3","782","true","img/card_backs/set1/purple.gif","img/card_backs/set1/red.gif","img/card_backs/set1/yellow.gif","img/card_backs/set1/green.gif","img/card_backs/set2/orange.gif","img/card_backs/set2/gray.gif","img/card_backs/set2/blue.gif","img/card_backs/set2/pink.gif","""event"",""trial"",""time""
""fullscreenenter"",""1"",""3187""
","
","
","""event"",""trial"",""time""
""fullscreenenter"",""1"",""3187""
","
","","12638.555000012275","Okay ready? </br> On the next screen, press '2' to select the left deck. ","50","","instructions","2021-04-21 00:19:56.323","","","","","",""
"card-selection-trial","15","116353","0.0-9.0-0.0","782","true","img/card_backs/set1/purple.gif","img/card_backs/set1/red.gif","img/card_backs/set1/yellow.gif","img/card_backs/set1/green.gif","img/card_backs/set2/orange.gif","img/card_backs/set2/gray.gif","img/card_backs/set2/blue.gif","img/card_backs/set2/pink.gif","""event"",""trial"",""time""
""fullscreenenter"",""1"",""3187""
","
","
","""event"",""trial"",""time""
""fullscreenenter"",""1"",""3187""
","
","","967.160000000149","","","","practice_card_selection","2021-04-21 00:19:59.427","img/practice_cards/backs/dark_green.gif","0","-200","","",""
"casino-keyboard-response","16","123538","0.0-10.0-0.0","782","true","img/card_backs/set1/purple.gif","img/card_backs/set1/red.gif","img/card_backs/set1/yellow.gif","img/card_backs/set1/green.gif","img/card_backs/set2/orange.gif","img/card_backs/set2/gray.gif","img/card_backs/set2/blue.gif","img/card_backs/set2/pink.gif","""event"",""trial"",""time""
""fullscreenenter"",""1"",""3187""
","
","
","""event"",""trial"",""time""
""fullscreenenter"",""1"",""3187""
","
","","7182.979999983218","Great! Now on the next screen, try pressing '6' to select the third deck.","54","","instructions","2021-04-21 00:20:06.612","","","","","",""
"card-selection-trial","17","127762","0.0-11.0-0.0","782","true","img/card_backs/set1/purple.gif","img/card_backs/set1/red.gif","img/card_backs/set1/yellow.gif","img/card_backs/set1/green.gif","img/card_backs/set2/orange.gif","img/card_backs/set2/gray.gif","img/card_backs/set2/blue.gif","img/card_backs/set2/pink.gif","""event"",""trial"",""time""
""fullscreenenter"",""1"",""3187""
","
","
","""event"",""trial"",""time""
""fullscreenenter"",""1"",""3187""
","
","","2206.324999977369","","","","practice_card_selection","2021-04-21 00:20:10.836","img/practice_cards/backs/black.gif","2","100","","",""
"casino-keyboard-response","18","132524","0.0-12.0-0.0","782","true","img/card_backs/set1/purple.gif","img/card_backs/set1/red.gif","img/card_backs/set1/yellow.gif","img/card_backs/set1/green.gif","img/card_backs/set2/orange.gif","img/card_backs/set2/gray.gif","img/card_backs/set2/blue.gif","img/card_backs/set2/pink.gif","""event"",""trial"",""time""
""fullscreenenter"",""1"",""3187""
","
","
","""event"",""trial"",""time""
""fullscreenenter"",""1"",""3187""
","
","","4758.090000017546","Now on the next screen, try pressing '4' to select the second deck.","52","","instructions","2021-04-21 00:20:15.598","","","","","",""
"card-selection-trial","19","135164","0.0-13.0-0.0","782","true","img/card_backs/set1/purple.gif","img/card_backs/set1/red.gif","img/card_backs/set1/yellow.gif","img/card_backs/set1/green.gif","img/card_backs/set2/orange.gif","img/card_backs/set2/gray.gif","img/card_backs/set2/blue.gif","img/card_backs/set2/pink.gif","""event"",""trial"",""time""
""fullscreenenter"",""1"",""3187""
","
","
","""event"",""trial"",""time""
""fullscreenenter"",""1"",""3187""
","
","","612.1900000143796","","","","practice_card_selection","2021-04-21 00:20:18.238","img/practice_cards/backs/brown.gif","1","100","","",""
"casino-keyboard-response","20","141949","0.0-14.0-0.0","782","true","img/card_backs/set1/purple.gif","img/card_backs/set1/red.gif","img/card_backs/set1/yellow.gif","img/card_backs/set1/green.gif","img/card_backs/set2/orange.gif","img/card_backs/set2/gray.gif","img/card_backs/set2/blue.gif","img/card_backs/set2/pink.gif","""event"",""trial"",""time""
""fullscreenenter"",""1"",""3187""
","
","
","""event"",""trial"",""time""
""fullscreenenter"",""1"",""3187""
","
","","6782.565000001341","Finally, try pressing '8' to select the deck all the way on the right.","56","","instructions","2021-04-21 00:20:25.023","","","","","",""
"card-selection-trial","21","144584","0.0-15.0-0.0","782","true","img/card_backs/set1/purple.gif","img/card_backs/set1/red.gif","img/card_backs/set1/yellow.gif","img/card_backs/set1/green.gif","img/card_backs/set2/orange.gif","img/card_backs/set2/gray.gif","img/card_backs/set2/blue.gif","img/card_backs/set2/pink.gif","""event"",""trial"",""time""
""fullscreenenter"",""1"",""3187""
","
","
","""event"",""trial"",""time""
""fullscreenenter"",""1"",""3187""
","
","","607.4200000148267","","","","practice_card_selection","2021-04-21 00:20:27.659","img/practice_cards/backs/black.gif","3","100","","",""
"casino-keyboard-response","22","149411","0.0-16.0-0.0","782","true","img/card_backs/set1/purple.gif","img/card_backs/set1/red.gif","img/card_backs/set1/yellow.gif","img/card_backs/set1/green.gif","img/card_backs/set2/orange.gif","img/card_backs/set2/gray.gif","img/card_backs/set2/blue.gif","img/card_backs/set2/pink.gif","""event"",""trial"",""time""
""fullscreenenter"",""1"",""3187""
","
","
","""event"",""trial"",""time""
""fullscreenenter"",""1"",""3187""
","
","","4825.214999960735","Great! It seems like you are getting the hang of this.","80","","instructions","2021-04-21 00:20:32.485","","","","","",""
"casino-keyboard-response","23","157165","0.0-16.0-0.1","782","true","img/card_backs/set1/purple.gif","img/card_backs/set1/red.gif","img/card_backs/set1/yellow.gif","img/card_backs/set1/green.gif","img/card_backs/set2/orange.gif","img/card_backs/set2/gray.gif","img/card_backs/set2/blue.gif","img/card_backs/set2/pink.gif","""event"",""trial"",""time""
""fullscreenenter"",""1"",""3187""
","
","
","""event"",""trial"",""time""
""fullscreenenter"",""1"",""3187""
","
","","7750.425000034738","You may have noticed that some cards will cause you to <b> win </b> tokens while other cards will cause you to <b> lose </b>  tokens.","70","","instructions","2021-04-21 00:20:40.239","","","","","",""
"casino-keyboard-response","24","166084","0.0-16.0-0.2","782","true","img/card_backs/set1/purple.gif","img/card_backs/set1/red.gif","img/card_backs/set1/yellow.gif","img/card_backs/set1/green.gif","img/card_backs/set2/orange.gif","img/card_backs/set2/gray.gif","img/card_backs/set2/blue.gif","img/card_backs/set2/pink.gif","""event"",""trial"",""time""
""fullscreenenter"",""1"",""3187""
","
","
","""event"",""trial"",""time""
""fullscreenenter"",""1"",""3187""
","
","","8916.26999998698","Each deck has a mix of cards that will cause you to win and lose tokens. </br> However, the cards in each colored deck are different.","73","","instructions","2021-04-21 00:20:49.159","","","","","",""
"casino-keyboard-response","25","174859","0.0-16.0-0.3","782","true","img/card_backs/set1/purple.gif","img/card_backs/set1/red.gif","img/card_backs/set1/yellow.gif","img/card_backs/set1/green.gif","img/card_backs/set2/orange.gif","img/card_backs/set2/gray.gif","img/card_backs/set2/blue.gif","img/card_backs/set2/pink.gif","""event"",""trial"",""time""
""fullscreenenter"",""1"",""3187""
","
","
","""event"",""trial"",""time""
""fullscreenenter"",""1"",""3187""
","
","","8770.944999996573","Some colored decks are luckier than others. </br> If you choose the lucky decks, you will earn more tokens than if you choose the unlucky decks.","69","","instructions","2021-04-21 00:20:57.933","","","","","",""
"casino-keyboard-response","26","182347","0.0-16.0-0.4","782","true","img/card_backs/set1/purple.gif","img/card_backs/set1/red.gif","img/card_backs/set1/yellow.gif","img/card_backs/set1/green.gif","img/card_backs/set2/orange.gif","img/card_backs/set2/gray.gif","img/card_backs/set2/blue.gif","img/card_backs/set2/pink.gif","""event"",""trial"",""time""
""fullscreenenter"",""1"",""3187""
","
","
","""event"",""trial"",""time""
""fullscreenenter"",""1"",""3187""
","
","","7485.344999993686","You should try to figure out which decks are lucky. </br> Then, try to choose the lucky decks so you can win the most tokens.","87","","instructions","2021-04-21 00:21:05.421","","","","","",""
"casino-keyboard-response","27","194734","0.0-16.0-0.5","782","true","img/card_backs/set1/purple.gif","img/card_backs/set1/red.gif","img/card_backs/set1/yellow.gif","img/card_backs/set1/green.gif","img/card_backs/set2/orange.gif","img/card_backs/set2/gray.gif","img/card_backs/set2/blue.gif","img/card_backs/set2/pink.gif","""event"",""trial"",""time""
""fullscreenenter"",""1"",""3187""
","
","
","""event"",""trial"",""time""
""fullscreenenter"",""1"",""3187""
","
","","12385.814999986906","To make it trickier, the casino dealer will switch the locations of the decks on every turn. </br> The color of the deck determines how lucky it is. The location does not matter.","88","","instructions","2021-04-21 00:21:17.808","","","","","",""
"casino-keyboard-response","28","204529","0.0-16.0-0.6","782","true","img/card_backs/set1/purple.gif","img/card_backs/set1/red.gif","img/card_backs/set1/yellow.gif","img/card_backs/set1/green.gif","img/card_backs/set2/orange.gif","img/card_backs/set2/gray.gif","img/card_backs/set2/blue.gif","img/card_backs/set2/pink.gif","""event"",""trial"",""time""
""fullscreenenter"",""1"",""3187""
","
","
","""event"",""trial"",""time""
""fullscreenenter"",""1"",""3187""
","
","","9792.08500002278","The mix of cards in each colored deck will stay the same throughout the game. </br> That means that a deck that is lucky early on will stay lucky.","79","","instructions","2021-04-21 00:21:27.603","","","","","",""
"casino-keyboard-response","29","213304","0.0-16.0-0.7","782","true","img/card_backs/set1/purple.gif","img/card_backs/set1/red.gif","img/card_backs/set1/yellow.gif","img/card_backs/set1/green.gif","img/card_backs/set2/orange.gif","img/card_backs/set2/gray.gif","img/card_backs/set2/blue.gif","img/card_backs/set2/pink.gif","""event"",""trial"",""time""
""fullscreenenter"",""1"",""3187""
","
","
","""event"",""trial"",""time""
""fullscreenenter"",""1"",""3187""
","
","","8773.310000018682","Remember though, all the decks have a <b> mix </b> of both <b> good </b> and <b> bad </b> cards so it may take a couple of turns to figure out if a deck is lucky.","69","","instructions","2021-04-21 00:21:36.379","","","","","",""
"casino-keyboard-response","30","221776","0.0-16.0-0.8","782","true","img/card_backs/set1/purple.gif","img/card_backs/set1/red.gif","img/card_backs/set1/yellow.gif","img/card_backs/set1/green.gif","img/card_backs/set2/orange.gif","img/card_backs/set2/gray.gif","img/card_backs/set2/blue.gif","img/card_backs/set2/pink.gif","""event"",""trial"",""time""
""fullscreenenter"",""1"",""3187""
","
","
","""event"",""trial"",""time""
""fullscreenenter"",""1"",""3187""
","
","","8467.524999985471","At the end of the game, you will be paid bonus money based on how many tokens you win. </br> If you win more tokens, you will earn more money!","72","","instructions","2021-04-21 00:21:44.850","","","","","",""
"casino-keyboard-response","31","237662","0.0-16.0-0.9","782","true","img/card_backs/set1/purple.gif","img/card_backs/set1/red.gif","img/card_backs/set1/yellow.gif","img/card_backs/set1/green.gif","img/card_backs/set2/orange.gif","img/card_backs/set2/gray.gif","img/card_backs/set2/blue.gif","img/card_backs/set2/pink.gif","""event"",""trial"",""time""
""fullscreenenter"",""1"",""3187""
","
","
","""event"",""trial"",""time""
""fullscreenenter"",""1"",""3187""
","
","","15882.87999999011","You will never <b> lose </b> money. </br> If you end up with fewer than 0 tokens, you will earn $0 of bonus money, but you will still be paid for playing the game.","83","","instructions","2021-04-21 00:22:00.736","","","","","",""
"casino-keyboard-response","32","241980","0.0-16.0-0.10","782","true","img/card_backs/set1/purple.gif","img/card_backs/set1/red.gif","img/card_backs/set1/yellow.gif","img/card_backs/set1/green.gif","img/card_backs/set2/orange.gif","img/card_backs/set2/gray.gif","img/card_backs/set2/blue.gif","img/card_backs/set2/pink.gif","""event"",""trial"",""time""
""fullscreenenter"",""1"",""3187""
","
","
","""event"",""trial"",""time""
""fullscreenenter"",""1"",""3187""
","
","","4314.605000021402","You will have 10 seconds to make each choice.","82","","instructions","2021-04-21 00:22:05.054","","","","","",""
"casino-keyboard-response","33","250066","0.0-16.0-0.11","782","true","img/card_backs/set1/purple.gif","img/card_backs/set1/red.gif","img/card_backs/set1/yellow.gif","img/card_backs/set1/green.gif","img/card_backs/set2/orange.gif","img/card_backs/set2/gray.gif","img/card_backs/set2/blue.gif","img/card_backs/set2/pink.gif","""event"",""trial"",""time""
""fullscreenenter"",""1"",""3187""
","
","
","""event"",""trial"",""time""
""fullscreenenter"",""1"",""3187""
","
","","8081.124999967869","Before you play the game for real, you will play with practice decks. </br> The tokens you earn during practice won't count toward your total.","86","","instructions","2021-04-21 00:22:13.141","","","","","",""
"casino-keyboard-response","34","261425","0.0-16.0-0.12","782","true","img/card_backs/set1/purple.gif","img/card_backs/set1/red.gif","img/card_backs/set1/yellow.gif","img/card_backs/set1/green.gif","img/card_backs/set2/orange.gif","img/card_backs/set2/gray.gif","img/card_backs/set2/blue.gif","img/card_backs/set2/pink.gif","""event"",""trial"",""time""
""fullscreenenter"",""1"",""3187""
","
","
","""event"",""trial"",""time""
""fullscreenenter"",""1"",""3187""
","
","","11355.255000002217","Ready? Remember, use the '2', '4', '6', and '8' keys to select the decks. </br> Put your fingers on those keys now and then press '2' to begin.","50","","instructions","2021-04-21 00:22:24.499","","","","","",""
"casino-fixation","35","261931","0.0-17.0-0.0","782","true","img/card_backs/set1/purple.gif","img/card_backs/set1/red.gif","img/card_backs/set1/yellow.gif","img/card_backs/set1/green.gif","img/card_backs/set2/orange.gif","img/card_backs/set2/gray.gif","img/card_backs/set2/blue.gif","img/card_backs/set2/pink.gif","""event"",""trial"",""time""
""fullscreenenter"",""1"",""3187""
","
","
","""event"",""trial"",""time""
""fullscreenenter"",""1"",""3187""
","
","","null","","null","","fixation","2021-04-21 00:22:25.005","","","","","",""
"card-selection-trial","36","265489","0.0-17.0-1.0","782","true","img/card_backs/set1/purple.gif","img/card_backs/set1/red.gif","img/card_backs/set1/yellow.gif","img/card_backs/set1/green.gif","img/card_backs/set2/orange.gif","img/card_backs/set2/gray.gif","img/card_backs/set2/blue.gif","img/card_backs/set2/pink.gif","""event"",""trial"",""time""
""fullscreenenter"",""1"",""3187""
","
","
","""event"",""trial"",""time""
""fullscreenenter"",""1"",""3187""
","
","","1545.380000025034","","","","practice","2021-04-21 00:22:28.563","img/practice_cards/backs/dark_blue.gif","1","-200","0","",""
"casino-fixation","37","266001","0.0-17.0-0.1","782","true","img/card_backs/set1/purple.gif","img/card_backs/set1/red.gif","img/card_backs/set1/yellow.gif","img/card_backs/set1/green.gif","img/card_backs/set2/orange.gif","img/card_backs/set2/gray.gif","img/card_backs/set2/blue.gif","img/card_backs/set2/pink.gif","""event"",""trial"",""time""
""fullscreenenter"",""1"",""3187""
","
","
","""event"",""trial"",""time""
""fullscreenenter"",""1"",""3187""
","
","","null","","null","","fixation","2021-04-21 00:22:29.076","","","","","",""
"card-selection-trial","38","269550","0.0-17.0-1.1","782","true","img/card_backs/set1/purple.gif","img/card_backs/set1/red.gif","img/card_backs/set1/yellow.gif","img/card_backs/set1/green.gif","img/card_backs/set2/orange.gif","img/card_backs/set2/gray.gif","img/card_backs/set2/blue.gif","img/card_backs/set2/pink.gif","""event"",""trial"",""time""
""fullscreenenter"",""1"",""3187""
","
","
","""event"",""trial"",""time""
""fullscreenenter"",""1"",""3187""
","
","","1538.6750000179745","","","","practice","2021-04-21 00:22:32.624","img/practice_cards/backs/brown.gif","2","-100","0","",""
"casino-fixation","39","270063","0.0-17.0-0.2","782","true","img/card_backs/set1/purple.gif","img/card_backs/set1/red.gif","img/card_backs/set1/yellow.gif","img/card_backs/set1/green.gif","img/card_backs/set2/orange.gif","img/card_backs/set2/gray.gif","img/card_backs/set2/blue.gif","img/card_backs/set2/pink.gif","""event"",""trial"",""time""
""fullscreenenter"",""1"",""3187""
","
","
","""event"",""trial"",""time""
""fullscreenenter"",""1"",""3187""
","
","","null","","null","","fixation","2021-04-21 00:22:33.137","","","","","",""
"card-selection-trial","40","274575","0.0-17.0-1.2","782","true","img/card_backs/set1/purple.gif","img/card_backs/set1/red.gif","img/card_backs/set1/yellow.gif","img/card_backs/set1/green.gif","img/card_backs/set2/orange.gif","img/card_backs/set2/gray.gif","img/card_backs/set2/blue.gif","img/card_backs/set2/pink.gif","""event"",""trial"",""time""
""fullscreenenter"",""1"",""3187""
","
","
","""event"",""trial"",""time""
""fullscreenenter"",""1"",""3187""
","
","","2494.010000023991","","","","practice","2021-04-21 00:22:37.649","img/practice_cards/backs/black.gif","1","100","0","",""
"casino-fixation","41","275089","0.0-17.0-0.3","782","true","img/card_backs/set1/purple.gif","img/card_backs/set1/red.gif","img/card_backs/set1/yellow.gif","img/card_backs/set1/green.gif","img/card_backs/set2/orange.gif","img/card_backs/set2/gray.gif","img/card_backs/set2/blue.gif","img/card_backs/set2/pink.gif","""event"",""trial"",""time""
""fullscreenenter"",""1"",""3187""
","
","
","""event"",""trial"",""time""
""fullscreenenter"",""1"",""3187""
","
","","null","","null","","fixation","2021-04-21 00:22:38.163","","","","","",""
"card-selection-trial","42","280058","0.0-17.0-1.3","782","true","img/card_backs/set1/purple.gif","img/card_backs/set1/red.gif","img/card_backs/set1/yellow.gif","img/card_backs/set1/green.gif","img/card_backs/set2/orange.gif","img/card_backs/set2/gray.gif","img/card_backs/set2/blue.gif","img/card_backs/set2/pink.gif","""event"",""trial"",""time""
""fullscreenenter"",""1"",""3187""
","
","
","""event"",""trial"",""time""
""fullscreenenter"",""1"",""3187""
","
","","2947.4300000001676","","","","practice","2021-04-21 00:22:43.132","img/practice_cards/backs/dark_green.gif","3","200","0","",""
"casino-fixation","43","280562","0.0-17.0-0.4","782","true","img/card_backs/set1/purple.gif","img/card_backs/set1/red.gif","img/card_backs/set1/yellow.gif","img/card_backs/set1/green.gif","img/card_backs/set2/orange.gif","img/card_backs/set2/gray.gif","img/card_backs/set2/blue.gif","img/card_backs/set2/pink.gif","""event"",""trial"",""time""
""fullscreenenter"",""1"",""3187""
","
","
","""event"",""trial"",""time""
""fullscreenenter"",""1"",""3187""
","
","","null","","null","","fixation","2021-04-21 00:22:43.636","","","","","",""
"card-selection-trial","44","283407","0.0-17.0-1.4","782","true","img/card_backs/set1/purple.gif","img/card_backs/set1/red.gif","img/card_backs/set1/yellow.gif","img/card_backs/set1/green.gif","img/card_backs/set2/orange.gif","img/card_backs/set2/gray.gif","img/card_backs/set2/blue.gif","img/card_backs/set2/pink.gif","""event"",""trial"",""time""
""fullscreenenter"",""1"",""3187""
","
","
","""event"",""trial"",""time""
""fullscreenenter"",""1"",""3187""
","
","","829.0999999735504","","","","practice","2021-04-21 00:22:46.481","img/practice_cards/backs/dark_green.gif","0","200","0","",""
"casino-fixation","45","283922","0.0-17.0-0.5","782","true","img/card_backs/set1/purple.gif","img/card_backs/set1/red.gif","img/card_backs/set1/yellow.gif","img/card_backs/set1/green.gif","img/card_backs/set2/orange.gif","img/card_backs/set2/gray.gif","img/card_backs/set2/blue.gif","img/card_backs/set2/pink.gif","""event"",""trial"",""time""
""fullscreenenter"",""1"",""3187""
","
","
","""event"",""trial"",""time""
""fullscreenenter"",""1"",""3187""
","
","","null","","null","","fixation","2021-04-21 00:22:46.997","","","","","",""
"card-selection-trial","46","287918","0.0-17.0-1.5","782","true","img/card_backs/set1/purple.gif","img/card_backs/set1/red.gif","img/card_backs/set1/yellow.gif","img/card_backs/set1/green.gif","img/card_backs/set2/orange.gif","img/card_backs/set2/gray.gif","img/card_backs/set2/blue.gif","img/card_backs/set2/pink.gif","""event"",""trial"",""time""
""fullscreenenter"",""1"",""3187""
","
","
","""event"",""trial"",""time""
""fullscreenenter"",""1"",""3187""
","
","","1980.8600000105798","","","","practice","2021-04-21 00:22:50.992","img/practice_cards/backs/dark_green.gif","1","-200","0","",""
"casino-fixation","47","288421","0.0-17.0-0.6","782","true","img/card_backs/set1/purple.gif","img/card_backs/set1/red.gif","img/card_backs/set1/yellow.gif","img/card_backs/set1/green.gif","img/card_backs/set2/orange.gif","img/card_backs/set2/gray.gif","img/card_backs/set2/blue.gif","img/card_backs/set2/pink.gif","""event"",""trial"",""time""
""fullscreenenter"",""1"",""3187""
","
","
","""event"",""trial"",""time""
""fullscreenenter"",""1"",""3187""
","
","","null","","null","","fixation","2021-04-21 00:22:51.495","","","","","",""
"card-selection-trial","48","292113","0.0-17.0-1.6","782","true","img/card_backs/set1/purple.gif","img/card_backs/set1/red.gif","img/card_backs/set1/yellow.gif","img/card_backs/set1/green.gif","img/card_backs/set2/orange.gif","img/card_backs/set2/gray.gif","img/card_backs/set2/blue.gif","img/card_backs/set2/pink.gif","""event"",""trial"",""time""
""fullscreenenter"",""1"",""3187""
","
","
","""event"",""trial"",""time""
""fullscreenenter"",""1"",""3187""
","
","","1683.88500000583","","","","practice","2021-04-21 00:22:55.187","img/practice_cards/backs/black.gif","0","-100","0","",""
"casino-fixation","49","292615","0.0-17.0-0.7","782","true","img/card_backs/set1/purple.gif","img/card_backs/set1/red.gif","img/card_backs/set1/yellow.gif","img/card_backs/set1/green.gif","img/card_backs/set2/orange.gif","img/card_backs/set2/gray.gif","img/card_backs/set2/blue.gif","img/card_backs/set2/pink.gif","""event"",""trial"",""time""
""fullscreenenter"",""1"",""3187""
","
","
","""event"",""trial"",""time""
""fullscreenenter"",""1"",""3187""
","
","","null","","null","","fixation","2021-04-21 00:22:55.689","","","","","",""
"card-selection-trial","50","297464","0.0-17.0-1.7","782","true","img/card_backs/set1/purple.gif","img/card_backs/set1/red.gif","img/card_backs/set1/yellow.gif","img/card_backs/set1/green.gif","img/card_backs/set2/orange.gif","img/card_backs/set2/gray.gif","img/card_backs/set2/blue.gif","img/card_backs/set2/pink.gif","""event"",""trial"",""time""
""fullscreenenter"",""1"",""3187""
","
","
","""event"",""trial"",""time""
""fullscreenenter"",""1"",""3187""
","
","","2843.20999996271","","","","practice","2021-04-21 00:23:00.538","img/practice_cards/backs/brown.gif","2","100","0","",""
"casino-fixation","51","297968","0.0-17.0-0.8","782","true","img/card_backs/set1/purple.gif","img/card_backs/set1/red.gif","img/card_backs/set1/yellow.gif","img/card_backs/set1/green.gif","img/card_backs/set2/orange.gif","img/card_backs/set2/gray.gif","img/card_backs/set2/blue.gif","img/card_backs/set2/pink.gif","""event"",""trial"",""time""
""fullscreenenter"",""1"",""3187""
","
","
","""event"",""trial"",""time""
""fullscreenenter"",""1"",""3187""
","
","","null","","null","","fixation","2021-04-21 00:23:01.042","","","","","",""
"card-selection-trial","52","302441","0.0-17.0-1.8","782","true","img/card_backs/set1/purple.gif","img/card_backs/set1/red.gif","img/card_backs/set1/yellow.gif","img/card_backs/set1/green.gif","img/card_backs/set2/orange.gif","img/card_backs/set2/gray.gif","img/card_backs/set2/blue.gif","img/card_backs/set2/pink.gif","""event"",""trial"",""time""
""fullscreenenter"",""1"",""3187""
","
","
","""event"",""trial"",""time""
""fullscreenenter"",""1"",""3187""
","
","","2465.439999999944","","","","practice","2021-04-21 00:23:05.515","img/practice_cards/backs/dark_green.gif","1","200","0","",""
"casino-fixation","53","302944","0.0-17.0-0.9","782","true","img/card_backs/set1/purple.gif","img/card_backs/set1/red.gif","img/card_backs/set1/yellow.gif","img/card_backs/set1/green.gif","img/card_backs/set2/orange.gif","img/card_backs/set2/gray.gif","img/card_backs/set2/blue.gif","img/card_backs/set2/pink.gif","""event"",""trial"",""time""
""fullscreenenter"",""1"",""3187""
","
","
","""event"",""trial"",""time""
""fullscreenenter"",""1"",""3187""
","
","","null","","null","","fixation","2021-04-21 00:23:06.018","","","","","",""
"card-selection-trial","54","305939","0.0-17.0-1.9","782","true","img/card_backs/set1/purple.gif","img/card_backs/set1/red.gif","img/card_backs/set1/yellow.gif","img/card_backs/set1/green.gif","img/card_backs/set2/orange.gif","img/card_backs/set2/gray.gif","img/card_backs/set2/blue.gif","img/card_backs/set2/pink.gif","""event"",""trial"",""time""
""fullscreenenter"",""1"",""3187""
","
","
","""event"",""trial"",""time""
""fullscreenenter"",""1"",""3187""
","
","","987.6850000000559","","","","practice","2021-04-21 00:23:09.013","img/practice_cards/backs/dark_green.gif","0","-200","0","",""
"casino-keyboard-response","55","309404","0.0-18.0","782","true","img/card_backs/set1/purple.gif","img/card_backs/set1/red.gif","img/card_backs/set1/yellow.gif","img/card_backs/set1/green.gif","img/card_backs/set2/orange.gif","img/card_backs/set2/gray.gif","img/card_backs/set2/blue.gif","img/card_backs/set2/pink.gif","""event"",""trial"",""time""
""fullscreenenter"",""1"",""3187""
","
","
","""event"",""trial"",""time""
""fullscreenenter"",""1"",""3187""
","
","","3463.6500000488013","You earned 0 tokens during the practice round!","82","","","2021-04-21 00:23:12.479","","","","","",""
"casino-keyboard-response","56","313744","0.0-19.0-0.0","782","true","img/card_backs/set1/purple.gif","img/card_backs/set1/red.gif","img/card_backs/set1/yellow.gif","img/card_backs/set1/green.gif","img/card_backs/set2/orange.gif","img/card_backs/set2/gray.gif","img/card_backs/set2/blue.gif","img/card_backs/set2/pink.gif","""event"",""trial"",""time""
""fullscreenenter"",""1"",""3187""
","
","
","""event"",""trial"",""time""
""fullscreenenter"",""1"",""3187""
","
","","4337.9900000290945","Nice job! You are almost ready to play the real game.","86","","instructions","2021-04-21 00:23:16.818","","","","","",""
"casino-keyboard-response","57","321524","0.0-19.0-0.1","782","true","img/card_backs/set1/purple.gif","img/card_backs/set1/red.gif","img/card_backs/set1/yellow.gif","img/card_backs/set1/green.gif","img/card_backs/set2/orange.gif","img/card_backs/set2/gray.gif","img/card_backs/set2/blue.gif","img/card_backs/set2/pink.gif","""event"",""trial"",""time""
""fullscreenenter"",""1"",""3187""
","
","
","""event"",""trial"",""time""
""fullscreenenter"",""1"",""3187""
","
","","7778.310000023339","You will play two rounds of the real game. In each round, you will pick 100 cards in total.","73","","instructions","2021-04-21 00:23:24.599","","","","","",""
"casino-keyboard-response","58","325652","0.0-19.0-0.2","782","true","img/card_backs/set1/purple.gif","img/card_backs/set1/red.gif","img/card_backs/set1/yellow.gif","img/card_backs/set1/green.gif","img/card_backs/set2/orange.gif","img/card_backs/set2/gray.gif","img/card_backs/set2/blue.gif","img/card_backs/set2/pink.gif","""event"",""trial"",""time""
""fullscreenenter"",""1"",""3187""
","
","
","""event"",""trial"",""time""
""fullscreenenter"",""1"",""3187""
","
","","4125.135000038426","We are now going to ask you some questions about how the game works.","66","","instructions","2021-04-21 00:23:28.726","","","","","",""
"casino-keyboard-response","59","331649","0.0-19.0-0.3","782","true","img/card_backs/set1/purple.gif","img/card_backs/set1/red.gif","img/card_backs/set1/yellow.gif","img/card_backs/set1/green.gif","img/card_backs/set2/orange.gif","img/card_backs/set2/gray.gif","img/card_backs/set2/blue.gif","img/card_backs/set2/pink.gif","""event"",""trial"",""time""
""fullscreenenter"",""1"",""3187""
","
","
","""event"",""trial"",""time""
""fullscreenenter"",""1"",""3187""
","
","","5995.255000016186","Answer carefully. You will not be able to begin the game until you answer them correctly.","67","","instructions","2021-04-21 00:23:34.723","","","","","",""
"casino-comp_q","60","338768","0.0-20.0-0.0","782","true","img/card_backs/set1/purple.gif","img/card_backs/set1/red.gif","img/card_backs/set1/yellow.gif","img/card_backs/set1/green.gif","img/card_backs/set2/orange.gif","img/card_backs/set2/gray.gif","img/card_backs/set2/blue.gif","img/card_backs/set2/pink.gif","""event"",""trial"",""time""
""fullscreenenter"",""1"",""3187""
","
","
","""event"",""trial"",""time""
""fullscreenenter"",""1"",""3187""
","
","","7117.785000009462","True or False: All the decks have some cards that cause you to win tokens and some cards that cause you to lose tokens.","84","","","2021-04-21 00:23:41.842","","","","","",""
"casino-keyboard-response","61","341589","0.0-20.0-1.0","782","true","img/card_backs/set1/purple.gif","img/card_backs/set1/red.gif","img/card_backs/set1/yellow.gif","img/card_backs/set1/green.gif","img/card_backs/set2/orange.gif","img/card_backs/set2/gray.gif","img/card_backs/set2/blue.gif","img/card_backs/set2/pink.gif","""event"",""trial"",""time""
""fullscreenenter"",""1"",""3187""
","
","
","""event"",""trial"",""time""
""fullscreenenter"",""1"",""3187""
","
","","2819.840000011027","True is correct! All the decks have a mix of winning and losing cards.","77","","","2021-04-21 00:23:44.663","","","","","true",""
"casino-comp_q","62","344822","0.0-21.0-0.0","782","true","img/card_backs/set1/purple.gif","img/card_backs/set1/red.gif","img/card_backs/set1/yellow.gif","img/card_backs/set1/green.gif","img/card_backs/set2/orange.gif","img/card_backs/set2/gray.gif","img/card_backs/set2/blue.gif","img/card_backs/set2/pink.gif","""event"",""trial"",""time""
""fullscreenenter"",""1"",""3187""
","
","
","""event"",""trial"",""time""
""fullscreenenter"",""1"",""3187""
","
","","3231.325000000652","True or False: You will have as much time as you want to make your response.","70","","","2021-04-21 00:23:47.896","","","","","",""
"casino-keyboard-response","63","347694","0.0-21.0-1.0","782","true","img/card_backs/set1/purple.gif","img/card_backs/set1/red.gif","img/card_backs/set1/yellow.gif","img/card_backs/set1/green.gif","img/card_backs/set2/orange.gif","img/card_backs/set2/gray.gif","img/card_backs/set2/blue.gif","img/card_backs/set2/pink.gif","""event"",""trial"",""time""
""fullscreenenter"",""1"",""3187""
","
","
","""event"",""trial"",""time""
""fullscreenenter"",""1"",""3187""
","
","","2868.9899999881163","False is correct! You will only have 10 seconds to make each choice.","75","","","2021-04-21 00:23:50.768","","","","","true",""
"casino-comp_q","64","351314","0.0-22.0-0.0","782","true","img/card_backs/set1/purple.gif","img/card_backs/set1/red.gif","img/card_backs/set1/yellow.gif","img/card_backs/set1/green.gif","img/card_backs/set2/orange.gif","img/card_backs/set2/gray.gif","img/card_backs/set2/blue.gif","img/card_backs/set2/pink.gif","""event"",""trial"",""time""
""fullscreenenter"",""1"",""3187""
","
","
","""event"",""trial"",""time""
""fullscreenenter"",""1"",""3187""
","
","","3616.2350000231527","True or False: The location of the deck determines how lucky it is.","70","","","2021-04-21 00:23:54.388","","","","","",""
"casino-keyboard-response","65","354462","0.0-22.0-1.0","782","true","img/card_backs/set1/purple.gif","img/card_backs/set1/red.gif","img/card_backs/set1/yellow.gif","img/card_backs/set1/green.gif","img/card_backs/set2/orange.gif","img/card_backs/set2/gray.gif","img/card_backs/set2/blue.gif","img/card_backs/set2/pink.gif","""event"",""trial"",""time""
""fullscreenenter"",""1"",""3187""
","
","
","""event"",""trial"",""time""
""fullscreenenter"",""1"",""3187""
","
","","3146.1099999723956","False is correct! The <i>color</i>  of the deck determines how lucky or unlucky it is.","68","","","2021-04-21 00:23:57.536","","","","","true",""
"casino-keyboard-response","66","360508","0.0-23.0-0.0","782","true","img/card_backs/set1/purple.gif","img/card_backs/set1/red.gif","img/card_backs/set1/yellow.gif","img/card_backs/set1/green.gif","img/card_backs/set2/orange.gif","img/card_backs/set2/gray.gif","img/card_backs/set2/blue.gif","img/card_backs/set2/pink.gif","""event"",""trial"",""time""
""fullscreenenter"",""1"",""3187""
","
","
","""event"",""trial"",""time""
""fullscreenenter"",""1"",""3187""
","
","","6043.730000033975","Great job! Now it's time to start the real game.","82","","instructions","2021-04-21 00:24:03.582","","","","","",""
"casino-keyboard-response","67","365662","0.0-23.0-0.1","782","true","img/card_backs/set1/purple.gif","img/card_backs/set1/red.gif","img/card_backs/set1/yellow.gif","img/card_backs/set1/green.gif","img/card_backs/set2/orange.gif","img/card_backs/set2/gray.gif","img/card_backs/set2/blue.gif","img/card_backs/set2/pink.gif","""event"",""trial"",""time""
""fullscreenenter"",""1"",""3187""
","
","
","""event"",""trial"",""time""
""fullscreenenter"",""1"",""3187""
","
","","5152.355000027455","Before we start, we're going to head into a new room of the casino.","86","","instructions","2021-04-21 00:24:08.736","","","","","",""
"casino-keyboard-response","68","372130","0.0-24.0-0.0","782","true","img/card_backs/set1/purple.gif","img/card_backs/set1/red.gif","img/card_backs/set1/yellow.gif","img/card_backs/set1/green.gif","img/card_backs/set2/orange.gif","img/card_backs/set2/gray.gif","img/card_backs/set2/blue.gif","img/card_backs/set2/pink.gif","""event"",""trial"",""time""
""fullscreenenter"",""1"",""3187""
","
","
","""event"",""trial"",""time""
""fullscreenenter"",""1"",""3187""
","
","","6465.370000049006","Here we are! The real game will use different cards, but the rules will be the same.","71","","instructions","2021-04-21 00:24:15.204","","","","","",""
"casino-keyboard-response","69","381613","0.0-24.0-0.1","782","true","img/card_backs/set1/purple.gif","img/card_backs/set1/red.gif","img/card_backs/set1/yellow.gif","img/card_backs/set1/green.gif","img/card_backs/set2/orange.gif","img/card_backs/set2/gray.gif","img/card_backs/set2/blue.gif","img/card_backs/set2/pink.gif","""event"",""trial"",""time""
""fullscreenenter"",""1"",""3187""
","
","
","""event"",""trial"",""time""
""fullscreenenter"",""1"",""3187""
","
","","9481.55999998562","Ready? Put your fingers over the '2', '4', 6', and '8' keys so you are ready to play the game. </br> Then press 2 to start.","50","","instructions","2021-04-21 00:24:24.687","","","","","",""
"casino-fixation","70","382120","0.0-25.0-0.0","782","true","img/card_backs/set1/purple.gif","img/card_backs/set1/red.gif","img/card_backs/set1/yellow.gif","img/card_backs/set1/green.gif","img/card_backs/set2/orange.gif","img/card_backs/set2/gray.gif","img/card_backs/set2/blue.gif","img/card_backs/set2/pink.gif","""event"",""trial"",""time""
""fullscreenenter"",""1"",""3187""
","
","
","""event"",""trial"",""time""
""fullscreenenter"",""1"",""3187""
","
","","null","","null","","fixation","2021-04-21 00:24:25.194","","","","","",""
"card-selection-trial","71","386660","0.0-25.0-1.0","782","true","img/card_backs/set1/purple.gif","img/card_backs/set1/red.gif","img/card_backs/set1/yellow.gif","img/card_backs/set1/green.gif","img/card_backs/set2/orange.gif","img/card_backs/set2/gray.gif","img/card_backs/set2/blue.gif","img/card_backs/set2/pink.gif","""event"",""trial"",""time""
""fullscreenenter"",""1"",""3187""
","
","
","""event"",""trial"",""time""
""fullscreenenter"",""1"",""3187""
","
","","2525.64499998698","","","","real_trial","2021-04-21 00:24:29.734","img/card_backs/set1/yellow.gif","0","50","1","",""
"casino-fixation","72","387175","0.0-25.0-0.1","782","true","img/card_backs/set1/purple.gif","img/card_backs/set1/red.gif","img/card_backs/set1/yellow.gif","img/card_backs/set1/green.gif","img/card_backs/set2/orange.gif","img/card_backs/set2/gray.gif","img/card_backs/set2/blue.gif","img/card_backs/set2/pink.gif","""event"",""trial"",""time""
""fullscreenenter"",""1"",""3187""
","
","
","""event"",""trial"",""time""
""fullscreenenter"",""1"",""3187""
","
","","null","","null","","fixation","2021-04-21 00:24:30.249","","","","","",""
"card-selection-trial","73","392185","0.0-25.0-1.1","782","true","img/card_backs/set1/purple.gif","img/card_backs/set1/red.gif","img/card_backs/set1/yellow.gif","img/card_backs/set1/green.gif","img/card_backs/set2/orange.gif","img/card_backs/set2/gray.gif","img/card_backs/set2/blue.gif","img/card_backs/set2/pink.gif","""event"",""trial"",""time""
""fullscreenenter"",""1"",""3187""
","
","
","""event"",""trial"",""time""
""fullscreenenter"",""1"",""3187""
","
","","2991.9649999937974","","","","real_trial","2021-04-21 00:24:35.259","img/card_backs/set1/green.gif","0","40","1","",""
"casino-fixation","74","392688","0.0-25.0-0.2","782","true","img/card_backs/set1/purple.gif","img/card_backs/set1/red.gif","img/card_backs/set1/yellow.gif","img/card_backs/set1/green.gif","img/card_backs/set2/orange.gif","img/card_backs/set2/gray.gif","img/card_backs/set2/blue.gif","img/card_backs/set2/pink.gif","""event"",""trial"",""time""
""fullscreenenter"",""1"",""3187""
","
","
","""event"",""trial"",""time""
""fullscreenenter"",""1"",""3187""
","
","","null","","null","","fixation","2021-04-21 00:24:35.762","","","","","",""
"card-selection-trial","75","399026","0.0-25.0-1.2","782","true","img/card_backs/set1/purple.gif","img/card_backs/set1/red.gif","img/card_backs/set1/yellow.gif","img/card_backs/set1/green.gif","img/card_backs/set2/orange.gif","img/card_backs/set2/gray.gif","img/card_backs/set2/blue.gif","img/card_backs/set2/pink.gif","""event"",""trial"",""time""
""fullscreenenter"",""1"",""3187""
","
","
","""event"",""trial"",""time""
""fullscreenenter"",""1"",""3187""
","
","","4323.225000000093","","","","real_trial","2021-04-21 00:24:42.100","img/card_backs/set1/red.gif","1","-190","1","",""
"casino-fixation","76","399541","0.0-25.0-0.3","782","true","img/card_backs/set1/purple.gif","img/card_backs/set1/red.gif","img/card_backs/set1/yellow.gif","img/card_backs/set1/green.gif","img/card_backs/set2/orange.gif","img/card_backs/set2/gray.gif","img/card_backs/set2/blue.gif","img/card_backs/set2/pink.gif","""event"",""trial"",""time""
""fullscreenenter"",""1"",""3187""
","
","
","""event"",""trial"",""time""
""fullscreenenter"",""1"",""3187""
","
","","null","","null","","fixation","2021-04-21 00:24:42.615","","","","","",""
"card-selection-trial","77","404381","0.0-25.0-1.3","782","true","img/card_backs/set1/purple.gif","img/card_backs/set1/red.gif","img/card_backs/set1/yellow.gif","img/card_backs/set1/green.gif","img/card_backs/set2/orange.gif","img/card_backs/set2/gray.gif","img/card_backs/set2/blue.gif","img/card_backs/set2/pink.gif","""event"",""trial"",""time""
""fullscreenenter"",""1"",""3187""
","
","
","""event"",""trial"",""time""
""fullscreenenter"",""1"",""3187""
","
","","2821.6799999936484","","","","real_trial","2021-04-21 00:24:47.455","img/card_backs/set1/yellow.gif","0","50","1","",""
"casino-fixation","78","404884","0.0-25.0-0.4","782","true","img/card_backs/set1/purple.gif","img/card_backs/set1/red.gif","img/card_backs/set1/yellow.gif","img/card_backs/set1/green.gif","img/card_backs/set2/orange.gif","img/card_backs/set2/gray.gif","img/card_backs/set2/blue.gif","img/card_backs/set2/pink.gif","""event"",""trial"",""time""
""fullscreenenter"",""1"",""3187""
","
","
","""event"",""trial"",""time""
""fullscreenenter"",""1"",""3187""
","
","","null","","null","","fixation","2021-04-21 00:24:47.958","","","","","",""
"card-selection-trial","79","408005","0.0-25.0-1.4","782","true","img/card_backs/set1/purple.gif","img/card_backs/set1/red.gif","img/card_backs/set1/yellow.gif","img/card_backs/set1/green.gif","img/card_backs/set2/orange.gif","img/card_backs/set2/gray.gif","img/card_backs/set2/blue.gif","img/card_backs/set2/pink.gif","""event"",""trial"",""time""
""fullscreenenter"",""1"",""3187""
","
","
","""event"",""trial"",""time""
""fullscreenenter"",""1"",""3187""
","
","","1098.0550000094809","","","","real_trial","2021-04-21 00:24:51.079","img/card_backs/set1/green.gif","3","-100","1","",""
"casino-fixation","80","408516","0.0-25.0-0.5","782","true","img/card_backs/set1/purple.gif","img/card_backs/set1/red.gif","img/card_backs/set1/yellow.gif","img/card_backs/set1/green.gif","img/card_backs/set2/orange.gif","img/card_backs/set2/gray.gif","img/card_backs/set2/blue.gif","img/card_backs/set2/pink.gif","""event"",""trial"",""time""
""fullscreenenter"",""1"",""3187""
","
","
","""event"",""trial"",""time""
""fullscreenenter"",""1"",""3187""
","
","","null","","null","","fixation","2021-04-21 00:24:51.591","","","","","",""
"card-selection-trial","81","413289","0.0-25.0-1.5","782","true","img/card_backs/set1/purple.gif","img/card_backs/set1/red.gif","img/card_backs/set1/yellow.gif","img/card_backs/set1/green.gif","img/card_backs/set2/orange.gif","img/card_backs/set2/gray.gif","img/card_backs/set2/blue.gif","img/card_backs/set2/pink.gif","""event"",""trial"",""time""
""fullscreenenter"",""1"",""3187""
","
","
","""event"",""trial"",""time""
""fullscreenenter"",""1"",""3187""
","
","","2763.5950000258163","","","","real_trial","2021-04-21 00:24:56.363","img/card_backs/set1/yellow.gif","1","-90","1","",""
"casino-fixation","82","413792","0.0-25.0-0.6","782","true","img/card_backs/set1/purple.gif","img/card_backs/set1/red.gif","img/card_backs/set1/yellow.gif","img/card_backs/set1/green.gif","img/card_backs/set2/orange.gif","img/card_backs/set2/gray.gif","img/card_backs/set2/blue.gif","img/card_backs/set2/pink.gif","""event"",""trial"",""time""
""fullscreenenter"",""1"",""3187""
","
","
","""event"",""trial"",""time""
""fullscreenenter"",""1"",""3187""
","
","","null","","null","","fixation","2021-04-21 00:24:56.866","","","","","",""
"card-selection-trial","83","417716","0.0-25.0-1.6","782","true","img/card_backs/set1/purple.gif","img/card_backs/set1/red.gif","img/card_backs/set1/yellow.gif","img/card_backs/set1/green.gif","img/card_backs/set2/orange.gif","img/card_backs/set2/gray.gif","img/card_backs/set2/blue.gif","img/card_backs/set2/pink.gif","""event"",""trial"",""time""
""fullscreenenter"",""1"",""3187""
","
","
","""event"",""trial"",""time""
""fullscreenenter"",""1"",""3187""
","
","","1911.9299999438226","","","","real_trial","2021-04-21 00:25:00.790","img/card_backs/set1/red.gif","2","-210","1","",""
"casino-fixation","84","418219","0.0-25.0-0.7","782","true","img/card_backs/set1/purple.gif","img/card_backs/set1/red.gif","img/card_backs/set1/yellow.gif","img/card_backs/set1/green.gif","img/card_backs/set2/orange.gif","img/card_backs/set2/gray.gif","img/card_backs/set2/blue.gif","img/card_backs/set2/pink.gif","""event"",""trial"",""time""
""fullscreenenter"",""1"",""3187""
","
","
","""event"",""trial"",""time""
""fullscreenenter"",""1"",""3187""
","
","","null","","null","","fixation","2021-04-21 00:25:01.293","","","","","",""
"card-selection-trial","85","422602","0.0-25.0-1.7","782","true","img/card_backs/set1/purple.gif","img/card_backs/set1/red.gif","img/card_backs/set1/yellow.gif","img/card_backs/set1/green.gif","img/card_backs/set2/orange.gif","img/card_backs/set2/gray.gif","img/card_backs/set2/blue.gif","img/card_backs/set2/pink.gif","""event"",""trial"",""time""
""fullscreenenter"",""1"",""3187""
","
","
","""event"",""trial"",""time""
""fullscreenenter"",""1"",""3187""
","
","","2369.630000030156","","","","real_trial","2021-04-21 00:25:05.676","img/card_backs/set1/purple.gif","1","-200","1","",""
"casino-fixation","86","423104","0.0-25.0-0.8","782","true","img/card_backs/set1/purple.gif","img/card_backs/set1/red.gif","img/card_backs/set1/yellow.gif","img/card_backs/set1/green.gif","img/card_backs/set2/orange.gif","img/card_backs/set2/gray.gif","img/card_backs/set2/blue.gif","img/card_backs/set2/pink.gif","""event"",""trial"",""time""
""fullscreenenter"",""1"",""3187""
","
","
","""event"",""trial"",""time""
""fullscreenenter"",""1"",""3187""
","
","","null","","null","","fixation","2021-04-21 00:25:06.178","","","","","",""
"card-selection-trial","87","427993","0.0-25.0-1.8","782","true","img/card_backs/set1/purple.gif","img/card_backs/set1/red.gif","img/card_backs/set1/yellow.gif","img/card_backs/set1/green.gif","img/card_backs/set2/orange.gif","img/card_backs/set2/gray.gif","img/card_backs/set2/blue.gif","img/card_backs/set2/pink.gif","""event"",""trial"",""time""
""fullscreenenter"",""1"",""3187""
","
","
","""event"",""trial"",""time""
""fullscreenenter"",""1"",""3187""
","
","","2882.04500003485","","","","real_trial","2021-04-21 00:25:11.067","img/card_backs/set1/green.gif","2","50","1","",""
"casino-fixation","88","428496","0.0-25.0-0.9","782","true","img/card_backs/set1/purple.gif","img/card_backs/set1/red.gif","img/card_backs/set1/yellow.gif","img/card_backs/set1/green.gif","img/card_backs/set2/orange.gif","img/card_backs/set2/gray.gif","img/card_backs/set2/blue.gif","img/card_backs/set2/pink.gif","""event"",""trial"",""time""
""fullscreenenter"",""1"",""3187""
","
","
","""event"",""trial"",""time""
""fullscreenenter"",""1"",""3187""
","
","","null","","null","","fixation","2021-04-21 00:25:11.570","","","","","",""
"card-selection-trial","89","431815","0.0-25.0-1.9","782","true","img/card_backs/set1/purple.gif","img/card_backs/set1/red.gif","img/card_backs/set1/yellow.gif","img/card_backs/set1/green.gif","img/card_backs/set2/orange.gif","img/card_backs/set2/gray.gif","img/card_backs/set2/blue.gif","img/card_backs/set2/pink.gif","""event"",""trial"",""time""
""fullscreenenter"",""1"",""3187""
","
","
","""event"",""trial"",""time""
""fullscreenenter"",""1"",""3187""
","
","","1312.4299999908544","","","","real_trial","2021-04-21 00:25:14.890","img/card_backs/set1/green.gif","1","50","1","",""
"casino-fixation","90","432317","0.0-25.0-0.10","782","true","img/card_backs/set1/purple.gif","img/card_backs/set1/red.gif","img/card_backs/set1/yellow.gif","img/card_backs/set1/green.gif","img/card_backs/set2/orange.gif","img/card_backs/set2/gray.gif","img/card_backs/set2/blue.gif","img/card_backs/set2/pink.gif","""event"",""trial"",""time""
""fullscreenenter"",""1"",""3187""
","
","
","""event"",""trial"",""time""
""fullscreenenter"",""1"",""3187""
","
","","null","","null","","fixation","2021-04-21 00:25:15.392","","","","","",""
"card-selection-trial","91","435180","0.0-25.0-1.10","782","true","img/card_backs/set1/purple.gif","img/card_backs/set1/red.gif","img/card_backs/set1/yellow.gif","img/card_backs/set1/green.gif","img/card_backs/set2/orange.gif","img/card_backs/set2/gray.gif","img/card_backs/set2/blue.gif","img/card_backs/set2/pink.gif","""event"",""trial"",""time""
""fullscreenenter"",""1"",""3187""
","
","
","""event"",""trial"",""time""
""fullscreenenter"",""1"",""3187""
","
","","851.3749999692664","","","","real_trial","2021-04-21 00:25:18.254","img/card_backs/set1/green.gif","0","60","1","",""
"casino-fixation","92","435682","0.0-25.0-0.11","782","true","img/card_backs/set1/purple.gif","img/card_backs/set1/red.gif","img/card_backs/set1/yellow.gif","img/card_backs/set1/green.gif","img/card_backs/set2/orange.gif","img/card_backs/set2/gray.gif","img/card_backs/set2/blue.gif","img/card_backs/set2/pink.gif","""event"",""trial"",""time""
""fullscreenenter"",""1"",""3187""
","
","
","""event"",""trial"",""time""
""fullscreenenter"",""1"",""3187""
","
","","null","","null","","fixation","2021-04-21 00:25:18.756","","","","","",""
"card-selection-trial","93","438762","0.0-25.0-1.11","782","true","img/card_backs/set1/purple.gif","img/card_backs/set1/red.gif","img/card_backs/set1/yellow.gif","img/card_backs/set1/green.gif","img/card_backs/set2/orange.gif","img/card_backs/set2/gray.gif","img/card_backs/set2/blue.gif","img/card_backs/set2/pink.gif","""event"",""trial"",""time""
""fullscreenenter"",""1"",""3187""
","
","
","""event"",""trial"",""time""
""fullscreenenter"",""1"",""3187""
","
","","1073.1050000176765","","","","real_trial","2021-04-21 00:25:21.836","img/card_backs/set1/green.gif","2","-90","1","",""
"casino-fixation","94","439266","0.0-25.0-0.12","782","true","img/card_backs/set1/purple.gif","img/card_backs/set1/red.gif","img/card_backs/set1/yellow.gif","img/card_backs/set1/green.gif","img/card_backs/set2/orange.gif","img/card_backs/set2/gray.gif","img/card_backs/set2/blue.gif","img/card_backs/set2/pink.gif","""event"",""trial"",""time""
""fullscreenenter"",""1"",""3187""
","
","
","""event"",""trial"",""time""
""fullscreenenter"",""1"",""3187""
","
","","null","","null","","fixation","2021-04-21 00:25:22.340","","","","","",""
"card-selection-trial","95","441933","0.0-25.0-1.12","782","true","img/card_backs/set1/purple.gif","img/card_backs/set1/red.gif","img/card_backs/set1/yellow.gif","img/card_backs/set1/green.gif","img/card_backs/set2/orange.gif","img/card_backs/set2/gray.gif","img/card_backs/set2/blue.gif","img/card_backs/set2/pink.gif","""event"",""trial"",""time""
""fullscreenenter"",""1"",""3187""
","
","
","""event"",""trial"",""time""
""fullscreenenter"",""1"",""3187""
","
","","654.4949999661185","","","","real_trial","2021-04-21 00:25:25.007","img/card_backs/set1/green.gif","3","-90","1","",""
"casino-fixation","96","442449","0.0-25.0-0.13","782","true","img/card_backs/set1/purple.gif","img/card_backs/set1/red.gif","img/card_backs/set1/yellow.gif","img/card_backs/set1/green.gif","img/card_backs/set2/orange.gif","img/card_backs/set2/gray.gif","img/card_backs/set2/blue.gif","img/card_backs/set2/pink.gif","""event"",""trial"",""time""
""fullscreenenter"",""1"",""3187""
","
","
","""event"",""trial"",""time""
""fullscreenenter"",""1"",""3187""
","
","","null","","null","","fixation","2021-04-21 00:25:25.523","","","","","",""
"card-selection-trial","97","447158","0.0-25.0-1.13","782","true","img/card_backs/set1/purple.gif","img/card_backs/set1/red.gif","img/card_backs/set1/yellow.gif","img/card_backs/set1/green.gif","img/card_backs/set2/orange.gif","img/card_backs/set2/gray.gif","img/card_backs/set2/blue.gif","img/card_backs/set2/pink.gif","""event"",""trial"",""time""
""fullscreenenter"",""1"",""3187""
","
","
","""event"",""trial"",""time""
""fullscreenenter"",""1"",""3187""
","
","","2702.194999961648","","","","real_trial","2021-04-21 00:25:30.232","img/card_backs/set1/green.gif","2","-100","1","",""
"casino-fixation","98","447661","0.0-25.0-0.14","782","true","img/card_backs/set1/purple.gif","img/card_backs/set1/red.gif","img/card_backs/set1/yellow.gif","img/card_backs/set1/green.gif","img/card_backs/set2/orange.gif","img/card_backs/set2/gray.gif","img/card_backs/set2/blue.gif","img/card_backs/set2/pink.gif","""event"",""trial"",""time""
""fullscreenenter"",""1"",""3187""
","
","
","""event"",""trial"",""time""
""fullscreenenter"",""1"",""3187""
","
","","null","","null","","fixation","2021-04-21 00:25:30.735","","","","","",""
"card-selection-trial","99","451927","0.0-25.0-1.14","782","true","img/card_backs/set1/purple.gif","img/card_backs/set1/red.gif","img/card_backs/set1/yellow.gif","img/card_backs/set1/green.gif","img/card_backs/set2/orange.gif","img/card_backs/set2/gray.gif","img/card_backs/set2/blue.gif","img/card_backs/set2/pink.gif","""event"",""trial"",""time""
""fullscreenenter"",""1"",""3187""
","
","
","""event"",""trial"",""time""
""fullscreenenter"",""1"",""3187""
","
","","2259.4650000100955","","","","real_trial","2021-04-21 00:25:35.001","img/card_backs/set1/yellow.gif","0","-110","1","",""
"casino-fixation","100","452429","0.0-25.0-0.15","782","true","img/card_backs/set1/purple.gif","img/card_backs/set1/red.gif","img/card_backs/set1/yellow.gif","img/card_backs/set1/green.gif","img/card_backs/set2/orange.gif","img/card_backs/set2/gray.gif","img/card_backs/set2/blue.gif","img/card_backs/set2/pink.gif","""event"",""trial"",""time""
""fullscreenenter"",""1"",""3187""
","
","
","""event"",""trial"",""time""
""fullscreenenter"",""1"",""3187""
","
","","null","","null","","fixation","2021-04-21 00:25:35.503","","","","","",""
"card-selection-trial","101","454964","0.0-25.0-1.15","782","true","img/card_backs/set1/purple.gif","img/card_backs/set1/red.gif","img/card_backs/set1/yellow.gif","img/card_backs/set1/green.gif","img/card_backs/set2/orange.gif","img/card_backs/set2/gray.gif","img/card_backs/set2/blue.gif","img/card_backs/set2/pink.gif","""event"",""trial"",""time""
""fullscreenenter"",""1"",""3187""
","
","
","""event"",""trial"",""time""
""fullscreenenter"",""1"",""3187""
","
","","528.4899999969639","","","","real_trial","2021-04-21 00:25:38.038","img/card_backs/set1/yellow.gif","2","60","1","",""
"casino-fixation","102","455466","0.0-25.0-0.16","782","true","img/card_backs/set1/purple.gif","img/card_backs/set1/red.gif","img/card_backs/set1/yellow.gif","img/card_backs/set1/green.gif","img/card_backs/set2/orange.gif","img/card_backs/set2/gray.gif","img/card_backs/set2/blue.gif","img/card_backs/set2/pink.gif","""event"",""trial"",""time""
""fullscreenenter"",""1"",""3187""
","
","
","""event"",""trial"",""time""
""fullscreenenter"",""1"",""3187""
","
","","null","","null","","fixation","2021-04-21 00:25:38.541","","","","","",""
"card-selection-trial","103","457870","0.0-25.0-1.16","782","true","img/card_backs/set1/purple.gif","img/card_backs/set1/red.gif","img/card_backs/set1/yellow.gif","img/card_backs/set1/green.gif","img/card_backs/set2/orange.gif","img/card_backs/set2/gray.gif","img/card_backs/set2/blue.gif","img/card_backs/set2/pink.gif","""event"",""trial"",""time""
""fullscreenenter"",""1"",""3187""
","
","
","""event"",""trial"",""time""
""fullscreenenter"",""1"",""3187""
","
","","398.50999996997416","","","","real_trial","2021-04-21 00:25:40.945","img/card_backs/set1/yellow.gif","2","-90","1","",""
"casino-fixation","104","458373","0.0-25.0-0.17","782","true","img/card_backs/set1/purple.gif","img/card_backs/set1/red.gif","img/card_backs/set1/yellow.gif","img/card_backs/set1/green.gif","img/card_backs/set2/orange.gif","img/card_backs/set2/gray.gif","img/card_backs/set2/blue.gif","img/card_backs/set2/pink.gif","""event"",""trial"",""time""
""fullscreenenter"",""1"",""3187""
","
","
","""event"",""trial"",""time""
""fullscreenenter"",""1"",""3187""
","
","","null","","null","","fixation","2021-04-21 00:25:41.447","","","","","",""
"card-selection-trial","105","460626","0.0-25.0-1.17","782","true","img/card_backs/set1/purple.gif","img/card_backs/set1/red.gif","img/card_backs/set1/yellow.gif","img/card_backs/set1/green.gif","img/card_backs/set2/orange.gif","img/card_backs/set2/gray.gif","img/card_backs/set2/blue.gif","img/card_backs/set2/pink.gif","""event"",""trial"",""time""
""fullscreenenter"",""1"",""3187""
","
","
","""event"",""trial"",""time""
""fullscreenenter"",""1"",""3187""
","
","","245.10000000009313","","","","real_trial","2021-04-21 00:25:43.700","img/card_backs/set1/yellow.gif","2","-100","1","",""
"casino-fixation","106","461128","0.0-25.0-0.18","782","true","img/card_backs/set1/purple.gif","img/card_backs/set1/red.gif","img/card_backs/set1/yellow.gif","img/card_backs/set1/green.gif","img/card_backs/set2/orange.gif","img/card_backs/set2/gray.gif","img/card_backs/set2/blue.gif","img/card_backs/set2/pink.gif","""event"",""trial"",""time""
""fullscreenenter"",""1"",""3187""
","
","
","""event"",""trial"",""time""
""fullscreenenter"",""1"",""3187""
","
","","null","","null","","fixation","2021-04-21 00:25:44.202","","","","","",""
"card-selection-trial","107","465966","0.0-25.0-1.18","782","true","img/card_backs/set1/purple.gif","img/card_backs/set1/red.gif","img/card_backs/set1/yellow.gif","img/card_backs/set1/green.gif","img/card_backs/set2/orange.gif","img/card_backs/set2/gray.gif","img/card_backs/set2/blue.gif","img/card_backs/set2/pink.gif","""event"",""trial"",""time""
""fullscreenenter"",""1"",""3187""
","
","
","""event"",""trial"",""time""
""fullscreenenter"",""1"",""3187""
","
","","2827.5049999938346","","","","real_trial","2021-04-21 00:25:49.040","img/card_backs/set1/purple.gif","0","-190","1","",""
"casino-fixation","108","466468","0.0-25.0-0.19","782","true","img/card_backs/set1/purple.gif","img/card_backs/set1/red.gif","img/card_backs/set1/yellow.gif","img/card_backs/set1/green.gif","img/card_backs/set2/orange.gif","img/card_backs/set2/gray.gif","img/card_backs/set2/blue.gif","img/card_backs/set2/pink.gif","""event"",""trial"",""time""
""fullscreenenter"",""1"",""3187""
","
","
","""event"",""trial"",""time""
""fullscreenenter"",""1"",""3187""
","
","","null","","null","","fixation","2021-04-21 00:25:49.542","","","","","",""
"card-selection-trial","109","468960","0.0-25.0-1.19","782","true","img/card_backs/set1/purple.gif","img/card_backs/set1/red.gif","img/card_backs/set1/yellow.gif","img/card_backs/set1/green.gif","img/card_backs/set2/orange.gif","img/card_backs/set2/gray.gif","img/card_backs/set2/blue.gif","img/card_backs/set2/pink.gif","""event"",""trial"",""time""
""fullscreenenter"",""1"",""3187""
","
","
","""event"",""trial"",""time""
""fullscreenenter"",""1"",""3187""
","
","","485.8949999907054","","","","real_trial","2021-04-21 00:25:52.034","img/card_backs/set1/purple.gif","0","-200","1","",""
"casino-fixation","110","469462","0.0-25.0-0.20","782","true","img/card_backs/set1/purple.gif","img/card_backs/set1/red.gif","img/card_backs/set1/yellow.gif","img/card_backs/set1/green.gif","img/card_backs/set2/orange.gif","img/card_backs/set2/gray.gif","img/card_backs/set2/blue.gif","img/card_backs/set2/pink.gif","""event"",""trial"",""time""
""fullscreenenter"",""1"",""3187""
","
","
","""event"",""trial"",""time""
""fullscreenenter"",""1"",""3187""
","
","","null","","null","","fixation","2021-04-21 00:25:52.536","","","","","",""
"card-selection-trial","111","472113","0.0-25.0-1.20","782","true","img/card_backs/set1/purple.gif","img/card_backs/set1/red.gif","img/card_backs/set1/yellow.gif","img/card_backs/set1/green.gif","img/card_backs/set2/orange.gif","img/card_backs/set2/gray.gif","img/card_backs/set2/blue.gif","img/card_backs/set2/pink.gif","""event"",""trial"",""time""
""fullscreenenter"",""1"",""3187""
","
","
","""event"",""trial"",""time""
""fullscreenenter"",""1"",""3187""
","
","","642.9050000151619","","","","real_trial","2021-04-21 00:25:55.187","img/card_backs/set1/purple.gif","2","240","1","",""
"casino-fixation","112","472614","0.0-25.0-0.21","782","true","img/card_backs/set1/purple.gif","img/card_backs/set1/red.gif","img/card_backs/set1/yellow.gif","img/card_backs/set1/green.gif","img/card_backs/set2/orange.gif","img/card_backs/set2/gray.gif","img/card_backs/set2/blue.gif","img/card_backs/set2/pink.gif","""event"",""trial"",""time""
""fullscreenenter"",""1"",""3187""
","
","
","""event"",""trial"",""time""
""fullscreenenter"",""1"",""3187""
","
","","null","","null","","fixation","2021-04-21 00:25:55.689","","","","","",""
"card-selection-trial","113","475442","0.0-25.0-1.21","782","true","img/card_backs/set1/purple.gif","img/card_backs/set1/red.gif","img/card_backs/set1/yellow.gif","img/card_backs/set1/green.gif","img/card_backs/set2/orange.gif","img/card_backs/set2/gray.gif","img/card_backs/set2/blue.gif","img/card_backs/set2/pink.gif","""event"",""trial"",""time""
""fullscreenenter"",""1"",""3187""
","
","
","""event"",""trial"",""time""
""fullscreenenter"",""1"",""3187""
","
","","823.279999953229","","","","real_trial","2021-04-21 00:25:58.517","img/card_backs/set1/purple.gif","1","240","1","",""
"casino-fixation","114","475945","0.0-25.0-0.22","782","true","img/card_backs/set1/purple.gif","img/card_backs/set1/red.gif","img/card_backs/set1/yellow.gif","img/card_backs/set1/green.gif","img/card_backs/set2/orange.gif","img/card_backs/set2/gray.gif","img/card_backs/set2/blue.gif","img/card_backs/set2/pink.gif","""event"",""trial"",""time""
""fullscreenenter"",""1"",""3187""
","
","
","""event"",""trial"",""time""
""fullscreenenter"",""1"",""3187""
","
","","null","","null","","fixation","2021-04-21 00:25:59.019","","","","","",""
"card-selection-trial","115","478477","0.0-25.0-1.22","782","true","img/card_backs/set1/purple.gif","img/card_backs/set1/red.gif","img/card_backs/set1/yellow.gif","img/card_backs/set1/green.gif","img/card_backs/set2/orange.gif","img/card_backs/set2/gray.gif","img/card_backs/set2/blue.gif","img/card_backs/set2/pink.gif","""event"",""trial"",""time""
""fullscreenenter"",""1"",""3187""
","
","
","""event"",""trial"",""time""
""fullscreenenter"",""1"",""3187""
","
","","527.1300000022165","","","","real_trial","2021-04-21 00:26:01.551","img/card_backs/set1/purple.gif","0","-210","1","",""
"casino-fixation","116","478988","0.0-25.0-0.23","782","true","img/card_backs/set1/purple.gif","img/card_backs/set1/red.gif","img/card_backs/set1/yellow.gif","img/card_backs/set1/green.gif","img/card_backs/set2/orange.gif","img/card_backs/set2/gray.gif","img/card_backs/set2/blue.gif","img/card_backs/set2/pink.gif","""event"",""trial"",""time""
""fullscreenenter"",""1"",""3187""
","
","
","""event"",""trial"",""time""
""fullscreenenter"",""1"",""3187""
","
","","null","","null","","fixation","2021-04-21 00:26:02.062","","","","","",""
"card-selection-trial","117","481412","0.0-25.0-1.23","782","true","img/card_backs/set1/purple.gif","img/card_backs/set1/red.gif","img/card_backs/set1/yellow.gif","img/card_backs/set1/green.gif","img/card_backs/set2/orange.gif","img/card_backs/set2/gray.gif","img/card_backs/set2/blue.gif","img/card_backs/set2/pink.gif","""event"",""trial"",""time""
""fullscreenenter"",""1"",""3187""
","
","
","""event"",""trial"",""time""
""fullscreenenter"",""1"",""3187""
","
","","404.7800000407733","","","","real_trial","2021-04-21 00:26:04.486","img/card_backs/set1/purple.gif","0","260","1","",""
"casino-fixation","118","481914","0.0-25.0-0.24","782","true","img/card_backs/set1/purple.gif","img/card_backs/set1/red.gif","img/card_backs/set1/yellow.gif","img/card_backs/set1/green.gif","img/card_backs/set2/orange.gif","img/card_backs/set2/gray.gif","img/card_backs/set2/blue.gif","img/card_backs/set2/pink.gif","""event"",""trial"",""time""
""fullscreenenter"",""1"",""3187""
","
","
","""event"",""trial"",""time""
""fullscreenenter"",""1"",""3187""
","
","","null","","null","","fixation","2021-04-21 00:26:04.988","","","","","",""
"card-selection-trial","119","484505","0.0-25.0-1.24","782","true","img/card_backs/set1/purple.gif","img/card_backs/set1/red.gif","img/card_backs/set1/yellow.gif","img/card_backs/set1/green.gif","img/card_backs/set2/orange.gif","img/card_backs/set2/gray.gif","img/card_backs/set2/blue.gif","img/card_backs/set2/pink.gif","""event"",""trial"",""time""
""fullscreenenter"",""1"",""3187""
","
","
","""event"",""trial"",""time""
""fullscreenenter"",""1"",""3187""
","
","","582.9350000130944","","","","real_trial","2021-04-21 00:26:07.579","img/card_backs/set1/purple.gif","2","-190","1","",""
"casino-fixation","120","485008","0.0-25.0-0.25","782","true","img/card_backs/set1/purple.gif","img/card_backs/set1/red.gif","img/card_backs/set1/yellow.gif","img/card_backs/set1/green.gif","img/card_backs/set2/orange.gif","img/card_backs/set2/gray.gif","img/card_backs/set2/blue.gif","img/card_backs/set2/pink.gif","""event"",""trial"",""time""
""fullscreenenter"",""1"",""3187""
","
","
","""event"",""trial"",""time""
""fullscreenenter"",""1"",""3187""
","
","","null","","null","","fixation","2021-04-21 00:26:08.082","","","","","",""
"card-selection-trial","121","487711","0.0-25.0-1.25","782","true","img/card_backs/set1/purple.gif","img/card_backs/set1/red.gif","img/card_backs/set1/yellow.gif","img/card_backs/set1/green.gif","img/card_backs/set2/orange.gif","img/card_backs/set2/gray.gif","img/card_backs/set2/blue.gif","img/card_backs/set2/pink.gif","""event"",""trial"",""time""
""fullscreenenter"",""1"",""3187""
","
","
","""event"",""trial"",""time""
""fullscreenenter"",""1"",""3187""
","
","","694.9449999956414","","","","real_trial","2021-04-21 00:26:10.785","img/card_backs/set1/purple.gif","1","-190","1","",""
"casino-fixation","122","488213","0.0-25.0-0.26","782","true","img/card_backs/set1/purple.gif","img/card_backs/set1/red.gif","img/card_backs/set1/yellow.gif","img/card_backs/set1/green.gif","img/card_backs/set2/orange.gif","img/card_backs/set2/gray.gif","img/card_backs/set2/blue.gif","img/card_backs/set2/pink.gif","""event"",""trial"",""time""
""fullscreenenter"",""1"",""3187""
","
","
","""event"",""trial"",""time""
""fullscreenenter"",""1"",""3187""
","
","","null","","null","","fixation","2021-04-21 00:26:11.287","","","","","",""
"card-selection-trial","123","492158","0.0-25.0-1.26","782","true","img/card_backs/set1/purple.gif","img/card_backs/set1/red.gif","img/card_backs/set1/yellow.gif","img/card_backs/set1/green.gif","img/card_backs/set2/orange.gif","img/card_backs/set2/gray.gif","img/card_backs/set2/blue.gif","img/card_backs/set2/pink.gif","""event"",""trial"",""time""
""fullscreenenter"",""1"",""3187""
","
","
","""event"",""trial"",""time""
""fullscreenenter"",""1"",""3187""
","
","","1936.9600000209175","","","","real_trial","2021-04-21 00:26:15.232","img/card_backs/set1/green.gif","3","50","1","",""
"casino-fixation","124","492661","0.0-25.0-0.27","782","true","img/card_backs/set1/purple.gif","img/card_backs/set1/red.gif","img/card_backs/set1/yellow.gif","img/card_backs/set1/green.gif","img/card_backs/set2/orange.gif","img/card_backs/set2/gray.gif","img/card_backs/set2/blue.gif","img/card_backs/set2/pink.gif","""event"",""trial"",""time""
""fullscreenenter"",""1"",""3187""
","
","
","""event"",""trial"",""time""
""fullscreenenter"",""1"",""3187""
","
","","null","","null","","fixation","2021-04-21 00:26:15.735","","","","","",""
"card-selection-trial","125","497368","0.0-25.0-1.27","782","true","img/card_backs/set1/purple.gif","img/card_backs/set1/red.gif","img/card_backs/set1/yellow.gif","img/card_backs/set1/green.gif","img/card_backs/set2/orange.gif","img/card_backs/set2/gray.gif","img/card_backs/set2/blue.gif","img/card_backs/set2/pink.gif","""event"",""trial"",""time""
""fullscreenenter"",""1"",""3187""
","
","
","""event"",""trial"",""time""
""fullscreenenter"",""1"",""3187""
","
","","2701.0299999965355","","","","real_trial","2021-04-21 00:26:20.442","img/card_backs/set1/red.gif","2","-190","1","",""
"casino-fixation","126","497871","0.0-25.0-0.28","782","true","img/card_backs/set1/purple.gif","img/card_backs/set1/red.gif","img/card_backs/set1/yellow.gif","img/card_backs/set1/green.gif","img/card_backs/set2/orange.gif","img/card_backs/set2/gray.gif","img/card_backs/set2/blue.gif","img/card_backs/set2/pink.gif","""event"",""trial"",""time""
""fullscreenenter"",""1"",""3187""
","
","
","""event"",""trial"",""time""
""fullscreenenter"",""1"",""3187""
","
","","null","","null","","fixation","2021-04-21 00:26:20.945","","","","","",""
"card-selection-trial","127","501280","0.0-25.0-1.28","782","true","img/card_backs/set1/purple.gif","img/card_backs/set1/red.gif","img/card_backs/set1/yellow.gif","img/card_backs/set1/green.gif","img/card_backs/set2/orange.gif","img/card_backs/set2/gray.gif","img/card_backs/set2/blue.gif","img/card_backs/set2/pink.gif","""event"",""trial"",""time""
""fullscreenenter"",""1"",""3187""
","
","
","""event"",""trial"",""time""
""fullscreenenter"",""1"",""3187""
","
","","1402.0099999615923","","","","real_trial","2021-04-21 00:26:24.355","img/card_backs/set1/purple.gif","2","-210","1","",""
"casino-fixation","128","501785","0.0-25.0-0.29","782","true","img/card_backs/set1/purple.gif","img/card_backs/set1/red.gif","img/card_backs/set1/yellow.gif","img/card_backs/set1/green.gif","img/card_backs/set2/orange.gif","img/card_backs/set2/gray.gif","img/card_backs/set2/blue.gif","img/card_backs/set2/pink.gif","""event"",""trial"",""time""
""fullscreenenter"",""1"",""3187""
","
","
","""event"",""trial"",""time""
""fullscreenenter"",""1"",""3187""
","
","","null","","null","","fixation","2021-04-21 00:26:24.859","","","","","",""
"card-selection-trial","129","504933","0.0-25.0-1.29","782","true","img/card_backs/set1/purple.gif","img/card_backs/set1/red.gif","img/card_backs/set1/yellow.gif","img/card_backs/set1/green.gif","img/card_backs/set2/orange.gif","img/card_backs/set2/gray.gif","img/card_backs/set2/blue.gif","img/card_backs/set2/pink.gif","""event"",""trial"",""time""
""fullscreenenter"",""1"",""3187""
","
","
","""event"",""trial"",""time""
""fullscreenenter"",""1"",""3187""
","
","","1137.7949999878183","","","","real_trial","2021-04-21 00:26:28.008","img/card_backs/set1/red.gif","0","250","1","",""
"casino-fixation","130","505436","0.0-25.0-0.30","782","true","img/card_backs/set1/purple.gif","img/card_backs/set1/red.gif","img/card_backs/set1/yellow.gif","img/card_backs/set1/green.gif","img/card_backs/set2/orange.gif","img/card_backs/set2/gray.gif","img/card_backs/set2/blue.gif","img/card_backs/set2/pink.gif","""event"",""trial"",""time""
""fullscreenenter"",""1"",""3187""
","
","
","""event"",""trial"",""time""
""fullscreenenter"",""1"",""3187""
","
","","null","","null","","fixation","2021-04-21 00:26:28.510","","","","","",""
"card-selection-trial","131","508876","0.0-25.0-1.30","782","true","img/card_backs/set1/purple.gif","img/card_backs/set1/red.gif","img/card_backs/set1/yellow.gif","img/card_backs/set1/green.gif","img/card_backs/set2/orange.gif","img/card_backs/set2/gray.gif","img/card_backs/set2/blue.gif","img/card_backs/set2/pink.gif","""event"",""trial"",""time""
""fullscreenenter"",""1"",""3187""
","
","
","""event"",""trial"",""time""
""fullscreenenter"",""1"",""3187""
","
","","1435.8399999910034","","","","real_trial","2021-04-21 00:26:31.951","img/card_backs/set1/red.gif","3","-210","1","",""
"casino-fixation","132","509380","0.0-25.0-0.31","782","true","img/card_backs/set1/purple.gif","img/card_backs/set1/red.gif","img/card_backs/set1/yellow.gif","img/card_backs/set1/green.gif","img/card_backs/set2/orange.gif","img/card_backs/set2/gray.gif","img/card_backs/set2/blue.gif","img/card_backs/set2/pink.gif","""event"",""trial"",""time""
""fullscreenenter"",""1"",""3187""
","
","
","""event"",""trial"",""time""
""fullscreenenter"",""1"",""3187""
","
","","null","","null","","fixation","2021-04-21 00:26:32.454","","","","","",""
"card-selection-trial","133","512311","0.0-25.0-1.31","782","true","img/card_backs/set1/purple.gif","img/card_backs/set1/red.gif","img/card_backs/set1/yellow.gif","img/card_backs/set1/green.gif","img/card_backs/set2/orange.gif","img/card_backs/set2/gray.gif","img/card_backs/set2/blue.gif","img/card_backs/set2/pink.gif","""event"",""trial"",""time""
""fullscreenenter"",""1"",""3187""
","
","
","""event"",""trial"",""time""
""fullscreenenter"",""1"",""3187""
","
","","923.9550000056624","","","","real_trial","2021-04-21 00:26:35.385","img/card_backs/set1/green.gif","1","-90","1","",""
"casino-fixation","134","512824","0.0-25.0-0.32","782","true","img/card_backs/set1/purple.gif","img/card_backs/set1/red.gif","img/card_backs/set1/yellow.gif","img/card_backs/set1/green.gif","img/card_backs/set2/orange.gif","img/card_backs/set2/gray.gif","img/card_backs/set2/blue.gif","img/card_backs/set2/pink.gif","""event"",""trial"",""time""
""fullscreenenter"",""1"",""3187""
","
","
","""event"",""trial"",""time""
""fullscreenenter"",""1"",""3187""
","
","","null","","null","","fixation","2021-04-21 00:26:35.898","","","","","",""
"card-selection-trial","135","517658","0.0-25.0-1.32","782","true","img/card_backs/set1/purple.gif","img/card_backs/set1/red.gif","img/card_backs/set1/yellow.gif","img/card_backs/set1/green.gif","img/card_backs/set2/orange.gif","img/card_backs/set2/gray.gif","img/card_backs/set2/blue.gif","img/card_backs/set2/pink.gif","""event"",""trial"",""time""
""fullscreenenter"",""1"",""3187""
","
","
","""event"",""trial"",""time""
""fullscreenenter"",""1"",""3187""
","
","","2826.6699999803677","","","","real_trial","2021-04-21 00:26:40.732","img/card_backs/set1/yellow.gif","0","-100","1","",""
"casino-fixation","136","518162","0.0-25.0-0.33","782","true","img/card_backs/set1/purple.gif","img/card_backs/set1/red.gif","img/card_backs/set1/yellow.gif","img/card_backs/set1/green.gif","img/card_backs/set2/orange.gif","img/card_backs/set2/gray.gif","img/card_backs/set2/blue.gif","img/card_backs/set2/pink.gif","""event"",""trial"",""time""
""fullscreenenter"",""1"",""3187""
","
","
","""event"",""trial"",""time""
""fullscreenenter"",""1"",""3187""
","
","","null","","null","","fixation","2021-04-21 00:26:41.236","","","","","",""
"card-selection-trial","137","521129","0.0-25.0-1.33","782","true","img/card_backs/set1/purple.gif","img/card_backs/set1/red.gif","img/card_backs/set1/yellow.gif","img/card_backs/set1/green.gif","img/card_backs/set2/orange.gif","img/card_backs/set2/gray.gif","img/card_backs/set2/blue.gif","img/card_backs/set2/pink.gif","""event"",""trial"",""time""
""fullscreenenter"",""1"",""3187""
","
","
","""event"",""trial"",""time""
""fullscreenenter"",""1"",""3187""
","
","","957.9800000065006","","","","real_trial","2021-04-21 00:26:44.203","img/card_backs/set1/red.gif","1","240","1","",""
"casino-fixation","138","521631","0.0-25.0-0.34","782","true","img/card_backs/set1/purple.gif","img/card_backs/set1/red.gif","img/card_backs/set1/yellow.gif","img/card_backs/set1/green.gif","img/card_backs/set2/orange.gif","img/card_backs/set2/gray.gif","img/card_backs/set2/blue.gif","img/card_backs/set2/pink.gif","""event"",""trial"",""time""
""fullscreenenter"",""1"",""3187""
","
","
","""event"",""trial"",""time""
""fullscreenenter"",""1"",""3187""
","
","","null","","null","","fixation","2021-04-21 00:26:44.705","","","","","",""
"card-selection-trial","139","524541","0.0-25.0-1.34","782","true","img/card_backs/set1/purple.gif","img/card_backs/set1/red.gif","img/card_backs/set1/yellow.gif","img/card_backs/set1/green.gif","img/card_backs/set2/orange.gif","img/card_backs/set2/gray.gif","img/card_backs/set2/blue.gif","img/card_backs/set2/pink.gif","""event"",""trial"",""time""
""fullscreenenter"",""1"",""3187""
","
","
","""event"",""trial"",""time""
""fullscreenenter"",""1"",""3187""
","
","","903.9600000251085","","","","real_trial","2021-04-21 00:26:47.615","img/card_backs/set1/red.gif","3","260","1","",""
"casino-fixation","140","525044","0.0-25.0-0.35","782","true","img/card_backs/set1/purple.gif","img/card_backs/set1/red.gif","img/card_backs/set1/yellow.gif","img/card_backs/set1/green.gif","img/card_backs/set2/orange.gif","img/card_backs/set2/gray.gif","img/card_backs/set2/blue.gif","img/card_backs/set2/pink.gif","""event"",""trial"",""time""
""fullscreenenter"",""1"",""3187""
","
","
","""event"",""trial"",""time""
""fullscreenenter"",""1"",""3187""
","
","","null","","null","","fixation","2021-04-21 00:26:48.118","","","","","",""
"card-selection-trial","141","527966","0.0-25.0-1.35","782","true","img/card_backs/set1/purple.gif","img/card_backs/set1/red.gif","img/card_backs/set1/yellow.gif","img/card_backs/set1/green.gif","img/card_backs/set2/orange.gif","img/card_backs/set2/gray.gif","img/card_backs/set2/blue.gif","img/card_backs/set2/pink.gif","""event"",""trial"",""time""
""fullscreenenter"",""1"",""3187""
","
","
","""event"",""trial"",""time""
""fullscreenenter"",""1"",""3187""
","
","","910.1950000040233","","","","real_trial","2021-04-21 00:26:51.040","img/card_backs/set1/red.gif","2","250","1","",""
"casino-fixation","142","528470","0.0-25.0-0.36","782","true","img/card_backs/set1/purple.gif","img/card_backs/set1/red.gif","img/card_backs/set1/yellow.gif","img/card_backs/set1/green.gif","img/card_backs/set2/orange.gif","img/card_backs/set2/gray.gif","img/card_backs/set2/blue.gif","img/card_backs/set2/pink.gif","""event"",""trial"",""time""
""fullscreenenter"",""1"",""3187""
","
","
","""event"",""trial"",""time""
""fullscreenenter"",""1"",""3187""
","
","","null","","null","","fixation","2021-04-21 00:26:51.544","","","","","",""
"card-selection-trial","143","531152","0.0-25.0-1.36","782","true","img/card_backs/set1/purple.gif","img/card_backs/set1/red.gif","img/card_backs/set1/yellow.gif","img/card_backs/set1/green.gif","img/card_backs/set2/orange.gif","img/card_backs/set2/gray.gif","img/card_backs/set2/blue.gif","img/card_backs/set2/pink.gif","""event"",""trial"",""time""
""fullscreenenter"",""1"",""3187""
","
","
","""event"",""trial"",""time""
""fullscreenenter"",""1"",""3187""
","
","","676.4400000101887","","","","real_trial","2021-04-21 00:26:54.226","img/card_backs/set1/red.gif","1","250","1","",""
"casino-fixation","144","531656","0.0-25.0-0.37","782","true","img/card_backs/set1/purple.gif","img/card_backs/set1/red.gif","img/card_backs/set1/yellow.gif","img/card_backs/set1/green.gif","img/card_backs/set2/orange.gif","img/card_backs/set2/gray.gif","img/card_backs/set2/blue.gif","img/card_backs/set2/pink.gif","""event"",""trial"",""time""
""fullscreenenter"",""1"",""3187""
","
","
","""event"",""trial"",""time""
""fullscreenenter"",""1"",""3187""
","
","","null","","null","","fixation","2021-04-21 00:26:54.730","","","","","",""
"card-selection-trial","145","534269","0.0-25.0-1.37","782","true","img/card_backs/set1/purple.gif","img/card_backs/set1/red.gif","img/card_backs/set1/yellow.gif","img/card_backs/set1/green.gif","img/card_backs/set2/orange.gif","img/card_backs/set2/gray.gif","img/card_backs/set2/blue.gif","img/card_backs/set2/pink.gif","""event"",""trial"",""time""
""fullscreenenter"",""1"",""3187""
","
","
","""event"",""trial"",""time""
""fullscreenenter"",""1"",""3187""
","
","","605.5150000029244","","","","real_trial","2021-04-21 00:26:57.343","img/card_backs/set1/red.gif","2","-210","1","",""
"casino-fixation","146","534772","0.0-25.0-0.38","782","true","img/card_backs/set1/purple.gif","img/card_backs/set1/red.gif","img/card_backs/set1/yellow.gif","img/card_backs/set1/green.gif","img/card_backs/set2/orange.gif","img/card_backs/set2/gray.gif","img/card_backs/set2/blue.gif","img/card_backs/set2/pink.gif","""event"",""trial"",""time""
""fullscreenenter"",""1"",""3187""
","
","
","""event"",""trial"",""time""
""fullscreenenter"",""1"",""3187""
","
","","null","","null","","fixation","2021-04-21 00:26:57.846","","","","","",""
"card-selection-trial","147","537258","0.0-25.0-1.38","782","true","img/card_backs/set1/purple.gif","img/card_backs/set1/red.gif","img/card_backs/set1/yellow.gif","img/card_backs/set1/green.gif","img/card_backs/set2/orange.gif","img/card_backs/set2/gray.gif","img/card_backs/set2/blue.gif","img/card_backs/set2/pink.gif","""event"",""trial"",""time""
""fullscreenenter"",""1"",""3187""
","
","
","""event"",""trial"",""time""
""fullscreenenter"",""1"",""3187""
","
","","481.55000002589077","","","","real_trial","2021-04-21 00:27:00.332","img/card_backs/set1/red.gif","2","250","1","",""
"casino-fixation","148","537760","0.0-25.0-0.39","782","true","img/card_backs/set1/purple.gif","img/card_backs/set1/red.gif","img/card_backs/set1/yellow.gif","img/card_backs/set1/green.gif","img/card_backs/set2/orange.gif","img/card_backs/set2/gray.gif","img/card_backs/set2/blue.gif","img/card_backs/set2/pink.gif","""event"",""trial"",""time""
""fullscreenenter"",""1"",""3187""
","
","
","""event"",""trial"",""time""
""fullscreenenter"",""1"",""3187""
","
","","null","","null","","fixation","2021-04-21 00:27:00.834","","","","","",""
"card-selection-trial","149","540447","0.0-25.0-1.39","782","true","img/card_backs/set1/purple.gif","img/card_backs/set1/red.gif","img/card_backs/set1/yellow.gif","img/card_backs/set1/green.gif","img/card_backs/set2/orange.gif","img/card_backs/set2/gray.gif","img/card_backs/set2/blue.gif","img/card_backs/set2/pink.gif","""event"",""trial"",""time""
""fullscreenenter"",""1"",""3187""
","
","
","""event"",""trial"",""time""
""fullscreenenter"",""1"",""3187""
","
","","681.6849999595433","","","","real_trial","2021-04-21 00:27:03.521","img/card_backs/set1/red.gif","3","-190","1","",""
"casino-fixation","150","540964","0.0-25.0-0.40","782","true","img/card_backs/set1/purple.gif","img/card_backs/set1/red.gif","img/card_backs/set1/yellow.gif","img/card_backs/set1/green.gif","img/card_backs/set2/orange.gif","img/card_backs/set2/gray.gif","img/card_backs/set2/blue.gif","img/card_backs/set2/pink.gif","""event"",""trial"",""time""
""fullscreenenter"",""1"",""3187""
","
","
","""event"",""trial"",""time""
""fullscreenenter"",""1"",""3187""
","
","","null","","null","","fixation","2021-04-21 00:27:04.038","","","","","",""
"card-selection-trial","151","543665","0.0-25.0-1.40","782","true","img/card_backs/set1/purple.gif","img/card_backs/set1/red.gif","img/card_backs/set1/yellow.gif","img/card_backs/set1/green.gif","img/card_backs/set2/orange.gif","img/card_backs/set2/gray.gif","img/card_backs/set2/blue.gif","img/card_backs/set2/pink.gif","""event"",""trial"",""time""
""fullscreenenter"",""1"",""3187""
","
","
","""event"",""trial"",""time""
""fullscreenenter"",""1"",""3187""
","
","","693.4100000071339","","","","real_trial","2021-04-21 00:27:06.740","img/card_backs/set1/red.gif","0","250","1","",""
"casino-fixation","152","544168","0.0-25.0-0.41","782","true","img/card_backs/set1/purple.gif","img/card_backs/set1/red.gif","img/card_backs/set1/yellow.gif","img/card_backs/set1/green.gif","img/card_backs/set2/orange.gif","img/card_backs/set2/gray.gif","img/card_backs/set2/blue.gif","img/card_backs/set2/pink.gif","""event"",""trial"",""time""
""fullscreenenter"",""1"",""3187""
","
","
","""event"",""trial"",""time""
""fullscreenenter"",""1"",""3187""
","
","","null","","null","","fixation","2021-04-21 00:27:07.242","","","","","",""
"card-selection-trial","153","546750","0.0-25.0-1.41","782","true","img/card_backs/set1/purple.gif","img/card_backs/set1/red.gif","img/card_backs/set1/yellow.gif","img/card_backs/set1/green.gif","img/card_backs/set2/orange.gif","img/card_backs/set2/gray.gif","img/card_backs/set2/blue.gif","img/card_backs/set2/pink.gif","""event"",""trial"",""time""
""fullscreenenter"",""1"",""3187""
","
","
","""event"",""trial"",""time""
""fullscreenenter"",""1"",""3187""
","
","","572.9150000261143","","","","real_trial","2021-04-21 00:27:09.825","img/card_backs/set1/red.gif","1","-190","1","",""
"casino-fixation","154","547252","0.0-25.0-0.42","782","true","img/card_backs/set1/purple.gif","img/card_backs/set1/red.gif","img/card_backs/set1/yellow.gif","img/card_backs/set1/green.gif","img/card_backs/set2/orange.gif","img/card_backs/set2/gray.gif","img/card_backs/set2/blue.gif","img/card_backs/set2/pink.gif","""event"",""trial"",""time""
""fullscreenenter"",""1"",""3187""
","
","
","""event"",""trial"",""time""
""fullscreenenter"",""1"",""3187""
","
","","null","","null","","fixation","2021-04-21 00:27:10.326","","","","","",""
"card-selection-trial","155","549740","0.0-25.0-1.42","782","true","img/card_backs/set1/purple.gif","img/card_backs/set1/red.gif","img/card_backs/set1/yellow.gif","img/card_backs/set1/green.gif","img/card_backs/set2/orange.gif","img/card_backs/set2/gray.gif","img/card_backs/set2/blue.gif","img/card_backs/set2/pink.gif","""event"",""trial"",""time""
""fullscreenenter"",""1"",""3187""
","
","
","""event"",""trial"",""time""
""fullscreenenter"",""1"",""3187""
","
","","483.60500001581386","","","","real_trial","2021-04-21 00:27:12.814","img/card_backs/set1/red.gif","0","260","1","",""
"casino-fixation","156","550242","0.0-25.0-0.43","782","true","img/card_backs/set1/purple.gif","img/card_backs/set1/red.gif","img/card_backs/set1/yellow.gif","img/card_backs/set1/green.gif","img/card_backs/set2/orange.gif","img/card_backs/set2/gray.gif","img/card_backs/set2/blue.gif","img/card_backs/set2/pink.gif","""event"",""trial"",""time""
""fullscreenenter"",""1"",""3187""
","
","
","""event"",""trial"",""time""
""fullscreenenter"",""1"",""3187""
","
","","null","","null","","fixation","2021-04-21 00:27:13.316","","","","","",""
"card-selection-trial","157","552901","0.0-25.0-1.43","782","true","img/card_backs/set1/purple.gif","img/card_backs/set1/red.gif","img/card_backs/set1/yellow.gif","img/card_backs/set1/green.gif","img/card_backs/set2/orange.gif","img/card_backs/set2/gray.gif","img/card_backs/set2/blue.gif","img/card_backs/set2/pink.gif","""event"",""trial"",""time""
""fullscreenenter"",""1"",""3187""
","
","
","""event"",""trial"",""time""
""fullscreenenter"",""1"",""3187""
","
","","652.8999999864027","","","","real_trial","2021-04-21 00:27:15.975","img/card_backs/set1/red.gif","3","-190","1","",""
"casino-fixation","158","553402","0.0-25.0-0.44","782","true","img/card_backs/set1/purple.gif","img/card_backs/set1/red.gif","img/card_backs/set1/yellow.gif","img/card_backs/set1/green.gif","img/card_backs/set2/orange.gif","img/card_backs/set2/gray.gif","img/card_backs/set2/blue.gif","img/card_backs/set2/pink.gif","""event"",""trial"",""time""
""fullscreenenter"",""1"",""3187""
","
","
","""event"",""trial"",""time""
""fullscreenenter"",""1"",""3187""
","
","","null","","null","","fixation","2021-04-21 00:27:16.476","","","","","",""
"card-selection-trial","159","556059","0.0-25.0-1.44","782","true","img/card_backs/set1/purple.gif","img/card_backs/set1/red.gif","img/card_backs/set1/yellow.gif","img/card_backs/set1/green.gif","img/card_backs/set2/orange.gif","img/card_backs/set2/gray.gif","img/card_backs/set2/blue.gif","img/card_backs/set2/pink.gif","""event"",""trial"",""time""
""fullscreenenter"",""1"",""3187""
","
","
","""event"",""trial"",""time""
""fullscreenenter"",""1"",""3187""
","
","","651.0250000283122","","","","real_trial","2021-04-21 00:27:19.133","img/card_backs/set1/red.gif","1","260","1","",""
"casino-fixation","160","556562","0.0-25.0-0.45","782","true","img/card_backs/set1/purple.gif","img/card_backs/set1/red.gif","img/card_backs/set1/yellow.gif","img/card_backs/set1/green.gif","img/card_backs/set2/orange.gif","img/card_backs/set2/gray.gif","img/card_backs/set2/blue.gif","img/card_backs/set2/pink.gif","""event"",""trial"",""time""
""fullscreenenter"",""1"",""3187""
","
","
","""event"",""trial"",""time""
""fullscreenenter"",""1"",""3187""
","
","","null","","null","","fixation","2021-04-21 00:27:19.636","","","","","",""
"card-selection-trial","161","559143","0.0-25.0-1.45","782","true","img/card_backs/set1/purple.gif","img/card_backs/set1/red.gif","img/card_backs/set1/yellow.gif","img/card_backs/set1/green.gif","img/card_backs/set2/orange.gif","img/card_backs/set2/gray.gif","img/card_backs/set2/blue.gif","img/card_backs/set2/pink.gif","""event"",""trial"",""time""
""fullscreenenter"",""1"",""3187""
","
","
","""event"",""trial"",""time""
""fullscreenenter"",""1"",""3187""
","
","","576.3950000400655","","","","real_trial","2021-04-21 00:27:22.217","img/card_backs/set1/red.gif","0","-200","1","",""
"casino-fixation","162","559646","0.0-25.0-0.46","782","true","img/card_backs/set1/purple.gif","img/card_backs/set1/red.gif","img/card_backs/set1/yellow.gif","img/card_backs/set1/green.gif","img/card_backs/set2/orange.gif","img/card_backs/set2/gray.gif","img/card_backs/set2/blue.gif","img/card_backs/set2/pink.gif","""event"",""trial"",""time""
""fullscreenenter"",""1"",""3187""
","
","
","""event"",""trial"",""time""
""fullscreenenter"",""1"",""3187""
","
","","null","","null","","fixation","2021-04-21 00:27:22.720","","","","","",""
"card-selection-trial","163","562585","0.0-25.0-1.46","782","true","img/card_backs/set1/purple.gif","img/card_backs/set1/red.gif","img/card_backs/set1/yellow.gif","img/card_backs/set1/green.gif","img/card_backs/set2/orange.gif","img/card_backs/set2/gray.gif","img/card_backs/set2/blue.gif","img/card_backs/set2/pink.gif","""event"",""trial"",""time""
""fullscreenenter"",""1"",""3187""
","
","
","""event"",""trial"",""time""
""fullscreenenter"",""1"",""3187""
","
","","931.6600000020117","","","","real_trial","2021-04-21 00:27:25.659","img/card_backs/set1/red.gif","1","260","1","",""
"casino-fixation","164","563087","0.0-25.0-0.47","782","true","img/card_backs/set1/purple.gif","img/card_backs/set1/red.gif","img/card_backs/set1/yellow.gif","img/card_backs/set1/green.gif","img/card_backs/set2/orange.gif","img/card_backs/set2/gray.gif","img/card_backs/set2/blue.gif","img/card_backs/set2/pink.gif","""event"",""trial"",""time""
""fullscreenenter"",""1"",""3187""
","
","
","""event"",""trial"",""time""
""fullscreenenter"",""1"",""3187""
","
","","null","","null","","fixation","2021-04-21 00:27:26.161","","","","","",""
"card-selection-trial","165","565636","0.0-25.0-1.47","782","true","img/card_backs/set1/purple.gif","img/card_backs/set1/red.gif","img/card_backs/set1/yellow.gif","img/card_backs/set1/green.gif","img/card_backs/set2/orange.gif","img/card_backs/set2/gray.gif","img/card_backs/set2/blue.gif","img/card_backs/set2/pink.gif","""event"",""trial"",""time""
""fullscreenenter"",""1"",""3187""
","
","
","""event"",""trial"",""time""
""fullscreenenter"",""1"",""3187""
","
","","540.2900000335649","","","","real_trial","2021-04-21 00:27:28.710","img/card_backs/set1/red.gif","2","260","1","",""
"casino-fixation","166","566138","0.0-25.0-0.48","782","true","img/card_backs/set1/purple.gif","img/card_backs/set1/red.gif","img/card_backs/set1/yellow.gif","img/card_backs/set1/green.gif","img/card_backs/set2/orange.gif","img/card_backs/set2/gray.gif","img/card_backs/set2/blue.gif","img/card_backs/set2/pink.gif","""event"",""trial"",""time""
""fullscreenenter"",""1"",""3187""
","
","
","""event"",""trial"",""time""
""fullscreenenter"",""1"",""3187""
","
","","null","","null","","fixation","2021-04-21 00:27:29.212","","","","","",""
"card-selection-trial","167","568665","0.0-25.0-1.48","782","true","img/card_backs/set1/purple.gif","img/card_backs/set1/red.gif","img/card_backs/set1/yellow.gif","img/card_backs/set1/green.gif","img/card_backs/set2/orange.gif","img/card_backs/set2/gray.gif","img/card_backs/set2/blue.gif","img/card_backs/set2/pink.gif","""event"",""trial"",""time""
""fullscreenenter"",""1"",""3187""
","
","
","""event"",""trial"",""time""
""fullscreenenter"",""1"",""3187""
","
