"trial_type","trial_index","time_elapsed","internal_node_id","sub_id","risk_good_first","block1_A","block1_B","block1_C","block1_D","block2_A","block2_B","block2_C","block2_D","interactions","blur_events","focus_events","fullscreenenter_events","fullscreenexit_events","success","rt","stimulus","key_press","button_pressed","task_part","timestamp","card_choice","choice_position","points_earned","block","correct","response"
"pavlovia","0","7","0.0-0.0","226","true","img/card_backs/set1/red.gif","img/card_backs/set1/purple.gif","img/card_backs/set1/green.gif","img/card_backs/set1/yellow.gif","img/card_backs/set2/gray.gif","img/card_backs/set2/blue.gif","img/card_backs/set2/pink.gif","img/card_backs/set2/orange.gif","""event"",""trial"",""time""
""fullscreenenter"",""1"",""6880""
","
","
","""event"",""trial"",""time""
""fullscreenenter"",""1"",""6880""
","
","","","","","","","","","","","","",""
"fullscreen","1","7608","0.0-1.0","226","true","img/card_backs/set1/red.gif","img/card_backs/set1/purple.gif","img/card_backs/set1/green.gif","img/card_backs/set1/yellow.gif","img/card_backs/set2/gray.gif","img/card_backs/set2/blue.gif","img/card_backs/set2/pink.gif","img/card_backs/set2/orange.gif","""event"",""trial"",""time""
""fullscreenenter"",""1"",""6880""
","
","
","""event"",""trial"",""time""
""fullscreenenter"",""1"",""6880""
","
","true","","","","","","","","","","","",""
"audio-keyboard-response","2","11082","0.0-2.0","226","true","img/card_backs/set1/red.gif","img/card_backs/set1/purple.gif","img/card_backs/set1/green.gif","img/card_backs/set1/yellow.gif","img/card_backs/set2/gray.gif","img/card_backs/set2/blue.gif","img/card_backs/set2/pink.gif","img/card_backs/set2/orange.gif","""event"",""trial"",""time""
""fullscreenenter"",""1"",""6880""
","
","
","""event"",""trial"",""time""
""fullscreenenter"",""1"",""6880""
","
","","3466","audio/beep_loop.wav","32","","","","","","","","",""
"audio-button-response","3","13391","0.0-3.0","226","true","img/card_backs/set1/red.gif","img/card_backs/set1/purple.gif","img/card_backs/set1/green.gif","img/card_backs/set1/yellow.gif","img/card_backs/set2/gray.gif","img/card_backs/set2/blue.gif","img/card_backs/set2/pink.gif","img/card_backs/set2/orange.gif","""event"",""trial"",""time""
""fullscreenenter"",""1"",""6880""
","
","
","""event"",""trial"",""time""
""fullscreenenter"",""1"",""6880""
","
","","NaN","audio/turtle.mp3","","3","","","","","","","",""
"audio-button-response","4","16808","0.0-4.0","226","true","img/card_backs/set1/red.gif","img/card_backs/set1/purple.gif","img/card_backs/set1/green.gif","img/card_backs/set1/yellow.gif","img/card_backs/set2/gray.gif","img/card_backs/set2/blue.gif","img/card_backs/set2/pink.gif","img/card_backs/set2/orange.gif","""event"",""trial"",""time""
""fullscreenenter"",""1"",""6880""
","
","
","""event"",""trial"",""time""
""fullscreenenter"",""1"",""6880""
","
","","NaN","audio/shark.mp3","","2","","","","","","","",""
"fullscreen","5","19883","0.0-5.0","226","true","img/card_backs/set1/red.gif","img/card_backs/set1/purple.gif","img/card_backs/set1/green.gif","img/card_backs/set1/yellow.gif","img/card_backs/set2/gray.gif","img/card_backs/set2/blue.gif","img/card_backs/set2/pink.gif","img/card_backs/set2/orange.gif","""event"",""trial"",""time""
""fullscreenenter"",""1"",""6880""
","
","
","""event"",""trial"",""time""
""fullscreenenter"",""1"",""6880""
","
","true","","","","","","","","","","","",""
"casino-keyboard-response","6","23182","0.0-6.0-0.0","226","true","img/card_backs/set1/red.gif","img/card_backs/set1/purple.gif","img/card_backs/set1/green.gif","img/card_backs/set1/yellow.gif","img/card_backs/set2/gray.gif","img/card_backs/set2/blue.gif","img/card_backs/set2/pink.gif","img/card_backs/set2/orange.gif","""event"",""trial"",""time""
""fullscreenenter"",""1"",""6880""
","
","
","""event"",""trial"",""time""
""fullscreenenter"",""1"",""6880""
","
","","3286.9400000054156","Welcome to the casino!","71","","instructions","2021-03-30 23:10:56.016","","","","","",""
"casino-keyboard-response","7","33663","0.0-6.0-0.1","226","true","img/card_backs/set1/red.gif","img/card_backs/set1/purple.gif","img/card_backs/set1/green.gif","img/card_backs/set1/yellow.gif","img/card_backs/set2/gray.gif","img/card_backs/set2/blue.gif","img/card_backs/set2/pink.gif","img/card_backs/set2/orange.gif","""event"",""trial"",""time""
""fullscreenenter"",""1"",""6880""
","
","
","""event"",""trial"",""time""
""fullscreenenter"",""1"",""6880""
","
","","10478.69499999797","Today you will be playing a game to earn tokens. </br> At the end of the experiment, you will be paid a bonus based on how many tokens you win. ","69","","instructions","2021-03-30 23:11:06.497","","","","","",""
"casino-keyboard-response","8","42084","0.0-6.0-0.2","226","true","img/card_backs/set1/red.gif","img/card_backs/set1/purple.gif","img/card_backs/set1/green.gif","img/card_backs/set1/yellow.gif","img/card_backs/set2/gray.gif","img/card_backs/set2/blue.gif","img/card_backs/set2/pink.gif","img/card_backs/set2/orange.gif","""event"",""trial"",""time""
""fullscreenenter"",""1"",""6880""
","
","
","""event"",""trial"",""time""
""fullscreenenter"",""1"",""6880""
","
","","8410.155000005034","On every turn, you will be shown four different decks of cards. </br> You need to select a card from one of the four decks.  ","75","","instructions","2021-03-30 23:11:14.918","","","","","",""
"casino-keyboard-response","9","46720","0.0-6.0-0.3","226","true","img/card_backs/set1/red.gif","img/card_backs/set1/purple.gif","img/card_backs/set1/green.gif","img/card_backs/set1/yellow.gif","img/card_backs/set2/gray.gif","img/card_backs/set2/blue.gif","img/card_backs/set2/pink.gif","img/card_backs/set2/orange.gif","""event"",""trial"",""time""
""fullscreenenter"",""1"",""6880""
","
","
","""event"",""trial"",""time""
""fullscreenenter"",""1"",""6880""
","
","","4634.604999999283","On the next screen, you will see what the decks will look like. ","66","","instructions","2021-03-30 23:11:19.554","","","","","",""
"card-selection-trial","10","50727","0.0-7.0-0.0","226","true","img/card_backs/set1/red.gif","img/card_backs/set1/purple.gif","img/card_backs/set1/green.gif","img/card_backs/set1/yellow.gif","img/card_backs/set2/gray.gif","img/card_backs/set2/blue.gif","img/card_backs/set2/pink.gif","img/card_backs/set2/orange.gif","""event"",""trial"",""time""
""fullscreenenter"",""1"",""6880""
","
","
","""event"",""trial"",""time""
""fullscreenenter"",""1"",""6880""
","
","","null","","","","practice","2021-03-30 23:11:23.562","null","null","null","0","",""
"casino-keyboard-response","11","58712","0.0-8.0-0.0","226","true","img/card_backs/set1/red.gif","img/card_backs/set1/purple.gif","img/card_backs/set1/green.gif","img/card_backs/set1/yellow.gif","img/card_backs/set2/gray.gif","img/card_backs/set2/blue.gif","img/card_backs/set2/pink.gif","img/card_backs/set2/orange.gif","""event"",""trial"",""time""
""fullscreenenter"",""1"",""6880""
","
","
","""event"",""trial"",""time""
""fullscreenenter"",""1"",""6880""
","
","","7982.254999995348","You should pick a card from a deck using the '2', '4', '6', and '8' keys at the top of the keyboard.","85","","instructions","2021-03-30 23:11:31.546","","","","","",""
"casino-keyboard-response","12","63951","0.0-8.0-0.1","226","true","img/card_backs/set1/red.gif","img/card_backs/set1/purple.gif","img/card_backs/set1/green.gif","img/card_backs/set1/yellow.gif","img/card_backs/set2/gray.gif","img/card_backs/set2/blue.gif","img/card_backs/set2/pink.gif","img/card_backs/set2/orange.gif","""event"",""trial"",""time""
""fullscreenenter"",""1"",""6880""
","
","
","""event"",""trial"",""time""
""fullscreenenter"",""1"",""6880""
","
","","5237.330000003567","Once you select a card, it will turn over and you will see how many tokens you earned.","83","","instructions","2021-03-30 23:11:36.786","","","","","",""
"casino-keyboard-response","13","78683","0.0-8.0-0.2","226","true","img/card_backs/set1/red.gif","img/card_backs/set1/purple.gif","img/card_backs/set1/green.gif","img/card_backs/set1/yellow.gif","img/card_backs/set2/gray.gif","img/card_backs/set2/blue.gif","img/card_backs/set2/pink.gif","img/card_backs/set2/orange.gif","""event"",""trial"",""time""
""fullscreenenter"",""1"",""6880""
","
","
","""event"",""trial"",""time""
""fullscreenenter"",""1"",""6880""
","
","","14728.39999999269","Let's try practicing that! </br> First, try to put your fingers over the '2', '4', '6', and '8' keys. </br>  You can use whatever fingers are most comfortable for you. Try to find a comfortable position now. ","50","","instructions","2021-03-30 23:11:51.517","","","","","",""
"casino-keyboard-response","14","84537","0.0-8.0-0.3","226","true","img/card_backs/set1/red.gif","img/card_backs/set1/purple.gif","img/card_backs/set1/green.gif","img/card_backs/set1/yellow.gif","img/card_backs/set2/gray.gif","img/card_backs/set2/blue.gif","img/card_backs/set2/pink.gif","img/card_backs/set2/orange.gif","""event"",""trial"",""time""
""fullscreenenter"",""1"",""6880""
","
","
","""event"",""trial"",""time""
""fullscreenenter"",""1"",""6880""
","
","","5852.305000007618","Okay ready? </br> On the next screen, press '2' to select the left deck. ","50","","instructions","2021-03-30 23:11:57.371","","","","","",""
"card-selection-trial","15","87137","0.0-9.0-0.0","226","true","img/card_backs/set1/red.gif","img/card_backs/set1/purple.gif","img/card_backs/set1/green.gif","img/card_backs/set1/yellow.gif","img/card_backs/set2/gray.gif","img/card_backs/set2/blue.gif","img/card_backs/set2/pink.gif","img/card_backs/set2/orange.gif","""event"",""trial"",""time""
""fullscreenenter"",""1"",""6880""
","
","
","""event"",""trial"",""time""
""fullscreenenter"",""1"",""6880""
","
","","567.6950000051875","","","","practice_card_selection","2021-03-30 23:11:59.972","img/practice_cards/backs/black.gif","0","100","","",""
"casino-keyboard-response","16","88786","0.0-10.0-0.0","226","true","img/card_backs/set1/red.gif","img/card_backs/set1/purple.gif","img/card_backs/set1/green.gif","img/card_backs/set1/yellow.gif","img/card_backs/set2/gray.gif","img/card_backs/set2/blue.gif","img/card_backs/set2/pink.gif","img/card_backs/set2/orange.gif","""event"",""trial"",""time""
""fullscreenenter"",""1"",""6880""
","
","
","""event"",""trial"",""time""
""fullscreenenter"",""1"",""6880""
","
","","1646.6299999883631","Great! Now on the next screen, try pressing '6' to select the third deck.","54","","instructions","2021-03-30 23:12:01.620","","","","","",""
"card-selection-trial","17","91869","0.0-11.0-0.0","226","true","img/card_backs/set1/red.gif","img/card_backs/set1/purple.gif","img/card_backs/set1/green.gif","img/card_backs/set1/yellow.gif","img/card_backs/set2/gray.gif","img/card_backs/set2/blue.gif","img/card_backs/set2/pink.gif","img/card_backs/set2/orange.gif","""event"",""trial"",""time""
""fullscreenenter"",""1"",""6880""
","
","
","""event"",""trial"",""time""
""fullscreenenter"",""1"",""6880""
","
","","1063.945000001695","","","","practice_card_selection","2021-03-30 23:12:04.703","img/practice_cards/backs/dark_green.gif","2","-200","","",""
"casino-keyboard-response","18","94217","0.0-12.0-0.0","226","true","img/card_backs/set1/red.gif","img/card_backs/set1/purple.gif","img/card_backs/set1/green.gif","img/card_backs/set1/yellow.gif","img/card_backs/set2/gray.gif","img/card_backs/set2/blue.gif","img/card_backs/set2/pink.gif","img/card_backs/set2/orange.gif","""event"",""trial"",""time""
""fullscreenenter"",""1"",""6880""
","
","
","""event"",""trial"",""time""
""fullscreenenter"",""1"",""6880""
","
","","2346.6950000001816","Now on the next screen, try pressing '4' to select the second deck.","52","","instructions","2021-03-30 23:12:07.051","","","","","",""
"card-selection-trial","19","96809","0.0-13.0-0.0","226","true","img/card_backs/set1/red.gif","img/card_backs/set1/purple.gif","img/card_backs/set1/green.gif","img/card_backs/set1/yellow.gif","img/card_backs/set2/gray.gif","img/card_backs/set2/blue.gif","img/card_backs/set2/pink.gif","img/card_backs/set2/orange.gif","""event"",""trial"",""time""
""fullscreenenter"",""1"",""6880""
","
","
","""event"",""trial"",""time""
""fullscreenenter"",""1"",""6880""
","
","","580.3400000004331","","","","practice_card_selection","2021-03-30 23:12:09.643","img/practice_cards/backs/brown.gif","1","-100","","",""
"casino-keyboard-response","20","100429","0.0-14.0-0.0","226","true","img/card_backs/set1/red.gif","img/card_backs/set1/purple.gif","img/card_backs/set1/green.gif","img/card_backs/set1/yellow.gif","img/card_backs/set2/gray.gif","img/card_backs/set2/blue.gif","img/card_backs/set2/pink.gif","img/card_backs/set2/orange.gif","""event"",""trial"",""time""
""fullscreenenter"",""1"",""6880""
","
","
","""event"",""trial"",""time""
""fullscreenenter"",""1"",""6880""
","
","","3617.7450000104727","Finally, try pressing '8' to select the deck all the way on the right.","56","","instructions","2021-03-30 23:12:13.263","","","","","",""
"card-selection-trial","21","102776","0.0-15.0-0.0","226","true","img/card_backs/set1/red.gif","img/card_backs/set1/purple.gif","img/card_backs/set1/green.gif","img/card_backs/set1/yellow.gif","img/card_backs/set2/gray.gif","img/card_backs/set2/blue.gif","img/card_backs/set2/pink.gif","img/card_backs/set2/orange.gif","""event"",""trial"",""time""
""fullscreenenter"",""1"",""6880""
","
","
","""event"",""trial"",""time""
""fullscreenenter"",""1"",""6880""
","
","","340.4500000033295","","","","practice_card_selection","2021-03-30 23:12:15.610","img/practice_cards/backs/black.gif","3","100","","",""
"casino-keyboard-response","22","106647","0.0-16.0-0.0","226","true","img/card_backs/set1/red.gif","img/card_backs/set1/purple.gif","img/card_backs/set1/green.gif","img/card_backs/set1/yellow.gif","img/card_backs/set2/gray.gif","img/card_backs/set2/blue.gif","img/card_backs/set2/pink.gif","img/card_backs/set2/orange.gif","""event"",""trial"",""time""
""fullscreenenter"",""1"",""6880""
","
","
","""event"",""trial"",""time""
""fullscreenenter"",""1"",""6880""
","
","","3869.1150000086054","Great! It seems like you are getting the hang of this.","80","","instructions","2021-03-30 23:12:19.481","","","","","",""
"casino-keyboard-response","23","115450","0.0-16.0-0.1","226","true","img/card_backs/set1/red.gif","img/card_backs/set1/purple.gif","img/card_backs/set1/green.gif","img/card_backs/set1/yellow.gif","img/card_backs/set2/gray.gif","img/card_backs/set2/blue.gif","img/card_backs/set2/pink.gif","img/card_backs/set2/orange.gif","""event"",""trial"",""time""
""fullscreenenter"",""1"",""6880""
","
","
","""event"",""trial"",""time""
""fullscreenenter"",""1"",""6880""
","
","","8801.369999986491","You may have noticed that some cards will cause you to <b> win </b> tokens while other cards will cause you to <b> lose </b>  tokens.","70","","instructions","2021-03-30 23:12:28.284","","","","","",""
"casino-keyboard-response","24","124144","0.0-16.0-0.2","226","true","img/card_backs/set1/red.gif","img/card_backs/set1/purple.gif","img/card_backs/set1/green.gif","img/card_backs/set1/yellow.gif","img/card_backs/set2/gray.gif","img/card_backs/set2/blue.gif","img/card_backs/set2/pink.gif","img/card_backs/set2/orange.gif","""event"",""trial"",""time""
""fullscreenenter"",""1"",""6880""
","
","
","""event"",""trial"",""time""
""fullscreenenter"",""1"",""6880""
","
","","8691.730000005919","Each deck has a mix of cards that will cause you to win and lose tokens. </br> However, the cards in each colored deck are different.","73","","instructions","2021-03-30 23:12:36.978","","","","","",""
"casino-keyboard-response","25","132783","0.0-16.0-0.3","226","true","img/card_backs/set1/red.gif","img/card_backs/set1/purple.gif","img/card_backs/set1/green.gif","img/card_backs/set1/yellow.gif","img/card_backs/set2/gray.gif","img/card_backs/set2/blue.gif","img/card_backs/set2/pink.gif","img/card_backs/set2/orange.gif","""event"",""trial"",""time""
""fullscreenenter"",""1"",""6880""
","
","
","""event"",""trial"",""time""
""fullscreenenter"",""1"",""6880""
","
","","8636.484999995446","Some colored decks are luckier than others. </br> If you choose the lucky decks, you will earn more tokens than if you choose the unlucky decks.","69","","instructions","2021-03-30 23:12:45.617","","","","","",""
"casino-keyboard-response","26","139781","0.0-16.0-0.4","226","true","img/card_backs/set1/red.gif","img/card_backs/set1/purple.gif","img/card_backs/set1/green.gif","img/card_backs/set1/yellow.gif","img/card_backs/set2/gray.gif","img/card_backs/set2/blue.gif","img/card_backs/set2/pink.gif","img/card_backs/set2/orange.gif","""event"",""trial"",""time""
""fullscreenenter"",""1"",""6880""
","
","
","""event"",""trial"",""time""
""fullscreenenter"",""1"",""6880""
","
","","6996.140000002924","You should try to figure out which decks are lucky. </br> Then, try to choose the lucky decks so you can win the most tokens.","87","","instructions","2021-03-30 23:12:52.615","","","","","",""
"casino-keyboard-response","27","151297","0.0-16.0-0.5","226","true","img/card_backs/set1/red.gif","img/card_backs/set1/purple.gif","img/card_backs/set1/green.gif","img/card_backs/set1/yellow.gif","img/card_backs/set2/gray.gif","img/card_backs/set2/blue.gif","img/card_backs/set2/pink.gif","img/card_backs/set2/orange.gif","""event"",""trial"",""time""
""fullscreenenter"",""1"",""6880""
","
","
","""event"",""trial"",""time""
""fullscreenenter"",""1"",""6880""
","
","","11514.100000000326","To make it trickier, the casino dealer will switch the locations of the decks on every turn. </br> The color of the deck determines how lucky it is. The location does not matter.","88","","instructions","2021-03-30 23:13:04.131","","","","","",""
"casino-keyboard-response","28","160988","0.0-16.0-0.6","226","true","img/card_backs/set1/red.gif","img/card_backs/set1/purple.gif","img/card_backs/set1/green.gif","img/card_backs/set1/yellow.gif","img/card_backs/set2/gray.gif","img/card_backs/set2/blue.gif","img/card_backs/set2/pink.gif","img/card_backs/set2/orange.gif","""event"",""trial"",""time""
""fullscreenenter"",""1"",""6880""
","
","
","""event"",""trial"",""time""
""fullscreenenter"",""1"",""6880""
","
","","9688.634999998612","The mix of cards in each colored deck will stay the same throughout the game. </br> That means that a deck that is lucky early on will stay lucky.","79","","instructions","2021-03-30 23:13:13.822","","","","","",""
"casino-keyboard-response","29","169413","0.0-16.0-0.7","226","true","img/card_backs/set1/red.gif","img/card_backs/set1/purple.gif","img/card_backs/set1/green.gif","img/card_backs/set1/yellow.gif","img/card_backs/set2/gray.gif","img/card_backs/set2/blue.gif","img/card_backs/set2/pink.gif","img/card_backs/set2/orange.gif","""event"",""trial"",""time""
""fullscreenenter"",""1"",""6880""
","
","
","""event"",""trial"",""time""
""fullscreenenter"",""1"",""6880""
","
","","8421.39999999199","Remember though, all the decks have a <b> mix </b> of both <b> good </b> and <b> bad </b> cards so it may take a couple of turns to figure out if a deck is lucky.","69","","instructions","2021-03-30 23:13:22.247","","","","","",""
"casino-keyboard-response","30","177891","0.0-16.0-0.8","226","true","img/card_backs/set1/red.gif","img/card_backs/set1/purple.gif","img/card_backs/set1/green.gif","img/card_backs/set1/yellow.gif","img/card_backs/set2/gray.gif","img/card_backs/set2/blue.gif","img/card_backs/set2/pink.gif","img/card_backs/set2/orange.gif","""event"",""trial"",""time""
""fullscreenenter"",""1"",""6880""
","
","
","""event"",""trial"",""time""
""fullscreenenter"",""1"",""6880""
","
","","8475.949999992736","At the end of the game, you will be paid bonus money based on how many tokens you win. </br> If you win more tokens, you will earn more money!","72","","instructions","2021-03-30 23:13:30.725","","","","","",""
"casino-keyboard-response","31","188300","0.0-16.0-0.9","226","true","img/card_backs/set1/red.gif","img/card_backs/set1/purple.gif","img/card_backs/set1/green.gif","img/card_backs/set1/yellow.gif","img/card_backs/set2/gray.gif","img/card_backs/set2/blue.gif","img/card_backs/set2/pink.gif","img/card_backs/set2/orange.gif","""event"",""trial"",""time""
""fullscreenenter"",""1"",""6880""
","
","
","""event"",""trial"",""time""
""fullscreenenter"",""1"",""6880""
","
","","10406.940000000759","You will never <b> lose </b> money. </br> If you end up with fewer than 0 tokens, you will earn $0 of bonus money, but you will still be paid for playing the game.","83","","instructions","2021-03-30 23:13:41.134","","","","","",""
"casino-keyboard-response","32","192820","0.0-16.0-0.10","226","true","img/card_backs/set1/red.gif","img/card_backs/set1/purple.gif","img/card_backs/set1/green.gif","img/card_backs/set1/yellow.gif","img/card_backs/set2/gray.gif","img/card_backs/set2/blue.gif","img/card_backs/set2/pink.gif","img/card_backs/set2/orange.gif","""event"",""trial"",""time""
""fullscreenenter"",""1"",""6880""
","
","
","""event"",""trial"",""time""
""fullscreenenter"",""1"",""6880""
","
","","4506.439999997383","You will have 10 seconds to make each choice.","82","","instructions","2021-03-30 23:13:45.654","","","","","",""
"casino-keyboard-response","33","201039","0.0-16.0-0.11","226","true","img/card_backs/set1/red.gif","img/card_backs/set1/purple.gif","img/card_backs/set1/green.gif","img/card_backs/set1/yellow.gif","img/card_backs/set2/gray.gif","img/card_backs/set2/blue.gif","img/card_backs/set2/pink.gif","img/card_backs/set2/orange.gif","""event"",""trial"",""time""
""fullscreenenter"",""1"",""6880""
","
","
","""event"",""trial"",""time""
""fullscreenenter"",""1"",""6880""
","
","","8217.319999996107","Before you play the game for real, you will play with practice decks. </br> The tokens you earn during practice won't count toward your total.","86","","instructions","2021-03-30 23:13:53.873","","","","","",""
"casino-keyboard-response","34","204969","0.0-16.0-0.12","226","true","img/card_backs/set1/red.gif","img/card_backs/set1/purple.gif","img/card_backs/set1/green.gif","img/card_backs/set1/yellow.gif","img/card_backs/set2/gray.gif","img/card_backs/set2/blue.gif","img/card_backs/set2/pink.gif","img/card_backs/set2/orange.gif","""event"",""trial"",""time""
""fullscreenenter"",""1"",""6880""
","
","
","""event"",""trial"",""time""
""fullscreenenter"",""1"",""6880""
","
","","3928.1950000004144","Ready? Remember, use the '2', '4', '6', and '8' keys to select the decks. </br> Put your fingers on those keys now and then press '2' to begin.","50","","instructions","2021-03-30 23:13:57.803","","","","","",""
"casino-fixation","35","205475","0.0-17.0-0.0","226","true","img/card_backs/set1/red.gif","img/card_backs/set1/purple.gif","img/card_backs/set1/green.gif","img/card_backs/set1/yellow.gif","img/card_backs/set2/gray.gif","img/card_backs/set2/blue.gif","img/card_backs/set2/pink.gif","img/card_backs/set2/orange.gif","""event"",""trial"",""time""
""fullscreenenter"",""1"",""6880""
","
","
","""event"",""trial"",""time""
""fullscreenenter"",""1"",""6880""
","
","","null","","null","","fixation","2021-03-30 23:13:58.310","","","","","",""
"card-selection-trial","36","208387","0.0-17.0-1.0","226","true","img/card_backs/set1/red.gif","img/card_backs/set1/purple.gif","img/card_backs/set1/green.gif","img/card_backs/set1/yellow.gif","img/card_backs/set2/gray.gif","img/card_backs/set2/blue.gif","img/card_backs/set2/pink.gif","img/card_backs/set2/orange.gif","""event"",""trial"",""time""
""fullscreenenter"",""1"",""6880""
","
","
","""event"",""trial"",""time""
""fullscreenenter"",""1"",""6880""
","
","","901.5550000040093","","","","practice","2021-03-30 23:14:01.221","img/practice_cards/backs/dark_green.gif","0","200","0","",""
"casino-fixation","37","208890","0.0-17.0-0.1","226","true","img/card_backs/set1/red.gif","img/card_backs/set1/purple.gif","img/card_backs/set1/green.gif","img/card_backs/set1/yellow.gif","img/card_backs/set2/gray.gif","img/card_backs/set2/blue.gif","img/card_backs/set2/pink.gif","img/card_backs/set2/orange.gif","""event"",""trial"",""time""
""fullscreenenter"",""1"",""6880""
","
","
","""event"",""trial"",""time""
""fullscreenenter"",""1"",""6880""
","
","","null","","null","","fixation","2021-03-30 23:14:01.724","","","","","",""
"card-selection-trial","38","211606","0.0-17.0-1.1","226","true","img/card_backs/set1/red.gif","img/card_backs/set1/purple.gif","img/card_backs/set1/green.gif","img/card_backs/set1/yellow.gif","img/card_backs/set2/gray.gif","img/card_backs/set2/blue.gif","img/card_backs/set2/pink.gif","img/card_backs/set2/orange.gif","""event"",""trial"",""time""
""fullscreenenter"",""1"",""6880""
","
","
","""event"",""trial"",""time""
""fullscreenenter"",""1"",""6880""
","
","","708.8599999988219","","","","practice","2021-03-30 23:14:04.440","img/practice_cards/backs/dark_green.gif","0","200","0","",""
"casino-fixation","39","212107","0.0-17.0-0.2","226","true","img/card_backs/set1/red.gif","img/card_backs/set1/purple.gif","img/card_backs/set1/green.gif","img/card_backs/set1/yellow.gif","img/card_backs/set2/gray.gif","img/card_backs/set2/blue.gif","img/card_backs/set2/pink.gif","img/card_backs/set2/orange.gif","""event"",""trial"",""time""
""fullscreenenter"",""1"",""6880""
","
","
","""event"",""trial"",""time""
""fullscreenenter"",""1"",""6880""
","
","","null","","null","","fixation","2021-03-30 23:14:04.942","","","","","",""
"card-selection-trial","40","214586","0.0-17.0-1.2","226","true","img/card_backs/set1/red.gif","img/card_backs/set1/purple.gif","img/card_backs/set1/green.gif","img/card_backs/set1/yellow.gif","img/card_backs/set2/gray.gif","img/card_backs/set2/blue.gif","img/card_backs/set2/pink.gif","img/card_backs/set2/orange.gif","""event"",""trial"",""time""
""fullscreenenter"",""1"",""6880""
","
","
","""event"",""trial"",""time""
""fullscreenenter"",""1"",""6880""
","
","","471.11499999300577","","","","practice","2021-03-30 23:14:07.420","img/practice_cards/backs/brown.gif","0","-100","0","",""
"casino-fixation","41","215089","0.0-17.0-0.3","226","true","img/card_backs/set1/red.gif","img/card_backs/set1/purple.gif","img/card_backs/set1/green.gif","img/card_backs/set1/yellow.gif","img/card_backs/set2/gray.gif","img/card_backs/set2/blue.gif","img/card_backs/set2/pink.gif","img/card_backs/set2/orange.gif","""event"",""trial"",""time""
""fullscreenenter"",""1"",""6880""
","
","
","""event"",""trial"",""time""
""fullscreenenter"",""1"",""6880""
","
","","null","","null","","fixation","2021-03-30 23:14:07.923","","","","","",""
"card-selection-trial","42","217539","0.0-17.0-1.3","226","true","img/card_backs/set1/red.gif","img/card_backs/set1/purple.gif","img/card_backs/set1/green.gif","img/card_backs/set1/yellow.gif","img/card_backs/set2/gray.gif","img/card_backs/set2/blue.gif","img/card_backs/set2/pink.gif","img/card_backs/set2/orange.gif","""event"",""trial"",""time""
""fullscreenenter"",""1"",""6880""
","
","
","""event"",""trial"",""time""
""fullscreenenter"",""1"",""6880""
","
","","441.8299999961164","","","","practice","2021-03-30 23:14:10.373","img/practice_cards/backs/brown.gif","0","-100","0","",""
"casino-fixation","43","218044","0.0-17.0-0.4","226","true","img/card_backs/set1/red.gif","img/card_backs/set1/purple.gif","img/card_backs/set1/green.gif","img/card_backs/set1/yellow.gif","img/card_backs/set2/gray.gif","img/card_backs/set2/blue.gif","img/card_backs/set2/pink.gif","img/card_backs/set2/orange.gif","""event"",""trial"",""time""
""fullscreenenter"",""1"",""6880""
","
","
","""event"",""trial"",""time""
""fullscreenenter"",""1"",""6880""
","
","","null","","null","","fixation","2021-03-30 23:14:10.878","","","","","",""
"card-selection-trial","44","221463","0.0-17.0-1.4","226","true","img/card_backs/set1/red.gif","img/card_backs/set1/purple.gif","img/card_backs/set1/green.gif","img/card_backs/set1/yellow.gif","img/card_backs/set2/gray.gif","img/card_backs/set2/blue.gif","img/card_backs/set2/pink.gif","img/card_backs/set2/orange.gif","""event"",""trial"",""time""
""fullscreenenter"",""1"",""6880""
","
","
","""event"",""trial"",""time""
""fullscreenenter"",""1"",""6880""
","
","","1410.7199999998556","","","","practice","2021-03-30 23:14:14.297","img/practice_cards/backs/dark_blue.gif","1","-200","0","",""
"casino-fixation","45","221968","0.0-17.0-0.5","226","true","img/card_backs/set1/red.gif","img/card_backs/set1/purple.gif","img/card_backs/set1/green.gif","img/card_backs/set1/yellow.gif","img/card_backs/set2/gray.gif","img/card_backs/set2/blue.gif","img/card_backs/set2/pink.gif","img/card_backs/set2/orange.gif","""event"",""trial"",""time""
""fullscreenenter"",""1"",""6880""
","
","
","""event"",""trial"",""time""
""fullscreenenter"",""1"",""6880""
","
","","null","","null","","fixation","2021-03-30 23:14:14.802","","","","","",""
"card-selection-trial","46","225210","0.0-17.0-1.5","226","true","img/card_backs/set1/red.gif","img/card_backs/set1/purple.gif","img/card_backs/set1/green.gif","img/card_backs/set1/yellow.gif","img/card_backs/set2/gray.gif","img/card_backs/set2/blue.gif","img/card_backs/set2/pink.gif","img/card_backs/set2/orange.gif","""event"",""trial"",""time""
""fullscreenenter"",""1"",""6880""
","
","
","""event"",""trial"",""time""
""fullscreenenter"",""1"",""6880""
","
","","1231.0649999999441","","","","practice","2021-03-30 23:14:18.044","img/practice_cards/backs/dark_blue.gif","2","-200","0","",""
"casino-fixation","47","225715","0.0-17.0-0.6","226","true","img/card_backs/set1/red.gif","img/card_backs/set1/purple.gif","img/card_backs/set1/green.gif","img/card_backs/set1/yellow.gif","img/card_backs/set2/gray.gif","img/card_backs/set2/blue.gif","img/card_backs/set2/pink.gif","img/card_backs/set2/orange.gif","""event"",""trial"",""time""
""fullscreenenter"",""1"",""6880""
","
","
","""event"",""trial"",""time""
""fullscreenenter"",""1"",""6880""
","
","","null","","null","","fixation","2021-03-30 23:14:18.549","","","","","",""
"card-selection-trial","48","228017","0.0-17.0-1.6","226","true","img/card_backs/set1/red.gif","img/card_backs/set1/purple.gif","img/card_backs/set1/green.gif","img/card_backs/set1/yellow.gif","img/card_backs/set2/gray.gif","img/card_backs/set2/blue.gif","img/card_backs/set2/pink.gif","img/card_backs/set2/orange.gif","""event"",""trial"",""time""
""fullscreenenter"",""1"",""6880""
","
","
","""event"",""trial"",""time""
""fullscreenenter"",""1"",""6880""
","
","","294.97499999706633","","","","practice","2021-03-30 23:14:20.851","img/practice_cards/backs/dark_green.gif","3","-200","0","",""
"casino-fixation","49","228522","0.0-17.0-0.7","226","true","img/card_backs/set1/red.gif","img/card_backs/set1/purple.gif","img/card_backs/set1/green.gif","img/card_backs/set1/yellow.gif","img/card_backs/set2/gray.gif","img/card_backs/set2/blue.gif","img/card_backs/set2/pink.gif","img/card_backs/set2/orange.gif","""event"",""trial"",""time""
""fullscreenenter"",""1"",""6880""
","
","
","""event"",""trial"",""time""
""fullscreenenter"",""1"",""6880""
","
","","null","","null","","fixation","2021-03-30 23:14:21.356","","","","","",""
"card-selection-trial","50","230817","0.0-17.0-1.7","226","true","img/card_backs/set1/red.gif","img/card_backs/set1/purple.gif","img/card_backs/set1/green.gif","img/card_backs/set1/yellow.gif","img/card_backs/set2/gray.gif","img/card_backs/set2/blue.gif","img/card_backs/set2/pink.gif","img/card_backs/set2/orange.gif","""event"",""trial"",""time""
""fullscreenenter"",""1"",""6880""
","
","
","""event"",""trial"",""time""
""fullscreenenter"",""1"",""6880""
","
","","281.18499999982305","","","","practice","2021-03-30 23:14:23.652","img/practice_cards/backs/brown.gif","0","-100","0","",""
"casino-fixation","51","231320","0.0-17.0-0.8","226","true","img/card_backs/set1/red.gif","img/card_backs/set1/purple.gif","img/card_backs/set1/green.gif","img/card_backs/set1/yellow.gif","img/card_backs/set2/gray.gif","img/card_backs/set2/blue.gif","img/card_backs/set2/pink.gif","img/card_backs/set2/orange.gif","""event"",""trial"",""time""
""fullscreenenter"",""1"",""6880""
","
","
","""event"",""trial"",""time""
""fullscreenenter"",""1"",""6880""
","
","","null","","null","","fixation","2021-03-30 23:14:24.154","","","","","",""
"card-selection-trial","52","233822","0.0-17.0-1.8","226","true","img/card_backs/set1/red.gif","img/card_backs/set1/purple.gif","img/card_backs/set1/green.gif","img/card_backs/set1/yellow.gif","img/card_backs/set2/gray.gif","img/card_backs/set2/blue.gif","img/card_backs/set2/pink.gif","img/card_backs/set2/orange.gif","""event"",""trial"",""time""
""fullscreenenter"",""1"",""6880""
","
","
","""event"",""trial"",""time""
""fullscreenenter"",""1"",""6880""
","
","","490.78999999619555","","","","practice","2021-03-30 23:14:26.656","img/practice_cards/backs/black.gif","0","-100","0","",""
"casino-fixation","53","234327","0.0-17.0-0.9","226","true","img/card_backs/set1/red.gif","img/card_backs/set1/purple.gif","img/card_backs/set1/green.gif","img/card_backs/set1/yellow.gif","img/card_backs/set2/gray.gif","img/card_backs/set2/blue.gif","img/card_backs/set2/pink.gif","img/card_backs/set2/orange.gif","""event"",""trial"",""time""
""fullscreenenter"",""1"",""6880""
","
","
","""event"",""trial"",""time""
""fullscreenenter"",""1"",""6880""
","
","","null","","null","","fixation","2021-03-30 23:14:27.161","","","","","",""
"card-selection-trial","54","236855","0.0-17.0-1.9","226","true","img/card_backs/set1/red.gif","img/card_backs/set1/purple.gif","img/card_backs/set1/green.gif","img/card_backs/set1/yellow.gif","img/card_backs/set2/gray.gif","img/card_backs/set2/blue.gif","img/card_backs/set2/pink.gif","img/card_backs/set2/orange.gif","""event"",""trial"",""time""
""fullscreenenter"",""1"",""6880""
","
","
","""event"",""trial"",""time""
""fullscreenenter"",""1"",""6880""
","
","","519.4550000014715","","","","practice","2021-03-30 23:14:29.689","img/practice_cards/backs/black.gif","0","100","0","",""
"casino-keyboard-response","55","240607","0.0-18.0","226","true","img/card_backs/set1/red.gif","img/card_backs/set1/purple.gif","img/card_backs/set1/green.gif","img/card_backs/set1/yellow.gif","img/card_backs/set2/gray.gif","img/card_backs/set2/blue.gif","img/card_backs/set2/pink.gif","img/card_backs/set2/orange.gif","""event"",""trial"",""time""
""fullscreenenter"",""1"",""6880""
","
","
","""event"",""trial"",""time""
""fullscreenenter"",""1"",""6880""
","
","","3750.625000000582","You earned -500 tokens during the practice round!","75","","","2021-03-30 23:14:33.441","","","","","",""
"casino-keyboard-response","56","245648","0.0-19.0-0.0","226","true","img/card_backs/set1/red.gif","img/card_backs/set1/purple.gif","img/card_backs/set1/green.gif","img/card_backs/set1/yellow.gif","img/card_backs/set2/gray.gif","img/card_backs/set2/blue.gif","img/card_backs/set2/pink.gif","img/card_backs/set2/orange.gif","""event"",""trial"",""time""
""fullscreenenter"",""1"",""6880""
","
","
","""event"",""trial"",""time""
""fullscreenenter"",""1"",""6880""
","
","","5039.124999995693","Nice job! You are almost ready to play the real game.","86","","instructions","2021-03-30 23:14:38.482","","","","","",""
"casino-keyboard-response","57","252211","0.0-19.0-0.1","226","true","img/card_backs/set1/red.gif","img/card_backs/set1/purple.gif","img/card_backs/set1/green.gif","img/card_backs/set1/yellow.gif","img/card_backs/set2/gray.gif","img/card_backs/set2/blue.gif","img/card_backs/set2/pink.gif","img/card_backs/set2/orange.gif","""event"",""trial"",""time""
""fullscreenenter"",""1"",""6880""
","
","
","""event"",""trial"",""time""
""fullscreenenter"",""1"",""6880""
","
","","6560.839999991003","You will play two rounds of the real game. In each round, you will pick 100 cards in total.","73","","instructions","2021-03-30 23:14:45.045","","","","","",""
"casino-keyboard-response","58","256162","0.0-19.0-0.2","226","true","img/card_backs/set1/red.gif","img/card_backs/set1/purple.gif","img/card_backs/set1/green.gif","img/card_backs/set1/yellow.gif","img/card_backs/set2/gray.gif","img/card_backs/set2/blue.gif","img/card_backs/set2/pink.gif","img/card_backs/set2/orange.gif","""event"",""trial"",""time""
""fullscreenenter"",""1"",""6880""
","
","
","""event"",""trial"",""time""
""fullscreenenter"",""1"",""6880""
","
","","3949.625000008382","We are now going to ask you some questions about how the game works.","66","","instructions","2021-03-30 23:14:48.996","","","","","",""
"casino-keyboard-response","59","262243","0.0-19.0-0.3","226","true","img/card_backs/set1/red.gif","img/card_backs/set1/purple.gif","img/card_backs/set1/green.gif","img/card_backs/set1/yellow.gif","img/card_backs/set2/gray.gif","img/card_backs/set2/blue.gif","img/card_backs/set2/pink.gif","img/card_backs/set2/orange.gif","""event"",""trial"",""time""
""fullscreenenter"",""1"",""6880""
","
","
","""event"",""trial"",""time""
""fullscreenenter"",""1"",""6880""
","
","","6079.234999997425","Answer carefully. You will not be able to begin the game until you answer them correctly.","67","","instructions","2021-03-30 23:14:55.077","","","","","",""
"casino-comp_q","60","267481","0.0-20.0-0.0","226","true","img/card_backs/set1/red.gif","img/card_backs/set1/purple.gif","img/card_backs/set1/green.gif","img/card_backs/set1/yellow.gif","img/card_backs/set2/gray.gif","img/card_backs/set2/blue.gif","img/card_backs/set2/pink.gif","img/card_backs/set2/orange.gif","""event"",""trial"",""time""
""fullscreenenter"",""1"",""6880""
","
","
","""event"",""trial"",""time""
""fullscreenenter"",""1"",""6880""
","
","","5235.37499998929","True or False: All the decks have some cards that cause you to win tokens and some cards that cause you to lose tokens.","84","","","2021-03-30 23:15:00.315","","","","","",""
"casino-keyboard-response","61","271818","0.0-20.0-1.0","226","true","img/card_backs/set1/red.gif","img/card_backs/set1/purple.gif","img/card_backs/set1/green.gif","img/card_backs/set1/yellow.gif","img/card_backs/set2/gray.gif","img/card_backs/set2/blue.gif","img/card_backs/set2/pink.gif","img/card_backs/set2/orange.gif","""event"",""trial"",""time""
""fullscreenenter"",""1"",""6880""
","
","
","""event"",""trial"",""time""
""fullscreenenter"",""1"",""6880""
","
","","4334.52999999281","True is correct! All the decks have a mix of winning and losing cards.","77","","","2021-03-30 23:15:04.653","","","","","true",""
"casino-comp_q","62","275597","0.0-21.0-0.0","226","true","img/card_backs/set1/red.gif","img/card_backs/set1/purple.gif","img/card_backs/set1/green.gif","img/card_backs/set1/yellow.gif","img/card_backs/set2/gray.gif","img/card_backs/set2/blue.gif","img/card_backs/set2/pink.gif","img/card_backs/set2/orange.gif","""event"",""trial"",""time""
""fullscreenenter"",""1"",""6880""
","
","
","""event"",""trial"",""time""
""fullscreenenter"",""1"",""6880""
","
","","3773.4350000100676","True or False: You will have as much time as you want to make your response.","70","","","2021-03-30 23:15:08.431","","","","","",""
"casino-keyboard-response","63","279174","0.0-21.0-1.0","226","true","img/card_backs/set1/red.gif","img/card_backs/set1/purple.gif","img/card_backs/set1/green.gif","img/card_backs/set1/yellow.gif","img/card_backs/set2/gray.gif","img/card_backs/set2/blue.gif","img/card_backs/set2/pink.gif","img/card_backs/set2/orange.gif","""event"",""trial"",""time""
""fullscreenenter"",""1"",""6880""
","
","
","""event"",""trial"",""time""
""fullscreenenter"",""1"",""6880""
","
","","3574.8250000033295","False is correct! You will only have 10 seconds to make each choice.","75","","","2021-03-30 23:15:12.008","","","","","true",""
"casino-comp_q","64","282349","0.0-22.0-0.0","226","true","img/card_backs/set1/red.gif","img/card_backs/set1/purple.gif","img/card_backs/set1/green.gif","img/card_backs/set1/yellow.gif","img/card_backs/set2/gray.gif","img/card_backs/set2/blue.gif","img/card_backs/set2/pink.gif","img/card_backs/set2/orange.gif","""event"",""trial"",""time""
""fullscreenenter"",""1"",""6880""
","
","
","""event"",""trial"",""time""
""fullscreenenter"",""1"",""6880""
","
","","3172.8149999980815","True or False: The location of the deck determines how lucky it is.","70","","","2021-03-30 23:15:15.184","","","","","",""
"casino-keyboard-response","65","285962","0.0-22.0-1.0","226","true","img/card_backs/set1/red.gif","img/card_backs/set1/purple.gif","img/card_backs/set1/green.gif","img/card_backs/set1/yellow.gif","img/card_backs/set2/gray.gif","img/card_backs/set2/blue.gif","img/card_backs/set2/pink.gif","img/card_backs/set2/orange.gif","""event"",""trial"",""time""
""fullscreenenter"",""1"",""6880""
","
","
","""event"",""trial"",""time""
""fullscreenenter"",""1"",""6880""
","
","","3611.2149999971734","False is correct! The <i>color</i>  of the deck determines how lucky or unlucky it is.","68","","","2021-03-30 23:15:18.796","","","","","true",""
"casino-keyboard-response","66","309296","0.0-23.0-0.0","226","true","img/card_backs/set1/red.gif","img/card_backs/set1/purple.gif","img/card_backs/set1/green.gif","img/card_backs/set1/yellow.gif","img/card_backs/set2/gray.gif","img/card_backs/set2/blue.gif","img/card_backs/set2/pink.gif","img/card_backs/set2/orange.gif","""event"",""trial"",""time""
""fullscreenenter"",""1"",""6880""
","
","
","""event"",""trial"",""time""
""fullscreenenter"",""1"",""6880""
","
","","23330.589999997756","Great job! Now it's time to start the real game.","82","","instructions","2021-03-30 23:15:42.130","","","","","",""
"casino-keyboard-response","67","314427","0.0-23.0-0.1","226","true","img/card_backs/set1/red.gif","img/card_backs/set1/purple.gif","img/card_backs/set1/green.gif","img/card_backs/set1/yellow.gif","img/card_backs/set2/gray.gif","img/card_backs/set2/blue.gif","img/card_backs/set2/pink.gif","img/card_backs/set2/orange.gif","""event"",""trial"",""time""
""fullscreenenter"",""1"",""6880""
","
","
","""event"",""trial"",""time""
""fullscreenenter"",""1"",""6880""
","
","","5129.109999994398","Before we start, we're going to head into a new room of the casino.","86","","instructions","2021-03-30 23:15:47.261","","","","","",""
"casino-keyboard-response","68","322282","0.0-24.0-0.0","226","true","img/card_backs/set1/red.gif","img/card_backs/set1/purple.gif","img/card_backs/set1/green.gif","img/card_backs/set1/yellow.gif","img/card_backs/set2/gray.gif","img/card_backs/set2/blue.gif","img/card_backs/set2/pink.gif","img/card_backs/set2/orange.gif","""event"",""trial"",""time""
""fullscreenenter"",""1"",""6880""
","
","
","""event"",""trial"",""time""
""fullscreenenter"",""1"",""6880""
","
","","7852.400000003399","Here we are! The real game will use different cards, but the rules will be the same.","71","","instructions","2021-03-30 23:15:55.116","","","","","",""
"casino-keyboard-response","69","331078","0.0-24.0-0.1","226","true","img/card_backs/set1/red.gif","img/card_backs/set1/purple.gif","img/card_backs/set1/green.gif","img/card_backs/set1/yellow.gif","img/card_backs/set2/gray.gif","img/card_backs/set2/blue.gif","img/card_backs/set2/pink.gif","img/card_backs/set2/orange.gif","""event"",""trial"",""time""
""fullscreenenter"",""1"",""6880""
","
","
","""event"",""trial"",""time""
""fullscreenenter"",""1"",""6880""
","
","","8793.819999991683","Ready? Put your fingers over the '2', '4', 6', and '8' keys so you are ready to play the game. </br> Then press 2 to start.","50","","instructions","2021-03-30 23:16:03.912","","","","","",""
"casino-fixation","70","331580","0.0-25.0-0.0","226","true","img/card_backs/set1/red.gif","img/card_backs/set1/purple.gif","img/card_backs/set1/green.gif","img/card_backs/set1/yellow.gif","img/card_backs/set2/gray.gif","img/card_backs/set2/blue.gif","img/card_backs/set2/pink.gif","img/card_backs/set2/orange.gif","""event"",""trial"",""time""
""fullscreenenter"",""1"",""6880""
","
","
","""event"",""trial"",""time""
""fullscreenenter"",""1"",""6880""
","
","","null","","null","","fixation","2021-03-30 23:16:04.414","","","","","",""
"card-selection-trial","71","334442","0.0-25.0-1.0","226","true","img/card_backs/set1/red.gif","img/card_backs/set1/purple.gif","img/card_backs/set1/green.gif","img/card_backs/set1/yellow.gif","img/card_backs/set2/gray.gif","img/card_backs/set2/blue.gif","img/card_backs/set2/pink.gif","img/card_backs/set2/orange.gif","""event"",""trial"",""time""
""fullscreenenter"",""1"",""6880""
","
","
","""event"",""trial"",""time""
""fullscreenenter"",""1"",""6880""
","
","","844.9049999908311","","","","real_trial","2021-03-30 23:16:07.276","img/card_backs/set1/green.gif","0","60","1","",""
"casino-fixation","72","334944","0.0-25.0-0.1","226","true","img/card_backs/set1/red.gif","img/card_backs/set1/purple.gif","img/card_backs/set1/green.gif","img/card_backs/set1/yellow.gif","img/card_backs/set2/gray.gif","img/card_backs/set2/blue.gif","img/card_backs/set2/pink.gif","img/card_backs/set2/orange.gif","""event"",""trial"",""time""
""fullscreenenter"",""1"",""6880""
","
","
","""event"",""trial"",""time""
""fullscreenenter"",""1"",""6880""
","
","","null","","null","","fixation","2021-03-30 23:16:07.778","","","","","",""
"card-selection-trial","73","338648","0.0-25.0-1.1","226","true","img/card_backs/set1/red.gif","img/card_backs/set1/purple.gif","img/card_backs/set1/green.gif","img/card_backs/set1/yellow.gif","img/card_backs/set2/gray.gif","img/card_backs/set2/blue.gif","img/card_backs/set2/pink.gif","img/card_backs/set2/orange.gif","""event"",""trial"",""time""
""fullscreenenter"",""1"",""6880""
","
","
","""event"",""trial"",""time""
""fullscreenenter"",""1"",""6880""
","
","","1693.2399999932386","","","","real_trial","2021-03-30 23:16:11.482","img/card_backs/set1/green.gif","2","-110","1","",""
"casino-fixation","74","339153","0.0-25.0-0.2","226","true","img/card_backs/set1/red.gif","img/card_backs/set1/purple.gif","img/card_backs/set1/green.gif","img/card_backs/set1/yellow.gif","img/card_backs/set2/gray.gif","img/card_backs/set2/blue.gif","img/card_backs/set2/pink.gif","img/card_backs/set2/orange.gif","""event"",""trial"",""time""
""fullscreenenter"",""1"",""6880""
","
","
","""event"",""trial"",""time""
""fullscreenenter"",""1"",""6880""
","
","","null","","null","","fixation","2021-03-30 23:16:11.987","","","","","",""
"card-selection-trial","75","343368","0.0-25.0-1.2","226","true","img/card_backs/set1/red.gif","img/card_backs/set1/purple.gif","img/card_backs/set1/green.gif","img/card_backs/set1/yellow.gif","img/card_backs/set2/gray.gif","img/card_backs/set2/blue.gif","img/card_backs/set2/pink.gif","img/card_backs/set2/orange.gif","""event"",""trial"",""time""
""fullscreenenter"",""1"",""6880""
","
","
","""event"",""trial"",""time""
""fullscreenenter"",""1"",""6880""
","
","","2204.5800000050804","","","","real_trial","2021-03-30 23:16:16.202","img/card_backs/set1/red.gif","1","250","1","",""
"casino-fixation","76","343874","0.0-25.0-0.3","226","true","img/card_backs/set1/red.gif","img/card_backs/set1/purple.gif","img/card_backs/set1/green.gif","img/card_backs/set1/yellow.gif","img/card_backs/set2/gray.gif","img/card_backs/set2/blue.gif","img/card_backs/set2/pink.gif","img/card_backs/set2/orange.gif","""event"",""trial"",""time""
""fullscreenenter"",""1"",""6880""
","
","
","""event"",""trial"",""time""
""fullscreenenter"",""1"",""6880""
","
","","null","","null","","fixation","2021-03-30 23:16:16.708","","","","","",""
"card-selection-trial","77","347123","0.0-25.0-1.3","226","true","img/card_backs/set1/red.gif","img/card_backs/set1/purple.gif","img/card_backs/set1/green.gif","img/card_backs/set1/yellow.gif","img/card_backs/set2/gray.gif","img/card_backs/set2/blue.gif","img/card_backs/set2/pink.gif","img/card_backs/set2/orange.gif","""event"",""trial"",""time""
""fullscreenenter"",""1"",""6880""
","
","
","""event"",""trial"",""time""
""fullscreenenter"",""1"",""6880""
","
","","1237.4449999915669","","","","real_trial","2021-03-30 23:16:19.958","img/card_backs/set1/red.gif","2","240","1","",""
"casino-fixation","78","347628","0.0-25.0-0.4","226","true","img/card_backs/set1/red.gif","img/card_backs/set1/purple.gif","img/card_backs/set1/green.gif","img/card_backs/set1/yellow.gif","img/card_backs/set2/gray.gif","img/card_backs/set2/blue.gif","img/card_backs/set2/pink.gif","img/card_backs/set2/orange.gif","""event"",""trial"",""time""
""fullscreenenter"",""1"",""6880""
","
","
","""event"",""trial"",""time""
""fullscreenenter"",""1"",""6880""
","
","","null","","null","","fixation","2021-03-30 23:16:20.463","","","","","",""
"card-selection-trial","79","352830","0.0-25.0-1.4","226","true","img/card_backs/set1/red.gif","img/card_backs/set1/purple.gif","img/card_backs/set1/green.gif","img/card_backs/set1/yellow.gif","img/card_backs/set2/gray.gif","img/card_backs/set2/blue.gif","img/card_backs/set2/pink.gif","img/card_backs/set2/orange.gif","""event"",""trial"",""time""
""fullscreenenter"",""1"",""6880""
","
","
","""event"",""trial"",""time""
""fullscreenenter"",""1"",""6880""
","
","","3190.7700000010664","","","","real_trial","2021-03-30 23:16:25.664","img/card_backs/set1/yellow.gif","1","50","1","",""
"casino-fixation","80","353335","0.0-25.0-0.5","226","true","img/card_backs/set1/red.gif","img/card_backs/set1/purple.gif","img/card_backs/set1/green.gif","img/card_backs/set1/yellow.gif","img/card_backs/set2/gray.gif","img/card_backs/set2/blue.gif","img/card_backs/set2/pink.gif","img/card_backs/set2/orange.gif","""event"",""trial"",""time""
""fullscreenenter"",""1"",""6880""
","
","
","""event"",""trial"",""time""
""fullscreenenter"",""1"",""6880""
","
","","null","","null","","fixation","2021-03-30 23:16:26.169","","","","","",""
"card-selection-trial","81","356180","0.0-25.0-1.5","226","true","img/card_backs/set1/red.gif","img/card_backs/set1/purple.gif","img/card_backs/set1/green.gif","img/card_backs/set1/yellow.gif","img/card_backs/set2/gray.gif","img/card_backs/set2/blue.gif","img/card_backs/set2/pink.gif","img/card_backs/set2/orange.gif","""event"",""trial"",""time""
""fullscreenenter"",""1"",""6880""
","
","
","""event"",""trial"",""time""
""fullscreenenter"",""1"",""6880""
","
","","837.4099999928148","","","","real_trial","2021-03-30 23:16:29.014","img/card_backs/set1/yellow.gif","1","-90","1","",""
"casino-fixation","82","356684","0.0-25.0-0.6","226","true","img/card_backs/set1/red.gif","img/card_backs/set1/purple.gif","img/card_backs/set1/green.gif","img/card_backs/set1/yellow.gif","img/card_backs/set2/gray.gif","img/card_backs/set2/blue.gif","img/card_backs/set2/pink.gif","img/card_backs/set2/orange.gif","""event"",""trial"",""time""
""fullscreenenter"",""1"",""6880""
","
","
","""event"",""trial"",""time""
""fullscreenenter"",""1"",""6880""
","
","","null","","null","","fixation","2021-03-30 23:16:29.519","","","","","",""
"card-selection-trial","83","361015","0.0-25.0-1.6","226","true","img/card_backs/set1/red.gif","img/card_backs/set1/purple.gif","img/card_backs/set1/green.gif","img/card_backs/set1/yellow.gif","img/card_backs/set2/gray.gif","img/card_backs/set2/blue.gif","img/card_backs/set2/pink.gif","img/card_backs/set2/orange.gif","""event"",""trial"",""time""
""fullscreenenter"",""1"",""6880""
","
","
","""event"",""trial"",""time""
""fullscreenenter"",""1"",""6880""
","
","","2318.9449999917997","","","","real_trial","2021-03-30 23:16:33.849","img/card_backs/set1/purple.gif","1","-200","1","",""
"casino-fixation","84","361520","0.0-25.0-0.7","226","true","img/card_backs/set1/red.gif","img/card_backs/set1/purple.gif","img/card_backs/set1/green.gif","img/card_backs/set1/yellow.gif","img/card_backs/set2/gray.gif","img/card_backs/set2/blue.gif","img/card_backs/set2/pink.gif","img/card_backs/set2/orange.gif","""event"",""trial"",""time""
""fullscreenenter"",""1"",""6880""
","
","
","""event"",""trial"",""time""
""fullscreenenter"",""1"",""6880""
","
","","null","","null","","fixation","2021-03-30 23:16:34.354","","","","","",""
"card-selection-trial","85","365556","0.0-25.0-1.7","226","true","img/card_backs/set1/red.gif","img/card_backs/set1/purple.gif","img/card_backs/set1/green.gif","img/card_backs/set1/yellow.gif","img/card_backs/set2/gray.gif","img/card_backs/set2/blue.gif","img/card_backs/set2/pink.gif","img/card_backs/set2/orange.gif","""event"",""trial"",""time""
""fullscreenenter"",""1"",""6880""
","
","
","""event"",""trial"",""time""
""fullscreenenter"",""1"",""6880""
","
","","2023.540000009234","","","","real_trial","2021-03-30 23:16:38.390","img/card_backs/set1/purple.gif","0","-200","1","",""
"casino-fixation","86","366061","0.0-25.0-0.8","226","true","img/card_backs/set1/red.gif","img/card_backs/set1/purple.gif","img/card_backs/set1/green.gif","img/card_backs/set1/yellow.gif","img/card_backs/set2/gray.gif","img/card_backs/set2/blue.gif","img/card_backs/set2/pink.gif","img/card_backs/set2/orange.gif","""event"",""trial"",""time""
""fullscreenenter"",""1"",""6880""
","
","
","""event"",""trial"",""time""
""fullscreenenter"",""1"",""6880""
","
","","null","","null","","fixation","2021-03-30 23:16:38.895","","","","","",""
"card-selection-trial","87","369096","0.0-25.0-1.8","226","true","img/card_backs/set1/red.gif","img/card_backs/set1/purple.gif","img/card_backs/set1/green.gif","img/card_backs/set1/yellow.gif","img/card_backs/set2/gray.gif","img/card_backs/set2/blue.gif","img/card_backs/set2/pink.gif","img/card_backs/set2/orange.gif","""event"",""trial"",""time""
""fullscreenenter"",""1"",""6880""
","
","
","""event"",""trial"",""time""
""fullscreenenter"",""1"",""6880""
","
","","1025.854999999865","","","","real_trial","2021-03-30 23:16:41.931","img/card_backs/set1/green.gif","0","-90","1","",""
"casino-fixation","88","369599","0.0-25.0-0.9","226","true","img/card_backs/set1/red.gif","img/card_backs/set1/purple.gif","img/card_backs/set1/green.gif","img/card_backs/set1/yellow.gif","img/card_backs/set2/gray.gif","img/card_backs/set2/blue.gif","img/card_backs/set2/pink.gif","img/card_backs/set2/orange.gif","""event"",""trial"",""time""
""fullscreenenter"",""1"",""6880""
","
","
","""event"",""trial"",""time""
""fullscreenenter"",""1"",""6880""
","
","","null","","null","","fixation","2021-03-30 23:16:42.433","","","","","",""
"card-selection-trial","89","372696","0.0-25.0-1.9","226","true","img/card_backs/set1/red.gif","img/card_backs/set1/purple.gif","img/card_backs/set1/green.gif","img/card_backs/set1/yellow.gif","img/card_backs/set2/gray.gif","img/card_backs/set2/blue.gif","img/card_backs/set2/pink.gif","img/card_backs/set2/orange.gif","""event"",""trial"",""time""
""fullscreenenter"",""1"",""6880""
","
","
","""event"",""trial"",""time""
""fullscreenenter"",""1"",""6880""
","
","","1087.470000013127","","","","real_trial","2021-03-30 23:16:45.530","img/card_backs/set1/green.gif","2","-110","1","",""
"casino-fixation","90","373201","0.0-25.0-0.10","226","true","img/card_backs/set1/red.gif","img/card_backs/set1/purple.gif","img/card_backs/set1/green.gif","img/card_backs/set1/yellow.gif","img/card_backs/set2/gray.gif","img/card_backs/set2/blue.gif","img/card_backs/set2/pink.gif","img/card_backs/set2/orange.gif","""event"",""trial"",""time""
""fullscreenenter"",""1"",""6880""
","
","
","""event"",""trial"",""time""
""fullscreenenter"",""1"",""6880""
","
","","null","","null","","fixation","2021-03-30 23:16:46.035","","","","","",""
"card-selection-trial","91","376539","0.0-25.0-1.10","226","true","img/card_backs/set1/red.gif","img/card_backs/set1/purple.gif","img/card_backs/set1/green.gif","img/card_backs/set1/yellow.gif","img/card_backs/set2/gray.gif","img/card_backs/set2/blue.gif","img/card_backs/set2/pink.gif","img/card_backs/set2/orange.gif","""event"",""trial"",""time""
""fullscreenenter"",""1"",""6880""
","
","
","""event"",""trial"",""time""
""fullscreenenter"",""1"",""6880""
","
","","1330.0250000029337","","","","real_trial","2021-03-30 23:16:49.374","img/card_backs/set1/green.gif","1","-90","1","",""
"casino-fixation","92","377046","0.0-25.0-0.11","226","true","img/card_backs/set1/red.gif","img/card_backs/set1/purple.gif","img/card_backs/set1/green.gif","img/card_backs/set1/yellow.gif","img/card_backs/set2/gray.gif","img/card_backs/set2/blue.gif","img/card_backs/set2/pink.gif","img/card_backs/set2/orange.gif","""event"",""trial"",""time""
""fullscreenenter"",""1"",""6880""
","
","
","""event"",""trial"",""time""
""fullscreenenter"",""1"",""6880""
","
","","null","","null","","fixation","2021-03-30 23:16:49.880","","","","","",""
"card-selection-trial","93","380313","0.0-25.0-1.11","226","true","img/card_backs/set1/red.gif","img/card_backs/set1/purple.gif","img/card_backs/set1/green.gif","img/card_backs/set1/yellow.gif","img/card_backs/set2/gray.gif","img/card_backs/set2/blue.gif","img/card_backs/set2/pink.gif","img/card_backs/set2/orange.gif","""event"",""trial"",""time""
""fullscreenenter"",""1"",""6880""
","
","
","""event"",""trial"",""time""
""fullscreenenter"",""1"",""6880""
","
","","1257.804999986547","","","","real_trial","2021-03-30 23:16:53.147","img/card_backs/set1/yellow.gif","0","60","1","",""
"casino-fixation","94","380818","0.0-25.0-0.12","226","true","img/card_backs/set1/red.gif","img/card_backs/set1/purple.gif","img/card_backs/set1/green.gif","img/card_backs/set1/yellow.gif","img/card_backs/set2/gray.gif","img/card_backs/set2/blue.gif","img/card_backs/set2/pink.gif","img/card_backs/set2/orange.gif","""event"",""trial"",""time""
""fullscreenenter"",""1"",""6880""
","
","
","""event"",""trial"",""time""
""fullscreenenter"",""1"",""6880""
","
","","null","","null","","fixation","2021-03-30 23:16:53.652","","","","","",""
"card-selection-trial","95","384034","0.0-25.0-1.12","226","true","img/card_backs/set1/red.gif","img/card_backs/set1/purple.gif","img/card_backs/set1/green.gif","img/card_backs/set1/yellow.gif","img/card_backs/set2/gray.gif","img/card_backs/set2/blue.gif","img/card_backs/set2/pink.gif","img/card_backs/set2/orange.gif","""event"",""trial"",""time""
""fullscreenenter"",""1"",""6880""
","
","
","""event"",""trial"",""time""
""fullscreenenter"",""1"",""6880""
","
","","1204.4299999979557","","","","real_trial","2021-03-30 23:16:56.868","img/card_backs/set1/yellow.gif","2","-110","1","",""
"casino-fixation","96","384539","0.0-25.0-0.13","226","true","img/card_backs/set1/red.gif","img/card_backs/set1/purple.gif","img/card_backs/set1/green.gif","img/card_backs/set1/yellow.gif","img/card_backs/set2/gray.gif","img/card_backs/set2/blue.gif","img/card_backs/set2/pink.gif","img/card_backs/set2/orange.gif","""event"",""trial"",""time""
""fullscreenenter"",""1"",""6880""
","
","
","""event"",""trial"",""time""
""fullscreenenter"",""1"",""6880""
","
","","null","","null","","fixation","2021-03-30 23:16:57.373","","","","","",""
"card-selection-trial","97","387457","0.0-25.0-1.13","226","true","img/card_backs/set1/red.gif","img/card_backs/set1/purple.gif","img/card_backs/set1/green.gif","img/card_backs/set1/yellow.gif","img/card_backs/set2/gray.gif","img/card_backs/set2/blue.gif","img/card_backs/set2/pink.gif","img/card_backs/set2/orange.gif","""event"",""trial"",""time""
""fullscreenenter"",""1"",""6880""
","
","
","""event"",""trial"",""time""
""fullscreenenter"",""1"",""6880""
","
","","908.6300000053598","","","","real_trial","2021-03-30 23:17:00.292","img/card_backs/set1/green.gif","0","50","1","",""
"casino-fixation","98","387963","0.0-25.0-0.14","226","true","img/card_backs/set1/red.gif","img/card_backs/set1/purple.gif","img/card_backs/set1/green.gif","img/card_backs/set1/yellow.gif","img/card_backs/set2/gray.gif","img/card_backs/set2/blue.gif","img/card_backs/set2/pink.gif","img/card_backs/set2/orange.gif","""event"",""trial"",""time""
""fullscreenenter"",""1"",""6880""
","
","
","""event"",""trial"",""time""
""fullscreenenter"",""1"",""6880""
","
","","null","","null","","fixation","2021-03-30 23:17:00.798","","","","","",""
"card-selection-trial","99","391122","0.0-25.0-1.14","226","true","img/card_backs/set1/red.gif","img/card_backs/set1/purple.gif","img/card_backs/set1/green.gif","img/card_backs/set1/yellow.gif","img/card_backs/set2/gray.gif","img/card_backs/set2/blue.gif","img/card_backs/set2/pink.gif","img/card_backs/set2/orange.gif","""event"",""trial"",""time""
""fullscreenenter"",""1"",""6880""
","
","
","""event"",""trial"",""time""
""fullscreenenter"",""1"",""6880""
","
","","1148.8200000021607","","","","real_trial","2021-03-30 23:17:03.956","img/card_backs/set1/red.gif","2","-210","1","",""
"casino-fixation","100","391624","0.0-25.0-0.15","226","true","img/card_backs/set1/red.gif","img/card_backs/set1/purple.gif","img/card_backs/set1/green.gif","img/card_backs/set1/yellow.gif","img/card_backs/set2/gray.gif","img/card_backs/set2/blue.gif","img/card_backs/set2/pink.gif","img/card_backs/set2/orange.gif","""event"",""trial"",""time""
""fullscreenenter"",""1"",""6880""
","
","
","""event"",""trial"",""time""
""fullscreenenter"",""1"",""6880""
","
","","null","","null","","fixation","2021-03-30 23:17:04.458","","","","","",""
"card-selection-trial","101","394263","0.0-25.0-1.15","226","true","img/card_backs/set1/red.gif","img/card_backs/set1/purple.gif","img/card_backs/set1/green.gif","img/card_backs/set1/yellow.gif","img/card_backs/set2/gray.gif","img/card_backs/set2/blue.gif","img/card_backs/set2/pink.gif","img/card_backs/set2/orange.gif","""event"",""trial"",""time""
""fullscreenenter"",""1"",""6880""
","
","
","""event"",""trial"",""time""
""fullscreenenter"",""1"",""6880""
","
","","627.9300000023795","","","","real_trial","2021-03-30 23:17:07.097","img/card_backs/set1/red.gif","0","-210","1","",""
"casino-fixation","102","394766","0.0-25.0-0.16","226","true","img/card_backs/set1/red.gif","img/card_backs/set1/purple.gif","img/card_backs/set1/green.gif","img/card_backs/set1/yellow.gif","img/card_backs/set2/gray.gif","img/card_backs/set2/blue.gif","img/card_backs/set2/pink.gif","img/card_backs/set2/orange.gif","""event"",""trial"",""time""
""fullscreenenter"",""1"",""6880""
","
","
","""event"",""trial"",""time""
""fullscreenenter"",""1"",""6880""
","
","","null","","null","","fixation","2021-03-30 23:17:07.600","","","","","",""
"card-selection-trial","103","397432","0.0-25.0-1.16","226","true","img/card_backs/set1/red.gif","img/card_backs/set1/purple.gif","img/card_backs/set1/green.gif","img/card_backs/set1/yellow.gif","img/card_backs/set2/gray.gif","img/card_backs/set2/blue.gif","img/card_backs/set2/pink.gif","img/card_backs/set2/orange.gif","""event"",""trial"",""time""
""fullscreenenter"",""1"",""6880""
","
","
","""event"",""trial"",""time""
""fullscreenenter"",""1"",""6880""
","
","","654.0099999983795","","","","real_trial","2021-03-30 23:17:10.266","img/card_backs/set1/red.gif","2","250","1","",""
"casino-fixation","104","397937","0.0-25.0-0.17","226","true","img/card_backs/set1/red.gif","img/card_backs/set1/purple.gif","img/card_backs/set1/green.gif","img/card_backs/set1/yellow.gif","img/card_backs/set2/gray.gif","img/card_backs/set2/blue.gif","img/card_backs/set2/pink.gif","img/card_backs/set2/orange.gif","""event"",""trial"",""time""
""fullscreenenter"",""1"",""6880""
","
","
","""event"",""trial"",""time""
""fullscreenenter"",""1"",""6880""
","
","","null","","null","","fixation","2021-03-30 23:17:10.771","","","","","",""
"card-selection-trial","105","400451","0.0-25.0-1.17","226","true","img/card_backs/set1/red.gif","img/card_backs/set1/purple.gif","img/card_backs/set1/green.gif","img/card_backs/set1/yellow.gif","img/card_backs/set2/gray.gif","img/card_backs/set2/blue.gif","img/card_backs/set2/pink.gif","img/card_backs/set2/orange.gif","""event"",""trial"",""time""
""fullscreenenter"",""1"",""6880""
","
","
","""event"",""trial"",""time""
""fullscreenenter"",""1"",""6880""
","
","","501.7849999858299","","","","real_trial","2021-03-30 23:17:13.285","img/card_backs/set1/red.gif","2","-190","1","",""
"casino-fixation","106","400956","0.0-25.0-0.18","226","true","img/card_backs/set1/red.gif","img/card_backs/set1/purple.gif","img/card_backs/set1/green.gif","img/card_backs/set1/yellow.gif","img/card_backs/set2/gray.gif","img/card_backs/set2/blue.gif","img/card_backs/set2/pink.gif","img/card_backs/set2/orange.gif","""event"",""trial"",""time""
""fullscreenenter"",""1"",""6880""
","
","
","""event"",""trial"",""time""
""fullscreenenter"",""1"",""6880""
","
","","null","","null","","fixation","2021-03-30 23:17:13.790","","","","","",""
"card-selection-trial","107","404410","0.0-25.0-1.18","226","true","img/card_backs/set1/red.gif","img/card_backs/set1/purple.gif","img/card_backs/set1/green.gif","img/card_backs/set1/yellow.gif","img/card_backs/set2/gray.gif","img/card_backs/set2/blue.gif","img/card_backs/set2/pink.gif","img/card_backs/set2/orange.gif","""event"",""trial"",""time""
""fullscreenenter"",""1"",""6880""
","
","
","""event"",""trial"",""time""
""fullscreenenter"",""1"",""6880""
","
","","1443.0450000072597","","","","real_trial","2021-03-30 23:17:17.244","img/card_backs/set1/purple.gif","1","260","1","",""
"casino-fixation","108","404915","0.0-25.0-0.19","226","true","img/card_backs/set1/red.gif","img/card_backs/set1/purple.gif","img/card_backs/set1/green.gif","img/card_backs/set1/yellow.gif","img/card_backs/set2/gray.gif","img/card_backs/set2/blue.gif","img/card_backs/set2/pink.gif","img/card_backs/set2/orange.gif","""event"",""trial"",""time""
""fullscreenenter"",""1"",""6880""
","
","
","""event"",""trial"",""time""
""fullscreenenter"",""1"",""6880""
","
","","null","","null","","fixation","2021-03-30 23:17:17.749","","","","","",""
"card-selection-trial","109","407748","0.0-25.0-1.19","226","true","img/card_backs/set1/red.gif","img/card_backs/set1/purple.gif","img/card_backs/set1/green.gif","img/card_backs/set1/yellow.gif","img/card_backs/set2/gray.gif","img/card_backs/set2/blue.gif","img/card_backs/set2/pink.gif","img/card_backs/set2/orange.gif","""event"",""trial"",""time""
""fullscreenenter"",""1"",""6880""
","
","
","""event"",""trial"",""time""
""fullscreenenter"",""1"",""6880""
","
","","824.62499999383","","","","real_trial","2021-03-30 23:17:20.582","img/card_backs/set1/purple.gif","2","260","1","",""
"casino-fixation","110","408253","0.0-25.0-0.20","226","true","img/card_backs/set1/red.gif","img/card_backs/set1/purple.gif","img/card_backs/set1/green.gif","img/card_backs/set1/yellow.gif","img/card_backs/set2/gray.gif","img/card_backs/set2/blue.gif","img/card_backs/set2/pink.gif","img/card_backs/set2/orange.gif","""event"",""trial"",""time""
""fullscreenenter"",""1"",""6880""
","
","
","""event"",""trial"",""time""
""fullscreenenter"",""1"",""6880""
","
","","null","","null","","fixation","2021-03-30 23:17:21.087","","","","","",""
"card-selection-trial","111","411034","0.0-25.0-1.20","226","true","img/card_backs/set1/red.gif","img/card_backs/set1/purple.gif","img/card_backs/set1/green.gif","img/card_backs/set1/yellow.gif","img/card_backs/set2/gray.gif","img/card_backs/set2/blue.gif","img/card_backs/set2/pink.gif","img/card_backs/set2/orange.gif","""event"",""trial"",""time""
""fullscreenenter"",""1"",""6880""
","
","
","""event"",""trial"",""time""
""fullscreenenter"",""1"",""6880""
","
","","770.1950000046054","","","","real_trial","2021-03-30 23:17:23.868","img/card_backs/set1/purple.gif","2","-200","1","",""
"casino-fixation","112","411535","0.0-25.0-0.21","226","true","img/card_backs/set1/red.gif","img/card_backs/set1/purple.gif","img/card_backs/set1/green.gif","img/card_backs/set1/yellow.gif","img/card_backs/set2/gray.gif","img/card_backs/set2/blue.gif","img/card_backs/set2/pink.gif","img/card_backs/set2/orange.gif","""event"",""trial"",""time""
""fullscreenenter"",""1"",""6880""
","
","
","""event"",""trial"",""time""
""fullscreenenter"",""1"",""6880""
","
","","null","","null","","fixation","2021-03-30 23:17:24.369","","","","","",""
"card-selection-trial","113","415422","0.0-25.0-1.21","226","true","img/card_backs/set1/red.gif","img/card_backs/set1/purple.gif","img/card_backs/set1/green.gif","img/card_backs/set1/yellow.gif","img/card_backs/set2/gray.gif","img/card_backs/set2/blue.gif","img/card_backs/set2/pink.gif","img/card_backs/set2/orange.gif","""event"",""trial"",""time""
""fullscreenenter"",""1"",""6880""
","
","
","""event"",""trial"",""time""
""fullscreenenter"",""1"",""6880""
","
","","1876.3249999901745","","","","real_trial","2021-03-30 23:17:28.256","img/card_backs/set1/purple.gif","3","260","1","",""
"casino-fixation","114","415927","0.0-25.0-0.22","226","true","img/card_backs/set1/red.gif","img/card_backs/set1/purple.gif","img/card_backs/set1/green.gif","img/card_backs/set1/yellow.gif","img/card_backs/set2/gray.gif","img/card_backs/set2/blue.gif","img/card_backs/set2/pink.gif","img/card_backs/set2/orange.gif","""event"",""trial"",""time""
""fullscreenenter"",""1"",""6880""
","
","
","""event"",""trial"",""time""
""fullscreenenter"",""1"",""6880""
","
","","null","","null","","fixation","2021-03-30 23:17:28.761","","","","","",""
"card-selection-trial","115","418603","0.0-25.0-1.22","226","true","img/card_backs/set1/red.gif","img/card_backs/set1/purple.gif","img/card_backs/set1/green.gif","img/card_backs/set1/yellow.gif","img/card_backs/set2/gray.gif","img/card_backs/set2/blue.gif","img/card_backs/set2/pink.gif","img/card_backs/set2/orange.gif","""event"",""trial"",""time""
""fullscreenenter"",""1"",""6880""
","
","
","""event"",""trial"",""time""
""fullscreenenter"",""1"",""6880""
","
","","665.724999998929","","","","real_trial","2021-03-30 23:17:31.437","img/card_backs/set1/purple.gif","0","240","1","",""
"casino-fixation","116","419108","0.0-25.0-0.23","226","true","img/card_backs/set1/red.gif","img/card_backs/set1/purple.gif","img/card_backs/set1/green.gif","img/card_backs/set1/yellow.gif","img/card_backs/set2/gray.gif","img/card_backs/set2/blue.gif","img/card_backs/set2/pink.gif","img/card_backs/set2/orange.gif","""event"",""trial"",""time""
""fullscreenenter"",""1"",""6880""
","
","
","""event"",""trial"",""time""
""fullscreenenter"",""1"",""6880""
","
","","null","","null","","fixation","2021-03-30 23:17:31.943","","","","","",""
"card-selection-trial","117","422269","0.0-25.0-1.23","226","true","img/card_backs/set1/red.gif","img/card_backs/set1/purple.gif","img/card_backs/set1/green.gif","img/card_backs/set1/yellow.gif","img/card_backs/set2/gray.gif","img/card_backs/set2/blue.gif","img/card_backs/set2/pink.gif","img/card_backs/set2/orange.gif","""event"",""trial"",""time""
""fullscreenenter"",""1"",""6880""
","
","
","""event"",""trial"",""time""
""fullscreenenter"",""1"",""6880""
","
","","1149.6900000056485","","","","real_trial","2021-03-30 23:17:35.103","img/card_backs/set1/purple.gif","2","250","1","",""
"casino-fixation","118","422776","0.0-25.0-0.24","226","true","img/card_backs/set1/red.gif","img/card_backs/set1/purple.gif","img/card_backs/set1/green.gif","img/card_backs/set1/yellow.gif","img/card_backs/set2/gray.gif","img/card_backs/set2/blue.gif","img/card_backs/set2/pink.gif","img/card_backs/set2/orange.gif","""event"",""trial"",""time""
""fullscreenenter"",""1"",""6880""
","
","
","""event"",""trial"",""time""
""fullscreenenter"",""1"",""6880""
","
","","null","","null","","fixation","2021-03-30 23:17:35.610","","","","","",""
"card-selection-trial","119","426203","0.0-25.0-1.24","226","true","img/card_backs/set1/red.gif","img/card_backs/set1/purple.gif","img/card_backs/set1/green.gif","img/card_backs/set1/yellow.gif","img/card_backs/set2/gray.gif","img/card_backs/set2/blue.gif","img/card_backs/set2/pink.gif","img/card_backs/set2/orange.gif","""event"",""trial"",""time""
""fullscreenenter"",""1"",""6880""
","
","
","""event"",""trial"",""time""
""fullscreenenter"",""1"",""6880""
","
","","1412.5099999946542","","","","real_trial","2021-03-30 23:17:39.037","img/card_backs/set1/purple.gif","1","250","1","",""
"casino-fixation","120","426709","0.0-25.0-0.25","226","true","img/card_backs/set1/red.gif","img/card_backs/set1/purple.gif","img/card_backs/set1/green.gif","img/card_backs/set1/yellow.gif","img/card_backs/set2/gray.gif","img/card_backs/set2/blue.gif","img/card_backs/set2/pink.gif","img/card_backs/set2/orange.gif","""event"",""trial"",""time""
""fullscreenenter"",""1"",""6880""
","
","
","""event"",""trial"",""time""
""fullscreenenter"",""1"",""6880""
","
","","null","","null","","fixation","2021-03-30 23:17:39.544","","","","","",""
"card-selection-trial","121","429420","0.0-25.0-1.25","226","true","img/card_backs/set1/red.gif","img/card_backs/set1/purple.gif","img/card_backs/set1/green.gif","img/card_backs/set1/yellow.gif","img/card_backs/set2/gray.gif","img/card_backs/set2/blue.gif","img/card_backs/set2/pink.gif","img/card_backs/set2/orange.gif","""event"",""trial"",""time""
""fullscreenenter"",""1"",""6880""
","
","
","""event"",""trial"",""time""
""fullscreenenter"",""1"",""6880""
","
","","702.3849999968661","","","","real_trial","2021-03-30 23:17:42.255","img/card_backs/set1/purple.gif","3","-210","1","",""
"casino-fixation","122","429926","0.0-25.0-0.26","226","true","img/card_backs/set1/red.gif","img/card_backs/set1/purple.gif","img/card_backs/set1/green.gif","img/card_backs/set1/yellow.gif","img/card_backs/set2/gray.gif","img/card_backs/set2/blue.gif","img/card_backs/set2/pink.gif","img/card_backs/set2/orange.gif","""event"",""trial"",""time""
""fullscreenenter"",""1"",""6880""
","
","
","""event"",""trial"",""time""
""fullscreenenter"",""1"",""6880""
","
","","null","","null","","fixation","2021-03-30 23:17:42.760","","","","","",""
"card-selection-trial","123","432521","0.0-25.0-1.26","226","true","img/card_backs/set1/red.gif","img/card_backs/set1/purple.gif","img/card_backs/set1/green.gif","img/card_backs/set1/yellow.gif","img/card_backs/set2/gray.gif","img/card_backs/set2/blue.gif","img/card_backs/set2/pink.gif","img/card_backs/set2/orange.gif","""event"",""trial"",""time""
""fullscreenenter"",""1"",""6880""
","
","
","""event"",""trial"",""time""
""fullscreenenter"",""1"",""6880""
","
","","585.9649999911198","","","","real_trial","2021-03-30 23:17:45.355","img/card_backs/set1/purple.gif","3","-200","1","",""
"casino-fixation","124","433025","0.0-25.0-0.27","226","true","img/card_backs/set1/red.gif","img/card_backs/set1/purple.gif","img/card_backs/set1/green.gif","img/card_backs/set1/yellow.gif","img/card_backs/set2/gray.gif","img/card_backs/set2/blue.gif","img/card_backs/set2/pink.gif","img/card_backs/set2/orange.gif","""event"",""trial"",""time""
""fullscreenenter"",""1"",""6880""
","
","
","""event"",""trial"",""time""
""fullscreenenter"",""1"",""6880""
","
","","null","","null","","fixation","2021-03-30 23:17:45.859","","","","","",""
"card-selection-trial","125","435682","0.0-25.0-1.27","226","true","img/card_backs/set1/red.gif","img/card_backs/set1/purple.gif","img/card_backs/set1/green.gif","img/card_backs/set1/yellow.gif","img/card_backs/set2/gray.gif","img/card_backs/set2/blue.gif","img/card_backs/set2/pink.gif","img/card_backs/set2/orange.gif","""event"",""trial"",""time""
""fullscreenenter"",""1"",""6880""
","
","
","""event"",""trial"",""time""
""fullscreenenter"",""1"",""6880""
","
","","647.8649999917252","","","","real_trial","2021-03-30 23:17:48.516","img/card_backs/set1/purple.gif","0","240","1","",""
"casino-fixation","126","436187","0.0-25.0-0.28","226","true","img/card_backs/set1/red.gif","img/card_backs/set1/purple.gif","img/card_backs/set1/green.gif","img/card_backs/set1/yellow.gif","img/card_backs/set2/gray.gif","img/card_backs/set2/blue.gif","img/card_backs/set2/pink.gif","img/card_backs/set2/orange.gif","""event"",""trial"",""time""
""fullscreenenter"",""1"",""6880""
","
","
","""event"",""trial"",""time""
""fullscreenenter"",""1"",""6880""
","
","","null","","null","","fixation","2021-03-30 23:17:49.021","","","","","",""
"card-selection-trial","127","439400","0.0-25.0-1.28","226","true","img/card_backs/set1/red.gif","img/card_backs/set1/purple.gif","img/card_backs/set1/green.gif","img/card_backs/set1/yellow.gif","img/card_backs/set2/gray.gif","img/card_backs/set2/blue.gif","img/card_backs/set2/pink.gif","img/card_backs/set2/orange.gif","""event"",""trial"",""time""
""fullscreenenter"",""1"",""6880""
","
","
","""event"",""trial"",""time""
""fullscreenenter"",""1"",""6880""
","
","","1201.3450000085868","","","","real_trial","2021-03-30 23:17:52.234","img/card_backs/set1/purple.gif","2","250","1","",""
"casino-fixation","128","439905","0.0-25.0-0.29","226","true","img/card_backs/set1/red.gif","img/card_backs/set1/purple.gif","img/card_backs/set1/green.gif","img/card_backs/set1/yellow.gif","img/card_backs/set2/gray.gif","img/card_backs/set2/blue.gif","img/card_backs/set2/pink.gif","img/card_backs/set2/orange.gif","""event"",""trial"",""time""
""fullscreenenter"",""1"",""6880""
","
","
","""event"",""trial"",""time""
""fullscreenenter"",""1"",""6880""
","
","","null","","null","","fixation","2021-03-30 23:17:52.739","","","","","",""
"card-selection-trial","129","442460","0.0-25.0-1.29","226","true","img/card_backs/set1/red.gif","img/card_backs/set1/purple.gif","img/card_backs/set1/green.gif","img/card_backs/set1/yellow.gif","img/card_backs/set2/gray.gif","img/card_backs/set2/blue.gif","img/card_backs/set2/pink.gif","img/card_backs/set2/orange.gif","""event"",""trial"",""time""
""fullscreenenter"",""1"",""6880""
","
","
","""event"",""trial"",""time""
""fullscreenenter"",""1"",""6880""
","
","","546.0750000056578","","","","real_trial","2021-03-30 23:17:55.294","img/card_backs/set1/purple.gif","0","-210","1","",""
"casino-fixation","130","442962","0.0-25.0-0.30","226","true","img/card_backs/set1/red.gif","img/card_backs/set1/purple.gif","img/card_backs/set1/green.gif","img/card_backs/set1/yellow.gif","img/card_backs/set2/gray.gif","img/card_backs/set2/blue.gif","img/card_backs/set2/pink.gif","img/card_backs/set2/orange.gif","""event"",""trial"",""time""
""fullscreenenter"",""1"",""6880""
","
","
","""event"",""trial"",""time""
""fullscreenenter"",""1"",""6880""
","
","","null","","null","","fixation","2021-03-30 23:17:55.796","","","","","",""
"card-selection-trial","131","445520","0.0-25.0-1.30","226","true","img/card_backs/set1/red.gif","img/card_backs/set1/purple.gif","img/card_backs/set1/green.gif","img/card_backs/set1/yellow.gif","img/card_backs/set2/gray.gif","img/card_backs/set2/blue.gif","img/card_backs/set2/pink.gif","img/card_backs/set2/orange.gif","""event"",""trial"",""time""
""fullscreenenter"",""1"",""6880""
","
","
","""event"",""trial"",""time""
""fullscreenenter"",""1"",""6880""
","
","","550.1799999910872","","","","real_trial","2021-03-30 23:17:58.354","img/card_backs/set1/purple.gif","3","-190","1","",""
"casino-fixation","132","446027","0.0-25.0-0.31","226","true","img/card_backs/set1/red.gif","img/card_backs/set1/purple.gif","img/card_backs/set1/green.gif","img/card_backs/set1/yellow.gif","img/card_backs/set2/gray.gif","img/card_backs/set2/blue.gif","img/card_backs/set2/pink.gif","img/card_backs/set2/orange.gif","""event"",""trial"",""time""
""fullscreenenter"",""1"",""6880""
","
","
","""event"",""trial"",""time""
""fullscreenenter"",""1"",""6880""
","
","","null","","null","","fixation","2021-03-30 23:17:58.861","","","","","",""
"card-selection-trial","133","449493","0.0-25.0-1.31","226","true","img/card_backs/set1/red.gif","img/card_backs/set1/purple.gif","img/card_backs/set1/green.gif","img/card_backs/set1/yellow.gif","img/card_backs/set2/gray.gif","img/card_backs/set2/blue.gif","img/card_backs/set2/pink.gif","img/card_backs/set2/orange.gif","""event"",""trial"",""time""
""fullscreenenter"",""1"",""6880""
","
","
","""event"",""trial"",""time""
""fullscreenenter"",""1"",""6880""
","
","","1455.324999988079","","","","real_trial","2021-03-30 23:18:02.327","img/card_backs/set1/purple.gif","1","-200","1","",""
"casino-fixation","134","449998","0.0-25.0-0.32","226","true","img/card_backs/set1/red.gif","img/card_backs/set1/purple.gif","img/card_backs/set1/green.gif","img/card_backs/set1/yellow.gif","img/card_backs/set2/gray.gif","img/card_backs/set2/blue.gif","img/card_backs/set2/pink.gif","img/card_backs/set2/orange.gif","""event"",""trial"",""time""
""fullscreenenter"",""1"",""6880""
","
","
","""event"",""trial"",""time""
""fullscreenenter"",""1"",""6880""
","
","","null","","null","","fixation","2021-03-30 23:18:02.832","","","","","",""
"card-selection-trial","135","452546","0.0-25.0-1.32","226","true","img/card_backs/set1/red.gif","img/card_backs/set1/purple.gif","img/card_backs/set1/green.gif","img/card_backs/set1/yellow.gif","img/card_backs/set2/gray.gif","img/card_backs/set2/blue.gif","img/card_backs/set2/pink.gif","img/card_backs/set2/orange.gif","""event"",""trial"",""time""
""fullscreenenter"",""1"",""6880""
","
","
","""event"",""trial"",""time""
""fullscreenenter"",""1"",""6880""
","
","","537.1449999947799","","","","real_trial","2021-03-30 23:18:05.380","img/card_backs/set1/purple.gif","3","260","1","",""
"casino-fixation","136","453052","0.0-25.0-0.33","226","true","img/card_backs/set1/red.gif","img/card_backs/set1/purple.gif","img/card_backs/set1/green.gif","img/card_backs/set1/yellow.gif","img/card_backs/set2/gray.gif","img/card_backs/set2/blue.gif","img/card_backs/set2/pink.gif","img/card_backs/set2/orange.gif","""event"",""trial"",""time""
""fullscreenenter"",""1"",""6880""
","
","
","""event"",""trial"",""time""
""fullscreenenter"",""1"",""6880""
","
","","null","","null","","fixation","2021-03-30 23:18:05.886","","","","","",""
"card-selection-trial","137","455677","0.0-25.0-1.33","226","true","img/card_backs/set1/red.gif","img/card_backs/set1/purple.gif","img/card_backs/set1/green.gif","img/card_backs/set1/yellow.gif","img/card_backs/set2/gray.gif","img/card_backs/set2/blue.gif","img/card_backs/set2/pink.gif","img/card_backs/set2/orange.gif","""event"",""trial"",""time""
""fullscreenenter"",""1"",""6880""
","
","
","""event"",""trial"",""time""
""fullscreenenter"",""1"",""6880""
","
","","615.2399999991758","","","","real_trial","2021-03-30 23:18:08.511","img/card_backs/set1/purple.gif","3","260","1","",""
"casino-fixation","138","456180","0.0-25.0-0.34","226","true","img/card_backs/set1/red.gif","img/card_backs/set1/purple.gif","img/card_backs/set1/green.gif","img/card_backs/set1/yellow.gif","img/card_backs/set2/gray.gif","img/card_backs/set2/blue.gif","img/card_backs/set2/pink.gif","img/card_backs/set2/orange.gif","""event"",""trial"",""time""
""fullscreenenter"",""1"",""6880""
","
","
","""event"",""trial"",""time""
""fullscreenenter"",""1"",""6880""
","
","","null","","null","","fixation","2021-03-30 23:18:09.014","","","","","",""
"card-selection-trial","139","458748","0.0-25.0-1.34","226","true","img/card_backs/set1/red.gif","img/card_backs/set1/purple.gif","img/card_backs/set1/green.gif","img/card_backs/set1/yellow.gif","img/card_backs/set2/gray.gif","img/card_backs/set2/blue.gif","img/card_backs/set2/pink.gif","img/card_backs/set2/orange.gif","""event"",""trial"",""time""
""fullscreenenter"",""1"",""6880""
","
","
","""event"",""trial"",""time""
""fullscreenenter"",""1"",""6880""
","
","","556.2550000031479","","","","real_trial","2021-03-30 23:18:11.582","img/card_backs/set1/purple.gif","0","260","1","",""
"casino-fixation","140","459254","0.0-25.0-0.35","226","true","img/card_backs/set1/red.gif","img/card_backs/set1/purple.gif","img/card_backs/set1/green.gif","img/card_backs/set1/yellow.gif","img/card_backs/set2/gray.gif","img/card_backs/set2/blue.gif","img/card_backs/set2/pink.gif","img/card_backs/set2/orange.gif","""event"",""trial"",""time""
""fullscreenenter"",""1"",""6880""
","
","
","""event"",""trial"",""time""
""fullscreenenter"",""1"",""6880""
","
","","null","","null","","fixation","2021-03-30 23:18:12.088","","","","","",""
"card-selection-trial","141","461782","0.0-25.0-1.35","226","true","img/card_backs/set1/red.gif","img/card_backs/set1/purple.gif","img/card_backs/set1/green.gif","img/card_backs/set1/yellow.gif","img/card_backs/set2/gray.gif","img/card_backs/set2/blue.gif","img/card_backs/set2/pink.gif","img/card_backs/set2/orange.gif","""event"",""trial"",""time""
""fullscreenenter"",""1"",""6880""
","
","
","""event"",""trial"",""time""
""fullscreenenter"",""1"",""6880""
","
","","517.4000000115484","","","","real_trial","2021-03-30 23:18:14.617","img/card_backs/set1/purple.gif","0","-190","1","",""
"casino-fixation","142","462286","0.0-25.0-0.36","226","true","img/card_backs/set1/red.gif","img/card_backs/set1/purple.gif","img/card_backs/set1/green.gif","img/card_backs/set1/yellow.gif","img/card_backs/set2/gray.gif","img/card_backs/set2/blue.gif","img/card_backs/set2/pink.gif","img/card_backs/set2/orange.gif","""event"",""trial"",""time""
""fullscreenenter"",""1"",""6880""
","
","
","""event"",""trial"",""time""
""fullscreenenter"",""1"",""6880""
","
","","null","","null","","fixation","2021-03-30 23:18:15.120","","","","","",""
"card-selection-trial","143","467588","0.0-25.0-1.36","226","true","img/card_backs/set1/red.gif","img/card_backs/set1/purple.gif","img/card_backs/set1/green.gif","img/card_backs/set1/yellow.gif","img/card_backs/set2/gray.gif","img/card_backs/set2/blue.gif","img/card_backs/set2/pink.gif","img/card_backs/set2/orange.gif","""event"",""trial"",""time""
""fullscreenenter"",""1"",""6880""
","
","
","""event"",""trial"",""time""
""fullscreenenter"",""1"",""6880""
","
","","3290.2999999932945","","","","real_trial","2021-03-30 23:18:20.422","img/card_backs/set1/green.gif","0","-90","1","",""
"casino-fixation","144","468091","0.0-25.0-0.37","226","true","img/card_backs/set1/red.gif","img/card_backs/set1/purple.gif","img/card_backs/set1/green.gif","img/card_backs/set1/yellow.gif","img/card_backs/set2/gray.gif","img/card_backs/set2/blue.gif","img/card_backs/set2/pink.gif","img/card_backs/set2/orange.gif","""event"",""trial"",""time""
""fullscreenenter"",""1"",""6880""
","
","
","""event"",""trial"",""time""
""fullscreenenter"",""1"",""6880""
","
","","null","","null","","fixation","2021-03-30 23:18:20.925","","","","","",""
"card-selection-trial","145","473149","0.0-25.0-1.37","226","true","img/card_backs/set1/red.gif","img/card_backs/set1/purple.gif","img/card_backs/set1/green.gif","img/card_backs/set1/yellow.gif","img/card_backs/set2/gray.gif","img/card_backs/set2/blue.gif","img/card_backs/set2/pink.gif","img/card_backs/set2/orange.gif","""event"",""trial"",""time""
""fullscreenenter"",""1"",""6880""
","
","
","""event"",""trial"",""time""
""fullscreenenter"",""1"",""6880""
","
","","3047.225000002072","","","","real_trial","2021-03-30 23:18:25.983","img/card_backs/set1/yellow.gif","1","-100","1","",""
"casino-fixation","146","473655","0.0-25.0-0.38","226","true","img/card_backs/set1/red.gif","img/card_backs/set1/purple.gif","img/card_backs/set1/green.gif","img/card_backs/set1/yellow.gif","img/card_backs/set2/gray.gif","img/card_backs/set2/blue.gif","img/card_backs/set2/pink.gif","img/card_backs/set2/orange.gif","""event"",""trial"",""time""
""fullscreenenter"",""1"",""6880""
","
","
","""event"",""trial"",""time""
""fullscreenenter"",""1"",""6880""
","
","","null","","null","","fixation","2021-03-30 23:18:26.489","","","","","",""
"card-selection-trial","147","476419","0.0-25.0-1.38","226","true","img/card_backs/set1/red.gif","img/card_backs/set1/purple.gif","img/card_backs/set1/green.gif","img/card_backs/set1/yellow.gif","img/card_backs/set2/gray.gif","img/card_backs/set2/blue.gif","img/card_backs/set2/pink.gif","img/card_backs/set2/orange.gif","""event"",""trial"",""time""
""fullscreenenter"",""1"",""6880""
","
","
","""event"",""trial"",""time""
""fullscreenenter"",""1"",""6880""
","
","","755.5599999905098","","","","real_trial","2021-03-30 23:18:29.253","img/card_backs/set1/yellow.gif","2","50","1","",""
"casino-fixation","148","476925","0.0-25.0-0.39","226","true","img/card_backs/set1/red.gif","img/card_backs/set1/purple.gif","img/card_backs/set1/green.gif","img/card_backs/set1/yellow.gif","img/card_backs/set2/gray.gif","img/card_backs/set2/blue.gif","img/card_backs/set2/pink.gif","img/card_backs/set2/orange.gif","""event"",""trial"",""time""
""fullscreenenter"",""1"",""6880""
","
","
","""event"",""trial"",""time""
""fullscreenenter"",""1"",""6880""
","
","","null","","null","","fixation","2021-03-30 23:18:29.759","","","","","",""
"card-selection-trial","149","480876","0.0-25.0-1.39","226","true","img/card_backs/set1/red.gif","img/card_backs/set1/purple.gif","img/card_backs/set1/green.gif","img/card_backs/set1/yellow.gif","img/card_backs/set2/gray.gif","img/card_backs/set2/blue.gif","img/card_backs/set2/pink.gif","img/card_backs/set2/orange.gif","""event"",""trial"",""time""
""fullscreenenter"",""1"",""6880""
","
","
","""event"",""trial"",""time""
""fullscreenenter"",""1"",""6880""
","
","","1940.0250000035157","","","","real_trial","2021-03-30 23:18:33.710","img/card_backs/set1/yellow.gif","1","-100","1","",""
"casino-fixation","150","481382","0.0-25.0-0.40","226","true","img/card_backs/set1/red.gif","img/card_backs/set1/purple.gif","img/card_backs/set1/green.gif","img/card_backs/set1/yellow.gif","img/card_backs/set2/gray.gif","img/card_backs/set2/blue.gif","img/card_backs/set2/pink.gif","img/card_backs/set2/orange.gif","""event"",""trial"",""time""
""fullscreenenter"",""1"",""6880""
","
","
","""event"",""trial"",""time""
""fullscreenenter"",""1"",""6880""
","
","","null","","null","","fixation","2021-03-30 23:18:34.216","","","","","",""
"card-selection-trial","151","484965","0.0-25.0-1.40","226","true","img/card_backs/set1/red.gif","img/card_backs/set1/purple.gif","img/card_backs/set1/green.gif","img/card_backs/set1/yellow.gif","img/card_backs/set2/gray.gif","img/card_backs/set2/blue.gif","img/card_backs/set2/pink.gif","img/card_backs/set2/orange.gif","""event"",""trial"",""time""
""fullscreenenter"",""1"",""6880""
","
","
","""event"",""trial"",""time""
""fullscreenenter"",""1"",""6880""
","
","","1577.8700000082608","","","","real_trial","2021-03-30 23:18:37.800","img/card_backs/set1/purple.gif","1","250","1","",""
"casino-fixation","152","485472","0.0-25.0-0.41","226","true","img/card_backs/set1/red.gif","img/card_backs/set1/purple.gif","img/card_backs/set1/green.gif","img/card_backs/set1/yellow.gif","img/card_backs/set2/gray.gif","img/card_backs/set2/blue.gif","img/card_backs/set2/pink.gif","img/card_backs/set2/orange.gif","""event"",""trial"",""time""
""fullscreenenter"",""1"",""6880""
","
","
","""event"",""trial"",""time""
""fullscreenenter"",""1"",""6880""
","
","","null","","null","","fixation","2021-03-30 23:18:38.306","","","","","",""
"card-selection-trial","153","488593","0.0-25.0-1.41","226","true","img/card_backs/set1/red.gif","img/card_backs/set1/purple.gif","img/card_backs/set1/green.gif","img/card_backs/set1/yellow.gif","img/card_backs/set2/gray.gif","img/card_backs/set2/blue.gif","img/card_backs/set2/pink.gif","img/card_backs/set2/orange.gif","""event"",""trial"",""time""
""fullscreenenter"",""1"",""6880""
","
","
","""event"",""trial"",""time""
""fullscreenenter"",""1"",""6880""
","
","","1108.5849999944912","","","","real_trial","2021-03-30 23:18:41.427","img/card_backs/set1/purple.gif","2","-190","1","",""
"casino-fixation","154","489095","0.0-25.0-0.42","226","true","img/card_backs/set1/red.gif","img/card_backs/set1/purple.gif","img/card_backs/set1/green.gif","img/card_backs/set1/yellow.gif","img/card_backs/set2/gray.gif","img/card_backs/set2/blue.gif","img/card_backs/set2/pink.gif","img/card_backs/set2/orange.gif","""event"",""trial"",""time""
""fullscreenenter"",""1"",""6880""
","
","
","""event"",""trial"",""time""
""fullscreenenter"",""1"",""6880""
","
","","null","","null","","fixation","2021-03-30 23:18:41.929","","","","","",""
"card-selection-trial","155","491851","0.0-25.0-1.42","226","true","img/card_backs/set1/red.gif","img/card_backs/set1/purple.gif","img/card_backs/set1/green.gif","img/card_backs/set1/yellow.gif","img/card_backs/set2/gray.gif","img/card_backs/set2/blue.gif","img/card_backs/set2/pink.gif","img/card_backs/set2/orange.gif","""event"",""trial"",""time""
""fullscreenenter"",""1"",""6880""
","
","
","""event"",""trial"",""time""
""fullscreenenter"",""1"",""6880""
","
","","747.0000000030268","","","","real_trial","2021-03-30 23:18:44.685","img/card_backs/set1/purple.gif","2","250","1","",""
"casino-fixation","156","492358","0.0-25.0-0.43","226","true","img/card_backs/set1/red.gif","img/card_backs/set1/purple.gif","img/card_backs/set1/green.gif","img/card_backs/set1/yellow.gif","img/card_backs/set2/gray.gif","img/card_backs/set2/blue.gif","img/card_backs/set2/pink.gif","img/card_backs/set2/orange.gif","""event"",""trial"",""time""
""fullscreenenter"",""1"",""6880""
","
","
","""event"",""trial"",""time""
""fullscreenenter"",""1"",""6880""
","
","","null","","null","","fixation","2021-03-30 23:18:45.192","","","","","",""
"card-selection-trial","157","495354","0.0-25.0-1.43","226","true","img/card_backs/set1/red.gif","img/card_backs/set1/purple.gif","img/card_backs/set1/green.gif","img/card_backs/set1/yellow.gif","img/card_backs/set2/gray.gif","img/card_backs/set2/blue.gif","img/card_backs/set2/pink.gif","img/card_backs/set2/orange.gif","""event"",""trial"",""time""
""fullscreenenter"",""1"",""6880""
","
","
","""event"",""trial"",""time""
""fullscreenenter"",""1"",""6880""
","
","","984.1100000048755","","","","real_trial","2021-03-30 23:18:48.188","img/card_backs/set1/purple.gif","1","-200","1","",""
"casino-fixation","158","495860","0.0-25.0-0.44","226","true","img/card_backs/set1/red.gif","img/card_backs/set1/purple.gif","img/card_backs/set1/green.gif","img/card_backs/set1/yellow.gif","img/card_backs/set2/gray.gif","img/card_backs/set2/blue.gif","img/card_backs/set2/pink.gif","img/card_backs/set2/orange.gif","""event"",""trial"",""time""
""fullscreenenter"",""1"",""6880""
","
","
","""event"",""trial"",""time""
""fullscreenenter"",""1"",""6880""
","
","","null","","null","","fixation","2021-03-30 23:18:48.694","","","","","",""
"card-selection-trial","159","499485","0.0-25.0-1.44","226","true","img/card_backs/set1/red.gif","img/card_backs/set1/purple.gif","img/card_backs/set1/green.gif","img/card_backs/set1/yellow.gif","img/card_backs/set2/gray.gif","img/card_backs/set2/blue.gif","img/card_backs/set2/pink.gif","img/card_backs/set2/orange.gif","""event"",""trial"",""time""
""fullscreenenter"",""1"",""6880""
","
","
","""event"",""trial"",""time""
""fullscreenenter"",""1"",""6880""
","
","","1613.9600000024075","","","","real_trial","2021-03-30 23:18:52.319","img/card_backs/set1/purple.gif","3","240","1","",""
"casino-fixation","160","499991","0.0-25.0-0.45","226","true","img/card_backs/set1/red.gif","img/card_backs/set1/purple.gif","img/card_backs/set1/green.gif","img/card_backs/set1/yellow.gif","img/card_backs/set2/gray.gif","img/card_backs/set2/blue.gif","img/card_backs/set2/pink.gif","img/card_backs/set2/orange.gif","""event"",""trial"",""time""
""fullscreenenter"",""1"",""6880""
","
","
","""event"",""trial"",""time""
""fullscreenenter"",""1"",""6880""
","
","","null","","null","","fixation","2021-03-30 23:18:52.825","","","","","",""
"card-selection-trial","161","502613","0.0-25.0-1.45","226","true","img/card_backs/set1/red.gif","img/card_backs/set1/purple.gif","img/card_backs/set1/green.gif","img/card_backs/set1/yellow.gif","img/card_backs/set2/gray.gif","img/card_backs/set2/blue.gif","img/card_backs/set2/pink.gif","img/card_backs/set2/orange.gif","""event"",""trial"",""time""
""fullscreenenter"",""1"",""6880""
","
","
","""event"",""trial"",""time""
""fullscreenenter"",""1"",""6880""
","
","","609.82499999227","","","","real_trial","2021-03-30 23:18:55.447","img/card_backs/set1/purple.gif","3","-190","1","",""
"casino-fixation","162","503115","0.0-25.0-0.46","226","true","img/card_backs/set1/red.gif","img/card_backs/set1/purple.gif","img/card_backs/set1/green.gif","img/card_backs/set1/yellow.gif","img/card_backs/set2/gray.gif","img/card_backs/set2/blue.gif","img/card_backs/set2/pink.gif","img/card_backs/set2/orange.gif","""event"",""trial"",""time""
""fullscreenenter"",""1"",""6880""
","
","
","""event"",""trial"",""time""
""fullscreenenter"",""1"",""6880""
","
","","null","","null","","fixation","2021-03-30 23:18:55.949","","","","","",""
"card-selection-trial","163","505888","0.0-25.0-1.46","226","true","img/card_backs/set1/red.gif","img/card_backs/set1/purple.gif","img/card_backs/set1/green.gif","img/card_backs/set1/yellow.gif","img/card_backs/set2/gray.gif","img/card_backs/set2/blue.gif","img/card_backs/set2/pink.gif","img/card_backs/set2/orange.gif","""event"",""trial"",""time""
""fullscreenenter"",""1"",""6880""
","
","
","""event"",""trial"",""time""
""fullscreenenter"",""1"",""6880""
","
","","763.2449999946402","","","","real_trial","2021-03-30 23:18:58.723","img/card_backs/set1/purple.gif","1","260","1","",""
"casino-fixation","164","506394","0.0-25.0-0.47","226","true","img/card_backs/set1/red.gif","img/card_backs/set1/purple.gif","img/card_backs/set1/green.gif","img/card_backs/set1/yellow.gif","img/card_backs/set2/gray.gif","img/card_backs/set2/blue.gif","img/card_backs/set2/pink.gif","img/card_backs/set2/orange.gif","""event"",""trial"",""time""
""fullscreenenter"",""1"",""6880""
","
","
","""event"",""trial"",""time""
""fullscreenenter"",""1"",""6880""
","
","","null","","null","","fixation","2021-03-30 23:18:59.228","","","","","",""
"card-selection-trial","165","509030","0.0-25.0-1.47","226","true","img/card_backs/set1/red.gif","img/card_backs/set1/purple.gif","img/card_backs/set1/green.gif","img/card_backs/set1/yellow.gif","img/card_backs/set2/gray.gif","img/card_backs/set2/blue.gif","img/card_backs/set2/pink.gif","img/card_backs/set2/orange.gif","""event"",""trial"",""time""
""fullscreenenter"",""1"",""6880""
","
","
","""event"",""trial"",""time""
""fullscreenenter"",""1"",""6880""
","
","","626.269999993383","","","","real_trial","2021-03-30 23:19:01.864","img/card_backs/set1/purple.gif","0","-190","1","",""
"casino-fixation","166","509535","0.0-25.0-0.48","226","true","img/card_backs/set1/red.gif","img/card_backs/set1/purple.gif","img/card_backs/set1/green.gif","img/card_backs/set1/yellow.gif","img/card_backs/set2/gray.gif","img/card_backs/set2/blue.gif","img/card_backs/set2/pink.gif","img/card_backs/set2/orange.gif","""event"",""trial"",""time""
""fullscreenenter"",""1"",""6880""
","
","
","""event"",""trial"",""time""
""fullscreenenter"",""1"",""6880""
","
","","null","","null","","fixation","2021-03-30 23:19:02.370","","","","","",""
"card-selection-trial","167","512763","0.0-25.0-1.48","226","true","img/card_backs/set1/red.gif","img/card_backs/set1/purple.gif","img/card_backs/set1/green.gif","img/card_backs/set1/yellow.gif","img/card_backs/set2/gray.gif","img/card_backs/set2/blue.gif","img/card_backs/set2/pink.gif","img/card_backs/set2/orange.gif","""event"",""trial"",""time""
""fullscreenenter"",""1"",""6880""
","
","
","""event"",""trial"",""time""
