"trial_type","trial_index","time_elapsed","internal_node_id","sub_id","risk_good_first","block1_A","block1_B","block1_C","block1_D","block2_A","block2_B","block2_C","block2_D","interactions","blur_events","focus_events","fullscreenenter_events","fullscreenexit_events","success","rt","stimulus","key_press","button_pressed","task_part","timestamp","card_choice","choice_position","points_earned","block","correct","response"
"pavlovia","0","12","0.0-0.0","A116","true","img/card_backs/set1/green.gif","img/card_backs/set1/yellow.gif","img/card_backs/set1/purple.gif","img/card_backs/set1/red.gif","img/card_backs/set2/blue.gif","img/card_backs/set2/orange.gif","img/card_backs/set2/pink.gif","img/card_backs/set2/gray.gif","""event"",""trial"",""time""
""fullscreenenter"",""1"",""4359""
","
","
","""event"",""trial"",""time""
""fullscreenenter"",""1"",""4359""
","
","","","","","","","","","","","","",""
"fullscreen","1","4597","0.0-1.0","A116","true","img/card_backs/set1/green.gif","img/card_backs/set1/yellow.gif","img/card_backs/set1/purple.gif","img/card_backs/set1/red.gif","img/card_backs/set2/blue.gif","img/card_backs/set2/orange.gif","img/card_backs/set2/pink.gif","img/card_backs/set2/gray.gif","""event"",""trial"",""time""
""fullscreenenter"",""1"",""4359""
","
","
","""event"",""trial"",""time""
""fullscreenenter"",""1"",""4359""
","
","true","","","","","","","","","","","",""
"audio-keyboard-response","2","7856","0.0-2.0","A116","true","img/card_backs/set1/green.gif","img/card_backs/set1/yellow.gif","img/card_backs/set1/purple.gif","img/card_backs/set1/red.gif","img/card_backs/set2/blue.gif","img/card_backs/set2/orange.gif","img/card_backs/set2/pink.gif","img/card_backs/set2/gray.gif","""event"",""trial"",""time""
""fullscreenenter"",""1"",""4359""
","
","
","""event"",""trial"",""time""
""fullscreenenter"",""1"",""4359""
","
","","3254","audio/beep_loop.wav","32","","","","","","","","",""
"audio-button-response","3","9794","0.0-3.0","A116","true","img/card_backs/set1/green.gif","img/card_backs/set1/yellow.gif","img/card_backs/set1/purple.gif","img/card_backs/set1/red.gif","img/card_backs/set2/blue.gif","img/card_backs/set2/orange.gif","img/card_backs/set2/pink.gif","img/card_backs/set2/gray.gif","""event"",""trial"",""time""
""fullscreenenter"",""1"",""4359""
","
","
","""event"",""trial"",""time""
""fullscreenenter"",""1"",""4359""
","
","","NaN","audio/turtle.mp3","","3","","","","","","","",""
"audio-button-response","4","12392","0.0-4.0","A116","true","img/card_backs/set1/green.gif","img/card_backs/set1/yellow.gif","img/card_backs/set1/purple.gif","img/card_backs/set1/red.gif","img/card_backs/set2/blue.gif","img/card_backs/set2/orange.gif","img/card_backs/set2/pink.gif","img/card_backs/set2/gray.gif","""event"",""trial"",""time""
""fullscreenenter"",""1"",""4359""
","
","
","""event"",""trial"",""time""
""fullscreenenter"",""1"",""4359""
","
","","NaN","audio/shark.mp3","","2","","","","","","","",""
"fullscreen","5","15799","0.0-5.0","A116","true","img/card_backs/set1/green.gif","img/card_backs/set1/yellow.gif","img/card_backs/set1/purple.gif","img/card_backs/set1/red.gif","img/card_backs/set2/blue.gif","img/card_backs/set2/orange.gif","img/card_backs/set2/pink.gif","img/card_backs/set2/gray.gif","""event"",""trial"",""time""
""fullscreenenter"",""1"",""4359""
","
","
","""event"",""trial"",""time""
""fullscreenenter"",""1"",""4359""
","
","true","","","","","","","","","","","",""
"casino-keyboard-response","6","20063","0.0-6.0-0.0","A116","true","img/card_backs/set1/green.gif","img/card_backs/set1/yellow.gif","img/card_backs/set1/purple.gif","img/card_backs/set1/red.gif","img/card_backs/set2/blue.gif","img/card_backs/set2/orange.gif","img/card_backs/set2/pink.gif","img/card_backs/set2/gray.gif","""event"",""trial"",""time""
""fullscreenenter"",""1"",""4359""
","
","
","""event"",""trial"",""time""
""fullscreenenter"",""1"",""4359""
","
","","4262","Welcome to the casino!","71","","instructions","2021-04-07 00:59:30.075","","","","","",""
"casino-keyboard-response","7","29994","0.0-6.0-0.1","A116","true","img/card_backs/set1/green.gif","img/card_backs/set1/yellow.gif","img/card_backs/set1/purple.gif","img/card_backs/set1/red.gif","img/card_backs/set2/blue.gif","img/card_backs/set2/orange.gif","img/card_backs/set2/pink.gif","img/card_backs/set2/gray.gif","""event"",""trial"",""time""
""fullscreenenter"",""1"",""4359""
","
","
","""event"",""trial"",""time""
""fullscreenenter"",""1"",""4359""
","
","","9929.000000000007","Today you will be playing a game to earn tokens. </br> At the end of the experiment, you will be paid a bonus based on how many tokens you win. ","69","","instructions","2021-04-07 00:59:40.006","","","","","",""
"casino-keyboard-response","8","38121","0.0-6.0-0.2","A116","true","img/card_backs/set1/green.gif","img/card_backs/set1/yellow.gif","img/card_backs/set1/purple.gif","img/card_backs/set1/red.gif","img/card_backs/set2/blue.gif","img/card_backs/set2/orange.gif","img/card_backs/set2/pink.gif","img/card_backs/set2/gray.gif","""event"",""trial"",""time""
""fullscreenenter"",""1"",""4359""
","
","
","""event"",""trial"",""time""
""fullscreenenter"",""1"",""4359""
","
","","8126.000000000007","On every turn, you will be shown four different decks of cards. </br> You need to select a card from one of the four decks.  ","75","","instructions","2021-04-07 00:59:48.133","","","","","",""
"casino-keyboard-response","9","43698","0.0-6.0-0.3","A116","true","img/card_backs/set1/green.gif","img/card_backs/set1/yellow.gif","img/card_backs/set1/purple.gif","img/card_backs/set1/red.gif","img/card_backs/set2/blue.gif","img/card_backs/set2/orange.gif","img/card_backs/set2/pink.gif","img/card_backs/set2/gray.gif","""event"",""trial"",""time""
""fullscreenenter"",""1"",""4359""
","
","
","""event"",""trial"",""time""
""fullscreenenter"",""1"",""4359""
","
","","5571.000000000007","On the next screen, you will see what the decks will look like. ","66","","instructions","2021-04-07 00:59:53.710","","","","","",""
"card-selection-trial","10","47703","0.0-7.0-0.0","A116","true","img/card_backs/set1/green.gif","img/card_backs/set1/yellow.gif","img/card_backs/set1/purple.gif","img/card_backs/set1/red.gif","img/card_backs/set2/blue.gif","img/card_backs/set2/orange.gif","img/card_backs/set2/pink.gif","img/card_backs/set2/gray.gif","""event"",""trial"",""time""
""fullscreenenter"",""1"",""4359""
","
","
","""event"",""trial"",""time""
""fullscreenenter"",""1"",""4359""
","
","","null","","","","practice","2021-04-07 00:59:57.715","null","null","null","0","",""
"casino-keyboard-response","11","56650","0.0-8.0-0.0","A116","true","img/card_backs/set1/green.gif","img/card_backs/set1/yellow.gif","img/card_backs/set1/purple.gif","img/card_backs/set1/red.gif","img/card_backs/set2/blue.gif","img/card_backs/set2/orange.gif","img/card_backs/set2/pink.gif","img/card_backs/set2/gray.gif","""event"",""trial"",""time""
""fullscreenenter"",""1"",""4359""
","
","
","""event"",""trial"",""time""
""fullscreenenter"",""1"",""4359""
","
","","8945","You should pick a card from a deck using the '2', '4', '6', and '8' keys at the top of the keyboard.","85","","instructions","2021-04-07 01:00:06.662","","","","","",""
"casino-keyboard-response","12","62540","0.0-8.0-0.1","A116","true","img/card_backs/set1/green.gif","img/card_backs/set1/yellow.gif","img/card_backs/set1/purple.gif","img/card_backs/set1/red.gif","img/card_backs/set2/blue.gif","img/card_backs/set2/orange.gif","img/card_backs/set2/pink.gif","img/card_backs/set2/gray.gif","""event"",""trial"",""time""
""fullscreenenter"",""1"",""4359""
","
","
","""event"",""trial"",""time""
""fullscreenenter"",""1"",""4359""
","
","","5888","Once you select a card, it will turn over and you will see how many tokens you earned.","83","","instructions","2021-04-07 01:00:12.552","","","","","",""
"casino-keyboard-response","13","79896","0.0-8.0-0.2","A116","true","img/card_backs/set1/green.gif","img/card_backs/set1/yellow.gif","img/card_backs/set1/purple.gif","img/card_backs/set1/red.gif","img/card_backs/set2/blue.gif","img/card_backs/set2/orange.gif","img/card_backs/set2/pink.gif","img/card_backs/set2/gray.gif","""event"",""trial"",""time""
""fullscreenenter"",""1"",""4359""
","
","
","""event"",""trial"",""time""
""fullscreenenter"",""1"",""4359""
","
","","17355","Let's try practicing that! </br> First, try to put your fingers over the '2', '4', '6', and '8' keys. </br>  You can use whatever fingers are most comfortable for you. Try to find a comfortable position now. ","50","","instructions","2021-04-07 01:00:29.908","","","","","",""
"casino-keyboard-response","14","86143","0.0-8.0-0.3","A116","true","img/card_backs/set1/green.gif","img/card_backs/set1/yellow.gif","img/card_backs/set1/purple.gif","img/card_backs/set1/red.gif","img/card_backs/set2/blue.gif","img/card_backs/set2/orange.gif","img/card_backs/set2/pink.gif","img/card_backs/set2/gray.gif","""event"",""trial"",""time""
""fullscreenenter"",""1"",""4359""
","
","
","""event"",""trial"",""time""
""fullscreenenter"",""1"",""4359""
","
","","6246","Okay ready? </br> On the next screen, press '2' to select the left deck. ","50","","instructions","2021-04-07 01:00:36.155","","","","","",""
"card-selection-trial","15","89263","0.0-9.0-0.0","A116","true","img/card_backs/set1/green.gif","img/card_backs/set1/yellow.gif","img/card_backs/set1/purple.gif","img/card_backs/set1/red.gif","img/card_backs/set2/blue.gif","img/card_backs/set2/orange.gif","img/card_backs/set2/pink.gif","img/card_backs/set2/gray.gif","""event"",""trial"",""time""
""fullscreenenter"",""1"",""4359""
","
","
","""event"",""trial"",""time""
""fullscreenenter"",""1"",""4359""
","
","","1097","","","","practice_card_selection","2021-04-07 01:00:39.276","img/practice_cards/backs/dark_blue.gif","0","200","","",""
"casino-keyboard-response","16","95905","0.0-10.0-0.0","A116","true","img/card_backs/set1/green.gif","img/card_backs/set1/yellow.gif","img/card_backs/set1/purple.gif","img/card_backs/set1/red.gif","img/card_backs/set2/blue.gif","img/card_backs/set2/orange.gif","img/card_backs/set2/pink.gif","img/card_backs/set2/gray.gif","""event"",""trial"",""time""
""fullscreenenter"",""1"",""4359""
","
","
","""event"",""trial"",""time""
""fullscreenenter"",""1"",""4359""
","
","","6639","Great! Now on the next screen, try pressing '6' to select the third deck.","54","","instructions","2021-04-07 01:00:45.917","","","","","",""
"card-selection-trial","17","98800","0.0-11.0-0.0","A116","true","img/card_backs/set1/green.gif","img/card_backs/set1/yellow.gif","img/card_backs/set1/purple.gif","img/card_backs/set1/red.gif","img/card_backs/set2/blue.gif","img/card_backs/set2/orange.gif","img/card_backs/set2/pink.gif","img/card_backs/set2/gray.gif","""event"",""trial"",""time""
""fullscreenenter"",""1"",""4359""
","
","
","""event"",""trial"",""time""
""fullscreenenter"",""1"",""4359""
","
","","873","","","","practice_card_selection","2021-04-07 01:00:48.812","img/practice_cards/backs/black.gif","2","100","","",""
"casino-keyboard-response","18","103630","0.0-12.0-0.0","A116","true","img/card_backs/set1/green.gif","img/card_backs/set1/yellow.gif","img/card_backs/set1/purple.gif","img/card_backs/set1/red.gif","img/card_backs/set2/blue.gif","img/card_backs/set2/orange.gif","img/card_backs/set2/pink.gif","img/card_backs/set2/gray.gif","""event"",""trial"",""time""
""fullscreenenter"",""1"",""4359""
","
","
","""event"",""trial"",""time""
""fullscreenenter"",""1"",""4359""
","
","","4829","Now on the next screen, try pressing '4' to select the second deck.","52","","instructions","2021-04-07 01:00:53.642","","","","","",""
"card-selection-trial","19","106535","0.0-13.0-0.0","A116","true","img/card_backs/set1/green.gif","img/card_backs/set1/yellow.gif","img/card_backs/set1/purple.gif","img/card_backs/set1/red.gif","img/card_backs/set2/blue.gif","img/card_backs/set2/orange.gif","img/card_backs/set2/pink.gif","img/card_backs/set2/gray.gif","""event"",""trial"",""time""
""fullscreenenter"",""1"",""4359""
","
","
","""event"",""trial"",""time""
""fullscreenenter"",""1"",""4359""
","
","","888.0000000000146","","","","practice_card_selection","2021-04-07 01:00:56.548","img/practice_cards/backs/dark_green.gif","1","200","","",""
"casino-keyboard-response","20","110656","0.0-14.0-0.0","A116","true","img/card_backs/set1/green.gif","img/card_backs/set1/yellow.gif","img/card_backs/set1/purple.gif","img/card_backs/set1/red.gif","img/card_backs/set2/blue.gif","img/card_backs/set2/orange.gif","img/card_backs/set2/pink.gif","img/card_backs/set2/gray.gif","""event"",""trial"",""time""
""fullscreenenter"",""1"",""4359""
","
","
","""event"",""trial"",""time""
""fullscreenenter"",""1"",""4359""
","
","","4119","Finally, try pressing '8' to select the deck all the way on the right.","56","","instructions","2021-04-07 01:01:00.668","","","","","",""
"card-selection-trial","21","113510","0.0-15.0-0.0","A116","true","img/card_backs/set1/green.gif","img/card_backs/set1/yellow.gif","img/card_backs/set1/purple.gif","img/card_backs/set1/red.gif","img/card_backs/set2/blue.gif","img/card_backs/set2/orange.gif","img/card_backs/set2/pink.gif","img/card_backs/set2/gray.gif","""event"",""trial"",""time""
""fullscreenenter"",""1"",""4359""
","
","
","""event"",""trial"",""time""
""fullscreenenter"",""1"",""4359""
","
","","833.9999999999854","","","","practice_card_selection","2021-04-07 01:01:03.522","img/practice_cards/backs/brown.gif","3","100","","",""
"casino-keyboard-response","22","117934","0.0-16.0-0.0","A116","true","img/card_backs/set1/green.gif","img/card_backs/set1/yellow.gif","img/card_backs/set1/purple.gif","img/card_backs/set1/red.gif","img/card_backs/set2/blue.gif","img/card_backs/set2/orange.gif","img/card_backs/set2/pink.gif","img/card_backs/set2/gray.gif","""event"",""trial"",""time""
""fullscreenenter"",""1"",""4359""
","
","
","""event"",""trial"",""time""
""fullscreenenter"",""1"",""4359""
","
","","4423","Great! It seems like you are getting the hang of this.","80","","instructions","2021-04-07 01:01:07.947","","","","","",""
"casino-keyboard-response","23","125870","0.0-16.0-0.1","A116","true","img/card_backs/set1/green.gif","img/card_backs/set1/yellow.gif","img/card_backs/set1/purple.gif","img/card_backs/set1/red.gif","img/card_backs/set2/blue.gif","img/card_backs/set2/orange.gif","img/card_backs/set2/pink.gif","img/card_backs/set2/gray.gif","""event"",""trial"",""time""
""fullscreenenter"",""1"",""4359""
","
","
","""event"",""trial"",""time""
""fullscreenenter"",""1"",""4359""
","
","","7934","You may have noticed that some cards will cause you to <b> win </b> tokens while other cards will cause you to <b> lose </b>  tokens.","70","","instructions","2021-04-07 01:01:15.882","","","","","",""
"casino-keyboard-response","24","134422","0.0-16.0-0.2","A116","true","img/card_backs/set1/green.gif","img/card_backs/set1/yellow.gif","img/card_backs/set1/purple.gif","img/card_backs/set1/red.gif","img/card_backs/set2/blue.gif","img/card_backs/set2/orange.gif","img/card_backs/set2/pink.gif","img/card_backs/set2/gray.gif","""event"",""trial"",""time""
""fullscreenenter"",""1"",""4359""
","
","
","""event"",""trial"",""time""
""fullscreenenter"",""1"",""4359""
","
","","8551","Each deck has a mix of cards that will cause you to win and lose tokens. </br> However, the cards in each colored deck are different.","73","","instructions","2021-04-07 01:01:24.435","","","","","",""
"casino-keyboard-response","25","143036","0.0-16.0-0.3","A116","true","img/card_backs/set1/green.gif","img/card_backs/set1/yellow.gif","img/card_backs/set1/purple.gif","img/card_backs/set1/red.gif","img/card_backs/set2/blue.gif","img/card_backs/set2/orange.gif","img/card_backs/set2/pink.gif","img/card_backs/set2/gray.gif","""event"",""trial"",""time""
""fullscreenenter"",""1"",""4359""
","
","
","""event"",""trial"",""time""
""fullscreenenter"",""1"",""4359""
","
","","8612.00000000003","Some colored decks are luckier than others. </br> If you choose the lucky decks, you will earn more tokens than if you choose the unlucky decks.","69","","instructions","2021-04-07 01:01:33.048","","","","","",""
"casino-keyboard-response","26","150482","0.0-16.0-0.4","A116","true","img/card_backs/set1/green.gif","img/card_backs/set1/yellow.gif","img/card_backs/set1/purple.gif","img/card_backs/set1/red.gif","img/card_backs/set2/blue.gif","img/card_backs/set2/orange.gif","img/card_backs/set2/pink.gif","img/card_backs/set2/gray.gif","""event"",""trial"",""time""
""fullscreenenter"",""1"",""4359""
","
","
","""event"",""trial"",""time""
""fullscreenenter"",""1"",""4359""
","
","","7445.000000000029","You should try to figure out which decks are lucky. </br> Then, try to choose the lucky decks so you can win the most tokens.","87","","instructions","2021-04-07 01:01:40.494","","","","","",""
"casino-keyboard-response","27","162767","0.0-16.0-0.5","A116","true","img/card_backs/set1/green.gif","img/card_backs/set1/yellow.gif","img/card_backs/set1/purple.gif","img/card_backs/set1/red.gif","img/card_backs/set2/blue.gif","img/card_backs/set2/orange.gif","img/card_backs/set2/pink.gif","img/card_backs/set2/gray.gif","""event"",""trial"",""time""
""fullscreenenter"",""1"",""4359""
","
","
","""event"",""trial"",""time""
""fullscreenenter"",""1"",""4359""
","
","","12283","To make it trickier, the casino dealer will switch the locations of the decks on every turn. </br> The color of the deck determines how lucky it is. The location does not matter.","88","","instructions","2021-04-07 01:01:52.779","","","","","",""
"casino-keyboard-response","28","172299","0.0-16.0-0.6","A116","true","img/card_backs/set1/green.gif","img/card_backs/set1/yellow.gif","img/card_backs/set1/purple.gif","img/card_backs/set1/red.gif","img/card_backs/set2/blue.gif","img/card_backs/set2/orange.gif","img/card_backs/set2/pink.gif","img/card_backs/set2/gray.gif","""event"",""trial"",""time""
""fullscreenenter"",""1"",""4359""
","
","
","""event"",""trial"",""time""
""fullscreenenter"",""1"",""4359""
","
","","9531","The mix of cards in each colored deck will stay the same throughout the game. </br> That means that a deck that is lucky early on will stay lucky.","79","","instructions","2021-04-07 01:02:02.312","","","","","",""
"casino-keyboard-response","29","180707","0.0-16.0-0.7","A116","true","img/card_backs/set1/green.gif","img/card_backs/set1/yellow.gif","img/card_backs/set1/purple.gif","img/card_backs/set1/red.gif","img/card_backs/set2/blue.gif","img/card_backs/set2/orange.gif","img/card_backs/set2/pink.gif","img/card_backs/set2/gray.gif","""event"",""trial"",""time""
""fullscreenenter"",""1"",""4359""
","
","
","""event"",""trial"",""time""
""fullscreenenter"",""1"",""4359""
","
","","8406","Remember though, all the decks have a <b> mix </b> of both <b> good </b> and <b> bad </b> cards so it may take a couple of turns to figure out if a deck is lucky.","69","","instructions","2021-04-07 01:02:10.719","","","","","",""
"casino-keyboard-response","30","189224","0.0-16.0-0.8","A116","true","img/card_backs/set1/green.gif","img/card_backs/set1/yellow.gif","img/card_backs/set1/purple.gif","img/card_backs/set1/red.gif","img/card_backs/set2/blue.gif","img/card_backs/set2/orange.gif","img/card_backs/set2/pink.gif","img/card_backs/set2/gray.gif","""event"",""trial"",""time""
""fullscreenenter"",""1"",""4359""
","
","
","""event"",""trial"",""time""
""fullscreenenter"",""1"",""4359""
","
","","8515","At the end of the game, you will be paid bonus money based on how many tokens you win. </br> If you win more tokens, you will earn more money!","72","","instructions","2021-04-07 01:02:19.236","","","","","",""
"casino-keyboard-response","31","199728","0.0-16.0-0.9","A116","true","img/card_backs/set1/green.gif","img/card_backs/set1/yellow.gif","img/card_backs/set1/purple.gif","img/card_backs/set1/red.gif","img/card_backs/set2/blue.gif","img/card_backs/set2/orange.gif","img/card_backs/set2/pink.gif","img/card_backs/set2/gray.gif","""event"",""trial"",""time""
""fullscreenenter"",""1"",""4359""
","
","
","""event"",""trial"",""time""
""fullscreenenter"",""1"",""4359""
","
","","10502.99999999997","You will never <b> lose </b> money. </br> If you end up with fewer than 0 tokens, you will earn $0 of bonus money, but you will still be paid for playing the game.","83","","instructions","2021-04-07 01:02:29.740","","","","","",""
"casino-keyboard-response","32","204112","0.0-16.0-0.10","A116","true","img/card_backs/set1/green.gif","img/card_backs/set1/yellow.gif","img/card_backs/set1/purple.gif","img/card_backs/set1/red.gif","img/card_backs/set2/blue.gif","img/card_backs/set2/orange.gif","img/card_backs/set2/pink.gif","img/card_backs/set2/gray.gif","""event"",""trial"",""time""
""fullscreenenter"",""1"",""4359""
","
","
","""event"",""trial"",""time""
""fullscreenenter"",""1"",""4359""
","
","","4383.000000000029","You will have 10 seconds to make each choice.","82","","instructions","2021-04-07 01:02:34.124","","","","","",""
"casino-keyboard-response","33","212473","0.0-16.0-0.11","A116","true","img/card_backs/set1/green.gif","img/card_backs/set1/yellow.gif","img/card_backs/set1/purple.gif","img/card_backs/set1/red.gif","img/card_backs/set2/blue.gif","img/card_backs/set2/orange.gif","img/card_backs/set2/pink.gif","img/card_backs/set2/gray.gif","""event"",""trial"",""time""
""fullscreenenter"",""1"",""4359""
","
","
","""event"",""trial"",""time""
""fullscreenenter"",""1"",""4359""
","
","","8359","Before you play the game for real, you will play with practice decks. </br> The tokens you earn during practice won't count toward your total.","86","","instructions","2021-04-07 01:02:42.485","","","","","",""
"casino-keyboard-response","34","224083","0.0-16.0-0.12","A116","true","img/card_backs/set1/green.gif","img/card_backs/set1/yellow.gif","img/card_backs/set1/purple.gif","img/card_backs/set1/red.gif","img/card_backs/set2/blue.gif","img/card_backs/set2/orange.gif","img/card_backs/set2/pink.gif","img/card_backs/set2/gray.gif","""event"",""trial"",""time""
""fullscreenenter"",""1"",""4359""
","
","
","""event"",""trial"",""time""
""fullscreenenter"",""1"",""4359""
","
","","11609.00000000003","Ready? Remember, use the '2', '4', '6', and '8' keys to select the decks. </br> Put your fingers on those keys now and then press '2' to begin.","50","","instructions","2021-04-07 01:02:54.095","","","","","",""
"casino-fixation","35","224585","0.0-17.0-0.0","A116","true","img/card_backs/set1/green.gif","img/card_backs/set1/yellow.gif","img/card_backs/set1/purple.gif","img/card_backs/set1/red.gif","img/card_backs/set2/blue.gif","img/card_backs/set2/orange.gif","img/card_backs/set2/pink.gif","img/card_backs/set2/gray.gif","""event"",""trial"",""time""
""fullscreenenter"",""1"",""4359""
","
","
","""event"",""trial"",""time""
""fullscreenenter"",""1"",""4359""
","
","","null","","null","","fixation","2021-04-07 01:02:54.598","","","","","",""
"card-selection-trial","36","227971","0.0-17.0-1.0","A116","true","img/card_backs/set1/green.gif","img/card_backs/set1/yellow.gif","img/card_backs/set1/purple.gif","img/card_backs/set1/red.gif","img/card_backs/set2/blue.gif","img/card_backs/set2/orange.gif","img/card_backs/set2/pink.gif","img/card_backs/set2/gray.gif","""event"",""trial"",""time""
""fullscreenenter"",""1"",""4359""
","
","
","""event"",""trial"",""time""
""fullscreenenter"",""1"",""4359""
","
","","1377","","","","practice","2021-04-07 01:02:57.984","img/practice_cards/backs/brown.gif","0","-100","0","",""
"casino-fixation","37","228474","0.0-17.0-0.1","A116","true","img/card_backs/set1/green.gif","img/card_backs/set1/yellow.gif","img/card_backs/set1/purple.gif","img/card_backs/set1/red.gif","img/card_backs/set2/blue.gif","img/card_backs/set2/orange.gif","img/card_backs/set2/pink.gif","img/card_backs/set2/gray.gif","""event"",""trial"",""time""
""fullscreenenter"",""1"",""4359""
","
","
","""event"",""trial"",""time""
""fullscreenenter"",""1"",""4359""
","
","","null","","null","","fixation","2021-04-07 01:02:58.486","","","","","",""
"card-selection-trial","38","231711","0.0-17.0-1.1","A116","true","img/card_backs/set1/green.gif","img/card_backs/set1/yellow.gif","img/card_backs/set1/purple.gif","img/card_backs/set1/red.gif","img/card_backs/set2/blue.gif","img/card_backs/set2/orange.gif","img/card_backs/set2/pink.gif","img/card_backs/set2/gray.gif","""event"",""trial"",""time""
""fullscreenenter"",""1"",""4359""
","
","
","""event"",""trial"",""time""
""fullscreenenter"",""1"",""4359""
","
","","1228.999999999971","","","","practice","2021-04-07 01:03:01.723","img/practice_cards/backs/black.gif","1","100","0","",""
"casino-fixation","39","232213","0.0-17.0-0.2","A116","true","img/card_backs/set1/green.gif","img/card_backs/set1/yellow.gif","img/card_backs/set1/purple.gif","img/card_backs/set1/red.gif","img/card_backs/set2/blue.gif","img/card_backs/set2/orange.gif","img/card_backs/set2/pink.gif","img/card_backs/set2/gray.gif","""event"",""trial"",""time""
""fullscreenenter"",""1"",""4359""
","
","
","""event"",""trial"",""time""
""fullscreenenter"",""1"",""4359""
","
","","null","","null","","fixation","2021-04-07 01:03:02.225","","","","","",""
"card-selection-trial","40","235432","0.0-17.0-1.2","A116","true","img/card_backs/set1/green.gif","img/card_backs/set1/yellow.gif","img/card_backs/set1/purple.gif","img/card_backs/set1/red.gif","img/card_backs/set2/blue.gif","img/card_backs/set2/orange.gif","img/card_backs/set2/pink.gif","img/card_backs/set2/gray.gif","""event"",""trial"",""time""
""fullscreenenter"",""1"",""4359""
","
","
","""event"",""trial"",""time""
""fullscreenenter"",""1"",""4359""
","
","","1212.999999999971","","","","practice","2021-04-07 01:03:05.444","img/practice_cards/backs/dark_blue.gif","2","200","0","",""
"casino-fixation","41","235934","0.0-17.0-0.3","A116","true","img/card_backs/set1/green.gif","img/card_backs/set1/yellow.gif","img/card_backs/set1/purple.gif","img/card_backs/set1/red.gif","img/card_backs/set2/blue.gif","img/card_backs/set2/orange.gif","img/card_backs/set2/pink.gif","img/card_backs/set2/gray.gif","""event"",""trial"",""time""
""fullscreenenter"",""1"",""4359""
","
","
","""event"",""trial"",""time""
""fullscreenenter"",""1"",""4359""
","
","","null","","null","","fixation","2021-04-07 01:03:05.946","","","","","",""
"card-selection-trial","42","238853","0.0-17.0-1.3","A116","true","img/card_backs/set1/green.gif","img/card_backs/set1/yellow.gif","img/card_backs/set1/purple.gif","img/card_backs/set1/red.gif","img/card_backs/set2/blue.gif","img/card_backs/set2/orange.gif","img/card_backs/set2/pink.gif","img/card_backs/set2/gray.gif","""event"",""trial"",""time""
""fullscreenenter"",""1"",""4359""
","
","
","""event"",""trial"",""time""
""fullscreenenter"",""1"",""4359""
","
","","910.9999999999709","","","","practice","2021-04-07 01:03:08.865","img/practice_cards/backs/dark_green.gif","2","-200","0","",""
"casino-fixation","43","239356","0.0-17.0-0.4","A116","true","img/card_backs/set1/green.gif","img/card_backs/set1/yellow.gif","img/card_backs/set1/purple.gif","img/card_backs/set1/red.gif","img/card_backs/set2/blue.gif","img/card_backs/set2/orange.gif","img/card_backs/set2/pink.gif","img/card_backs/set2/gray.gif","""event"",""trial"",""time""
""fullscreenenter"",""1"",""4359""
","
","
","""event"",""trial"",""time""
""fullscreenenter"",""1"",""4359""
","
","","null","","null","","fixation","2021-04-07 01:03:09.368","","","","","",""
"card-selection-trial","44","242049","0.0-17.0-1.4","A116","true","img/card_backs/set1/green.gif","img/card_backs/set1/yellow.gif","img/card_backs/set1/purple.gif","img/card_backs/set1/red.gif","img/card_backs/set2/blue.gif","img/card_backs/set2/orange.gif","img/card_backs/set2/pink.gif","img/card_backs/set2/gray.gif","""event"",""trial"",""time""
""fullscreenenter"",""1"",""4359""
","
","
","""event"",""trial"",""time""
""fullscreenenter"",""1"",""4359""
","
","","684.0000000000291","","","","practice","2021-04-07 01:03:12.061","img/practice_cards/backs/black.gif","3","100","0","",""
"casino-fixation","45","242551","0.0-17.0-0.5","A116","true","img/card_backs/set1/green.gif","img/card_backs/set1/yellow.gif","img/card_backs/set1/purple.gif","img/card_backs/set1/red.gif","img/card_backs/set2/blue.gif","img/card_backs/set2/orange.gif","img/card_backs/set2/pink.gif","img/card_backs/set2/gray.gif","""event"",""trial"",""time""
""fullscreenenter"",""1"",""4359""
","
","
","""event"",""trial"",""time""
""fullscreenenter"",""1"",""4359""
","
","","null","","null","","fixation","2021-04-07 01:03:12.563","","","","","",""
"card-selection-trial","46","245204","0.0-17.0-1.5","A116","true","img/card_backs/set1/green.gif","img/card_backs/set1/yellow.gif","img/card_backs/set1/purple.gif","img/card_backs/set1/red.gif","img/card_backs/set2/blue.gif","img/card_backs/set2/orange.gif","img/card_backs/set2/pink.gif","img/card_backs/set2/gray.gif","""event"",""trial"",""time""
""fullscreenenter"",""1"",""4359""
","
","
","""event"",""trial"",""time""
""fullscreenenter"",""1"",""4359""
","
","","645.0000000000582","","","","practice","2021-04-07 01:03:15.217","img/practice_cards/backs/dark_blue.gif","3","200","0","",""
"casino-fixation","47","245706","0.0-17.0-0.6","A116","true","img/card_backs/set1/green.gif","img/card_backs/set1/yellow.gif","img/card_backs/set1/purple.gif","img/card_backs/set1/red.gif","img/card_backs/set2/blue.gif","img/card_backs/set2/orange.gif","img/card_backs/set2/pink.gif","img/card_backs/set2/gray.gif","""event"",""trial"",""time""
""fullscreenenter"",""1"",""4359""
","
","
","""event"",""trial"",""time""
""fullscreenenter"",""1"",""4359""
","
","","null","","null","","fixation","2021-04-07 01:03:15.718","","","","","",""
"card-selection-trial","48","248301","0.0-17.0-1.6","A116","true","img/card_backs/set1/green.gif","img/card_backs/set1/yellow.gif","img/card_backs/set1/purple.gif","img/card_backs/set1/red.gif","img/card_backs/set2/blue.gif","img/card_backs/set2/orange.gif","img/card_backs/set2/pink.gif","img/card_backs/set2/gray.gif","""event"",""trial"",""time""
""fullscreenenter"",""1"",""4359""
","
","
","""event"",""trial"",""time""
""fullscreenenter"",""1"",""4359""
","
","","587.0000000000582","","","","practice","2021-04-07 01:03:18.313","img/practice_cards/backs/black.gif","3","-100","0","",""
"casino-fixation","49","248803","0.0-17.0-0.7","A116","true","img/card_backs/set1/green.gif","img/card_backs/set1/yellow.gif","img/card_backs/set1/purple.gif","img/card_backs/set1/red.gif","img/card_backs/set2/blue.gif","img/card_backs/set2/orange.gif","img/card_backs/set2/pink.gif","img/card_backs/set2/gray.gif","""event"",""trial"",""time""
""fullscreenenter"",""1"",""4359""
","
","
","""event"",""trial"",""time""
""fullscreenenter"",""1"",""4359""
","
","","null","","null","","fixation","2021-04-07 01:03:18.815","","","","","",""
"card-selection-trial","50","251542","0.0-17.0-1.7","A116","true","img/card_backs/set1/green.gif","img/card_backs/set1/yellow.gif","img/card_backs/set1/purple.gif","img/card_backs/set1/red.gif","img/card_backs/set2/blue.gif","img/card_backs/set2/orange.gif","img/card_backs/set2/pink.gif","img/card_backs/set2/gray.gif","""event"",""trial"",""time""
""fullscreenenter"",""1"",""4359""
","
","
","""event"",""trial"",""time""
""fullscreenenter"",""1"",""4359""
","
","","731","","","","practice","2021-04-07 01:03:21.554","img/practice_cards/backs/black.gif","1","100","0","",""
"casino-fixation","51","252045","0.0-17.0-0.8","A116","true","img/card_backs/set1/green.gif","img/card_backs/set1/yellow.gif","img/card_backs/set1/purple.gif","img/card_backs/set1/red.gif","img/card_backs/set2/blue.gif","img/card_backs/set2/orange.gif","img/card_backs/set2/pink.gif","img/card_backs/set2/gray.gif","""event"",""trial"",""time""
""fullscreenenter"",""1"",""4359""
","
","
","""event"",""trial"",""time""
""fullscreenenter"",""1"",""4359""
","
","","null","","null","","fixation","2021-04-07 01:03:22.057","","","","","",""
"card-selection-trial","52","254729","0.0-17.0-1.8","A116","true","img/card_backs/set1/green.gif","img/card_backs/set1/yellow.gif","img/card_backs/set1/purple.gif","img/card_backs/set1/red.gif","img/card_backs/set2/blue.gif","img/card_backs/set2/orange.gif","img/card_backs/set2/pink.gif","img/card_backs/set2/gray.gif","""event"",""trial"",""time""
""fullscreenenter"",""1"",""4359""
","
","
","""event"",""trial"",""time""
""fullscreenenter"",""1"",""4359""
","
","","677","","","","practice","2021-04-07 01:03:24.742","img/practice_cards/backs/dark_green.gif","1","200","0","",""
"casino-fixation","53","255232","0.0-17.0-0.9","A116","true","img/card_backs/set1/green.gif","img/card_backs/set1/yellow.gif","img/card_backs/set1/purple.gif","img/card_backs/set1/red.gif","img/card_backs/set2/blue.gif","img/card_backs/set2/orange.gif","img/card_backs/set2/pink.gif","img/card_backs/set2/gray.gif","""event"",""trial"",""time""
""fullscreenenter"",""1"",""4359""
","
","
","""event"",""trial"",""time""
""fullscreenenter"",""1"",""4359""
","
","","null","","null","","fixation","2021-04-07 01:03:25.244","","","","","",""
"card-selection-trial","54","257785","0.0-17.0-1.9","A116","true","img/card_backs/set1/green.gif","img/card_backs/set1/yellow.gif","img/card_backs/set1/purple.gif","img/card_backs/set1/red.gif","img/card_backs/set2/blue.gif","img/card_backs/set2/orange.gif","img/card_backs/set2/pink.gif","img/card_backs/set2/gray.gif","""event"",""trial"",""time""
""fullscreenenter"",""1"",""4359""
","
","
","""event"",""trial"",""time""
""fullscreenenter"",""1"",""4359""
","
","","546","","","","practice","2021-04-07 01:03:27.798","img/practice_cards/backs/black.gif","1","-100","0","",""
"casino-keyboard-response","55","261229","0.0-18.0","A116","true","img/card_backs/set1/green.gif","img/card_backs/set1/yellow.gif","img/card_backs/set1/purple.gif","img/card_backs/set1/red.gif","img/card_backs/set2/blue.gif","img/card_backs/set2/orange.gif","img/card_backs/set2/pink.gif","img/card_backs/set2/gray.gif","""event"",""trial"",""time""
""fullscreenenter"",""1"",""4359""
","
","
","""event"",""trial"",""time""
""fullscreenenter"",""1"",""4359""
","
","","3442.000000000058","You earned 400 tokens during the practice round!","82","","","2021-04-07 01:03:31.241","","","","","",""
"casino-keyboard-response","56","265506","0.0-19.0-0.0","A116","true","img/card_backs/set1/green.gif","img/card_backs/set1/yellow.gif","img/card_backs/set1/purple.gif","img/card_backs/set1/red.gif","img/card_backs/set2/blue.gif","img/card_backs/set2/orange.gif","img/card_backs/set2/pink.gif","img/card_backs/set2/gray.gif","""event"",""trial"",""time""
""fullscreenenter"",""1"",""4359""
","
","
","""event"",""trial"",""time""
""fullscreenenter"",""1"",""4359""
","
","","4275","Nice job! You are almost ready to play the real game.","86","","instructions","2021-04-07 01:03:35.518","","","","","",""
"casino-keyboard-response","57","272016","0.0-19.0-0.1","A116","true","img/card_backs/set1/green.gif","img/card_backs/set1/yellow.gif","img/card_backs/set1/purple.gif","img/card_backs/set1/red.gif","img/card_backs/set2/blue.gif","img/card_backs/set2/orange.gif","img/card_backs/set2/pink.gif","img/card_backs/set2/gray.gif","""event"",""trial"",""time""
""fullscreenenter"",""1"",""4359""
","
","
","""event"",""trial"",""time""
""fullscreenenter"",""1"",""4359""
","
","","6507.999999999942","You will play two rounds of the real game. In each round, you will pick 100 cards in total.","73","","instructions","2021-04-07 01:03:42.028","","","","","",""
"casino-keyboard-response","58","276473","0.0-19.0-0.2","A116","true","img/card_backs/set1/green.gif","img/card_backs/set1/yellow.gif","img/card_backs/set1/purple.gif","img/card_backs/set1/red.gif","img/card_backs/set2/blue.gif","img/card_backs/set2/orange.gif","img/card_backs/set2/pink.gif","img/card_backs/set2/gray.gif","""event"",""trial"",""time""
""fullscreenenter"",""1"",""4359""
","
","
","""event"",""trial"",""time""
""fullscreenenter"",""1"",""4359""
","
","","4457","We are now going to ask you some questions about how the game works.","66","","instructions","2021-04-07 01:03:46.485","","","","","",""
"casino-keyboard-response","59","282778","0.0-19.0-0.3","A116","true","img/card_backs/set1/green.gif","img/card_backs/set1/yellow.gif","img/card_backs/set1/purple.gif","img/card_backs/set1/red.gif","img/card_backs/set2/blue.gif","img/card_backs/set2/orange.gif","img/card_backs/set2/pink.gif","img/card_backs/set2/gray.gif","""event"",""trial"",""time""
""fullscreenenter"",""1"",""4359""
","
","
","""event"",""trial"",""time""
""fullscreenenter"",""1"",""4359""
","
","","6304","Answer carefully. You will not be able to begin the game until you answer them correctly.","67","","instructions","2021-04-07 01:03:52.790","","","","","",""
"casino-comp_q","60","288833","0.0-20.0-0.0","A116","true","img/card_backs/set1/green.gif","img/card_backs/set1/yellow.gif","img/card_backs/set1/purple.gif","img/card_backs/set1/red.gif","img/card_backs/set2/blue.gif","img/card_backs/set2/orange.gif","img/card_backs/set2/pink.gif","img/card_backs/set2/gray.gif","""event"",""trial"",""time""
""fullscreenenter"",""1"",""4359""
","
","
","""event"",""trial"",""time""
""fullscreenenter"",""1"",""4359""
","
","","6054","True or False: All the decks have some cards that cause you to win tokens and some cards that cause you to lose tokens.","84","","","2021-04-07 01:03:58.846","","","","","",""
"casino-keyboard-response","61","292036","0.0-20.0-1.0","A116","true","img/card_backs/set1/green.gif","img/card_backs/set1/yellow.gif","img/card_backs/set1/purple.gif","img/card_backs/set1/red.gif","img/card_backs/set2/blue.gif","img/card_backs/set2/orange.gif","img/card_backs/set2/pink.gif","img/card_backs/set2/gray.gif","""event"",""trial"",""time""
""fullscreenenter"",""1"",""4359""
","
","
","""event"",""trial"",""time""
""fullscreenenter"",""1"",""4359""
","
","","3201","True is correct! All the decks have a mix of winning and losing cards.","77","","","2021-04-07 01:04:02.048","","","","","true",""
"casino-comp_q","62","296808","0.0-21.0-0.0","A116","true","img/card_backs/set1/green.gif","img/card_backs/set1/yellow.gif","img/card_backs/set1/purple.gif","img/card_backs/set1/red.gif","img/card_backs/set2/blue.gif","img/card_backs/set2/orange.gif","img/card_backs/set2/pink.gif","img/card_backs/set2/gray.gif","""event"",""trial"",""time""
""fullscreenenter"",""1"",""4359""
","
","
","""event"",""trial"",""time""
""fullscreenenter"",""1"",""4359""
","
","","4770","True or False: You will have as much time as you want to make your response.","70","","","2021-04-07 01:04:06.820","","","","","",""
"casino-keyboard-response","63","300252","0.0-21.0-1.0","A116","true","img/card_backs/set1/green.gif","img/card_backs/set1/yellow.gif","img/card_backs/set1/purple.gif","img/card_backs/set1/red.gif","img/card_backs/set2/blue.gif","img/card_backs/set2/orange.gif","img/card_backs/set2/pink.gif","img/card_backs/set2/gray.gif","""event"",""trial"",""time""
""fullscreenenter"",""1"",""4359""
","
","
","""event"",""trial"",""time""
""fullscreenenter"",""1"",""4359""
","
","","3442","False is correct! You will only have 10 seconds to make each choice.","75","","","2021-04-07 01:04:10.264","","","","","true",""
"casino-comp_q","64","303879","0.0-22.0-0.0","A116","true","img/card_backs/set1/green.gif","img/card_backs/set1/yellow.gif","img/card_backs/set1/purple.gif","img/card_backs/set1/red.gif","img/card_backs/set2/blue.gif","img/card_backs/set2/orange.gif","img/card_backs/set2/pink.gif","img/card_backs/set2/gray.gif","""event"",""trial"",""time""
""fullscreenenter"",""1"",""4359""
","
","
","""event"",""trial"",""time""
""fullscreenenter"",""1"",""4359""
","
","","3626","True or False: The location of the deck determines how lucky it is.","70","","","2021-04-07 01:04:13.891","","","","","",""
"casino-keyboard-response","65","306840","0.0-22.0-1.0","A116","true","img/card_backs/set1/green.gif","img/card_backs/set1/yellow.gif","img/card_backs/set1/purple.gif","img/card_backs/set1/red.gif","img/card_backs/set2/blue.gif","img/card_backs/set2/orange.gif","img/card_backs/set2/pink.gif","img/card_backs/set2/gray.gif","""event"",""trial"",""time""
""fullscreenenter"",""1"",""4359""
","
","
","""event"",""trial"",""time""
""fullscreenenter"",""1"",""4359""
","
","","2959","False is correct! The <i>color</i>  of the deck determines how lucky or unlucky it is.","68","","","2021-04-07 01:04:16.852","","","","","true",""
"casino-keyboard-response","66","311287","0.0-23.0-0.0","A116","true","img/card_backs/set1/green.gif","img/card_backs/set1/yellow.gif","img/card_backs/set1/purple.gif","img/card_backs/set1/red.gif","img/card_backs/set2/blue.gif","img/card_backs/set2/orange.gif","img/card_backs/set2/pink.gif","img/card_backs/set2/gray.gif","""event"",""trial"",""time""
""fullscreenenter"",""1"",""4359""
","
","
","""event"",""trial"",""time""
""fullscreenenter"",""1"",""4359""
","
","","4445","Great job! Now it's time to start the real game.","82","","instructions","2021-04-07 01:04:21.299","","","","","",""
"casino-keyboard-response","67","316634","0.0-23.0-0.1","A116","true","img/card_backs/set1/green.gif","img/card_backs/set1/yellow.gif","img/card_backs/set1/purple.gif","img/card_backs/set1/red.gif","img/card_backs/set2/blue.gif","img/card_backs/set2/orange.gif","img/card_backs/set2/pink.gif","img/card_backs/set2/gray.gif","""event"",""trial"",""time""
""fullscreenenter"",""1"",""4359""
","
","
","""event"",""trial"",""time""
""fullscreenenter"",""1"",""4359""
","
","","5346","Before we start, we're going to head into a new room of the casino.","86","","instructions","2021-04-07 01:04:26.646","","","","","",""
"casino-keyboard-response","68","322941","0.0-24.0-0.0","A116","true","img/card_backs/set1/green.gif","img/card_backs/set1/yellow.gif","img/card_backs/set1/purple.gif","img/card_backs/set1/red.gif","img/card_backs/set2/blue.gif","img/card_backs/set2/orange.gif","img/card_backs/set2/pink.gif","img/card_backs/set2/gray.gif","""event"",""trial"",""time""
""fullscreenenter"",""1"",""4359""
","
","
","""event"",""trial"",""time""
""fullscreenenter"",""1"",""4359""
","
","","6306","Here we are! The real game will use different cards, but the rules will be the same.","71","","instructions","2021-04-07 01:04:32.953","","","","","",""
"casino-keyboard-response","69","332649","0.0-24.0-0.1","A116","true","img/card_backs/set1/green.gif","img/card_backs/set1/yellow.gif","img/card_backs/set1/purple.gif","img/card_backs/set1/red.gif","img/card_backs/set2/blue.gif","img/card_backs/set2/orange.gif","img/card_backs/set2/pink.gif","img/card_backs/set2/gray.gif","""event"",""trial"",""time""
""fullscreenenter"",""1"",""4359""
","
","
","""event"",""trial"",""time""
""fullscreenenter"",""1"",""4359""
","
","","9706.999999999942","Ready? Put your fingers over the '2', '4', 6', and '8' keys so you are ready to play the game. </br> Then press 2 to start.","50","","instructions","2021-04-07 01:04:42.662","","","","","",""
"casino-fixation","70","333152","0.0-25.0-0.0","A116","true","img/card_backs/set1/green.gif","img/card_backs/set1/yellow.gif","img/card_backs/set1/purple.gif","img/card_backs/set1/red.gif","img/card_backs/set2/blue.gif","img/card_backs/set2/orange.gif","img/card_backs/set2/pink.gif","img/card_backs/set2/gray.gif","""event"",""trial"",""time""
""fullscreenenter"",""1"",""4359""
","
","
","""event"",""trial"",""time""
""fullscreenenter"",""1"",""4359""
","
","","null","","null","","fixation","2021-04-07 01:04:43.164","","","","","",""
"card-selection-trial","71","336330","0.0-25.0-1.0","A116","true","img/card_backs/set1/green.gif","img/card_backs/set1/yellow.gif","img/card_backs/set1/purple.gif","img/card_backs/set1/red.gif","img/card_backs/set2/blue.gif","img/card_backs/set2/orange.gif","img/card_backs/set2/pink.gif","img/card_backs/set2/gray.gif","""event"",""trial"",""time""
""fullscreenenter"",""1"",""4359""
","
","
","""event"",""trial"",""time""
""fullscreenenter"",""1"",""4359""
","
","","1160.0000000000582","","","","real_trial","2021-04-07 01:04:46.343","img/card_backs/set1/yellow.gif","0","240","1","",""
"casino-fixation","72","336832","0.0-25.0-0.1","A116","true","img/card_backs/set1/green.gif","img/card_backs/set1/yellow.gif","img/card_backs/set1/purple.gif","img/card_backs/set1/red.gif","img/card_backs/set2/blue.gif","img/card_backs/set2/orange.gif","img/card_backs/set2/pink.gif","img/card_backs/set2/gray.gif","""event"",""trial"",""time""
""fullscreenenter"",""1"",""4359""
","
","
","""event"",""trial"",""time""
""fullscreenenter"",""1"",""4359""
","
","","null","","null","","fixation","2021-04-07 01:04:46.844","","","","","",""
"card-selection-trial","73","339532","0.0-25.0-1.1","A116","true","img/card_backs/set1/green.gif","img/card_backs/set1/yellow.gif","img/card_backs/set1/purple.gif","img/card_backs/set1/red.gif","img/card_backs/set2/blue.gif","img/card_backs/set2/orange.gif","img/card_backs/set2/pink.gif","img/card_backs/set2/gray.gif","""event"",""trial"",""time""
""fullscreenenter"",""1"",""4359""
","
","
","""event"",""trial"",""time""
""fullscreenenter"",""1"",""4359""
","
","","687.0000000000582","","","","real_trial","2021-04-07 01:04:49.544","img/card_backs/set1/yellow.gif","1","240","1","",""
"casino-fixation","74","340034","0.0-25.0-0.2","A116","true","img/card_backs/set1/green.gif","img/card_backs/set1/yellow.gif","img/card_backs/set1/purple.gif","img/card_backs/set1/red.gif","img/card_backs/set2/blue.gif","img/card_backs/set2/orange.gif","img/card_backs/set2/pink.gif","img/card_backs/set2/gray.gif","""event"",""trial"",""time""
""fullscreenenter"",""1"",""4359""
","
","
","""event"",""trial"",""time""
""fullscreenenter"",""1"",""4359""
","
","","null","","null","","fixation","2021-04-07 01:04:50.046","","","","","",""
"card-selection-trial","75","342640","0.0-25.0-1.2","A116","true","img/card_backs/set1/green.gif","img/card_backs/set1/yellow.gif","img/card_backs/set1/purple.gif","img/card_backs/set1/red.gif","img/card_backs/set2/blue.gif","img/card_backs/set2/orange.gif","img/card_backs/set2/pink.gif","img/card_backs/set2/gray.gif","""event"",""trial"",""time""
""fullscreenenter"",""1"",""4359""
","
","
","""event"",""trial"",""time""
""fullscreenenter"",""1"",""4359""
","
","","598.0000000000582","","","","real_trial","2021-04-07 01:04:52.652","img/card_backs/set1/red.gif","1","-110","1","",""
"casino-fixation","76","343142","0.0-25.0-0.3","A116","true","img/card_backs/set1/green.gif","img/card_backs/set1/yellow.gif","img/card_backs/set1/purple.gif","img/card_backs/set1/red.gif","img/card_backs/set2/blue.gif","img/card_backs/set2/orange.gif","img/card_backs/set2/pink.gif","img/card_backs/set2/gray.gif","""event"",""trial"",""time""
""fullscreenenter"",""1"",""4359""
","
","
","""event"",""trial"",""time""
""fullscreenenter"",""1"",""4359""
","
","","null","","null","","fixation","2021-04-07 01:04:53.154","","","","","",""
"card-selection-trial","77","345621","0.0-25.0-1.3","A116","true","img/card_backs/set1/green.gif","img/card_backs/set1/yellow.gif","img/card_backs/set1/purple.gif","img/card_backs/set1/red.gif","img/card_backs/set2/blue.gif","img/card_backs/set2/orange.gif","img/card_backs/set2/pink.gif","img/card_backs/set2/gray.gif","""event"",""trial"",""time""
""fullscreenenter"",""1"",""4359""
","
","
","""event"",""trial"",""time""
""fullscreenenter"",""1"",""4359""
","
","","470","","","","real_trial","2021-04-07 01:04:55.633","img/card_backs/set1/yellow.gif","0","-190","1","",""
"casino-fixation","78","346123","0.0-25.0-0.4","A116","true","img/card_backs/set1/green.gif","img/card_backs/set1/yellow.gif","img/card_backs/set1/purple.gif","img/card_backs/set1/red.gif","img/card_backs/set2/blue.gif","img/card_backs/set2/orange.gif","img/card_backs/set2/pink.gif","img/card_backs/set2/gray.gif","""event"",""trial"",""time""
""fullscreenenter"",""1"",""4359""
","
","
","""event"",""trial"",""time""
""fullscreenenter"",""1"",""4359""
","
","","null","","null","","fixation","2021-04-07 01:04:56.135","","","","","",""
"card-selection-trial","79","348622","0.0-25.0-1.4","A116","true","img/card_backs/set1/green.gif","img/card_backs/set1/yellow.gif","img/card_backs/set1/purple.gif","img/card_backs/set1/red.gif","img/card_backs/set2/blue.gif","img/card_backs/set2/orange.gif","img/card_backs/set2/pink.gif","img/card_backs/set2/gray.gif","""event"",""trial"",""time""
""fullscreenenter"",""1"",""4359""
","
","
","""event"",""trial"",""time""
""fullscreenenter"",""1"",""4359""
","
","","493","","","","real_trial","2021-04-07 01:04:58.635","img/card_backs/set1/yellow.gif","2","260","1","",""
"casino-fixation","80","349124","0.0-25.0-0.5","A116","true","img/card_backs/set1/green.gif","img/card_backs/set1/yellow.gif","img/card_backs/set1/purple.gif","img/card_backs/set1/red.gif","img/card_backs/set2/blue.gif","img/card_backs/set2/orange.gif","img/card_backs/set2/pink.gif","img/card_backs/set2/gray.gif","""event"",""trial"",""time""
""fullscreenenter"",""1"",""4359""
","
","
","""event"",""trial"",""time""
""fullscreenenter"",""1"",""4359""
","
","","null","","null","","fixation","2021-04-07 01:04:59.136","","","","","",""
"card-selection-trial","81","351624","0.0-25.0-1.5","A116","true","img/card_backs/set1/green.gif","img/card_backs/set1/yellow.gif","img/card_backs/set1/purple.gif","img/card_backs/set1/red.gif","img/card_backs/set2/blue.gif","img/card_backs/set2/orange.gif","img/card_backs/set2/pink.gif","img/card_backs/set2/gray.gif","""event"",""trial"",""time""
""fullscreenenter"",""1"",""4359""
","
","
","""event"",""trial"",""time""
""fullscreenenter"",""1"",""4359""
","
","","489.9999999999418","","","","real_trial","2021-04-07 01:05:01.636","img/card_backs/set1/green.gif","3","-190","1","",""
"casino-fixation","82","352127","0.0-25.0-0.6","A116","true","img/card_backs/set1/green.gif","img/card_backs/set1/yellow.gif","img/card_backs/set1/purple.gif","img/card_backs/set1/red.gif","img/card_backs/set2/blue.gif","img/card_backs/set2/orange.gif","img/card_backs/set2/pink.gif","img/card_backs/set2/gray.gif","""event"",""trial"",""time""
""fullscreenenter"",""1"",""4359""
","
","
","""event"",""trial"",""time""
""fullscreenenter"",""1"",""4359""
","
","","null","","null","","fixation","2021-04-07 01:05:02.139","","","","","",""
"card-selection-trial","83","354517","0.0-25.0-1.6","A116","true","img/card_backs/set1/green.gif","img/card_backs/set1/yellow.gif","img/card_backs/set1/purple.gif","img/card_backs/set1/red.gif","img/card_backs/set2/blue.gif","img/card_backs/set2/orange.gif","img/card_backs/set2/pink.gif","img/card_backs/set2/gray.gif","""event"",""trial"",""time""
""fullscreenenter"",""1"",""4359""
","
","
","""event"",""trial"",""time""
""fullscreenenter"",""1"",""4359""
","
","","381","","","","real_trial","2021-04-07 01:05:04.529","img/card_backs/set1/green.gif","2","250","1","",""
"casino-fixation","84","355019","0.0-25.0-0.7","A116","true","img/card_backs/set1/green.gif","img/card_backs/set1/yellow.gif","img/card_backs/set1/purple.gif","img/card_backs/set1/red.gif","img/card_backs/set2/blue.gif","img/card_backs/set2/orange.gif","img/card_backs/set2/pink.gif","img/card_backs/set2/gray.gif","""event"",""trial"",""time""
""fullscreenenter"",""1"",""4359""
","
","
","""event"",""trial"",""time""
""fullscreenenter"",""1"",""4359""
","
","","null","","null","","fixation","2021-04-07 01:05:05.031","","","","","",""
"card-selection-trial","85","357515","0.0-25.0-1.7","A116","true","img/card_backs/set1/green.gif","img/card_backs/set1/yellow.gif","img/card_backs/set1/purple.gif","img/card_backs/set1/red.gif","img/card_backs/set2/blue.gif","img/card_backs/set2/orange.gif","img/card_backs/set2/pink.gif","img/card_backs/set2/gray.gif","""event"",""trial"",""time""
""fullscreenenter"",""1"",""4359""
","
","
","""event"",""trial"",""time""
""fullscreenenter"",""1"",""4359""
","
","","486","","","","real_trial","2021-04-07 01:05:07.527","img/card_backs/set1/green.gif","2","-190","1","",""
"casino-fixation","86","358017","0.0-25.0-0.8","A116","true","img/card_backs/set1/green.gif","img/card_backs/set1/yellow.gif","img/card_backs/set1/purple.gif","img/card_backs/set1/red.gif","img/card_backs/set2/blue.gif","img/card_backs/set2/orange.gif","img/card_backs/set2/pink.gif","img/card_backs/set2/gray.gif","""event"",""trial"",""time""
""fullscreenenter"",""1"",""4359""
","
","
","""event"",""trial"",""time""
""fullscreenenter"",""1"",""4359""
","
","","null","","null","","fixation","2021-04-07 01:05:08.029","","","","","",""
"card-selection-trial","87","360409","0.0-25.0-1.8","A116","true","img/card_backs/set1/green.gif","img/card_backs/set1/yellow.gif","img/card_backs/set1/purple.gif","img/card_backs/set1/red.gif","img/card_backs/set2/blue.gif","img/card_backs/set2/orange.gif","img/card_backs/set2/pink.gif","img/card_backs/set2/gray.gif","""event"",""trial"",""time""
""fullscreenenter"",""1"",""4359""
","
","
","""event"",""trial"",""time""
""fullscreenenter"",""1"",""4359""
","
","","385","","","","real_trial","2021-04-07 01:05:10.421","img/card_backs/set1/green.gif","0","240","1","",""
"casino-fixation","88","360911","0.0-25.0-0.9","A116","true","img/card_backs/set1/green.gif","img/card_backs/set1/yellow.gif","img/card_backs/set1/purple.gif","img/card_backs/set1/red.gif","img/card_backs/set2/blue.gif","img/card_backs/set2/orange.gif","img/card_backs/set2/pink.gif","img/card_backs/set2/gray.gif","""event"",""trial"",""time""
""fullscreenenter"",""1"",""4359""
","
","
","""event"",""trial"",""time""
""fullscreenenter"",""1"",""4359""
","
","","null","","null","","fixation","2021-04-07 01:05:10.923","","","","","",""
"card-selection-trial","89","363378","0.0-25.0-1.9","A116","true","img/card_backs/set1/green.gif","img/card_backs/set1/yellow.gif","img/card_backs/set1/purple.gif","img/card_backs/set1/red.gif","img/card_backs/set2/blue.gif","img/card_backs/set2/orange.gif","img/card_backs/set2/pink.gif","img/card_backs/set2/gray.gif","""event"",""trial"",""time""
""fullscreenenter"",""1"",""4359""
","
","
","""event"",""trial"",""time""
""fullscreenenter"",""1"",""4359""
","
","","459","","","","real_trial","2021-04-07 01:05:13.390","img/card_backs/set1/yellow.gif","0","-190","1","",""
"casino-fixation","90","363880","0.0-25.0-0.10","A116","true","img/card_backs/set1/green.gif","img/card_backs/set1/yellow.gif","img/card_backs/set1/purple.gif","img/card_backs/set1/red.gif","img/card_backs/set2/blue.gif","img/card_backs/set2/orange.gif","img/card_backs/set2/pink.gif","img/card_backs/set2/gray.gif","""event"",""trial"",""time""
""fullscreenenter"",""1"",""4359""
","
","
","""event"",""trial"",""time""
""fullscreenenter"",""1"",""4359""
","
","","null","","null","","fixation","2021-04-07 01:05:13.893","","","","","",""
"card-selection-trial","91","366327","0.0-25.0-1.10","A116","true","img/card_backs/set1/green.gif","img/card_backs/set1/yellow.gif","img/card_backs/set1/purple.gif","img/card_backs/set1/red.gif","img/card_backs/set2/blue.gif","img/card_backs/set2/orange.gif","img/card_backs/set2/pink.gif","img/card_backs/set2/gray.gif","""event"",""trial"",""time""
""fullscreenenter"",""1"",""4359""
","
","
","""event"",""trial"",""time""
""fullscreenenter"",""1"",""4359""
","
","","399","","","","real_trial","2021-04-07 01:05:16.339","img/card_backs/set1/green.gif","1","-200","1","",""
"casino-fixation","92","366829","0.0-25.0-0.11","A116","true","img/card_backs/set1/green.gif","img/card_backs/set1/yellow.gif","img/card_backs/set1/purple.gif","img/card_backs/set1/red.gif","img/card_backs/set2/blue.gif","img/card_backs/set2/orange.gif","img/card_backs/set2/pink.gif","img/card_backs/set2/gray.gif","""event"",""trial"",""time""
""fullscreenenter"",""1"",""4359""
","
","
","""event"",""trial"",""time""
""fullscreenenter"",""1"",""4359""
","
","","null","","null","","fixation","2021-04-07 01:05:16.841","","","","","",""
"card-selection-trial","93","369284","0.0-25.0-1.11","A116","true","img/card_backs/set1/green.gif","img/card_backs/set1/yellow.gif","img/card_backs/set1/purple.gif","img/card_backs/set1/red.gif","img/card_backs/set2/blue.gif","img/card_backs/set2/orange.gif","img/card_backs/set2/pink.gif","img/card_backs/set2/gray.gif","""event"",""trial"",""time""
""fullscreenenter"",""1"",""4359""
","
","
","""event"",""trial"",""time""
""fullscreenenter"",""1"",""4359""
","
","","446","","","","real_trial","2021-04-07 01:05:19.296","img/card_backs/set1/red.gif","2","-100","1","",""
"casino-fixation","94","369787","0.0-25.0-0.12","A116","true","img/card_backs/set1/green.gif","img/card_backs/set1/yellow.gif","img/card_backs/set1/purple.gif","img/card_backs/set1/red.gif","img/card_backs/set2/blue.gif","img/card_backs/set2/orange.gif","img/card_backs/set2/pink.gif","img/card_backs/set2/gray.gif","""event"",""trial"",""time""
""fullscreenenter"",""1"",""4359""
","
","
","""event"",""trial"",""time""
""fullscreenenter"",""1"",""4359""
","
","","null","","null","","fixation","2021-04-07 01:05:19.799","","","","","",""
"card-selection-trial","95","372207","0.0-25.0-1.12","A116","true","img/card_backs/set1/green.gif","img/card_backs/set1/yellow.gif","img/card_backs/set1/purple.gif","img/card_backs/set1/red.gif","img/card_backs/set2/blue.gif","img/card_backs/set2/orange.gif","img/card_backs/set2/pink.gif","img/card_backs/set2/gray.gif","""event"",""trial"",""time""
""fullscreenenter"",""1"",""4359""
","
","
","""event"",""trial"",""time""
""fullscreenenter"",""1"",""4359""
","
","","412","","","","real_trial","2021-04-07 01:05:22.219","img/card_backs/set1/red.gif","2","60","1","",""
"casino-fixation","96","372709","0.0-25.0-0.13","A116","true","img/card_backs/set1/green.gif","img/card_backs/set1/yellow.gif","img/card_backs/set1/purple.gif","img/card_backs/set1/red.gif","img/card_backs/set2/blue.gif","img/card_backs/set2/orange.gif","img/card_backs/set2/pink.gif","img/card_backs/set2/gray.gif","""event"",""trial"",""time""
""fullscreenenter"",""1"",""4359""
","
","
","""event"",""trial"",""time""
""fullscreenenter"",""1"",""4359""
","
","","null","","null","","fixation","2021-04-07 01:05:22.721","","","","","",""
"card-selection-trial","97","375638","0.0-25.0-1.13","A116","true","img/card_backs/set1/green.gif","img/card_backs/set1/yellow.gif","img/card_backs/set1/purple.gif","img/card_backs/set1/red.gif","img/card_backs/set2/blue.gif","img/card_backs/set2/orange.gif","img/card_backs/set2/pink.gif","img/card_backs/set2/gray.gif","""event"",""trial"",""time""
""fullscreenenter"",""1"",""4359""
","
","
","""event"",""trial"",""time""
""fullscreenenter"",""1"",""4359""
","
","","921.9999999999418","","","","real_trial","2021-04-07 01:05:25.651","img/card_backs/set1/yellow.gif","0","250","1","",""
"casino-fixation","98","376140","0.0-25.0-0.14","A116","true","img/card_backs/set1/green.gif","img/card_backs/set1/yellow.gif","img/card_backs/set1/purple.gif","img/card_backs/set1/red.gif","img/card_backs/set2/blue.gif","img/card_backs/set2/orange.gif","img/card_backs/set2/pink.gif","img/card_backs/set2/gray.gif","""event"",""trial"",""time""
""fullscreenenter"",""1"",""4359""
","
","
","""event"",""trial"",""time""
""fullscreenenter"",""1"",""4359""
","
","","null","","null","","fixation","2021-04-07 01:05:26.152","","","","","",""
"card-selection-trial","99","378891","0.0-25.0-1.14","A116","true","img/card_backs/set1/green.gif","img/card_backs/set1/yellow.gif","img/card_backs/set1/purple.gif","img/card_backs/set1/red.gif","img/card_backs/set2/blue.gif","img/card_backs/set2/orange.gif","img/card_backs/set2/pink.gif","img/card_backs/set2/gray.gif","""event"",""trial"",""time""
""fullscreenenter"",""1"",""4359""
","
","
","""event"",""trial"",""time""
""fullscreenenter"",""1"",""4359""
","
","","743","","","","real_trial","2021-04-07 01:05:28.903","img/card_backs/set1/red.gif","0","60","1","",""
"casino-fixation","100","379394","0.0-25.0-0.15","A116","true","img/card_backs/set1/green.gif","img/card_backs/set1/yellow.gif","img/card_backs/set1/purple.gif","img/card_backs/set1/red.gif","img/card_backs/set2/blue.gif","img/card_backs/set2/orange.gif","img/card_backs/set2/pink.gif","img/card_backs/set2/gray.gif","""event"",""trial"",""time""
""fullscreenenter"",""1"",""4359""
","
","
","""event"",""trial"",""time""
""fullscreenenter"",""1"",""4359""
","
","","null","","null","","fixation","2021-04-07 01:05:29.406","","","","","",""
"card-selection-trial","101","382224","0.0-25.0-1.15","A116","true","img/card_backs/set1/green.gif","img/card_backs/set1/yellow.gif","img/card_backs/set1/purple.gif","img/card_backs/set1/red.gif","img/card_backs/set2/blue.gif","img/card_backs/set2/orange.gif","img/card_backs/set2/pink.gif","img/card_backs/set2/gray.gif","""event"",""trial"",""time""
""fullscreenenter"",""1"",""4359""
","
","
","""event"",""trial"",""time""
""fullscreenenter"",""1"",""4359""
","
","","821.9999999999418","","","","real_trial","2021-04-07 01:05:32.236","img/card_backs/set1/red.gif","3","40","1","",""
"casino-fixation","102","382726","0.0-25.0-0.16","A116","true","img/card_backs/set1/green.gif","img/card_backs/set1/yellow.gif","img/card_backs/set1/purple.gif","img/card_backs/set1/red.gif","img/card_backs/set2/blue.gif","img/card_backs/set2/orange.gif","img/card_backs/set2/pink.gif","img/card_backs/set2/gray.gif","""event"",""trial"",""time""
""fullscreenenter"",""1"",""4359""
","
","
","""event"",""trial"",""time""
""fullscreenenter"",""1"",""4359""
","
","","null","","null","","fixation","2021-04-07 01:05:32.738","","","","","",""
"card-selection-trial","103","385344","0.0-25.0-1.16","A116","true","img/card_backs/set1/green.gif","img/card_backs/set1/yellow.gif","img/card_backs/set1/purple.gif","img/card_backs/set1/red.gif","img/card_backs/set2/blue.gif","img/card_backs/set2/orange.gif","img/card_backs/set2/pink.gif","img/card_backs/set2/gray.gif","""event"",""trial"",""time""
""fullscreenenter"",""1"",""4359""
","
","
","""event"",""trial"",""time""
""fullscreenenter"",""1"",""4359""
","
","","610","","","","real_trial","2021-04-07 01:05:35.357","img/card_backs/set1/red.gif","2","-100","1","",""
"casino-fixation","104","385846","0.0-25.0-0.17","A116","true","img/card_backs/set1/green.gif","img/card_backs/set1/yellow.gif","img/card_backs/set1/purple.gif","img/card_backs/set1/red.gif","img/card_backs/set2/blue.gif","img/card_backs/set2/orange.gif","img/card_backs/set2/pink.gif","img/card_backs/set2/gray.gif","""event"",""trial"",""time""
""fullscreenenter"",""1"",""4359""
","
","
","""event"",""trial"",""time""
""fullscreenenter"",""1"",""4359""
","
","","null","","null","","fixation","2021-04-07 01:05:35.858","","","","","",""
"card-selection-trial","105","388311","0.0-25.0-1.17","A116","true","img/card_backs/set1/green.gif","img/card_backs/set1/yellow.gif","img/card_backs/set1/purple.gif","img/card_backs/set1/red.gif","img/card_backs/set2/blue.gif","img/card_backs/set2/orange.gif","img/card_backs/set2/pink.gif","img/card_backs/set2/gray.gif","""event"",""trial"",""time""
""fullscreenenter"",""1"",""4359""
","
","
","""event"",""trial"",""time""
""fullscreenenter"",""1"",""4359""
","
","","455","","","","real_trial","2021-04-07 01:05:38.323","img/card_backs/set1/green.gif","3","-200","1","",""
"casino-fixation","106","388812","0.0-25.0-0.18","A116","true","img/card_backs/set1/green.gif","img/card_backs/set1/yellow.gif","img/card_backs/set1/purple.gif","img/card_backs/set1/red.gif","img/card_backs/set2/blue.gif","img/card_backs/set2/orange.gif","img/card_backs/set2/pink.gif","img/card_backs/set2/gray.gif","""event"",""trial"",""time""
""fullscreenenter"",""1"",""4359""
","
","
","""event"",""trial"",""time""
""fullscreenenter"",""1"",""4359""
","
","","null","","null","","fixation","2021-04-07 01:05:38.825","","","","","",""
"card-selection-trial","107","391225","0.0-25.0-1.18","A116","true","img/card_backs/set1/green.gif","img/card_backs/set1/yellow.gif","img/card_backs/set1/purple.gif","img/card_backs/set1/red.gif","img/card_backs/set2/blue.gif","img/card_backs/set2/orange.gif","img/card_backs/set2/pink.gif","img/card_backs/set2/gray.gif","""event"",""trial"",""time""
""fullscreenenter"",""1"",""4359""
","
","
","""event"",""trial"",""time""
""fullscreenenter"",""1"",""4359""
","
","","405","","","","real_trial","2021-04-07 01:05:41.237","img/card_backs/set1/red.gif","0","-90","1","",""
"casino-fixation","108","391727","0.0-25.0-0.19","A116","true","img/card_backs/set1/green.gif","img/card_backs/set1/yellow.gif","img/card_backs/set1/purple.gif","img/card_backs/set1/red.gif","img/card_backs/set2/blue.gif","img/card_backs/set2/orange.gif","img/card_backs/set2/pink.gif","img/card_backs/set2/gray.gif","""event"",""trial"",""time""
""fullscreenenter"",""1"",""4359""
","
","
","""event"",""trial"",""time""
""fullscreenenter"",""1"",""4359""
","
","","null","","null","","fixation","2021-04-07 01:05:41.739","","","","","",""
"card-selection-trial","109","394301","0.0-25.0-1.19","A116","true","img/card_backs/set1/green.gif","img/card_backs/set1/yellow.gif","img/card_backs/set1/purple.gif","img/card_backs/set1/red.gif","img/card_backs/set2/blue.gif","img/card_backs/set2/orange.gif","img/card_backs/set2/pink.gif","img/card_backs/set2/gray.gif","""event"",""trial"",""time""
""fullscreenenter"",""1"",""4359""
","
","
","""event"",""trial"",""time""
""fullscreenenter"",""1"",""4359""
","
","","567","","","","real_trial","2021-04-07 01:05:44.314","img/card_backs/set1/yellow.gif","2","260","1","",""
"casino-fixation","110","394803","0.0-25.0-0.20","A116","true","img/card_backs/set1/green.gif","img/card_backs/set1/yellow.gif","img/card_backs/set1/purple.gif","img/card_backs/set1/red.gif","img/card_backs/set2/blue.gif","img/card_backs/set2/orange.gif","img/card_backs/set2/pink.gif","img/card_backs/set2/gray.gif","""event"",""trial"",""time""
""fullscreenenter"",""1"",""4359""
","
","
","""event"",""trial"",""time""
""fullscreenenter"",""1"",""4359""
","
","","null","","null","","fixation","2021-04-07 01:05:44.815","","","","","",""
"card-selection-trial","111","397345","0.0-25.0-1.20","A116","true","img/card_backs/set1/green.gif","img/card_backs/set1/yellow.gif","img/card_backs/set1/purple.gif","img/card_backs/set1/red.gif","img/card_backs/set2/blue.gif","img/card_backs/set2/orange.gif","img/card_backs/set2/pink.gif","img/card_backs/set2/gray.gif","""event"",""trial"",""time""
""fullscreenenter"",""1"",""4359""
","
","
","""event"",""trial"",""time""
""fullscreenenter"",""1"",""4359""
","
","","533","","","","real_trial","2021-04-07 01:05:47.357","img/card_backs/set1/green.gif","2","260","1","",""
"casino-fixation","112","397848","0.0-25.0-0.21","A116","true","img/card_backs/set1/green.gif","img/card_backs/set1/yellow.gif","img/card_backs/set1/purple.gif","img/card_backs/set1/red.gif","img/card_backs/set2/blue.gif","img/card_backs/set2/orange.gif","img/card_backs/set2/pink.gif","img/card_backs/set2/gray.gif","""event"",""trial"",""time""
""fullscreenenter"",""1"",""4359""
","
","
","""event"",""trial"",""time""
""fullscreenenter"",""1"",""4359""
","
","","null","","null","","fixation","2021-04-07 01:05:47.860","","","","","",""
"card-selection-trial","113","400276","0.0-25.0-1.21","A116","true","img/card_backs/set1/green.gif","img/card_backs/set1/yellow.gif","img/card_backs/set1/purple.gif","img/card_backs/set1/red.gif","img/card_backs/set2/blue.gif","img/card_backs/set2/orange.gif","img/card_backs/set2/pink.gif","img/card_backs/set2/gray.gif","""event"",""trial"",""time""
""fullscreenenter"",""1"",""4359""
","
","
","""event"",""trial"",""time""
""fullscreenenter"",""1"",""4359""
","
","","421.0000000000582","","","","real_trial","2021-04-07 01:05:50.288","img/card_backs/set1/purple.gif","2","40","1","",""
"casino-fixation","114","400778","0.0-25.0-0.22","A116","true","img/card_backs/set1/green.gif","img/card_backs/set1/yellow.gif","img/card_backs/set1/purple.gif","img/card_backs/set1/red.gif","img/card_backs/set2/blue.gif","img/card_backs/set2/orange.gif","img/card_backs/set2/pink.gif","img/card_backs/set2/gray.gif","""event"",""trial"",""time""
""fullscreenenter"",""1"",""4359""
","
","
","""event"",""trial"",""time""
""fullscreenenter"",""1"",""4359""
","
","","null","","null","","fixation","2021-04-07 01:05:50.790","","","","","",""
"card-selection-trial","115","403322","0.0-25.0-1.22","A116","true","img/card_backs/set1/green.gif","img/card_backs/set1/yellow.gif","img/card_backs/set1/purple.gif","img/card_backs/set1/red.gif","img/card_backs/set2/blue.gif","img/card_backs/set2/orange.gif","img/card_backs/set2/pink.gif","img/card_backs/set2/gray.gif","""event"",""trial"",""time""
""fullscreenenter"",""1"",""4359""
","
","
","""event"",""trial"",""time""
""fullscreenenter"",""1"",""4359""
","
","","536","","","","real_trial","2021-04-07 01:05:53.334","img/card_backs/set1/green.gif","2","260","1","",""
"casino-fixation","116","403825","0.0-25.0-0.23","A116","true","img/card_backs/set1/green.gif","img/card_backs/set1/yellow.gif","img/card_backs/set1/purple.gif","img/card_backs/set1/red.gif","img/card_backs/set2/blue.gif","img/card_backs/set2/orange.gif","img/card_backs/set2/pink.gif","img/card_backs/set2/gray.gif","""event"",""trial"",""time""
""fullscreenenter"",""1"",""4359""
","
","
","""event"",""trial"",""time""
""fullscreenenter"",""1"",""4359""
","
","","null","","null","","fixation","2021-04-07 01:05:53.837","","","","","",""
"card-selection-trial","117","406305","0.0-25.0-1.23","A116","true","img/card_backs/set1/green.gif","img/card_backs/set1/yellow.gif","img/card_backs/set1/purple.gif","img/card_backs/set1/red.gif","img/card_backs/set2/blue.gif","img/card_backs/set2/orange.gif","img/card_backs/set2/pink.gif","img/card_backs/set2/gray.gif","""event"",""trial"",""time""
""fullscreenenter"",""1"",""4359""
","
","
","""event"",""trial"",""time""
""fullscreenenter"",""1"",""4359""
","
","","473","","","","real_trial","2021-04-07 01:05:56.317","img/card_backs/set1/yellow.gif","2","-210","1","",""
"casino-fixation","118","406808","0.0-25.0-0.24","A116","true","img/card_backs/set1/green.gif","img/card_backs/set1/yellow.gif","img/card_backs/set1/purple.gif","img/card_backs/set1/red.gif","img/card_backs/set2/blue.gif","img/card_backs/set2/orange.gif","img/card_backs/set2/pink.gif","img/card_backs/set2/gray.gif","""event"",""trial"",""time""
""fullscreenenter"",""1"",""4359""
","
","
","""event"",""trial"",""time""
""fullscreenenter"",""1"",""4359""
","
","","null","","null","","fixation","2021-04-07 01:05:56.820","","","","","",""
"card-selection-trial","119","409333","0.0-25.0-1.24","A116","true","img/card_backs/set1/green.gif","img/card_backs/set1/yellow.gif","img/card_backs/set1/purple.gif","img/card_backs/set1/red.gif","img/card_backs/set2/blue.gif","img/card_backs/set2/orange.gif","img/card_backs/set2/pink.gif","img/card_backs/set2/gray.gif","""event"",""trial"",""time""
""fullscreenenter"",""1"",""4359""
","
","
","""event"",""trial"",""time""
""fullscreenenter"",""1"",""4359""
","
","","518","","","","real_trial","2021-04-07 01:05:59.345","img/card_backs/set1/purple.gif","2","60","1","",""
"casino-fixation","120","409835","0.0-25.0-0.25","A116","true","img/card_backs/set1/green.gif","img/card_backs/set1/yellow.gif","img/card_backs/set1/purple.gif","img/card_backs/set1/red.gif","img/card_backs/set2/blue.gif","img/card_backs/set2/orange.gif","img/card_backs/set2/pink.gif","img/card_backs/set2/gray.gif","""event"",""trial"",""time""
""fullscreenenter"",""1"",""4359""
","
","
","""event"",""trial"",""time""
""fullscreenenter"",""1"",""4359""
","
","","null","","null","","fixation","2021-04-07 01:05:59.847","","","","","",""
"card-selection-trial","121","412349","0.0-25.0-1.25","A116","true","img/card_backs/set1/green.gif","img/card_backs/set1/yellow.gif","img/card_backs/set1/purple.gif","img/card_backs/set1/red.gif","img/card_backs/set2/blue.gif","img/card_backs/set2/orange.gif","img/card_backs/set2/pink.gif","img/card_backs/set2/gray.gif","""event"",""trial"",""time""
""fullscreenenter"",""1"",""4359""
","
","
","""event"",""trial"",""time""
""fullscreenenter"",""1"",""4359""
","
","","505","","","","real_trial","2021-04-07 01:06:02.361","img/card_backs/set1/red.gif","2","-90","1","",""
"casino-fixation","122","412851","0.0-25.0-0.26","A116","true","img/card_backs/set1/green.gif","img/card_backs/set1/yellow.gif","img/card_backs/set1/purple.gif","img/card_backs/set1/red.gif","img/card_backs/set2/blue.gif","img/card_backs/set2/orange.gif","img/card_backs/set2/pink.gif","img/card_backs/set2/gray.gif","""event"",""trial"",""time""
""fullscreenenter"",""1"",""4359""
","
","
","""event"",""trial"",""time""
""fullscreenenter"",""1"",""4359""
","
","","null","","null","","fixation","2021-04-07 01:06:02.863","","","","","",""
"card-selection-trial","123","416189","0.0-25.0-1.26","A116","true","img/card_backs/set1/green.gif","img/card_backs/set1/yellow.gif","img/card_backs/set1/purple.gif","img/card_backs/set1/red.gif","img/card_backs/set2/blue.gif","img/card_backs/set2/orange.gif","img/card_backs/set2/pink.gif","img/card_backs/set2/gray.gif","""event"",""trial"",""time""
""fullscreenenter"",""1"",""4359""
","
","
","""event"",""trial"",""time""
""fullscreenenter"",""1"",""4359""
","
","","1331","","","","real_trial","2021-04-07 01:06:06.201","img/card_backs/set1/red.gif","1","-100","1","",""
"casino-fixation","124","416691","0.0-25.0-0.27","A116","true","img/card_backs/set1/green.gif","img/card_backs/set1/yellow.gif","img/card_backs/set1/purple.gif","img/card_backs/set1/red.gif","img/card_backs/set2/blue.gif","img/card_backs/set2/orange.gif","img/card_backs/set2/pink.gif","img/card_backs/set2/gray.gif","""event"",""trial"",""time""
""fullscreenenter"",""1"",""4359""
","
","
","""event"",""trial"",""time""
""fullscreenenter"",""1"",""4359""
","
","","null","","null","","fixation","2021-04-07 01:06:06.703","","","","","",""
"card-selection-trial","125","419846","0.0-25.0-1.27","A116","true","img/card_backs/set1/green.gif","img/card_backs/set1/yellow.gif","img/card_backs/set1/purple.gif","img/card_backs/set1/red.gif","img/card_backs/set2/blue.gif","img/card_backs/set2/orange.gif","img/card_backs/set2/pink.gif","img/card_backs/set2/gray.gif","""event"",""trial"",""time""
""fullscreenenter"",""1"",""4359""
","
","
","""event"",""trial"",""time""
""fullscreenenter"",""1"",""4359""
","
","","1147","","","","real_trial","2021-04-07 01:06:09.858","img/card_backs/set1/yellow.gif","3","-190","1","",""
"casino-fixation","126","420348","0.0-25.0-0.28","A116","true","img/card_backs/set1/green.gif","img/card_backs/set1/yellow.gif","img/card_backs/set1/purple.gif","img/card_backs/set1/red.gif","img/card_backs/set2/blue.gif","img/card_backs/set2/orange.gif","img/card_backs/set2/pink.gif","img/card_backs/set2/gray.gif","""event"",""trial"",""time""
""fullscreenenter"",""1"",""4359""
","
","
","""event"",""trial"",""time""
""fullscreenenter"",""1"",""4359""
","
","","null","","null","","fixation","2021-04-07 01:06:10.360","","","","","",""
"card-selection-trial","127","424159","0.0-25.0-1.28","A116","true","img/card_backs/set1/green.gif","img/card_backs/set1/yellow.gif","img/card_backs/set1/purple.gif","img/card_backs/set1/red.gif","img/card_backs/set2/blue.gif","img/card_backs/set2/orange.gif","img/card_backs/set2/pink.gif","img/card_backs/set2/gray.gif","""event"",""trial"",""time""
""fullscreenenter"",""1"",""4359""
","
","
","""event"",""trial"",""time""
""fullscreenenter"",""1"",""4359""
","
","","1803","","","","real_trial","2021-04-07 01:06:14.172","img/card_backs/set1/green.gif","0","-190","1","",""
"casino-fixation","128","424662","0.0-25.0-0.29","A116","true","img/card_backs/set1/green.gif","img/card_backs/set1/yellow.gif","img/card_backs/set1/purple.gif","img/card_backs/set1/red.gif","img/card_backs/set2/blue.gif","img/card_backs/set2/orange.gif","img/card_backs/set2/pink.gif","img/card_backs/set2/gray.gif","""event"",""trial"",""time""
""fullscreenenter"",""1"",""4359""
","
","
","""event"",""trial"",""time""
""fullscreenenter"",""1"",""4359""
","
","","null","","null","","fixation","2021-04-07 01:06:14.674","","","","","",""
"card-selection-trial","129","428229","0.0-25.0-1.29","A116","true","img/card_backs/set1/green.gif","img/card_backs/set1/yellow.gif","img/card_backs/set1/purple.gif","img/card_backs/set1/red.gif","img/card_backs/set2/blue.gif","img/card_backs/set2/orange.gif","img/card_backs/set2/pink.gif","img/card_backs/set2/gray.gif","""event"",""trial"",""time""
""fullscreenenter"",""1"",""4359""
","
","
","""event"",""trial"",""time""
""fullscreenenter"",""1"",""4359""
","
","","1557","","","","real_trial","2021-04-07 01:06:18.242","img/card_backs/set1/yellow.gif","2","-200","1","",""
"casino-fixation","130","428732","0.0-25.0-0.30","A116","true","img/card_backs/set1/green.gif","img/card_backs/set1/yellow.gif","img/card_backs/set1/purple.gif","img/card_backs/set1/red.gif","img/card_backs/set2/blue.gif","img/card_backs/set2/orange.gif","img/card_backs/set2/pink.gif","img/card_backs/set2/gray.gif","""event"",""trial"",""time""
""fullscreenenter"",""1"",""4359""
","
","
","""event"",""trial"",""time""
""fullscreenenter"",""1"",""4359""
","
","","null","","null","","fixation","2021-04-07 01:06:18.744","","","","","",""
"card-selection-trial","131","431786","0.0-25.0-1.30","A116","true","img/card_backs/set1/green.gif","img/card_backs/set1/yellow.gif","img/card_backs/set1/purple.gif","img/card_backs/set1/red.gif","img/card_backs/set2/blue.gif","img/card_backs/set2/orange.gif","img/card_backs/set2/pink.gif","img/card_backs/set2/gray.gif","""event"",""trial"",""time""
""fullscreenenter"",""1"",""4359""
","
","
","""event"",""trial"",""time""
""fullscreenenter"",""1"",""4359""
","
","","1044.9999999999418","","","","real_trial","2021-04-07 01:06:21.798","img/card_backs/set1/red.gif","1","-110","1","",""
"casino-fixation","132","432289","0.0-25.0-0.31","A116","true","img/card_backs/set1/green.gif","img/card_backs/set1/yellow.gif","img/card_backs/set1/purple.gif","img/card_backs/set1/red.gif","img/card_backs/set2/blue.gif","img/card_backs/set2/orange.gif","img/card_backs/set2/pink.gif","img/card_backs/set2/gray.gif","""event"",""trial"",""time""
""fullscreenenter"",""1"",""4359""
","
","
","""event"",""trial"",""time""
""fullscreenenter"",""1"",""4359""
","
","","null","","null","","fixation","2021-04-07 01:06:22.301","","","","","",""
"card-selection-trial","133","435950","0.0-25.0-1.31","A116","true","img/card_backs/set1/green.gif","img/card_backs/set1/yellow.gif","img/card_backs/set1/purple.gif","img/card_backs/set1/red.gif","img/card_backs/set2/blue.gif","img/card_backs/set2/orange.gif","img/card_backs/set2/pink.gif","img/card_backs/set2/gray.gif","""event"",""trial"",""time""
""fullscreenenter"",""1"",""4359""
","
","
","""event"",""trial"",""time""
""fullscreenenter"",""1"",""4359""
","
","","1653","","","","real_trial","2021-04-07 01:06:25.962","img/card_backs/set1/purple.gif","1","-100","1","",""
"casino-fixation","134","436453","0.0-25.0-0.32","A116","true","img/card_backs/set1/green.gif","img/card_backs/set1/yellow.gif","img/card_backs/set1/purple.gif","img/card_backs/set1/red.gif","img/card_backs/set2/blue.gif","img/card_backs/set2/orange.gif","img/card_backs/set2/pink.gif","img/card_backs/set2/gray.gif","""event"",""trial"",""time""
""fullscreenenter"",""1"",""4359""
","
","
","""event"",""trial"",""time""
""fullscreenenter"",""1"",""4359""
","
","","null","","null","","fixation","2021-04-07 01:06:26.465","","","","","",""
"card-selection-trial","135","440002","0.0-25.0-1.32","A116","true","img/card_backs/set1/green.gif","img/card_backs/set1/yellow.gif","img/card_backs/set1/purple.gif","img/card_backs/set1/red.gif","img/card_backs/set2/blue.gif","img/card_backs/set2/orange.gif","img/card_backs/set2/pink.gif","img/card_backs/set2/gray.gif","""event"",""trial"",""time""
""fullscreenenter"",""1"",""4359""
","
","
","""event"",""trial"",""time""
""fullscreenenter"",""1"",""4359""
","
","","1541","","","","real_trial","2021-04-07 01:06:30.014","img/card_backs/set1/red.gif","0","60","1","",""
"casino-fixation","136","440505","0.0-25.0-0.33","A116","true","img/card_backs/set1/green.gif","img/card_backs/set1/yellow.gif","img/card_backs/set1/purple.gif","img/card_backs/set1/red.gif","img/card_backs/set2/blue.gif","img/card_backs/set2/orange.gif","img/card_backs/set2/pink.gif","img/card_backs/set2/gray.gif","""event"",""trial"",""time""
""fullscreenenter"",""1"",""4359""
","
","
","""event"",""trial"",""time""
""fullscreenenter"",""1"",""4359""
","
","","null","","null","","fixation","2021-04-07 01:06:30.517","","","","","",""
"card-selection-trial","137","443874","0.0-25.0-1.33","A116","true","img/card_backs/set1/green.gif","img/card_backs/set1/yellow.gif","img/card_backs/set1/purple.gif","img/card_backs/set1/red.gif","img/card_backs/set2/blue.gif","img/card_backs/set2/orange.gif","img/card_backs/set2/pink.gif","img/card_backs/set2/gray.gif","""event"",""trial"",""time""
""fullscreenenter"",""1"",""4359""
","
","
","""event"",""trial"",""time""
""fullscreenenter"",""1"",""4359""
","
","","1360","","","","real_trial","2021-04-07 01:06:33.886","img/card_backs/set1/red.gif","2","-110","1","",""
"casino-fixation","138","444377","0.0-25.0-0.34","A116","true","img/card_backs/set1/green.gif","img/card_backs/set1/yellow.gif","img/card_backs/set1/purple.gif","img/card_backs/set1/red.gif","img/card_backs/set2/blue.gif","img/card_backs/set2/orange.gif","img/card_backs/set2/pink.gif","img/card_backs/set2/gray.gif","""event"",""trial"",""time""
""fullscreenenter"",""1"",""4359""
","
","
","""event"",""trial"",""time""
""fullscreenenter"",""1"",""4359""
","
","","null","","null","","fixation","2021-04-07 01:06:34.389","","","","","",""
"card-selection-trial","139","447547","0.0-25.0-1.34","A116","true","img/card_backs/set1/green.gif","img/card_backs/set1/yellow.gif","img/card_backs/set1/purple.gif","img/card_backs/set1/red.gif","img/card_backs/set2/blue.gif","img/card_backs/set2/orange.gif","img/card_backs/set2/pink.gif","img/card_backs/set2/gray.gif","""event"",""trial"",""time""
""fullscreenenter"",""1"",""4359""
","
","
","""event"",""trial"",""time""
""fullscreenenter"",""1"",""4359""
","
","","1162","","","","real_trial","2021-04-07 01:06:37.559","img/card_backs/set1/yellow.gif","3","-210","1","",""
"casino-fixation","140","448049","0.0-25.0-0.35","A116","true","img/card_backs/set1/green.gif","img/card_backs/set1/yellow.gif","img/card_backs/set1/purple.gif","img/card_backs/set1/red.gif","img/card_backs/set2/blue.gif","img/card_backs/set2/orange.gif","img/card_backs/set2/pink.gif","img/card_backs/set2/gray.gif","""event"",""trial"",""time""
""fullscreenenter"",""1"",""4359""
","
","
","""event"",""trial"",""time""
""fullscreenenter"",""1"",""4359""
","
","","null","","null","","fixation","2021-04-07 01:06:38.061","","","","","",""
"card-selection-trial","141","451010","0.0-25.0-1.35","A116","true","img/card_backs/set1/green.gif","img/card_backs/set1/yellow.gif","img/card_backs/set1/purple.gif","img/card_backs/set1/red.gif","img/card_backs/set2/blue.gif","img/card_backs/set2/orange.gif","img/card_backs/set2/pink.gif","img/card_backs/set2/gray.gif","""event"",""trial"",""time""
""fullscreenenter"",""1"",""4359""
","
","
","""event"",""trial"",""time""
""fullscreenenter"",""1"",""4359""
","
","","954","","","","real_trial","2021-04-07 01:06:41.023","img/card_backs/set1/red.gif","3","-90","1","",""
"casino-fixation","142","451513","0.0-25.0-0.36","A116","true","img/card_backs/set1/green.gif","img/card_backs/set1/yellow.gif","img/card_backs/set1/purple.gif","img/card_backs/set1/red.gif","img/card_backs/set2/blue.gif","img/card_backs/set2/orange.gif","img/card_backs/set2/pink.gif","img/card_backs/set2/gray.gif","""event"",""trial"",""time""
""fullscreenenter"",""1"",""4359""
","
","
","""event"",""trial"",""time""
""fullscreenenter"",""1"",""4359""
","
","","null","","null","","fixation","2021-04-07 01:06:41.525","","","","","",""
"card-selection-trial","143","454539","0.0-25.0-1.36","A116","true","img/card_backs/set1/green.gif","img/card_backs/set1/yellow.gif","img/card_backs/set1/purple.gif","img/card_backs/set1/red.gif","img/card_backs/set2/blue.gif","img/card_backs/set2/orange.gif","img/card_backs/set2/pink.gif","img/card_backs/set2/gray.gif","""event"",""trial"",""time""
""fullscreenenter"",""1"",""4359""
","
","
","""event"",""trial"",""time""
""fullscreenenter"",""1"",""4359""
","
","","1018","","","","real_trial","2021-04-07 01:06:44.551","img/card_backs/set1/purple.gif","1","60","1","",""
"casino-fixation","144","455041","0.0-25.0-0.37","A116","true","img/card_backs/set1/green.gif","img/card_backs/set1/yellow.gif","img/card_backs/set1/purple.gif","img/card_backs/set1/red.gif","img/card_backs/set2/blue.gif","img/card_backs/set2/orange.gif","img/card_backs/set2/pink.gif","img/card_backs/set2/gray.gif","""event"",""trial"",""time""
""fullscreenenter"",""1"",""4359""
","
","
","""event"",""trial"",""time""
""fullscreenenter"",""1"",""4359""
","
","","null","","null","","fixation","2021-04-07 01:06:45.053","","","","","",""
"card-selection-trial","145","458312","0.0-25.0-1.37","A116","true","img/card_backs/set1/green.gif","img/card_backs/set1/yellow.gif","img/card_backs/set1/purple.gif","img/card_backs/set1/red.gif","img/card_backs/set2/blue.gif","img/card_backs/set2/orange.gif","img/card_backs/set2/pink.gif","img/card_backs/set2/gray.gif","""event"",""trial"",""time""
""fullscreenenter"",""1"",""4359""
","
","
","""event"",""trial"",""time""
""fullscreenenter"",""1"",""4359""
","
","","1262.9999999999418","","","","real_trial","2021-04-07 01:06:48.325","img/card_backs/set1/purple.gif","2","-90","1","",""
"casino-fixation","146","458816","0.0-25.0-0.38","A116","true","img/card_backs/set1/green.gif","img/card_backs/set1/yellow.gif","img/card_backs/set1/purple.gif","img/card_backs/set1/red.gif","img/card_backs/set2/blue.gif","img/card_backs/set2/orange.gif","img/card_backs/set2/pink.gif","img/card_backs/set2/gray.gif","""event"",""trial"",""time""
""fullscreenenter"",""1"",""4359""
","
","
","""event"",""trial"",""time""
""fullscreenenter"",""1"",""4359""
","
","","null","","null","","fixation","2021-04-07 01:06:48.828","","","","","",""
"card-selection-trial","147","462431","0.0-25.0-1.38","A116","true","img/card_backs/set1/green.gif","img/card_backs/set1/yellow.gif","img/card_backs/set1/purple.gif","img/card_backs/set1/red.gif","img/card_backs/set2/blue.gif","img/card_backs/set2/orange.gif","img/card_backs/set2/pink.gif","img/card_backs/set2/gray.gif","""event"",""trial"",""time""
""fullscreenenter"",""1"",""4359""
","
","
","""event"",""trial"",""time""
""fullscreenenter"",""1"",""4359""
","
","","1608","","","","real_trial","2021-04-07 01:06:52.443","img/card_backs/set1/green.gif","0","260","1","",""
"casino-fixation","148","462933","0.0-25.0-0.39","A116","true","img/card_backs/set1/green.gif","img/card_backs/set1/yellow.gif","img/card_backs/set1/purple.gif","img/card_backs/set1/red.gif","img/card_backs/set2/blue.gif","img/card_backs/set2/orange.gif","img/card_backs/set2/pink.gif","img/card_backs/set2/gray.gif","""event"",""trial"",""time""
""fullscreenenter"",""1"",""4359""
","
","
","""event"",""trial"",""time""
""fullscreenenter"",""1"",""4359""
","
","","null","","null","","fixation","2021-04-07 01:06:52.945","","","","","",""
"card-selection-trial","149","466166","0.0-25.0-1.39","A116","true","img/card_backs/set1/green.gif","img/card_backs/set1/yellow.gif","img/card_backs/set1/purple.gif","img/card_backs/set1/red.gif","img/card_backs/set2/blue.gif","img/card_backs/set2/orange.gif","img/card_backs/set2/pink.gif","img/card_backs/set2/gray.gif","""event"",""trial"",""time""
""fullscreenenter"",""1"",""4359""
","
","
","""event"",""trial"",""time""
""fullscreenenter"",""1"",""4359""
","
","","1224.9999999999418","","","","real_trial","2021-04-07 01:06:56.179","img/card_backs/set1/green.gif","2","240","1","",""
"casino-fixation","150","466668","0.0-25.0-0.40","A116","true","img/card_backs/set1/green.gif","img/card_backs/set1/yellow.gif","img/card_backs/set1/purple.gif","img/card_backs/set1/red.gif","img/card_backs/set2/blue.gif","img/card_backs/set2/orange.gif","img/card_backs/set2/pink.gif","img/card_backs/set2/gray.gif","""event"",""trial"",""time""
""fullscreenenter"",""1"",""4359""
","
","
","""event"",""trial"",""time""
""fullscreenenter"",""1"",""4359""
","
","","null","","null","","fixation","2021-04-07 01:06:56.681","","","","","",""
"card-selection-trial","151","469487","0.0-25.0-1.40","A116","true","img/card_backs/set1/green.gif","img/card_backs/set1/yellow.gif","img/card_backs/set1/purple.gif","img/card_backs/set1/red.gif","img/card_backs/set2/blue.gif","img/card_backs/set2/orange.gif","img/card_backs/set2/pink.gif","img/card_backs/set2/gray.gif","""event"",""trial"",""time""
""fullscreenenter"",""1"",""4359""
","
","
","""event"",""trial"",""time""
""fullscreenenter"",""1"",""4359""
","
","","810","","","","real_trial","2021-04-07 01:06:59.499","img/card_backs/set1/green.gif","2","250","1","",""
"casino-fixation","152","469989","0.0-25.0-0.41","A116","true","img/card_backs/set1/green.gif","img/card_backs/set1/yellow.gif","img/card_backs/set1/purple.gif","img/card_backs/set1/red.gif","img/card_backs/set2/blue.gif","img/card_backs/set2/orange.gif","img/card_backs/set2/pink.gif","img/card_backs/set2/gray.gif","""event"",""trial"",""time""
""fullscreenenter"",""1"",""4359""
","
","
","""event"",""trial"",""time""
""fullscreenenter"",""1"",""4359""
","
","","null","","null","","fixation","2021-04-07 01:07:00.001","","","","","",""
"card-selection-trial","153","473057","0.0-25.0-1.41","A116","true","img/card_backs/set1/green.gif","img/card_backs/set1/yellow.gif","img/card_backs/set1/purple.gif","img/card_backs/set1/red.gif","img/card_backs/set2/blue.gif","img/card_backs/set2/orange.gif","img/card_backs/set2/pink.gif","img/card_backs/set2/gray.gif","""event"",""trial"",""time""
""fullscreenenter"",""1"",""4359""
","
","
","""event"",""trial"",""time""
""fullscreenenter"",""1"",""4359""
","
","","1059","","","","real_trial","2021-04-07 01:07:03.069","img/card_backs/set1/green.gif","1","260","1","",""
"casino-fixation","154","473559","0.0-25.0-0.42","A116","true","img/card_backs/set1/green.gif","img/card_backs/set1/yellow.gif","img/card_backs/set1/purple.gif","img/card_backs/set1/red.gif","img/card_backs/set2/blue.gif","img/card_backs/set2/orange.gif","img/card_backs/set2/pink.gif","img/card_backs/set2/gray.gif","""event"",""trial"",""time""
""fullscreenenter"",""1"",""4359""
","
","
","""event"",""trial"",""time""
""fullscreenenter"",""1"",""4359""
","
","","null","","null","","fixation","2021-04-07 01:07:03.571","","","","","",""
"card-selection-trial","155","476305","0.0-25.0-1.42","A116","true","img/card_backs/set1/green.gif","img/card_backs/set1/yellow.gif","img/card_backs/set1/purple.gif","img/card_backs/set1/red.gif","img/card_backs/set2/blue.gif","img/card_backs/set2/orange.gif","img/card_backs/set2/pink.gif","img/card_backs/set2/gray.gif","""event"",""trial"",""time""
""fullscreenenter"",""1"",""4359""
","
","
","""event"",""trial"",""time""
""fullscreenenter"",""1"",""4359""
","
","","738","","","","real_trial","2021-04-07 01:07:06.317","img/card_backs/set1/green.gif","1","-200","1","",""
"casino-fixation","156","476807","0.0-25.0-0.43","A116","true","img/card_backs/set1/green.gif","img/card_backs/set1/yellow.gif","img/card_backs/set1/purple.gif","img/card_backs/set1/red.gif","img/card_backs/set2/blue.gif","img/card_backs/set2/orange.gif","img/card_backs/set2/pink.gif","img/card_backs/set2/gray.gif","""event"",""trial"",""time""
""fullscreenenter"",""1"",""4359""
","
","
","""event"",""trial"",""time""
""fullscreenenter"",""1"",""4359""
","
","","null","","null","","fixation","2021-04-07 01:07:06.819","","","","","",""
"card-selection-trial","157","479976","0.0-25.0-1.43","A116","true","img/card_backs/set1/green.gif","img/card_backs/set1/yellow.gif","img/card_backs/set1/purple.gif","img/card_backs/set1/red.gif","img/card_backs/set2/blue.gif","img/card_backs/set2/orange.gif","img/card_backs/set2/pink.gif","img/card_backs/set2/gray.gif","""event"",""trial"",""time""
""fullscreenenter"",""1"",""4359""
","
","
","""event"",""trial"",""time""
""fullscreenenter"",""1"",""4359""
","
","","1162","","","","real_trial","2021-04-07 01:07:09.989","img/card_backs/set1/green.gif","2","240","1","",""
"casino-fixation","158","480478","0.0-25.0-0.44","A116","true","img/card_backs/set1/green.gif","img/card_backs/set1/yellow.gif","img/card_backs/set1/purple.gif","img/card_backs/set1/red.gif","img/card_backs/set2/blue.gif","img/card_backs/set2/orange.gif","img/card_backs/set2/pink.gif","img/card_backs/set2/gray.gif","""event"",""trial"",""time""
""fullscreenenter"",""1"",""4359""
","
","
","""event"",""trial"",""time""
""fullscreenenter"",""1"",""4359""
","
","","null","","null","","fixation","2021-04-07 01:07:10.490","","","","","",""
"card-selection-trial","159","483567","0.0-25.0-1.44","A116","true","img/card_backs/set1/green.gif","img/card_backs/set1/yellow.gif","img/card_backs/set1/purple.gif","img/card_backs/set1/red.gif","img/card_backs/set2/blue.gif","img/card_backs/set2/orange.gif","img/card_backs/set2/pink.gif","img/card_backs/set2/gray.gif","""event"",""trial"",""time""
""fullscreenenter"",""1"",""4359""
","
","
","""event"",""trial"",""time""
""fullscreenenter"",""1"",""4359""
","
","","1080.0000000000582","","","","real_trial","2021-04-07 01:07:13.579","img/card_backs/set1/green.gif","1","240","1","",""
"casino-fixation","160","484069","0.0-25.0-0.45","A116","true","img/card_backs/set1/green.gif","img/card_backs/set1/yellow.gif","img/card_backs/set1/purple.gif","img/card_backs/set1/red.gif","img/card_backs/set2/blue.gif","img/card_backs/set2/orange.gif","img/card_backs/set2/pink.gif","img/card_backs/set2/gray.gif","""event"",""trial"",""time""
""fullscreenenter"",""1"",""4359""
","
","
","""event"",""trial"",""time""
""fullscreenenter"",""1"",""4359""
","
","","null","","null","","fixation","2021-04-07 01:07:14.081","","","","","",""
"card-selection-trial","161","487160","0.0-25.0-1.45","A116","true","img/card_backs/set1/green.gif","img/card_backs/set1/yellow.gif","img/card_backs/set1/purple.gif","img/card_backs/set1/red.gif","img/card_backs/set2/blue.gif","img/card_backs/set2/orange.gif","img/card_backs/set2/pink.gif","img/card_backs/set2/gray.gif","""event"",""trial"",""time""
""fullscreenenter"",""1"",""4359""
","
","
","""event"",""trial"",""time""
""fullscreenenter"",""1"",""4359""
","
","","1083","","","","real_trial","2021-04-07 01:07:17.172","img/card_backs/set1/green.gif","3","-210","1","",""
"casino-fixation","162","487662","0.0-25.0-0.46","A116","true","img/card_backs/set1/green.gif","img/card_backs/set1/yellow.gif","img/card_backs/set1/purple.gif","img/card_backs/set1/red.gif","img/card_backs/set2/blue.gif","img/card_backs/set2/orange.gif","img/card_backs/set2/pink.gif","img/card_backs/set2/gray.gif","""event"",""trial"",""time""
""fullscreenenter"",""1"",""4359""
","
","
","""event"",""trial"",""time""
""fullscreenenter"",""1"",""4359""
","
","","null","","null","","fixation","2021-04-07 01:07:17.674","","","","","",""
"card-selection-trial","163","491128","0.0-25.0-1.46","A116","true","img/card_backs/set1/green.gif","img/card_backs/set1/yellow.gif","img/card_backs/set1/purple.gif","img/card_backs/set1/red.gif","img/card_backs/set2/blue.gif","img/card_backs/set2/orange.gif","img/card_backs/set2/pink.gif","img/card_backs/set2/gray.gif","""event"",""trial"",""time""
""fullscreenenter"",""1"",""4359""
","
","
","""event"",""trial"",""time""
""fullscreenenter"",""1"",""4359""
","
","","1459","","","","real_trial","2021-04-07 01:07:21.140","img/card_backs/set1/red.gif","0","-100","1","",""
"casino-fixation","164","491631","0.0-25.0-0.47","A116","true","img/card_backs/set1/green.gif","img/card_backs/set1/yellow.gif","img/card_backs/set1/purple.gif","img/card_backs/set1/red.gif","img/card_backs/set2/blue.gif","img/card_backs/set2/orange.gif","img/card_backs/set2/pink.gif","img/card_backs/set2/gray.gif","""event"",""trial"",""time""
""fullscreenenter"",""1"",""4359""
","
","
","""event"",""trial"",""time""
""fullscreenenter"",""1"",""4359""
","
","","null","","null","","fixation","2021-04-07 01:07:21.643","","","","","",""
"card-selection-trial","165","495230","0.0-25.0-1.47","A116","true","img/card_backs/set1/green.gif","img/card_backs/set1/yellow.gif","img/card_backs/set1/purple.gif","img/card_backs/set1/red.gif","img/card_backs/set2/blue.gif","img/card_backs/set2/orange.gif","img/card_backs/set2/pink.gif","img/card_backs/set2/gray.gif","""event"",""trial"",""time""
""fullscreenenter"",""1"",""4359""
","
","
","""event"",""trial"",""time""
""fullscreenenter"",""1"",""4359""
","
","","1590.9999999999418","","","","real_trial","2021-04-07 01:07:25.242","img/card_backs/set1/green.gif","3","260","1","",""
"casino-fixation","166","495733","0.0-25.0-0.48","A116","true","img/card_backs/set1/green.gif","img/card_backs/set1/yellow.gif","img/card_backs/set1/purple.gif","img/card_backs/set1/red.gif","img/card_backs/set2/blue.gif","img/card_backs/set2/orange.gif","img/card_backs/set2/pink.gif","img/card_backs/set2/gray.gif","""event"",""trial"",""time""
""fullscreenenter"",""1"",""4359""
","
","
","""event"",""trial"",""time""
""fullscreenenter"",""1"",""4359""
","
","","null","","null","","fixation","2021-04-07 01:07:25.746","","","","","",""
"card-selection-trial","167","498723","0.0-25.0-1.48","A116","true","img/card_backs/set1/green.gif","img/card_backs/set1/yellow.gif","img/card_backs/set1/purple.gif","img/card_backs/set1/red.gif","img/card_backs/set2/blue.gif","img/card_backs/set2/orange.gif","img/card_backs/set2/pink.gif","img/card_backs/set2/gray.gif","""event"",""trial"",""time""
""fullscreenenter"",""1"",""4359""
","
","
","""event"",""trial"",""time""
""fullscreenenter"",""1"",""4359""
","
","","981.0000000000582","","","","real_trial","2021-04-07 01:07:28.735","img/card_backs/set1/green.gif","1","-210","1","",""
"casino-fixation","168","499225","0.0-25.0-0.49","A116","true","img/card_backs/set1/green.gif","img/card_backs/set1/yellow.gif","img/card_backs/set1/purple.gif","img/card_backs/set1/red.gif","img/card_backs/set2/blue.gif","img/card_backs/set2/orange.gif","img/card_backs/set2/pink.gif","img/card_backs/set2/gray.gif","""event"",""trial"",""time""
""fullscreenenter"",""1"",""4359""
","
","
","""event"",""trial"",""time""
""fullscreenenter"",""1"",""4359""
","
","","null","","null","","fixation","2021-04-07 01:07:29.238","","","","","",""
