"trial_type","trial_index","time_elapsed","internal_node_id","sub_id","risk_good_first","block1_A","block1_B","block1_C","block1_D","block2_A","block2_B","block2_C","block2_D","interactions","blur_events","focus_events","fullscreenenter_events","fullscreenexit_events","success","rt","stimulus","key_press","button_pressed","task_part","timestamp","card_choice","choice_position","points_earned","block","correct","response"
"pavlovia","0","3","0.0-0.0","795","true","img/card_backs/set1/red.gif","img/card_backs/set1/purple.gif","img/card_backs/set1/green.gif","img/card_backs/set1/yellow.gif","img/card_backs/set2/orange.gif","img/card_backs/set2/pink.gif","img/card_backs/set2/gray.gif","img/card_backs/set2/blue.gif","""event"",""trial"",""time""
""fullscreenenter"",""1"",""8558""
","
","
","""event"",""trial"",""time""
""fullscreenenter"",""1"",""8558""
","
","","","","","","","","","","","","",""
"fullscreen","1","9533","0.0-1.0","795","true","img/card_backs/set1/red.gif","img/card_backs/set1/purple.gif","img/card_backs/set1/green.gif","img/card_backs/set1/yellow.gif","img/card_backs/set2/orange.gif","img/card_backs/set2/pink.gif","img/card_backs/set2/gray.gif","img/card_backs/set2/blue.gif","""event"",""trial"",""time""
""fullscreenenter"",""1"",""8558""
","
","
","""event"",""trial"",""time""
""fullscreenenter"",""1"",""8558""
","
","true","","","","","","","","","","","",""
"audio-keyboard-response","2","12227","0.0-2.0","795","true","img/card_backs/set1/red.gif","img/card_backs/set1/purple.gif","img/card_backs/set1/green.gif","img/card_backs/set1/yellow.gif","img/card_backs/set2/orange.gif","img/card_backs/set2/pink.gif","img/card_backs/set2/gray.gif","img/card_backs/set2/blue.gif","""event"",""trial"",""time""
""fullscreenenter"",""1"",""8558""
","
","
","""event"",""trial"",""time""
""fullscreenenter"",""1"",""8558""
","
","","2635","audio/beep_loop.wav","32","","","","","","","","",""
"audio-button-response","3","20967","0.0-3.0","795","true","img/card_backs/set1/red.gif","img/card_backs/set1/purple.gif","img/card_backs/set1/green.gif","img/card_backs/set1/yellow.gif","img/card_backs/set2/orange.gif","img/card_backs/set2/pink.gif","img/card_backs/set2/gray.gif","img/card_backs/set2/blue.gif","""event"",""trial"",""time""
""fullscreenenter"",""1"",""8558""
","
","
","""event"",""trial"",""time""
""fullscreenenter"",""1"",""8558""
","
","","NaN","audio/turtle.mp3","","3","","","","","","","",""
"audio-button-response","4","24128","0.0-4.0","795","true","img/card_backs/set1/red.gif","img/card_backs/set1/purple.gif","img/card_backs/set1/green.gif","img/card_backs/set1/yellow.gif","img/card_backs/set2/orange.gif","img/card_backs/set2/pink.gif","img/card_backs/set2/gray.gif","img/card_backs/set2/blue.gif","""event"",""trial"",""time""
""fullscreenenter"",""1"",""8558""
","
","
","""event"",""trial"",""time""
""fullscreenenter"",""1"",""8558""
","
","","NaN","audio/shark.mp3","","2","","","","","","","",""
"fullscreen","5","27370","0.0-5.0","795","true","img/card_backs/set1/red.gif","img/card_backs/set1/purple.gif","img/card_backs/set1/green.gif","img/card_backs/set1/yellow.gif","img/card_backs/set2/orange.gif","img/card_backs/set2/pink.gif","img/card_backs/set2/gray.gif","img/card_backs/set2/blue.gif","""event"",""trial"",""time""
""fullscreenenter"",""1"",""8558""
","
","
","""event"",""trial"",""time""
""fullscreenenter"",""1"",""8558""
","
","true","","","","","","","","","","","",""
"casino-keyboard-response","6","31926","0.0-6.0-0.0","795","true","img/card_backs/set1/red.gif","img/card_backs/set1/purple.gif","img/card_backs/set1/green.gif","img/card_backs/set1/yellow.gif","img/card_backs/set2/orange.gif","img/card_backs/set2/pink.gif","img/card_backs/set2/gray.gif","img/card_backs/set2/blue.gif","""event"",""trial"",""time""
""fullscreenenter"",""1"",""8558""
","
","
","""event"",""trial"",""time""
""fullscreenenter"",""1"",""8558""
","
","","4553.450000000004","Welcome to the casino!","71","","instructions","2021-04-03 19:40:47.929","","","","","",""
"casino-keyboard-response","7","49637","0.0-6.0-0.1","795","true","img/card_backs/set1/red.gif","img/card_backs/set1/purple.gif","img/card_backs/set1/green.gif","img/card_backs/set1/yellow.gif","img/card_backs/set2/orange.gif","img/card_backs/set2/pink.gif","img/card_backs/set2/gray.gif","img/card_backs/set2/blue.gif","""event"",""trial"",""time""
""fullscreenenter"",""1"",""8558""
","
","
","""event"",""trial"",""time""
""fullscreenenter"",""1"",""8558""
","
","","17710.32500000001","Today you will be playing a game to earn tokens. </br> At the end of the experiment, you will be paid a bonus based on how many tokens you win. ","69","","instructions","2021-04-03 19:41:05.640","","","","","",""
"casino-keyboard-response","8","57456","0.0-6.0-0.2","795","true","img/card_backs/set1/red.gif","img/card_backs/set1/purple.gif","img/card_backs/set1/green.gif","img/card_backs/set1/yellow.gif","img/card_backs/set2/orange.gif","img/card_backs/set2/pink.gif","img/card_backs/set2/gray.gif","img/card_backs/set2/blue.gif","""event"",""trial"",""time""
""fullscreenenter"",""1"",""8558""
","
","
","""event"",""trial"",""time""
""fullscreenenter"",""1"",""8558""
","
","","7817.535000000018","On every turn, you will be shown four different decks of cards. </br> You need to select a card from one of the four decks.  ","75","","instructions","2021-04-03 19:41:13.459","","","","","",""
"casino-keyboard-response","9","64162","0.0-6.0-0.3","795","true","img/card_backs/set1/red.gif","img/card_backs/set1/purple.gif","img/card_backs/set1/green.gif","img/card_backs/set1/yellow.gif","img/card_backs/set2/orange.gif","img/card_backs/set2/pink.gif","img/card_backs/set2/gray.gif","img/card_backs/set2/blue.gif","""event"",""trial"",""time""
""fullscreenenter"",""1"",""8558""
","
","
","""event"",""trial"",""time""
""fullscreenenter"",""1"",""8558""
","
","","6704.999999999985","On the next screen, you will see what the decks will look like. ","66","","instructions","2021-04-03 19:41:20.165","","","","","",""
"card-selection-trial","10","68169","0.0-7.0-0.0","795","true","img/card_backs/set1/red.gif","img/card_backs/set1/purple.gif","img/card_backs/set1/green.gif","img/card_backs/set1/yellow.gif","img/card_backs/set2/orange.gif","img/card_backs/set2/pink.gif","img/card_backs/set2/gray.gif","img/card_backs/set2/blue.gif","""event"",""trial"",""time""
""fullscreenenter"",""1"",""8558""
","
","
","""event"",""trial"",""time""
""fullscreenenter"",""1"",""8558""
","
","","null","","","","practice","2021-04-03 19:41:24.173","null","null","null","0","",""
"casino-keyboard-response","11","82174","0.0-8.0-0.0","795","true","img/card_backs/set1/red.gif","img/card_backs/set1/purple.gif","img/card_backs/set1/green.gif","img/card_backs/set1/yellow.gif","img/card_backs/set2/orange.gif","img/card_backs/set2/pink.gif","img/card_backs/set2/gray.gif","img/card_backs/set2/blue.gif","""event"",""trial"",""time""
""fullscreenenter"",""1"",""8558""
","
","
","""event"",""trial"",""time""
""fullscreenenter"",""1"",""8558""
","
","","14002.794999999984","You should pick a card from a deck using the '2', '4', '6', and '8' keys at the top of the keyboard.","85","","instructions","2021-04-03 19:41:38.177","","","","","",""
"casino-keyboard-response","12","88341","0.0-8.0-0.1","795","true","img/card_backs/set1/red.gif","img/card_backs/set1/purple.gif","img/card_backs/set1/green.gif","img/card_backs/set1/yellow.gif","img/card_backs/set2/orange.gif","img/card_backs/set2/pink.gif","img/card_backs/set2/gray.gif","img/card_backs/set2/blue.gif","""event"",""trial"",""time""
""fullscreenenter"",""1"",""8558""
","
","
","""event"",""trial"",""time""
""fullscreenenter"",""1"",""8558""
","
","","6166.25","Once you select a card, it will turn over and you will see how many tokens you earned.","83","","instructions","2021-04-03 19:41:44.344","","","","","",""
"casino-keyboard-response","13","93893","0.0-8.0-0.2","795","true","img/card_backs/set1/red.gif","img/card_backs/set1/purple.gif","img/card_backs/set1/green.gif","img/card_backs/set1/yellow.gif","img/card_backs/set2/orange.gif","img/card_backs/set2/pink.gif","img/card_backs/set2/gray.gif","img/card_backs/set2/blue.gif","""event"",""trial"",""time""
""fullscreenenter"",""1"",""8558""
","
","
","""event"",""trial"",""time""
""fullscreenenter"",""1"",""8558""
","
","","5549.990000000034","Let's try practicing that! </br> First, try to put your fingers over the '2', '4', '6', and '8' keys. </br>  You can use whatever fingers are most comfortable for you. Try to find a comfortable position now. ","50","","instructions","2021-04-03 19:41:49.896","","","","","",""
"casino-keyboard-response","14","95624","0.0-8.0-0.3","795","true","img/card_backs/set1/red.gif","img/card_backs/set1/purple.gif","img/card_backs/set1/green.gif","img/card_backs/set1/yellow.gif","img/card_backs/set2/orange.gif","img/card_backs/set2/pink.gif","img/card_backs/set2/gray.gif","img/card_backs/set2/blue.gif","""event"",""trial"",""time""
""fullscreenenter"",""1"",""8558""
","
","
","""event"",""trial"",""time""
""fullscreenenter"",""1"",""8558""
","
","","1730.3349999999627","Okay ready? </br> On the next screen, press '2' to select the left deck. ","50","","instructions","2021-04-03 19:41:51.627","","","","","",""
"card-selection-trial","15","99938","0.0-9.0-0.0","795","true","img/card_backs/set1/red.gif","img/card_backs/set1/purple.gif","img/card_backs/set1/green.gif","img/card_backs/set1/yellow.gif","img/card_backs/set2/orange.gif","img/card_backs/set2/pink.gif","img/card_backs/set2/gray.gif","img/card_backs/set2/blue.gif","""event"",""trial"",""time""
""fullscreenenter"",""1"",""8558""
","
","
","""event"",""trial"",""time""
""fullscreenenter"",""1"",""8558""
","
","","2298.299999999974","","","","practice_card_selection","2021-04-03 19:41:55.942","img/practice_cards/backs/dark_green.gif","0","-200","","",""
"casino-keyboard-response","16","105719","0.0-10.0-0.0","795","true","img/card_backs/set1/red.gif","img/card_backs/set1/purple.gif","img/card_backs/set1/green.gif","img/card_backs/set1/yellow.gif","img/card_backs/set2/orange.gif","img/card_backs/set2/pink.gif","img/card_backs/set2/gray.gif","img/card_backs/set2/blue.gif","""event"",""trial"",""time""
""fullscreenenter"",""1"",""8558""
","
","
","""event"",""trial"",""time""
""fullscreenenter"",""1"",""8558""
","
","","5779.345000000045","Great! Now on the next screen, try pressing '6' to select the third deck.","54","","instructions","2021-04-03 19:42:01.723","","","","","",""
"card-selection-trial","17","108238","0.0-11.0-0.0","795","true","img/card_backs/set1/red.gif","img/card_backs/set1/purple.gif","img/card_backs/set1/green.gif","img/card_backs/set1/yellow.gif","img/card_backs/set2/orange.gif","img/card_backs/set2/pink.gif","img/card_backs/set2/gray.gif","img/card_backs/set2/blue.gif","""event"",""trial"",""time""
""fullscreenenter"",""1"",""8558""
","
","
","""event"",""trial"",""time""
""fullscreenenter"",""1"",""8558""
","
","","513.3799999999901","","","","practice_card_selection","2021-04-03 19:42:04.241","img/practice_cards/backs/brown.gif","2","100","","",""
"casino-keyboard-response","18","113366","0.0-12.0-0.0","795","true","img/card_backs/set1/red.gif","img/card_backs/set1/purple.gif","img/card_backs/set1/green.gif","img/card_backs/set1/yellow.gif","img/card_backs/set2/orange.gif","img/card_backs/set2/pink.gif","img/card_backs/set2/gray.gif","img/card_backs/set2/blue.gif","""event"",""trial"",""time""
""fullscreenenter"",""1"",""8558""
","
","
","""event"",""trial"",""time""
""fullscreenenter"",""1"",""8558""
","
","","5126.85500000004","Now on the next screen, try pressing '4' to select the second deck.","52","","instructions","2021-04-03 19:42:09.369","","","","","",""
"card-selection-trial","19","115744","0.0-13.0-0.0","795","true","img/card_backs/set1/red.gif","img/card_backs/set1/purple.gif","img/card_backs/set1/green.gif","img/card_backs/set1/yellow.gif","img/card_backs/set2/orange.gif","img/card_backs/set2/pink.gif","img/card_backs/set2/gray.gif","img/card_backs/set2/blue.gif","""event"",""trial"",""time""
""fullscreenenter"",""1"",""8558""
","
","
","""event"",""trial"",""time""
""fullscreenenter"",""1"",""8558""
","
","","372.4050000000134","","","","practice_card_selection","2021-04-03 19:42:11.747","img/practice_cards/backs/black.gif","1","-100","","",""
"casino-keyboard-response","20","119070","0.0-14.0-0.0","795","true","img/card_backs/set1/red.gif","img/card_backs/set1/purple.gif","img/card_backs/set1/green.gif","img/card_backs/set1/yellow.gif","img/card_backs/set2/orange.gif","img/card_backs/set2/pink.gif","img/card_backs/set2/gray.gif","img/card_backs/set2/blue.gif","""event"",""trial"",""time""
""fullscreenenter"",""1"",""8558""
","
","
","""event"",""trial"",""time""
""fullscreenenter"",""1"",""8558""
","
","","3324.7799999999843","Finally, try pressing '8' to select the deck all the way on the right.","56","","instructions","2021-04-03 19:42:15.073","","","","","",""
"card-selection-trial","21","121668","0.0-15.0-0.0","795","true","img/card_backs/set1/red.gif","img/card_backs/set1/purple.gif","img/card_backs/set1/green.gif","img/card_backs/set1/yellow.gif","img/card_backs/set2/orange.gif","img/card_backs/set2/pink.gif","img/card_backs/set2/gray.gif","img/card_backs/set2/blue.gif","""event"",""trial"",""time""
""fullscreenenter"",""1"",""8558""
","
","
","""event"",""trial"",""time""
""fullscreenenter"",""1"",""8558""
","
","","589.6299999999901","","","","practice_card_selection","2021-04-03 19:42:17.671","img/practice_cards/backs/black.gif","3","100","","",""
"casino-keyboard-response","22","125492","0.0-16.0-0.0","795","true","img/card_backs/set1/red.gif","img/card_backs/set1/purple.gif","img/card_backs/set1/green.gif","img/card_backs/set1/yellow.gif","img/card_backs/set2/orange.gif","img/card_backs/set2/pink.gif","img/card_backs/set2/gray.gif","img/card_backs/set2/blue.gif","""event"",""trial"",""time""
""fullscreenenter"",""1"",""8558""
","
","
","""event"",""trial"",""time""
""fullscreenenter"",""1"",""8558""
","
","","3823.3749999999854","Great! It seems like you are getting the hang of this.","80","","instructions","2021-04-03 19:42:21.495","","","","","",""
"casino-keyboard-response","23","133068","0.0-16.0-0.1","795","true","img/card_backs/set1/red.gif","img/card_backs/set1/purple.gif","img/card_backs/set1/green.gif","img/card_backs/set1/yellow.gif","img/card_backs/set2/orange.gif","img/card_backs/set2/pink.gif","img/card_backs/set2/gray.gif","img/card_backs/set2/blue.gif","""event"",""trial"",""time""
""fullscreenenter"",""1"",""8558""
","
","
","""event"",""trial"",""time""
""fullscreenenter"",""1"",""8558""
","
","","7574.905000000013","You may have noticed that some cards will cause you to <b> win </b> tokens while other cards will cause you to <b> lose </b>  tokens.","70","","instructions","2021-04-03 19:42:29.071","","","","","",""
"casino-keyboard-response","24","142175","0.0-16.0-0.2","795","true","img/card_backs/set1/red.gif","img/card_backs/set1/purple.gif","img/card_backs/set1/green.gif","img/card_backs/set1/yellow.gif","img/card_backs/set2/orange.gif","img/card_backs/set2/pink.gif","img/card_backs/set2/gray.gif","img/card_backs/set2/blue.gif","""event"",""trial"",""time""
""fullscreenenter"",""1"",""8558""
","
","
","""event"",""trial"",""time""
""fullscreenenter"",""1"",""8558""
","
","","9105.25999999998","Each deck has a mix of cards that will cause you to win and lose tokens. </br> However, the cards in each colored deck are different.","73","","instructions","2021-04-03 19:42:38.178","","","","","",""
"casino-keyboard-response","25","150738","0.0-16.0-0.3","795","true","img/card_backs/set1/red.gif","img/card_backs/set1/purple.gif","img/card_backs/set1/green.gif","img/card_backs/set1/yellow.gif","img/card_backs/set2/orange.gif","img/card_backs/set2/pink.gif","img/card_backs/set2/gray.gif","img/card_backs/set2/blue.gif","""event"",""trial"",""time""
""fullscreenenter"",""1"",""8558""
","
","
","""event"",""trial"",""time""
""fullscreenenter"",""1"",""8558""
","
","","8561.74000000002","Some colored decks are luckier than others. </br> If you choose the lucky decks, you will earn more tokens than if you choose the unlucky decks.","69","","instructions","2021-04-03 19:42:46.741","","","","","",""
"casino-keyboard-response","26","158063","0.0-16.0-0.4","795","true","img/card_backs/set1/red.gif","img/card_backs/set1/purple.gif","img/card_backs/set1/green.gif","img/card_backs/set1/yellow.gif","img/card_backs/set2/orange.gif","img/card_backs/set2/pink.gif","img/card_backs/set2/gray.gif","img/card_backs/set2/blue.gif","""event"",""trial"",""time""
""fullscreenenter"",""1"",""8558""
","
","
","""event"",""trial"",""time""
""fullscreenenter"",""1"",""8558""
","
","","7324.195000000036","You should try to figure out which decks are lucky. </br> Then, try to choose the lucky decks so you can win the most tokens.","87","","instructions","2021-04-03 19:42:54.066","","","","","",""
"casino-keyboard-response","27","170285","0.0-16.0-0.5","795","true","img/card_backs/set1/red.gif","img/card_backs/set1/purple.gif","img/card_backs/set1/green.gif","img/card_backs/set1/yellow.gif","img/card_backs/set2/orange.gif","img/card_backs/set2/pink.gif","img/card_backs/set2/gray.gif","img/card_backs/set2/blue.gif","""event"",""trial"",""time""
""fullscreenenter"",""1"",""8558""
","
","
","""event"",""trial"",""time""
""fullscreenenter"",""1"",""8558""
","
","","12221.169999999984","To make it trickier, the casino dealer will switch the locations of the decks on every turn. </br> The color of the deck determines how lucky it is. The location does not matter.","88","","instructions","2021-04-03 19:43:06.288","","","","","",""
"casino-keyboard-response","28","183579","0.0-16.0-0.6","795","true","img/card_backs/set1/red.gif","img/card_backs/set1/purple.gif","img/card_backs/set1/green.gif","img/card_backs/set1/yellow.gif","img/card_backs/set2/orange.gif","img/card_backs/set2/pink.gif","img/card_backs/set2/gray.gif","img/card_backs/set2/blue.gif","""event"",""trial"",""time""
""fullscreenenter"",""1"",""8558""
","
","
","""event"",""trial"",""time""
""fullscreenenter"",""1"",""8558""
","
","","13291.804999999993","The mix of cards in each colored deck will stay the same throughout the game. </br> That means that a deck that is lucky early on will stay lucky.","79","","instructions","2021-04-03 19:43:19.582","","","","","",""
"casino-keyboard-response","29","192453","0.0-16.0-0.7","795","true","img/card_backs/set1/red.gif","img/card_backs/set1/purple.gif","img/card_backs/set1/green.gif","img/card_backs/set1/yellow.gif","img/card_backs/set2/orange.gif","img/card_backs/set2/pink.gif","img/card_backs/set2/gray.gif","img/card_backs/set2/blue.gif","""event"",""trial"",""time""
""fullscreenenter"",""1"",""8558""
","
","
","""event"",""trial"",""time""
""fullscreenenter"",""1"",""8558""
","
","","8873.13499999998","Remember though, all the decks have a <b> mix </b> of both <b> good </b> and <b> bad </b> cards so it may take a couple of turns to figure out if a deck is lucky.","69","","instructions","2021-04-03 19:43:28.456","","","","","",""
"casino-keyboard-response","30","200987","0.0-16.0-0.8","795","true","img/card_backs/set1/red.gif","img/card_backs/set1/purple.gif","img/card_backs/set1/green.gif","img/card_backs/set1/yellow.gif","img/card_backs/set2/orange.gif","img/card_backs/set2/pink.gif","img/card_backs/set2/gray.gif","img/card_backs/set2/blue.gif","""event"",""trial"",""time""
""fullscreenenter"",""1"",""8558""
","
","
","""event"",""trial"",""time""
""fullscreenenter"",""1"",""8558""
","
","","8532.859999999986","At the end of the game, you will be paid bonus money based on how many tokens you win. </br> If you win more tokens, you will earn more money!","72","","instructions","2021-04-03 19:43:36.990","","","","","",""
"casino-keyboard-response","31","211327","0.0-16.0-0.9","795","true","img/card_backs/set1/red.gif","img/card_backs/set1/purple.gif","img/card_backs/set1/green.gif","img/card_backs/set1/yellow.gif","img/card_backs/set2/orange.gif","img/card_backs/set2/pink.gif","img/card_backs/set2/gray.gif","img/card_backs/set2/blue.gif","""event"",""trial"",""time""
""fullscreenenter"",""1"",""8558""
","
","
","""event"",""trial"",""time""
""fullscreenenter"",""1"",""8558""
","
","","10338.599999999977","You will never <b> lose </b> money. </br> If you end up with fewer than 0 tokens, you will earn $0 of bonus money, but you will still be paid for playing the game.","83","","instructions","2021-04-03 19:43:47.330","","","","","",""
"casino-keyboard-response","32","216601","0.0-16.0-0.10","795","true","img/card_backs/set1/red.gif","img/card_backs/set1/purple.gif","img/card_backs/set1/green.gif","img/card_backs/set1/yellow.gif","img/card_backs/set2/orange.gif","img/card_backs/set2/pink.gif","img/card_backs/set2/gray.gif","img/card_backs/set2/blue.gif","""event"",""trial"",""time""
""fullscreenenter"",""1"",""8558""
","
","
","""event"",""trial"",""time""
""fullscreenenter"",""1"",""8558""
","
","","5272.234999999986","You will have 10 seconds to make each choice.","82","","instructions","2021-04-03 19:43:52.604","","","","","",""
"casino-keyboard-response","33","225533","0.0-16.0-0.11","795","true","img/card_backs/set1/red.gif","img/card_backs/set1/purple.gif","img/card_backs/set1/green.gif","img/card_backs/set1/yellow.gif","img/card_backs/set2/orange.gif","img/card_backs/set2/pink.gif","img/card_backs/set2/gray.gif","img/card_backs/set2/blue.gif","""event"",""trial"",""time""
""fullscreenenter"",""1"",""8558""
","
","
","""event"",""trial"",""time""
""fullscreenenter"",""1"",""8558""
","
","","8931.220000000001","Before you play the game for real, you will play with practice decks. </br> The tokens you earn during practice won't count toward your total.","86","","instructions","2021-04-03 19:44:01.537","","","","","",""
"casino-keyboard-response","34","236695","0.0-16.0-0.12","795","true","img/card_backs/set1/red.gif","img/card_backs/set1/purple.gif","img/card_backs/set1/green.gif","img/card_backs/set1/yellow.gif","img/card_backs/set2/orange.gif","img/card_backs/set2/pink.gif","img/card_backs/set2/gray.gif","img/card_backs/set2/blue.gif","""event"",""trial"",""time""
""fullscreenenter"",""1"",""8558""
","
","
","""event"",""trial"",""time""
""fullscreenenter"",""1"",""8558""
","
","","11160.090000000026","Ready? Remember, use the '2', '4', '6', and '8' keys to select the decks. </br> Put your fingers on those keys now and then press '2' to begin.","50","","instructions","2021-04-03 19:44:12.698","","","","","",""
"casino-fixation","35","237199","0.0-17.0-0.0","795","true","img/card_backs/set1/red.gif","img/card_backs/set1/purple.gif","img/card_backs/set1/green.gif","img/card_backs/set1/yellow.gif","img/card_backs/set2/orange.gif","img/card_backs/set2/pink.gif","img/card_backs/set2/gray.gif","img/card_backs/set2/blue.gif","""event"",""trial"",""time""
""fullscreenenter"",""1"",""8558""
","
","
","""event"",""trial"",""time""
""fullscreenenter"",""1"",""8558""
","
","","null","","null","","fixation","2021-04-03 19:44:13.202","","","","","",""
"card-selection-trial","36","244529","0.0-17.0-1.0","795","true","img/card_backs/set1/red.gif","img/card_backs/set1/purple.gif","img/card_backs/set1/green.gif","img/card_backs/set1/yellow.gif","img/card_backs/set2/orange.gif","img/card_backs/set2/pink.gif","img/card_backs/set2/gray.gif","img/card_backs/set2/blue.gif","""event"",""trial"",""time""
""fullscreenenter"",""1"",""8558""
","
","
","""event"",""trial"",""time""
""fullscreenenter"",""1"",""8558""
","
","","5324.920000000042","","","","practice","2021-04-03 19:44:20.533","img/practice_cards/backs/black.gif","2","100","0","",""
"casino-fixation","37","245036","0.0-17.0-0.1","795","true","img/card_backs/set1/red.gif","img/card_backs/set1/purple.gif","img/card_backs/set1/green.gif","img/card_backs/set1/yellow.gif","img/card_backs/set2/orange.gif","img/card_backs/set2/pink.gif","img/card_backs/set2/gray.gif","img/card_backs/set2/blue.gif","""event"",""trial"",""time""
""fullscreenenter"",""1"",""8558""
","
","
","""event"",""trial"",""time""
""fullscreenenter"",""1"",""8558""
","
","","null","","null","","fixation","2021-04-03 19:44:21.039","","","","","",""
"card-selection-trial","38","249111","0.0-17.0-1.1","795","true","img/card_backs/set1/red.gif","img/card_backs/set1/purple.gif","img/card_backs/set1/green.gif","img/card_backs/set1/yellow.gif","img/card_backs/set2/orange.gif","img/card_backs/set2/pink.gif","img/card_backs/set2/gray.gif","img/card_backs/set2/blue.gif","""event"",""trial"",""time""
""fullscreenenter"",""1"",""8558""
","
","
","""event"",""trial"",""time""
""fullscreenenter"",""1"",""8558""
","
","","2067.5100000000384","","","","practice","2021-04-03 19:44:25.115","img/practice_cards/backs/black.gif","1","100","0","",""
"casino-fixation","39","249618","0.0-17.0-0.2","795","true","img/card_backs/set1/red.gif","img/card_backs/set1/purple.gif","img/card_backs/set1/green.gif","img/card_backs/set1/yellow.gif","img/card_backs/set2/orange.gif","img/card_backs/set2/pink.gif","img/card_backs/set2/gray.gif","img/card_backs/set2/blue.gif","""event"",""trial"",""time""
""fullscreenenter"",""1"",""8558""
","
","
","""event"",""trial"",""time""
""fullscreenenter"",""1"",""8558""
","
","","null","","null","","fixation","2021-04-03 19:44:25.621","","","","","",""
"card-selection-trial","40","253751","0.0-17.0-1.2","795","true","img/card_backs/set1/red.gif","img/card_backs/set1/purple.gif","img/card_backs/set1/green.gif","img/card_backs/set1/yellow.gif","img/card_backs/set2/orange.gif","img/card_backs/set2/pink.gif","img/card_backs/set2/gray.gif","img/card_backs/set2/blue.gif","""event"",""trial"",""time""
""fullscreenenter"",""1"",""8558""
","
","
","""event"",""trial"",""time""
""fullscreenenter"",""1"",""8558""
","
","","2125.6849999999686","","","","practice","2021-04-03 19:44:29.754","img/practice_cards/backs/black.gif","0","-100","0","",""
"casino-fixation","41","254259","0.0-17.0-0.3","795","true","img/card_backs/set1/red.gif","img/card_backs/set1/purple.gif","img/card_backs/set1/green.gif","img/card_backs/set1/yellow.gif","img/card_backs/set2/orange.gif","img/card_backs/set2/pink.gif","img/card_backs/set2/gray.gif","img/card_backs/set2/blue.gif","""event"",""trial"",""time""
""fullscreenenter"",""1"",""8558""
","
","
","""event"",""trial"",""time""
""fullscreenenter"",""1"",""8558""
","
","","null","","null","","fixation","2021-04-03 19:44:30.262","","","","","",""
"card-selection-trial","42","257885","0.0-17.0-1.3","795","true","img/card_backs/set1/red.gif","img/card_backs/set1/purple.gif","img/card_backs/set1/green.gif","img/card_backs/set1/yellow.gif","img/card_backs/set2/orange.gif","img/card_backs/set2/pink.gif","img/card_backs/set2/gray.gif","img/card_backs/set2/blue.gif","""event"",""trial"",""time""
""fullscreenenter"",""1"",""8558""
","
","
","""event"",""trial"",""time""
""fullscreenenter"",""1"",""8558""
","
","","1616.5250000000233","","","","practice","2021-04-03 19:44:33.888","img/practice_cards/backs/black.gif","0","-100","0","",""
"casino-fixation","43","258390","0.0-17.0-0.4","795","true","img/card_backs/set1/red.gif","img/card_backs/set1/purple.gif","img/card_backs/set1/green.gif","img/card_backs/set1/yellow.gif","img/card_backs/set2/orange.gif","img/card_backs/set2/pink.gif","img/card_backs/set2/gray.gif","img/card_backs/set2/blue.gif","""event"",""trial"",""time""
""fullscreenenter"",""1"",""8558""
","
","
","""event"",""trial"",""time""
""fullscreenenter"",""1"",""8558""
","
","","null","","null","","fixation","2021-04-03 19:44:34.393","","","","","",""
"card-selection-trial","44","262737","0.0-17.0-1.4","795","true","img/card_backs/set1/red.gif","img/card_backs/set1/purple.gif","img/card_backs/set1/green.gif","img/card_backs/set1/yellow.gif","img/card_backs/set2/orange.gif","img/card_backs/set2/pink.gif","img/card_backs/set2/gray.gif","img/card_backs/set2/blue.gif","""event"",""trial"",""time""
""fullscreenenter"",""1"",""8558""
","
","
","""event"",""trial"",""time""
""fullscreenenter"",""1"",""8558""
","
","","2341.8750000001164","","","","practice","2021-04-03 19:44:38.740","img/practice_cards/backs/black.gif","3","-100","0","",""
"casino-fixation","45","263244","0.0-17.0-0.5","795","true","img/card_backs/set1/red.gif","img/card_backs/set1/purple.gif","img/card_backs/set1/green.gif","img/card_backs/set1/yellow.gif","img/card_backs/set2/orange.gif","img/card_backs/set2/pink.gif","img/card_backs/set2/gray.gif","img/card_backs/set2/blue.gif","""event"",""trial"",""time""
""fullscreenenter"",""1"",""8558""
","
","
","""event"",""trial"",""time""
""fullscreenenter"",""1"",""8558""
","
","","null","","null","","fixation","2021-04-03 19:44:39.247","","","","","",""
"card-selection-trial","46","267038","0.0-17.0-1.5","795","true","img/card_backs/set1/red.gif","img/card_backs/set1/purple.gif","img/card_backs/set1/green.gif","img/card_backs/set1/yellow.gif","img/card_backs/set2/orange.gif","img/card_backs/set2/pink.gif","img/card_backs/set2/gray.gif","img/card_backs/set2/blue.gif","""event"",""trial"",""time""
""fullscreenenter"",""1"",""8558""
","
","
","""event"",""trial"",""time""
""fullscreenenter"",""1"",""8558""
","
","","1784.4850000000442","","","","practice","2021-04-03 19:44:43.041","img/practice_cards/backs/brown.gif","2","-100","0","",""
"casino-fixation","47","267544","0.0-17.0-0.6","795","true","img/card_backs/set1/red.gif","img/card_backs/set1/purple.gif","img/card_backs/set1/green.gif","img/card_backs/set1/yellow.gif","img/card_backs/set2/orange.gif","img/card_backs/set2/pink.gif","img/card_backs/set2/gray.gif","img/card_backs/set2/blue.gif","""event"",""trial"",""time""
""fullscreenenter"",""1"",""8558""
","
","
","""event"",""trial"",""time""
""fullscreenenter"",""1"",""8558""
","
","","null","","null","","fixation","2021-04-03 19:44:43.547","","","","","",""
"card-selection-trial","48","270771","0.0-17.0-1.6","795","true","img/card_backs/set1/red.gif","img/card_backs/set1/purple.gif","img/card_backs/set1/green.gif","img/card_backs/set1/yellow.gif","img/card_backs/set2/orange.gif","img/card_backs/set2/pink.gif","img/card_backs/set2/gray.gif","img/card_backs/set2/blue.gif","""event"",""trial"",""time""
""fullscreenenter"",""1"",""8558""
","
","
","""event"",""trial"",""time""
""fullscreenenter"",""1"",""8558""
","
","","1220.0199999999604","","","","practice","2021-04-03 19:44:46.774","img/practice_cards/backs/dark_green.gif","1","200","0","",""
"casino-fixation","49","271277","0.0-17.0-0.7","795","true","img/card_backs/set1/red.gif","img/card_backs/set1/purple.gif","img/card_backs/set1/green.gif","img/card_backs/set1/yellow.gif","img/card_backs/set2/orange.gif","img/card_backs/set2/pink.gif","img/card_backs/set2/gray.gif","img/card_backs/set2/blue.gif","""event"",""trial"",""time""
""fullscreenenter"",""1"",""8558""
","
","
","""event"",""trial"",""time""
""fullscreenenter"",""1"",""8558""
","
","","null","","null","","fixation","2021-04-03 19:44:47.280","","","","","",""
"card-selection-trial","50","274355","0.0-17.0-1.7","795","true","img/card_backs/set1/red.gif","img/card_backs/set1/purple.gif","img/card_backs/set1/green.gif","img/card_backs/set1/yellow.gif","img/card_backs/set2/orange.gif","img/card_backs/set2/pink.gif","img/card_backs/set2/gray.gif","img/card_backs/set2/blue.gif","""event"",""trial"",""time""
""fullscreenenter"",""1"",""8558""
","
","
","""event"",""trial"",""time""
""fullscreenenter"",""1"",""8558""
","
","","1072.3749999999418","","","","practice","2021-04-03 19:44:50.358","img/practice_cards/backs/dark_green.gif","1","200","0","",""
"casino-fixation","51","274856","0.0-17.0-0.8","795","true","img/card_backs/set1/red.gif","img/card_backs/set1/purple.gif","img/card_backs/set1/green.gif","img/card_backs/set1/yellow.gif","img/card_backs/set2/orange.gif","img/card_backs/set2/pink.gif","img/card_backs/set2/gray.gif","img/card_backs/set2/blue.gif","""event"",""trial"",""time""
""fullscreenenter"",""1"",""8558""
","
","
","""event"",""trial"",""time""
""fullscreenenter"",""1"",""8558""
","
","","null","","null","","fixation","2021-04-03 19:44:50.859","","","","","",""
"card-selection-trial","52","277684","0.0-17.0-1.8","795","true","img/card_backs/set1/red.gif","img/card_backs/set1/purple.gif","img/card_backs/set1/green.gif","img/card_backs/set1/yellow.gif","img/card_backs/set2/orange.gif","img/card_backs/set2/pink.gif","img/card_backs/set2/gray.gif","img/card_backs/set2/blue.gif","""event"",""trial"",""time""
""fullscreenenter"",""1"",""8558""
","
","
","""event"",""trial"",""time""
""fullscreenenter"",""1"",""8558""
","
","","818.9599999999045","","","","practice","2021-04-03 19:44:53.687","img/practice_cards/backs/dark_green.gif","1","-200","0","",""
"casino-fixation","53","278190","0.0-17.0-0.9","795","true","img/card_backs/set1/red.gif","img/card_backs/set1/purple.gif","img/card_backs/set1/green.gif","img/card_backs/set1/yellow.gif","img/card_backs/set2/orange.gif","img/card_backs/set2/pink.gif","img/card_backs/set2/gray.gif","img/card_backs/set2/blue.gif","""event"",""trial"",""time""
""fullscreenenter"",""1"",""8558""
","
","
","""event"",""trial"",""time""
""fullscreenenter"",""1"",""8558""
","
","","null","","null","","fixation","2021-04-03 19:44:54.193","","","","","",""
"card-selection-trial","54","281955","0.0-17.0-1.9","795","true","img/card_backs/set1/red.gif","img/card_backs/set1/purple.gif","img/card_backs/set1/green.gif","img/card_backs/set1/yellow.gif","img/card_backs/set2/orange.gif","img/card_backs/set2/pink.gif","img/card_backs/set2/gray.gif","img/card_backs/set2/blue.gif","""event"",""trial"",""time""
""fullscreenenter"",""1"",""8558""
","
","
","""event"",""trial"",""time""
""fullscreenenter"",""1"",""8558""
","
","","1758.2499999999418","","","","practice","2021-04-03 19:44:57.958","img/practice_cards/backs/brown.gif","2","100","0","",""
"casino-keyboard-response","55","285353","0.0-18.0","795","true","img/card_backs/set1/red.gif","img/card_backs/set1/purple.gif","img/card_backs/set1/green.gif","img/card_backs/set1/yellow.gif","img/card_backs/set2/orange.gif","img/card_backs/set2/pink.gif","img/card_backs/set2/gray.gif","img/card_backs/set2/blue.gif","""event"",""trial"",""time""
""fullscreenenter"",""1"",""8558""
","
","
","""event"",""trial"",""time""
""fullscreenenter"",""1"",""8558""
","
","","3396.844999999972","You earned 100 tokens during the practice round!","82","","","2021-04-03 19:45:01.356","","","","","",""
"casino-keyboard-response","56","289954","0.0-19.0-0.0","795","true","img/card_backs/set1/red.gif","img/card_backs/set1/purple.gif","img/card_backs/set1/green.gif","img/card_backs/set1/yellow.gif","img/card_backs/set2/orange.gif","img/card_backs/set2/pink.gif","img/card_backs/set2/gray.gif","img/card_backs/set2/blue.gif","""event"",""trial"",""time""
""fullscreenenter"",""1"",""8558""
","
","
","""event"",""trial"",""time""
""fullscreenenter"",""1"",""8558""
","
","","4599.969999999972","Nice job! You are almost ready to play the real game.","86","","instructions","2021-04-03 19:45:05.957","","","","","",""
"casino-keyboard-response","57","296753","0.0-19.0-0.1","795","true","img/card_backs/set1/red.gif","img/card_backs/set1/purple.gif","img/card_backs/set1/green.gif","img/card_backs/set1/yellow.gif","img/card_backs/set2/orange.gif","img/card_backs/set2/pink.gif","img/card_backs/set2/gray.gif","img/card_backs/set2/blue.gif","""event"",""trial"",""time""
""fullscreenenter"",""1"",""8558""
","
","
","""event"",""trial"",""time""
""fullscreenenter"",""1"",""8558""
","
","","6797.254999999946","You will play two rounds of the real game. In each round, you will pick 100 cards in total.","73","","instructions","2021-04-03 19:45:12.756","","","","","",""
"casino-keyboard-response","58","301317","0.0-19.0-0.2","795","true","img/card_backs/set1/red.gif","img/card_backs/set1/purple.gif","img/card_backs/set1/green.gif","img/card_backs/set1/yellow.gif","img/card_backs/set2/orange.gif","img/card_backs/set2/pink.gif","img/card_backs/set2/gray.gif","img/card_backs/set2/blue.gif","""event"",""trial"",""time""
""fullscreenenter"",""1"",""8558""
","
","
","""event"",""trial"",""time""
""fullscreenenter"",""1"",""8558""
","
","","4562.6900000000605","We are now going to ask you some questions about how the game works.","66","","instructions","2021-04-03 19:45:17.320","","","","","",""
"casino-keyboard-response","59","307702","0.0-19.0-0.3","795","true","img/card_backs/set1/red.gif","img/card_backs/set1/purple.gif","img/card_backs/set1/green.gif","img/card_backs/set1/yellow.gif","img/card_backs/set2/orange.gif","img/card_backs/set2/pink.gif","img/card_backs/set2/gray.gif","img/card_backs/set2/blue.gif","""event"",""trial"",""time""
""fullscreenenter"",""1"",""8558""
","
","
","""event"",""trial"",""time""
""fullscreenenter"",""1"",""8558""
","
","","6383.51999999996","Answer carefully. You will not be able to begin the game until you answer them correctly.","67","","instructions","2021-04-03 19:45:23.705","","","","","",""
"casino-comp_q","60","315113","0.0-20.0-0.0","795","true","img/card_backs/set1/red.gif","img/card_backs/set1/purple.gif","img/card_backs/set1/green.gif","img/card_backs/set1/yellow.gif","img/card_backs/set2/orange.gif","img/card_backs/set2/pink.gif","img/card_backs/set2/gray.gif","img/card_backs/set2/blue.gif","""event"",""trial"",""time""
""fullscreenenter"",""1"",""8558""
","
","
","""event"",""trial"",""time""
""fullscreenenter"",""1"",""8558""
","
","","7409.5","True or False: All the decks have some cards that cause you to win tokens and some cards that cause you to lose tokens.","84","","","2021-04-03 19:45:31.116","","","","","",""
"casino-keyboard-response","61","321098","0.0-20.0-1.0","795","true","img/card_backs/set1/red.gif","img/card_backs/set1/purple.gif","img/card_backs/set1/green.gif","img/card_backs/set1/yellow.gif","img/card_backs/set2/orange.gif","img/card_backs/set2/pink.gif","img/card_backs/set2/gray.gif","img/card_backs/set2/blue.gif","""event"",""trial"",""time""
""fullscreenenter"",""1"",""8558""
","
","
","""event"",""trial"",""time""
""fullscreenenter"",""1"",""8558""
","
","","5983.835000000021","True is correct! All the decks have a mix of winning and losing cards.","77","","","2021-04-03 19:45:37.101","","","","","true",""
"casino-comp_q","62","325560","0.0-21.0-0.0","795","true","img/card_backs/set1/red.gif","img/card_backs/set1/purple.gif","img/card_backs/set1/green.gif","img/card_backs/set1/yellow.gif","img/card_backs/set2/orange.gif","img/card_backs/set2/pink.gif","img/card_backs/set2/gray.gif","img/card_backs/set2/blue.gif","""event"",""trial"",""time""
""fullscreenenter"",""1"",""8558""
","
","
","""event"",""trial"",""time""
""fullscreenenter"",""1"",""8558""
","
","","4459.940000000002","True or False: You will have as much time as you want to make your response.","70","","","2021-04-03 19:45:41.563","","","","","",""
"casino-keyboard-response","63","329059","0.0-21.0-1.0","795","true","img/card_backs/set1/red.gif","img/card_backs/set1/purple.gif","img/card_backs/set1/green.gif","img/card_backs/set1/yellow.gif","img/card_backs/set2/orange.gif","img/card_backs/set2/pink.gif","img/card_backs/set2/gray.gif","img/card_backs/set2/blue.gif","""event"",""trial"",""time""
""fullscreenenter"",""1"",""8558""
","
","
","""event"",""trial"",""time""
""fullscreenenter"",""1"",""8558""
","
","","3497.2099999999627","False is correct! You will only have 10 seconds to make each choice.","75","","","2021-04-03 19:45:45.062","","","","","true",""
"casino-comp_q","64","334939","0.0-22.0-0.0","795","true","img/card_backs/set1/red.gif","img/card_backs/set1/purple.gif","img/card_backs/set1/green.gif","img/card_backs/set1/yellow.gif","img/card_backs/set2/orange.gif","img/card_backs/set2/pink.gif","img/card_backs/set2/gray.gif","img/card_backs/set2/blue.gif","""event"",""trial"",""time""
""fullscreenenter"",""1"",""8558""
","
","
","""event"",""trial"",""time""
""fullscreenenter"",""1"",""8558""
","
","","5878.659999999916","True or False: The location of the deck determines how lucky it is.","70","","","2021-04-03 19:45:50.942","","","","","",""
"casino-keyboard-response","65","339254","0.0-22.0-1.0","795","true","img/card_backs/set1/red.gif","img/card_backs/set1/purple.gif","img/card_backs/set1/green.gif","img/card_backs/set1/yellow.gif","img/card_backs/set2/orange.gif","img/card_backs/set2/pink.gif","img/card_backs/set2/gray.gif","img/card_backs/set2/blue.gif","""event"",""trial"",""time""
""fullscreenenter"",""1"",""8558""
","
","
","""event"",""trial"",""time""
""fullscreenenter"",""1"",""8558""
","
","","4313.899999999965","False is correct! The <i>color</i>  of the deck determines how lucky or unlucky it is.","68","","","2021-04-03 19:45:55.257","","","","","true",""
"casino-keyboard-response","66","344056","0.0-23.0-0.0","795","true","img/card_backs/set1/red.gif","img/card_backs/set1/purple.gif","img/card_backs/set1/green.gif","img/card_backs/set1/yellow.gif","img/card_backs/set2/orange.gif","img/card_backs/set2/pink.gif","img/card_backs/set2/gray.gif","img/card_backs/set2/blue.gif","""event"",""trial"",""time""
""fullscreenenter"",""1"",""8558""
","
","
","""event"",""trial"",""time""
""fullscreenenter"",""1"",""8558""
","
","","4800.290000000037","Great job! Now it's time to start the real game.","82","","instructions","2021-04-03 19:46:00.059","","","","","",""
"casino-keyboard-response","67","349445","0.0-23.0-0.1","795","true","img/card_backs/set1/red.gif","img/card_backs/set1/purple.gif","img/card_backs/set1/green.gif","img/card_backs/set1/yellow.gif","img/card_backs/set2/orange.gif","img/card_backs/set2/pink.gif","img/card_backs/set2/gray.gif","img/card_backs/set2/blue.gif","""event"",""trial"",""time""
""fullscreenenter"",""1"",""8558""
","
","
","""event"",""trial"",""time""
""fullscreenenter"",""1"",""8558""
","
","","5387.945000000065","Before we start, we're going to head into a new room of the casino.","86","","instructions","2021-04-03 19:46:05.448","","","","","",""
"casino-keyboard-response","68","355867","0.0-24.0-0.0","795","true","img/card_backs/set1/red.gif","img/card_backs/set1/purple.gif","img/card_backs/set1/green.gif","img/card_backs/set1/yellow.gif","img/card_backs/set2/orange.gif","img/card_backs/set2/pink.gif","img/card_backs/set2/gray.gif","img/card_backs/set2/blue.gif","""event"",""trial"",""time""
""fullscreenenter"",""1"",""8558""
","
","
","""event"",""trial"",""time""
""fullscreenenter"",""1"",""8558""
","
","","6420.614999999991","Here we are! The real game will use different cards, but the rules will be the same.","71","","instructions","2021-04-03 19:46:11.870","","","","","",""
"casino-keyboard-response","69","365778","0.0-24.0-0.1","795","true","img/card_backs/set1/red.gif","img/card_backs/set1/purple.gif","img/card_backs/set1/green.gif","img/card_backs/set1/yellow.gif","img/card_backs/set2/orange.gif","img/card_backs/set2/pink.gif","img/card_backs/set2/gray.gif","img/card_backs/set2/blue.gif","""event"",""trial"",""time""
""fullscreenenter"",""1"",""8558""
","
","
","""event"",""trial"",""time""
""fullscreenenter"",""1"",""8558""
","
","","9910.04999999993","Ready? Put your fingers over the '2', '4', 6', and '8' keys so you are ready to play the game. </br> Then press 2 to start.","50","","instructions","2021-04-03 19:46:21.781","","","","","",""
"casino-fixation","70","366280","0.0-25.0-0.0","795","true","img/card_backs/set1/red.gif","img/card_backs/set1/purple.gif","img/card_backs/set1/green.gif","img/card_backs/set1/yellow.gif","img/card_backs/set2/orange.gif","img/card_backs/set2/pink.gif","img/card_backs/set2/gray.gif","img/card_backs/set2/blue.gif","""event"",""trial"",""time""
""fullscreenenter"",""1"",""8558""
","
","
","""event"",""trial"",""time""
""fullscreenenter"",""1"",""8558""
","
","","null","","null","","fixation","2021-04-03 19:46:22.283","","","","","",""
"card-selection-trial","71","369953","0.0-25.0-1.0","795","true","img/card_backs/set1/red.gif","img/card_backs/set1/purple.gif","img/card_backs/set1/green.gif","img/card_backs/set1/yellow.gif","img/card_backs/set2/orange.gif","img/card_backs/set2/pink.gif","img/card_backs/set2/gray.gif","img/card_backs/set2/blue.gif","""event"",""trial"",""time""
""fullscreenenter"",""1"",""8558""
","
","
","""event"",""trial"",""time""
""fullscreenenter"",""1"",""8558""
","
","","1663.8549999999814","","","","real_trial","2021-04-03 19:46:25.956","img/card_backs/set1/red.gif","1","240","1","",""
"casino-fixation","72","370458","0.0-25.0-0.1","795","true","img/card_backs/set1/red.gif","img/card_backs/set1/purple.gif","img/card_backs/set1/green.gif","img/card_backs/set1/yellow.gif","img/card_backs/set2/orange.gif","img/card_backs/set2/pink.gif","img/card_backs/set2/gray.gif","img/card_backs/set2/blue.gif","""event"",""trial"",""time""
""fullscreenenter"",""1"",""8558""
","
","
","""event"",""trial"",""time""
""fullscreenenter"",""1"",""8558""
","
","","null","","null","","fixation","2021-04-03 19:46:26.461","","","","","",""
"card-selection-trial","73","373017","0.0-25.0-1.1","795","true","img/card_backs/set1/red.gif","img/card_backs/set1/purple.gif","img/card_backs/set1/green.gif","img/card_backs/set1/yellow.gif","img/card_backs/set2/orange.gif","img/card_backs/set2/pink.gif","img/card_backs/set2/gray.gif","img/card_backs/set2/blue.gif","""event"",""trial"",""time""
""fullscreenenter"",""1"",""8558""
","
","
","""event"",""trial"",""time""
""fullscreenenter"",""1"",""8558""
","
","","550.1550000000279","","","","real_trial","2021-04-03 19:46:29.021","img/card_backs/set1/red.gif","1","-200","1","",""
"casino-fixation","74","373524","0.0-25.0-0.2","795","true","img/card_backs/set1/red.gif","img/card_backs/set1/purple.gif","img/card_backs/set1/green.gif","img/card_backs/set1/yellow.gif","img/card_backs/set2/orange.gif","img/card_backs/set2/pink.gif","img/card_backs/set2/gray.gif","img/card_backs/set2/blue.gif","""event"",""trial"",""time""
""fullscreenenter"",""1"",""8558""
","
","
","""event"",""trial"",""time""
""fullscreenenter"",""1"",""8558""
","
","","null","","null","","fixation","2021-04-03 19:46:29.527","","","","","",""
"card-selection-trial","75","380026","0.0-25.0-1.2","795","true","img/card_backs/set1/red.gif","img/card_backs/set1/purple.gif","img/card_backs/set1/green.gif","img/card_backs/set1/yellow.gif","img/card_backs/set2/orange.gif","img/card_backs/set2/pink.gif","img/card_backs/set2/gray.gif","img/card_backs/set2/blue.gif","""event"",""trial"",""time""
""fullscreenenter"",""1"",""8558""
","
","
","""event"",""trial"",""time""
""fullscreenenter"",""1"",""8558""
","
","","4496.434999999998","","","","real_trial","2021-04-03 19:46:36.029","img/card_backs/set1/green.gif","0","40","1","",""
"casino-fixation","76","380533","0.0-25.0-0.3","795","true","img/card_backs/set1/red.gif","img/card_backs/set1/purple.gif","img/card_backs/set1/green.gif","img/card_backs/set1/yellow.gif","img/card_backs/set2/orange.gif","img/card_backs/set2/pink.gif","img/card_backs/set2/gray.gif","img/card_backs/set2/blue.gif","""event"",""trial"",""time""
""fullscreenenter"",""1"",""8558""
","
","
","""event"",""trial"",""time""
""fullscreenenter"",""1"",""8558""
","
","","null","","null","","fixation","2021-04-03 19:46:36.536","","","","","",""
"card-selection-trial","77","384166","0.0-25.0-1.3","795","true","img/card_backs/set1/red.gif","img/card_backs/set1/purple.gif","img/card_backs/set1/green.gif","img/card_backs/set1/yellow.gif","img/card_backs/set2/orange.gif","img/card_backs/set2/pink.gif","img/card_backs/set2/gray.gif","img/card_backs/set2/blue.gif","""event"",""trial"",""time""
""fullscreenenter"",""1"",""8558""
","
","
","""event"",""trial"",""time""
""fullscreenenter"",""1"",""8558""
","
","","1627.2850000000326","","","","real_trial","2021-04-03 19:46:40.169","img/card_backs/set1/yellow.gif","1","60","1","",""
"casino-fixation","78","384671","0.0-25.0-0.4","795","true","img/card_backs/set1/red.gif","img/card_backs/set1/purple.gif","img/card_backs/set1/green.gif","img/card_backs/set1/yellow.gif","img/card_backs/set2/orange.gif","img/card_backs/set2/pink.gif","img/card_backs/set2/gray.gif","img/card_backs/set2/blue.gif","""event"",""trial"",""time""
""fullscreenenter"",""1"",""8558""
","
","
","""event"",""trial"",""time""
""fullscreenenter"",""1"",""8558""
","
","","null","","null","","fixation","2021-04-03 19:46:40.674","","","","","",""
"card-selection-trial","79","387790","0.0-25.0-1.4","795","true","img/card_backs/set1/red.gif","img/card_backs/set1/purple.gif","img/card_backs/set1/green.gif","img/card_backs/set1/yellow.gif","img/card_backs/set2/orange.gif","img/card_backs/set2/pink.gif","img/card_backs/set2/gray.gif","img/card_backs/set2/blue.gif","""event"",""trial"",""time""
""fullscreenenter"",""1"",""8558""
","
","
","""event"",""trial"",""time""
""fullscreenenter"",""1"",""8558""
","
","","1109.7399999999907","","","","real_trial","2021-04-03 19:46:43.793","img/card_backs/set1/yellow.gif","1","60","1","",""
"casino-fixation","80","388293","0.0-25.0-0.5","795","true","img/card_backs/set1/red.gif","img/card_backs/set1/purple.gif","img/card_backs/set1/green.gif","img/card_backs/set1/yellow.gif","img/card_backs/set2/orange.gif","img/card_backs/set2/pink.gif","img/card_backs/set2/gray.gif","img/card_backs/set2/blue.gif","""event"",""trial"",""time""
""fullscreenenter"",""1"",""8558""
","
","
","""event"",""trial"",""time""
""fullscreenenter"",""1"",""8558""
","
","","null","","null","","fixation","2021-04-03 19:46:44.296","","","","","",""
"card-selection-trial","81","392722","0.0-25.0-1.5","795","true","img/card_backs/set1/red.gif","img/card_backs/set1/purple.gif","img/card_backs/set1/green.gif","img/card_backs/set1/yellow.gif","img/card_backs/set2/orange.gif","img/card_backs/set2/pink.gif","img/card_backs/set2/gray.gif","img/card_backs/set2/blue.gif","""event"",""trial"",""time""
""fullscreenenter"",""1"",""8558""
","
","
","""event"",""trial"",""time""
""fullscreenenter"",""1"",""8558""
","
","","2420.2799999999697","","","","real_trial","2021-04-03 19:46:48.725","img/card_backs/set1/red.gif","3","-200","1","",""
"casino-fixation","82","393226","0.0-25.0-0.6","795","true","img/card_backs/set1/red.gif","img/card_backs/set1/purple.gif","img/card_backs/set1/green.gif","img/card_backs/set1/yellow.gif","img/card_backs/set2/orange.gif","img/card_backs/set2/pink.gif","img/card_backs/set2/gray.gif","img/card_backs/set2/blue.gif","""event"",""trial"",""time""
""fullscreenenter"",""1"",""8558""
","
","
","""event"",""trial"",""time""
""fullscreenenter"",""1"",""8558""
","
","","null","","null","","fixation","2021-04-03 19:46:49.229","","","","","",""
"card-selection-trial","83","396951","0.0-25.0-1.6","795","true","img/card_backs/set1/red.gif","img/card_backs/set1/purple.gif","img/card_backs/set1/green.gif","img/card_backs/set1/yellow.gif","img/card_backs/set2/orange.gif","img/card_backs/set2/pink.gif","img/card_backs/set2/gray.gif","img/card_backs/set2/blue.gif","""event"",""trial"",""time""
""fullscreenenter"",""1"",""8558""
","
","
","""event"",""trial"",""time""
""fullscreenenter"",""1"",""8558""
","
","","1720.2299999999814","","","","real_trial","2021-04-03 19:46:52.954","img/card_backs/set1/purple.gif","3","-200","1","",""
"casino-fixation","84","397457","0.0-25.0-0.7","795","true","img/card_backs/set1/red.gif","img/card_backs/set1/purple.gif","img/card_backs/set1/green.gif","img/card_backs/set1/yellow.gif","img/card_backs/set2/orange.gif","img/card_backs/set2/pink.gif","img/card_backs/set2/gray.gif","img/card_backs/set2/blue.gif","""event"",""trial"",""time""
""fullscreenenter"",""1"",""8558""
","
","
","""event"",""trial"",""time""
""fullscreenenter"",""1"",""8558""
","
","","null","","null","","fixation","2021-04-03 19:46:53.460","","","","","",""
"card-selection-trial","85","401120","0.0-25.0-1.7","795","true","img/card_backs/set1/red.gif","img/card_backs/set1/purple.gif","img/card_backs/set1/green.gif","img/card_backs/set1/yellow.gif","img/card_backs/set2/orange.gif","img/card_backs/set2/pink.gif","img/card_backs/set2/gray.gif","img/card_backs/set2/blue.gif","""event"",""trial"",""time""
""fullscreenenter"",""1"",""8558""
","
","
","""event"",""trial"",""time""
""fullscreenenter"",""1"",""8558""
","
","","1653.5","","","","real_trial","2021-04-03 19:46:57.123","img/card_backs/set1/red.gif","0","-200","1","",""
"casino-fixation","86","401624","0.0-25.0-0.8","795","true","img/card_backs/set1/red.gif","img/card_backs/set1/purple.gif","img/card_backs/set1/green.gif","img/card_backs/set1/yellow.gif","img/card_backs/set2/orange.gif","img/card_backs/set2/pink.gif","img/card_backs/set2/gray.gif","img/card_backs/set2/blue.gif","""event"",""trial"",""time""
""fullscreenenter"",""1"",""8558""
","
","
","""event"",""trial"",""time""
""fullscreenenter"",""1"",""8558""
","
","","null","","null","","fixation","2021-04-03 19:46:57.627","","","","","",""
"card-selection-trial","87","405186","0.0-25.0-1.8","795","true","img/card_backs/set1/red.gif","img/card_backs/set1/purple.gif","img/card_backs/set1/green.gif","img/card_backs/set1/yellow.gif","img/card_backs/set2/orange.gif","img/card_backs/set2/pink.gif","img/card_backs/set2/gray.gif","img/card_backs/set2/blue.gif","""event"",""trial"",""time""
""fullscreenenter"",""1"",""8558""
","
","
","""event"",""trial"",""time""
""fullscreenenter"",""1"",""8558""
","
","","1551.990000000049","","","","real_trial","2021-04-03 19:47:01.189","img/card_backs/set1/green.gif","2","-90","1","",""
"casino-fixation","88","405692","0.0-25.0-0.9","795","true","img/card_backs/set1/red.gif","img/card_backs/set1/purple.gif","img/card_backs/set1/green.gif","img/card_backs/set1/yellow.gif","img/card_backs/set2/orange.gif","img/card_backs/set2/pink.gif","img/card_backs/set2/gray.gif","img/card_backs/set2/blue.gif","""event"",""trial"",""time""
""fullscreenenter"",""1"",""8558""
","
","
","""event"",""trial"",""time""
""fullscreenenter"",""1"",""8558""
","
","","null","","null","","fixation","2021-04-03 19:47:01.695","","","","","",""
"card-selection-trial","89","408919","0.0-25.0-1.9","795","true","img/card_backs/set1/red.gif","img/card_backs/set1/purple.gif","img/card_backs/set1/green.gif","img/card_backs/set1/yellow.gif","img/card_backs/set2/orange.gif","img/card_backs/set2/pink.gif","img/card_backs/set2/gray.gif","img/card_backs/set2/blue.gif","""event"",""trial"",""time""
""fullscreenenter"",""1"",""8558""
","
","
","""event"",""trial"",""time""
""fullscreenenter"",""1"",""8558""
","
","","1219.4300000001094","","","","real_trial","2021-04-03 19:47:04.922","img/card_backs/set1/purple.gif","0","-210","1","",""
"casino-fixation","90","409425","0.0-25.0-0.10","795","true","img/card_backs/set1/red.gif","img/card_backs/set1/purple.gif","img/card_backs/set1/green.gif","img/card_backs/set1/yellow.gif","img/card_backs/set2/orange.gif","img/card_backs/set2/pink.gif","img/card_backs/set2/gray.gif","img/card_backs/set2/blue.gif","""event"",""trial"",""time""
""fullscreenenter"",""1"",""8558""
","
","
","""event"",""trial"",""time""
""fullscreenenter"",""1"",""8558""
","
","","null","","null","","fixation","2021-04-03 19:47:05.428","","","","","",""
"card-selection-trial","91","412924","0.0-25.0-1.10","795","true","img/card_backs/set1/red.gif","img/card_backs/set1/purple.gif","img/card_backs/set1/green.gif","img/card_backs/set1/yellow.gif","img/card_backs/set2/orange.gif","img/card_backs/set2/pink.gif","img/card_backs/set2/gray.gif","img/card_backs/set2/blue.gif","""event"",""trial"",""time""
""fullscreenenter"",""1"",""8558""
","
","
","""event"",""trial"",""time""
""fullscreenenter"",""1"",""8558""
","
","","1490.149999999965","","","","real_trial","2021-04-03 19:47:08.927","img/card_backs/set1/red.gif","3","260","1","",""
"casino-fixation","92","413431","0.0-25.0-0.11","795","true","img/card_backs/set1/red.gif","img/card_backs/set1/purple.gif","img/card_backs/set1/green.gif","img/card_backs/set1/yellow.gif","img/card_backs/set2/orange.gif","img/card_backs/set2/pink.gif","img/card_backs/set2/gray.gif","img/card_backs/set2/blue.gif","""event"",""trial"",""time""
""fullscreenenter"",""1"",""8558""
","
","
","""event"",""trial"",""time""
""fullscreenenter"",""1"",""8558""
","
","","null","","null","","fixation","2021-04-03 19:47:09.434","","","","","",""
"card-selection-trial","93","416620","0.0-25.0-1.11","795","true","img/card_backs/set1/red.gif","img/card_backs/set1/purple.gif","img/card_backs/set1/green.gif","img/card_backs/set1/yellow.gif","img/card_backs/set2/orange.gif","img/card_backs/set2/pink.gif","img/card_backs/set2/gray.gif","img/card_backs/set2/blue.gif","""event"",""trial"",""time""
""fullscreenenter"",""1"",""8558""
","
","
","""event"",""trial"",""time""
""fullscreenenter"",""1"",""8558""
","
","","1179.9249999999884","","","","real_trial","2021-04-03 19:47:12.623","img/card_backs/set1/red.gif","3","-190","1","",""
"casino-fixation","94","417127","0.0-25.0-0.12","795","true","img/card_backs/set1/red.gif","img/card_backs/set1/purple.gif","img/card_backs/set1/green.gif","img/card_backs/set1/yellow.gif","img/card_backs/set2/orange.gif","img/card_backs/set2/pink.gif","img/card_backs/set2/gray.gif","img/card_backs/set2/blue.gif","""event"",""trial"",""time""
""fullscreenenter"",""1"",""8558""
","
","
","""event"",""trial"",""time""
""fullscreenenter"",""1"",""8558""
","
","","null","","null","","fixation","2021-04-03 19:47:13.130","","","","","",""
"card-selection-trial","95","420665","0.0-25.0-1.12","795","true","img/card_backs/set1/red.gif","img/card_backs/set1/purple.gif","img/card_backs/set1/green.gif","img/card_backs/set1/yellow.gif","img/card_backs/set2/orange.gif","img/card_backs/set2/pink.gif","img/card_backs/set2/gray.gif","img/card_backs/set2/blue.gif","""event"",""trial"",""time""
""fullscreenenter"",""1"",""8558""
","
","
","""event"",""trial"",""time""
""fullscreenenter"",""1"",""8558""
","
","","1531.100000000035","","","","real_trial","2021-04-03 19:47:16.668","img/card_backs/set1/purple.gif","1","-190","1","",""
"casino-fixation","96","421169","0.0-25.0-0.13","795","true","img/card_backs/set1/red.gif","img/card_backs/set1/purple.gif","img/card_backs/set1/green.gif","img/card_backs/set1/yellow.gif","img/card_backs/set2/orange.gif","img/card_backs/set2/pink.gif","img/card_backs/set2/gray.gif","img/card_backs/set2/blue.gif","""event"",""trial"",""time""
""fullscreenenter"",""1"",""8558""
","
","
","""event"",""trial"",""time""
""fullscreenenter"",""1"",""8558""
","
","","null","","null","","fixation","2021-04-03 19:47:17.172","","","","","",""
"card-selection-trial","97","425842","0.0-25.0-1.13","795","true","img/card_backs/set1/red.gif","img/card_backs/set1/purple.gif","img/card_backs/set1/green.gif","img/card_backs/set1/yellow.gif","img/card_backs/set2/orange.gif","img/card_backs/set2/pink.gif","img/card_backs/set2/gray.gif","img/card_backs/set2/blue.gif","""event"",""trial"",""time""
""fullscreenenter"",""1"",""8558""
","
","
","""event"",""trial"",""time""
""fullscreenenter"",""1"",""8558""
","
","","2665.2550000000047","","","","real_trial","2021-04-03 19:47:21.845","img/card_backs/set1/red.gif","2","250","1","",""
"casino-fixation","98","426348","0.0-25.0-0.14","795","true","img/card_backs/set1/red.gif","img/card_backs/set1/purple.gif","img/card_backs/set1/green.gif","img/card_backs/set1/yellow.gif","img/card_backs/set2/orange.gif","img/card_backs/set2/pink.gif","img/card_backs/set2/gray.gif","img/card_backs/set2/blue.gif","""event"",""trial"",""time""
""fullscreenenter"",""1"",""8558""
","
","
","""event"",""trial"",""time""
""fullscreenenter"",""1"",""8558""
","
","","null","","null","","fixation","2021-04-03 19:47:22.351","","","","","",""
"card-selection-trial","99","430439","0.0-25.0-1.14","795","true","img/card_backs/set1/red.gif","img/card_backs/set1/purple.gif","img/card_backs/set1/green.gif","img/card_backs/set1/yellow.gif","img/card_backs/set2/orange.gif","img/card_backs/set2/pink.gif","img/card_backs/set2/gray.gif","img/card_backs/set2/blue.gif","""event"",""trial"",""time""
""fullscreenenter"",""1"",""8558""
","
","
","""event"",""trial"",""time""
""fullscreenenter"",""1"",""8558""
","
","","2083.4199999999255","","","","real_trial","2021-04-03 19:47:26.442","img/card_backs/set1/purple.gif","2","260","1","",""
"casino-fixation","100","430940","0.0-25.0-0.15","795","true","img/card_backs/set1/red.gif","img/card_backs/set1/purple.gif","img/card_backs/set1/green.gif","img/card_backs/set1/yellow.gif","img/card_backs/set2/orange.gif","img/card_backs/set2/pink.gif","img/card_backs/set2/gray.gif","img/card_backs/set2/blue.gif","""event"",""trial"",""time""
""fullscreenenter"",""1"",""8558""
","
","
","""event"",""trial"",""time""
""fullscreenenter"",""1"",""8558""
","
","","null","","null","","fixation","2021-04-03 19:47:26.943","","","","","",""
"card-selection-trial","101","434898","0.0-25.0-1.15","795","true","img/card_backs/set1/red.gif","img/card_backs/set1/purple.gif","img/card_backs/set1/green.gif","img/card_backs/set1/yellow.gif","img/card_backs/set2/orange.gif","img/card_backs/set2/pink.gif","img/card_backs/set2/gray.gif","img/card_backs/set2/blue.gif","""event"",""trial"",""time""
""fullscreenenter"",""1"",""8558""
","
","
","""event"",""trial"",""time""
""fullscreenenter"",""1"",""8558""
","
","","1952.5349999999744","","","","real_trial","2021-04-03 19:47:30.901","img/card_backs/set1/green.gif","3","40","1","",""
"casino-fixation","102","435404","0.0-25.0-0.16","795","true","img/card_backs/set1/red.gif","img/card_backs/set1/purple.gif","img/card_backs/set1/green.gif","img/card_backs/set1/yellow.gif","img/card_backs/set2/orange.gif","img/card_backs/set2/pink.gif","img/card_backs/set2/gray.gif","img/card_backs/set2/blue.gif","""event"",""trial"",""time""
""fullscreenenter"",""1"",""8558""
","
","
","""event"",""trial"",""time""
""fullscreenenter"",""1"",""8558""
","
","","null","","null","","fixation","2021-04-03 19:47:31.407","","","","","",""
"card-selection-trial","103","439048","0.0-25.0-1.16","795","true","img/card_backs/set1/red.gif","img/card_backs/set1/purple.gif","img/card_backs/set1/green.gif","img/card_backs/set1/yellow.gif","img/card_backs/set2/orange.gif","img/card_backs/set2/pink.gif","img/card_backs/set2/gray.gif","img/card_backs/set2/blue.gif","""event"",""trial"",""time""
""fullscreenenter"",""1"",""8558""
","
","
","""event"",""trial"",""time""
""fullscreenenter"",""1"",""8558""
","
","","1634.4649999999674","","","","real_trial","2021-04-03 19:47:35.051","img/card_backs/set1/red.gif","0","-190","1","",""
"casino-fixation","104","439554","0.0-25.0-0.17","795","true","img/card_backs/set1/red.gif","img/card_backs/set1/purple.gif","img/card_backs/set1/green.gif","img/card_backs/set1/yellow.gif","img/card_backs/set2/orange.gif","img/card_backs/set2/pink.gif","img/card_backs/set2/gray.gif","img/card_backs/set2/blue.gif","""event"",""trial"",""time""
""fullscreenenter"",""1"",""8558""
","
","
","""event"",""trial"",""time""
""fullscreenenter"",""1"",""8558""
","
","","null","","null","","fixation","2021-04-03 19:47:35.557","","","","","",""
"card-selection-trial","105","443900","0.0-25.0-1.17","795","true","img/card_backs/set1/red.gif","img/card_backs/set1/purple.gif","img/card_backs/set1/green.gif","img/card_backs/set1/yellow.gif","img/card_backs/set2/orange.gif","img/card_backs/set2/pink.gif","img/card_backs/set2/gray.gif","img/card_backs/set2/blue.gif","""event"",""trial"",""time""
""fullscreenenter"",""1"",""8558""
","
","
","""event"",""trial"",""time""
""fullscreenenter"",""1"",""8558""
","
","","2336.954999999958","","","","real_trial","2021-04-03 19:47:39.903","img/card_backs/set1/yellow.gif","2","-100","1","",""
"casino-fixation","106","444402","0.0-25.0-0.18","795","true","img/card_backs/set1/red.gif","img/card_backs/set1/purple.gif","img/card_backs/set1/green.gif","img/card_backs/set1/yellow.gif","img/card_backs/set2/orange.gif","img/card_backs/set2/pink.gif","img/card_backs/set2/gray.gif","img/card_backs/set2/blue.gif","""event"",""trial"",""time""
""fullscreenenter"",""1"",""8558""
","
","
","""event"",""trial"",""time""
""fullscreenenter"",""1"",""8558""
","
","","null","","null","","fixation","2021-04-03 19:47:40.405","","","","","",""
"card-selection-trial","107","448444","0.0-25.0-1.18","795","true","img/card_backs/set1/red.gif","img/card_backs/set1/purple.gif","img/card_backs/set1/green.gif","img/card_backs/set1/yellow.gif","img/card_backs/set2/orange.gif","img/card_backs/set2/pink.gif","img/card_backs/set2/gray.gif","img/card_backs/set2/blue.gif","""event"",""trial"",""time""
""fullscreenenter"",""1"",""8558""
","
","
","""event"",""trial"",""time""
""fullscreenenter"",""1"",""8558""
","
","","2033.7150000000256","","","","real_trial","2021-04-03 19:47:44.447","img/card_backs/set1/green.gif","2","50","1","",""
"casino-fixation","108","448951","0.0-25.0-0.19","795","true","img/card_backs/set1/red.gif","img/card_backs/set1/purple.gif","img/card_backs/set1/green.gif","img/card_backs/set1/yellow.gif","img/card_backs/set2/orange.gif","img/card_backs/set2/pink.gif","img/card_backs/set2/gray.gif","img/card_backs/set2/blue.gif","""event"",""trial"",""time""
""fullscreenenter"",""1"",""8558""
","
","
","""event"",""trial"",""time""
""fullscreenenter"",""1"",""8558""
","
","","null","","null","","fixation","2021-04-03 19:47:44.954","","","","","",""
"card-selection-trial","109","452423","0.0-25.0-1.19","795","true","img/card_backs/set1/red.gif","img/card_backs/set1/purple.gif","img/card_backs/set1/green.gif","img/card_backs/set1/yellow.gif","img/card_backs/set2/orange.gif","img/card_backs/set2/pink.gif","img/card_backs/set2/gray.gif","img/card_backs/set2/blue.gif","""event"",""trial"",""time""
""fullscreenenter"",""1"",""8558""
","
","
","""event"",""trial"",""time""
""fullscreenenter"",""1"",""8558""
","
","","1465.8699999999953","","","","real_trial","2021-04-03 19:47:48.426","img/card_backs/set1/red.gif","3","260","1","",""
"casino-fixation","110","452924","0.0-25.0-0.20","795","true","img/card_backs/set1/red.gif","img/card_backs/set1/purple.gif","img/card_backs/set1/green.gif","img/card_backs/set1/yellow.gif","img/card_backs/set2/orange.gif","img/card_backs/set2/pink.gif","img/card_backs/set2/gray.gif","img/card_backs/set2/blue.gif","""event"",""trial"",""time""
""fullscreenenter"",""1"",""8558""
","
","
","""event"",""trial"",""time""
""fullscreenenter"",""1"",""8558""
","
","","null","","null","","fixation","2021-04-03 19:47:48.927","","","","","",""
"card-selection-trial","111","456311","0.0-25.0-1.20","795","true","img/card_backs/set1/red.gif","img/card_backs/set1/purple.gif","img/card_backs/set1/green.gif","img/card_backs/set1/yellow.gif","img/card_backs/set2/orange.gif","img/card_backs/set2/pink.gif","img/card_backs/set2/gray.gif","img/card_backs/set2/blue.gif","""event"",""trial"",""time""
""fullscreenenter"",""1"",""8558""
","
","
","""event"",""trial"",""time""
""fullscreenenter"",""1"",""8558""
","
","","1381.4550000000745","","","","real_trial","2021-04-03 19:47:52.314","img/card_backs/set1/purple.gif","0","260","1","",""
"casino-fixation","112","456812","0.0-25.0-0.21","795","true","img/card_backs/set1/red.gif","img/card_backs/set1/purple.gif","img/card_backs/set1/green.gif","img/card_backs/set1/yellow.gif","img/card_backs/set2/orange.gif","img/card_backs/set2/pink.gif","img/card_backs/set2/gray.gif","img/card_backs/set2/blue.gif","""event"",""trial"",""time""
""fullscreenenter"",""1"",""8558""
","
","
","""event"",""trial"",""time""
""fullscreenenter"",""1"",""8558""
","
","","null","","null","","fixation","2021-04-03 19:47:52.815","","","","","",""
"card-selection-trial","113","460252","0.0-25.0-1.21","795","true","img/card_backs/set1/red.gif","img/card_backs/set1/purple.gif","img/card_backs/set1/green.gif","img/card_backs/set1/yellow.gif","img/card_backs/set2/orange.gif","img/card_backs/set2/pink.gif","img/card_backs/set2/gray.gif","img/card_backs/set2/blue.gif","""event"",""trial"",""time""
""fullscreenenter"",""1"",""8558""
","
","
","""event"",""trial"",""time""
""fullscreenenter"",""1"",""8558""
","
","","1434.9799999999814","","","","real_trial","2021-04-03 19:47:56.255","img/card_backs/set1/red.gif","2","-190","1","",""
"casino-fixation","114","460757","0.0-25.0-0.22","795","true","img/card_backs/set1/red.gif","img/card_backs/set1/purple.gif","img/card_backs/set1/green.gif","img/card_backs/set1/yellow.gif","img/card_backs/set2/orange.gif","img/card_backs/set2/pink.gif","img/card_backs/set2/gray.gif","img/card_backs/set2/blue.gif","""event"",""trial"",""time""
""fullscreenenter"",""1"",""8558""
","
","
","""event"",""trial"",""time""
""fullscreenenter"",""1"",""8558""
","
","","null","","null","","fixation","2021-04-03 19:47:56.760","","","","","",""
"card-selection-trial","115","463887","0.0-25.0-1.22","795","true","img/card_backs/set1/red.gif","img/card_backs/set1/purple.gif","img/card_backs/set1/green.gif","img/card_backs/set1/yellow.gif","img/card_backs/set2/orange.gif","img/card_backs/set2/pink.gif","img/card_backs/set2/gray.gif","img/card_backs/set2/blue.gif","""event"",""trial"",""time""
""fullscreenenter"",""1"",""8558""
","
","
","""event"",""trial"",""time""
""fullscreenenter"",""1"",""8558""
","
","","1126.3649999999907","","","","real_trial","2021-04-03 19:47:59.890","img/card_backs/set1/green.gif","1","40","1","",""
"casino-fixation","116","464391","0.0-25.0-0.23","795","true","img/card_backs/set1/red.gif","img/card_backs/set1/purple.gif","img/card_backs/set1/green.gif","img/card_backs/set1/yellow.gif","img/card_backs/set2/orange.gif","img/card_backs/set2/pink.gif","img/card_backs/set2/gray.gif","img/card_backs/set2/blue.gif","""event"",""trial"",""time""
""fullscreenenter"",""1"",""8558""
","
","
","""event"",""trial"",""time""
""fullscreenenter"",""1"",""8558""
","
","","null","","null","","fixation","2021-04-03 19:48:00.394","","","","","",""
"card-selection-trial","117","467063","0.0-25.0-1.23","795","true","img/card_backs/set1/red.gif","img/card_backs/set1/purple.gif","img/card_backs/set1/green.gif","img/card_backs/set1/yellow.gif","img/card_backs/set2/orange.gif","img/card_backs/set2/pink.gif","img/card_backs/set2/gray.gif","img/card_backs/set2/blue.gif","""event"",""trial"",""time""
""fullscreenenter"",""1"",""8558""
","
","
","""event"",""trial"",""time""
""fullscreenenter"",""1"",""8558""
","
","","669.1049999999814","","","","real_trial","2021-04-03 19:48:03.066","img/card_backs/set1/yellow.gif","3","-100","1","",""
"casino-fixation","118","467569","0.0-25.0-0.24","795","true","img/card_backs/set1/red.gif","img/card_backs/set1/purple.gif","img/card_backs/set1/green.gif","img/card_backs/set1/yellow.gif","img/card_backs/set2/orange.gif","img/card_backs/set2/pink.gif","img/card_backs/set2/gray.gif","img/card_backs/set2/blue.gif","""event"",""trial"",""time""
""fullscreenenter"",""1"",""8558""
","
","
","""event"",""trial"",""time""
""fullscreenenter"",""1"",""8558""
","
","","null","","null","","fixation","2021-04-03 19:48:03.572","","","","","",""
"card-selection-trial","119","470450","0.0-25.0-1.24","795","true","img/card_backs/set1/red.gif","img/card_backs/set1/purple.gif","img/card_backs/set1/green.gif","img/card_backs/set1/yellow.gif","img/card_backs/set2/orange.gif","img/card_backs/set2/pink.gif","img/card_backs/set2/gray.gif","img/card_backs/set2/blue.gif","""event"",""trial"",""time""
""fullscreenenter"",""1"",""8558""
","
","
","""event"",""trial"",""time""
""fullscreenenter"",""1"",""8558""
","
","","875.1400000000722","","","","real_trial","2021-04-03 19:48:06.453","img/card_backs/set1/yellow.gif","1","-110","1","",""
"casino-fixation","120","470956","0.0-25.0-0.25","795","true","img/card_backs/set1/red.gif","img/card_backs/set1/purple.gif","img/card_backs/set1/green.gif","img/card_backs/set1/yellow.gif","img/card_backs/set2/orange.gif","img/card_backs/set2/pink.gif","img/card_backs/set2/gray.gif","img/card_backs/set2/blue.gif","""event"",""trial"",""time""
""fullscreenenter"",""1"",""8558""
","
","
","""event"",""trial"",""time""
""fullscreenenter"",""1"",""8558""
","
","","null","","null","","fixation","2021-04-03 19:48:06.959","","","","","",""
"card-selection-trial","121","473196","0.0-25.0-1.25","795","true","img/card_backs/set1/red.gif","img/card_backs/set1/purple.gif","img/card_backs/set1/green.gif","img/card_backs/set1/yellow.gif","img/card_backs/set2/orange.gif","img/card_backs/set2/pink.gif","img/card_backs/set2/gray.gif","img/card_backs/set2/blue.gif","""event"",""trial"",""time""
""fullscreenenter"",""1"",""8558""
","
","
","""event"",""trial"",""time""
""fullscreenenter"",""1"",""8558""
","
","","234.5700000001234","","","","real_trial","2021-04-03 19:48:09.199","img/card_backs/set1/green.gif","2","60","1","",""
"casino-fixation","122","473697","0.0-25.0-0.26","795","true","img/card_backs/set1/red.gif","img/card_backs/set1/purple.gif","img/card_backs/set1/green.gif","img/card_backs/set1/yellow.gif","img/card_backs/set2/orange.gif","img/card_backs/set2/pink.gif","img/card_backs/set2/gray.gif","img/card_backs/set2/blue.gif","""event"",""trial"",""time""
""fullscreenenter"",""1"",""8558""
","
","
","""event"",""trial"",""time""
""fullscreenenter"",""1"",""8558""
","
","","null","","null","","fixation","2021-04-03 19:48:09.700","","","","","",""
"card-selection-trial","123","476268","0.0-25.0-1.26","795","true","img/card_backs/set1/red.gif","img/card_backs/set1/purple.gif","img/card_backs/set1/green.gif","img/card_backs/set1/yellow.gif","img/card_backs/set2/orange.gif","img/card_backs/set2/pink.gif","img/card_backs/set2/gray.gif","img/card_backs/set2/blue.gif","""event"",""trial"",""time""
""fullscreenenter"",""1"",""8558""
","
","
","""event"",""trial"",""time""
""fullscreenenter"",""1"",""8558""
","
","","563.3499999999767","","","","real_trial","2021-04-03 19:48:12.271","img/card_backs/set1/red.gif","0","240","1","",""
"casino-fixation","124","476770","0.0-25.0-0.27","795","true","img/card_backs/set1/red.gif","img/card_backs/set1/purple.gif","img/card_backs/set1/green.gif","img/card_backs/set1/yellow.gif","img/card_backs/set2/orange.gif","img/card_backs/set2/pink.gif","img/card_backs/set2/gray.gif","img/card_backs/set2/blue.gif","""event"",""trial"",""time""
""fullscreenenter"",""1"",""8558""
","
","
","""event"",""trial"",""time""
""fullscreenenter"",""1"",""8558""
","
","","null","","null","","fixation","2021-04-03 19:48:12.773","","","","","",""
"card-selection-trial","125","478865","0.0-25.0-1.27","795","true","img/card_backs/set1/red.gif","img/card_backs/set1/purple.gif","img/card_backs/set1/green.gif","img/card_backs/set1/yellow.gif","img/card_backs/set2/orange.gif","img/card_backs/set2/pink.gif","img/card_backs/set2/gray.gif","img/card_backs/set2/blue.gif","""event"",""trial"",""time""
""fullscreenenter"",""1"",""8558""
","
","
","""event"",""trial"",""time""
""fullscreenenter"",""1"",""8558""
","
","","89.90000000008149","","","","real_trial","2021-04-03 19:48:14.868","img/card_backs/set1/red.gif","3","-200","1","",""
"casino-fixation","126","479371","0.0-25.0-0.28","795","true","img/card_backs/set1/red.gif","img/card_backs/set1/purple.gif","img/card_backs/set1/green.gif","img/card_backs/set1/yellow.gif","img/card_backs/set2/orange.gif","img/card_backs/set2/pink.gif","img/card_backs/set2/gray.gif","img/card_backs/set2/blue.gif","""event"",""trial"",""time""
""fullscreenenter"",""1"",""8558""
","
","
","""event"",""trial"",""time""
""fullscreenenter"",""1"",""8558""
","
","","null","","null","","fixation","2021-04-03 19:48:15.375","","","","","",""
"card-selection-trial","127","481852","0.0-25.0-1.28","795","true","img/card_backs/set1/red.gif","img/card_backs/set1/purple.gif","img/card_backs/set1/green.gif","img/card_backs/set1/yellow.gif","img/card_backs/set2/orange.gif","img/card_backs/set2/pink.gif","img/card_backs/set2/gray.gif","img/card_backs/set2/blue.gif","""event"",""trial"",""time""
""fullscreenenter"",""1"",""8558""
","
","
","""event"",""trial"",""time""
""fullscreenenter"",""1"",""8558""
","
","","473.9349999999977","","","","real_trial","2021-04-03 19:48:17.855","img/card_backs/set1/purple.gif","2","-190","1","",""
"casino-fixation","128","482358","0.0-25.0-0.29","795","true","img/card_backs/set1/red.gif","img/card_backs/set1/purple.gif","img/card_backs/set1/green.gif","img/card_backs/set1/yellow.gif","img/card_backs/set2/orange.gif","img/card_backs/set2/pink.gif","img/card_backs/set2/gray.gif","img/card_backs/set2/blue.gif","""event"",""trial"",""time""
""fullscreenenter"",""1"",""8558""
","
","
","""event"",""trial"",""time""
""fullscreenenter"",""1"",""8558""
","
","","null","","null","","fixation","2021-04-03 19:48:18.362","","","","","",""
"card-selection-trial","129","484876","0.0-25.0-1.29","795","true","img/card_backs/set1/red.gif","img/card_backs/set1/purple.gif","img/card_backs/set1/green.gif","img/card_backs/set1/yellow.gif","img/card_backs/set2/orange.gif","img/card_backs/set2/pink.gif","img/card_backs/set2/gray.gif","img/card_backs/set2/blue.gif","""event"",""trial"",""time""
""fullscreenenter"",""1"",""8558""
","
","
","""event"",""trial"",""time""
""fullscreenenter"",""1"",""8558""
","
","","511.88000000000466","","","","real_trial","2021-04-03 19:48:20.879","img/card_backs/set1/purple.gif","0","250","1","",""
"casino-fixation","130","485378","0.0-25.0-0.30","795","true","img/card_backs/set1/red.gif","img/card_backs/set1/purple.gif","img/card_backs/set1/green.gif","img/card_backs/set1/yellow.gif","img/card_backs/set2/orange.gif","img/card_backs/set2/pink.gif","img/card_backs/set2/gray.gif","img/card_backs/set2/blue.gif","""event"",""trial"",""time""
""fullscreenenter"",""1"",""8558""
","
","
","""event"",""trial"",""time""
""fullscreenenter"",""1"",""8558""
","
","","null","","null","","fixation","2021-04-03 19:48:21.381","","","","","",""
"card-selection-trial","131","487980","0.0-25.0-1.30","795","true","img/card_backs/set1/red.gif","img/card_backs/set1/purple.gif","img/card_backs/set1/green.gif","img/card_backs/set1/yellow.gif","img/card_backs/set2/orange.gif","img/card_backs/set2/pink.gif","img/card_backs/set2/gray.gif","img/card_backs/set2/blue.gif","""event"",""trial"",""time""
""fullscreenenter"",""1"",""8558""
","
","
","""event"",""trial"",""time""
""fullscreenenter"",""1"",""8558""
","
","","597.6050000000396","","","","real_trial","2021-04-03 19:48:23.983","img/card_backs/set1/yellow.gif","1","-100","1","",""
"casino-fixation","132","488487","0.0-25.0-0.31","795","true","img/card_backs/set1/red.gif","img/card_backs/set1/purple.gif","img/card_backs/set1/green.gif","img/card_backs/set1/yellow.gif","img/card_backs/set2/orange.gif","img/card_backs/set2/pink.gif","img/card_backs/set2/gray.gif","img/card_backs/set2/blue.gif","""event"",""trial"",""time""
""fullscreenenter"",""1"",""8558""
","
","
","""event"",""trial"",""time""
""fullscreenenter"",""1"",""8558""
","
","","null","","null","","fixation","2021-04-03 19:48:24.490","","","","","",""
"card-selection-trial","133","490790","0.0-25.0-1.31","795","true","img/card_backs/set1/red.gif","img/card_backs/set1/purple.gif","img/card_backs/set1/green.gif","img/card_backs/set1/yellow.gif","img/card_backs/set2/orange.gif","img/card_backs/set2/pink.gif","img/card_backs/set2/gray.gif","img/card_backs/set2/blue.gif","""event"",""trial"",""time""
""fullscreenenter"",""1"",""8558""
","
","
","""event"",""trial"",""time""
""fullscreenenter"",""1"",""8558""
","
","","294.28000000008615","","","","real_trial","2021-04-03 19:48:26.793","img/card_backs/set1/red.gif","3","-200","1","",""
"casino-fixation","134","491292","0.0-25.0-0.32","795","true","img/card_backs/set1/red.gif","img/card_backs/set1/purple.gif","img/card_backs/set1/green.gif","img/card_backs/set1/yellow.gif","img/card_backs/set2/orange.gif","img/card_backs/set2/pink.gif","img/card_backs/set2/gray.gif","img/card_backs/set2/blue.gif","""event"",""trial"",""time""
""fullscreenenter"",""1"",""8558""
","
","
","""event"",""trial"",""time""
""fullscreenenter"",""1"",""8558""
","
","","null","","null","","fixation","2021-04-03 19:48:27.295","","","","","",""
"card-selection-trial","135","493378","0.0-25.0-1.32","795","true","img/card_backs/set1/red.gif","img/card_backs/set1/purple.gif","img/card_backs/set1/green.gif","img/card_backs/set1/yellow.gif","img/card_backs/set2/orange.gif","img/card_backs/set2/pink.gif","img/card_backs/set2/gray.gif","img/card_backs/set2/blue.gif","""event"",""trial"",""time""
""fullscreenenter"",""1"",""8558""
","
","
","""event"",""trial"",""time""
""fullscreenenter"",""1"",""8558""
","
","","77.06999999994878","","","","real_trial","2021-04-03 19:48:29.382","img/card_backs/set1/green.gif","2","50","1","",""
"casino-fixation","136","493884","0.0-25.0-0.33","795","true","img/card_backs/set1/red.gif","img/card_backs/set1/purple.gif","img/card_backs/set1/green.gif","img/card_backs/set1/yellow.gif","img/card_backs/set2/orange.gif","img/card_backs/set2/pink.gif","img/card_backs/set2/gray.gif","img/card_backs/set2/blue.gif","""event"",""trial"",""time""
""fullscreenenter"",""1"",""8558""
","
","
","""event"",""trial"",""time""
""fullscreenenter"",""1"",""8558""
","
","","null","","null","","fixation","2021-04-03 19:48:29.887","","","","","",""
"card-selection-trial","137","497199","0.0-25.0-1.33","795","true","img/card_backs/set1/red.gif","img/card_backs/set1/purple.gif","img/card_backs/set1/green.gif","img/card_backs/set1/yellow.gif","img/card_backs/set2/orange.gif","img/card_backs/set2/pink.gif","img/card_backs/set2/gray.gif","img/card_backs/set2/blue.gif","""event"",""trial"",""time""
""fullscreenenter"",""1"",""8558""
","
","
","""event"",""trial"",""time""
""fullscreenenter"",""1"",""8558""
","
","","1305.7699999999604","","","","real_trial","2021-04-03 19:48:33.202","img/card_backs/set1/red.gif","1","250","1","",""
"casino-fixation","138","497703","0.0-25.0-0.34","795","true","img/card_backs/set1/red.gif","img/card_backs/set1/purple.gif","img/card_backs/set1/green.gif","img/card_backs/set1/yellow.gif","img/card_backs/set2/orange.gif","img/card_backs/set2/pink.gif","img/card_backs/set2/gray.gif","img/card_backs/set2/blue.gif","""event"",""trial"",""time""
""fullscreenenter"",""1"",""8558""
","
","
","""event"",""trial"",""time""
""fullscreenenter"",""1"",""8558""
","
","","null","","null","","fixation","2021-04-03 19:48:33.706","","","","","",""
"card-selection-trial","139","500711","0.0-25.0-1.34","795","true","img/card_backs/set1/red.gif","img/card_backs/set1/purple.gif","img/card_backs/set1/green.gif","img/card_backs/set1/yellow.gif","img/card_backs/set2/orange.gif","img/card_backs/set2/pink.gif","img/card_backs/set2/gray.gif","img/card_backs/set2/blue.gif","""event"",""trial"",""time""
""fullscreenenter"",""1"",""8558""
","
","
","""event"",""trial"",""time""
""fullscreenenter"",""1"",""8558""
","
","","1000.7099999999045","","","","real_trial","2021-04-03 19:48:36.714","img/card_backs/set1/purple.gif","3","250","1","",""
"casino-fixation","140","501217","0.0-25.0-0.35","795","true","img/card_backs/set1/red.gif","img/card_backs/set1/purple.gif","img/card_backs/set1/green.gif","img/card_backs/set1/yellow.gif","img/card_backs/set2/orange.gif","img/card_backs/set2/pink.gif","img/card_backs/set2/gray.gif","img/card_backs/set2/blue.gif","""event"",""trial"",""time""
""fullscreenenter"",""1"",""8558""
","
","
","""event"",""trial"",""time""
""fullscreenenter"",""1"",""8558""
","
","","null","","null","","fixation","2021-04-03 19:48:37.220","","","","","",""
"card-selection-trial","141","504092","0.0-25.0-1.35","795","true","img/card_backs/set1/red.gif","img/card_backs/set1/purple.gif","img/card_backs/set1/green.gif","img/card_backs/set1/yellow.gif","img/card_backs/set2/orange.gif","img/card_backs/set2/pink.gif","img/card_backs/set2/gray.gif","img/card_backs/set2/blue.gif","""event"",""trial"",""time""
""fullscreenenter"",""1"",""8558""
","
","
","""event"",""trial"",""time""
""fullscreenenter"",""1"",""8558""
","
","","866.6949999999488","","","","real_trial","2021-04-03 19:48:40.095","img/card_backs/set1/yellow.gif","1","40","1","",""
"casino-fixation","142","504599","0.0-25.0-0.36","795","true","img/card_backs/set1/red.gif","img/card_backs/set1/purple.gif","img/card_backs/set1/green.gif","img/card_backs/set1/yellow.gif","img/card_backs/set2/orange.gif","img/card_backs/set2/pink.gif","img/card_backs/set2/gray.gif","img/card_backs/set2/blue.gif","""event"",""trial"",""time""
""fullscreenenter"",""1"",""8558""
","
","
","""event"",""trial"",""time""
""fullscreenenter"",""1"",""8558""
","
","","null","","null","","fixation","2021-04-03 19:48:40.602","","","","","",""
"card-selection-trial","143","509186","0.0-25.0-1.36","795","true","img/card_backs/set1/red.gif","img/card_backs/set1/purple.gif","img/card_backs/set1/green.gif","img/card_backs/set1/yellow.gif","img/card_backs/set2/orange.gif","img/card_backs/set2/pink.gif","img/card_backs/set2/gray.gif","img/card_backs/set2/blue.gif","""event"",""trial"",""time""
""fullscreenenter"",""1"",""8558""
","
","
","""event"",""trial"",""time""
""fullscreenenter"",""1"",""8558""
","
","","2578.219999999972","","","","real_trial","2021-04-03 19:48:45.189","img/card_backs/set1/purple.gif","2","240","1","",""
"casino-fixation","144","509692","0.0-25.0-0.37","795","true","img/card_backs/set1/red.gif","img/card_backs/set1/purple.gif","img/card_backs/set1/green.gif","img/card_backs/set1/yellow.gif","img/card_backs/set2/orange.gif","img/card_backs/set2/pink.gif","img/card_backs/set2/gray.gif","img/card_backs/set2/blue.gif","""event"",""trial"",""time""
""fullscreenenter"",""1"",""8558""
","
","
","""event"",""trial"",""time""
""fullscreenenter"",""1"",""8558""
","
","","null","","null","","fixation","2021-04-03 19:48:45.695","","","","","",""
"card-selection-trial","145","513031","0.0-25.0-1.37","795","true","img/card_backs/set1/red.gif","img/card_backs/set1/purple.gif","img/card_backs/set1/green.gif","img/card_backs/set1/yellow.gif","img/card_backs/set2/orange.gif","img/card_backs/set2/pink.gif","img/card_backs/set2/gray.gif","img/card_backs/set2/blue.gif","""event"",""trial"",""time""
""fullscreenenter"",""1"",""8558""
","
","
","""event"",""trial"",""time""
""fullscreenenter"",""1"",""8558""
","
","","1333","","","","real_trial","2021-04-03 19:48:49.034","img/card_backs/set1/red.gif","0","260","1","",""
"casino-fixation","146","513538","0.0-25.0-0.38","795","true","img/card_backs/set1/red.gif","img/card_backs/set1/purple.gif","img/card_backs/set1/green.gif","img/card_backs/set1/yellow.gif","img/card_backs/set2/orange.gif","img/card_backs/set2/pink.gif","img/card_backs/set2/gray.gif","img/card_backs/set2/blue.gif","""event"",""trial"",""time""
""fullscreenenter"",""1"",""8558""
","
","
","""event"",""trial"",""time""
""fullscreenenter"",""1"",""8558""
","
","","null","","null","","fixation","2021-04-03 19:48:49.541","","","","","",""
"card-selection-trial","147","517010","0.0-25.0-1.38","795","true","img/card_backs/set1/red.gif","img/card_backs/set1/purple.gif","img/card_backs/set1/green.gif","img/card_backs/set1/yellow.gif","img/card_backs/set2/orange.gif","img/card_backs/set2/pink.gif","img/card_backs/set2/gray.gif","img/card_backs/set2/blue.gif","""event"",""trial"",""time""
""fullscreenenter"",""1"",""8558""
","
","
","""event"",""trial"",""time""
""fullscreenenter"",""1"",""8558""
","
","","1465.4500000000116","","","","real_trial","2021-04-03 19:48:53.013","img/card_backs/set1/green.gif","3","-90","1","",""
"casino-fixation","148","517516","0.0-25.0-0.39","795","true","img/card_backs/set1/red.gif","img/card_backs/set1/purple.gif","img/card_backs/set1/green.gif","img/card_backs/set1/yellow.gif","img/card_backs/set2/orange.gif","img/card_backs/set2/pink.gif","img/card_backs/set2/gray.gif","img/card_backs/set2/blue.gif","""event"",""trial"",""time""
""fullscreenenter"",""1"",""8558""
","
","
","""event"",""trial"",""time""
""fullscreenenter"",""1"",""8558""
","
","","null","","null","","fixation","2021-04-03 19:48:53.519","","","","","",""
"card-selection-trial","149","521740","0.0-25.0-1.39","795","true","img/card_backs/set1/red.gif","img/card_backs/set1/purple.gif","img/card_backs/set1/green.gif","img/card_backs/set1/yellow.gif","img/card_backs/set2/orange.gif","img/card_backs/set2/pink.gif","img/card_backs/set2/gray.gif","img/card_backs/set2/blue.gif","""event"",""trial"",""time""
""fullscreenenter"",""1"",""8558""
","
","
","""event"",""trial"",""time""
""fullscreenenter"",""1"",""8558""
","
","","2218.1149999999907","","","","real_trial","2021-04-03 19:48:57.743","img/card_backs/set1/red.gif","1","250","1","",""
"casino-fixation","150","522246","0.0-25.0-0.40","795","true","img/card_backs/set1/red.gif","img/card_backs/set1/purple.gif","img/card_backs/set1/green.gif","img/card_backs/set1/yellow.gif","img/card_backs/set2/orange.gif","img/card_backs/set2/pink.gif","img/card_backs/set2/gray.gif","img/card_backs/set2/blue.gif","""event"",""trial"",""time""
""fullscreenenter"",""1"",""8558""
","
","
","""event"",""trial"",""time""
""fullscreenenter"",""1"",""8558""
","
","","null","","null","","fixation","2021-04-03 19:48:58.249","","","","","",""
"card-selection-trial","151","526956","0.0-25.0-1.40","795","true","img/card_backs/set1/red.gif","img/card_backs/set1/purple.gif","img/card_backs/set1/green.gif","img/card_backs/set1/yellow.gif","img/card_backs/set2/orange.gif","img/card_backs/set2/pink.gif","img/card_backs/set2/gray.gif","img/card_backs/set2/blue.gif","""event"",""trial"",""time""
""fullscreenenter"",""1"",""8558""
","
","
","""event"",""trial"",""time""
""fullscreenenter"",""1"",""8558""
","
","","2701.7949999999255","","","","real_trial","2021-04-03 19:49:02.959","img/card_backs/set1/purple.gif","3","240","1","",""
"casino-fixation","152","527463","0.0-25.0-0.41","795","true","img/card_backs/set1/red.gif","img/card_backs/set1/purple.gif","img/card_backs/set1/green.gif","img/card_backs/set1/yellow.gif","img/card_backs/set2/orange.gif","img/card_backs/set2/pink.gif","img/card_backs/set2/gray.gif","img/card_backs/set2/blue.gif","""event"",""trial"",""time""
""fullscreenenter"",""1"",""8558""
","
","
","""event"",""trial"",""time""
""fullscreenenter"",""1"",""8558""
","
","","null","","null","","fixation","2021-04-03 19:49:03.466","","","","","",""
"card-selection-trial","153","531335","0.0-25.0-1.41","795","true","img/card_backs/set1/red.gif","img/card_backs/set1/purple.gif","img/card_backs/set1/green.gif","img/card_backs/set1/yellow.gif","img/card_backs/set2/orange.gif","img/card_backs/set2/pink.gif","img/card_backs/set2/gray.gif","img/card_backs/set2/blue.gif","""event"",""trial"",""time""
""fullscreenenter"",""1"",""8558""
","
","
","""event"",""trial"",""time""
""fullscreenenter"",""1"",""8558""
","
","","1863.4300000000512","","","","real_trial","2021-04-03 19:49:07.339","img/card_backs/set1/yellow.gif","1","-110","1","",""
"casino-fixation","154","531841","0.0-25.0-0.42","795","true","img/card_backs/set1/red.gif","img/card_backs/set1/purple.gif","img/card_backs/set1/green.gif","img/card_backs/set1/yellow.gif","img/card_backs/set2/orange.gif","img/card_backs/set2/pink.gif","img/card_backs/set2/gray.gif","img/card_backs/set2/blue.gif","""event"",""trial"",""time""
""fullscreenenter"",""1"",""8558""
","
","
","""event"",""trial"",""time""
""fullscreenenter"",""1"",""8558""
","
","","null","","null","","fixation","2021-04-03 19:49:07.845","","","","","",""
"card-selection-trial","155","535424","0.0-25.0-1.42","795","true","img/card_backs/set1/red.gif","img/card_backs/set1/purple.gif","img/card_backs/set1/green.gif","img/card_backs/set1/yellow.gif","img/card_backs/set2/orange.gif","img/card_backs/set2/pink.gif","img/card_backs/set2/gray.gif","img/card_backs/set2/blue.gif","""event"",""trial"",""time""
""fullscreenenter"",""1"",""8558""
","
","
","""event"",""trial"",""time""
""fullscreenenter"",""1"",""8558""
","
","","1573.315000000177","","","","real_trial","2021-04-03 19:49:11.427","img/card_backs/set1/purple.gif","3","-190","1","",""
"casino-fixation","156","535929","0.0-25.0-0.43","795","true","img/card_backs/set1/red.gif","img/card_backs/set1/purple.gif","img/card_backs/set1/green.gif","img/card_backs/set1/yellow.gif","img/card_backs/set2/orange.gif","img/card_backs/set2/pink.gif","img/card_backs/set2/gray.gif","img/card_backs/set2/blue.gif","""event"",""trial"",""time""
""fullscreenenter"",""1"",""8558""
","
","
","""event"",""trial"",""time""
""fullscreenenter"",""1"",""8558""
","
","","null","","null","","fixation","2021-04-03 19:49:11.932","","","","","",""
"card-selection-trial","157","540050","0.0-25.0-1.43","795","true","img/card_backs/set1/red.gif","img/card_backs/set1/purple.gif","img/card_backs/set1/green.gif","img/card_backs/set1/yellow.gif","img/card_backs/set2/orange.gif","img/card_backs/set2/pink.gif","img/card_backs/set2/gray.gif","img/card_backs/set2/blue.gif","""event"",""trial"",""time""
""fullscreenenter"",""1"",""8558""
","
","
","""event"",""trial"",""time""
""fullscreenenter"",""1"",""8558""
","
","","2112.2099999998463","","","","real_trial","2021-04-03 19:49:16.053","img/card_backs/set1/yellow.gif","0","60","1","",""
"casino-fixation","158","540556","0.0-25.0-0.44","795","true","img/card_backs/set1/red.gif","img/card_backs/set1/purple.gif","img/card_backs/set1/green.gif","img/card_backs/set1/yellow.gif","img/card_backs/set2/orange.gif","img/card_backs/set2/pink.gif","img/card_backs/set2/gray.gif","img/card_backs/set2/blue.gif","""event"",""trial"",""time""
""fullscreenenter"",""1"",""8558""
","
","
","""event"",""trial"",""time""
""fullscreenenter"",""1"",""8558""
","
","","null","","null","","fixation","2021-04-03 19:49:16.559","","","","","",""
"card-selection-trial","159","543036","0.0-25.0-1.44","795","true","img/card_backs/set1/red.gif","img/card_backs/set1/purple.gif","img/card_backs/set1/green.gif","img/card_backs/set1/yellow.gif","img/card_backs/set2/orange.gif","img/card_backs/set2/pink.gif","img/card_backs/set2/gray.gif","img/card_backs/set2/blue.gif","""event"",""trial"",""time""
""fullscreenenter"",""1"",""8558""
","
","
","""event"",""trial"",""time""
""fullscreenenter"",""1"",""8558""
","
","","472.1050000000978","","","","real_trial","2021-04-03 19:49:19.039","img/card_backs/set1/yellow.gif","2","-90","1","",""
"casino-fixation","160","543538","0.0-25.0-0.45","795","true","img/card_backs/set1/red.gif","img/card_backs/set1/purple.gif","img/card_backs/set1/green.gif","img/card_backs/set1/yellow.gif","img/card_backs/set2/orange.gif","img/card_backs/set2/pink.gif","img/card_backs/set2/gray.gif","img/card_backs/set2/blue.gif","""event"",""trial"",""time""
""fullscreenenter"",""1"",""8558""
","
","
","""event"",""trial"",""time""
""fullscreenenter"",""1"",""8558""
","
","","null","","null","","fixation","2021-04-03 19:49:19.541","","","","","",""
"card-selection-trial","161","548226","0.0-25.0-1.45","795","true","img/card_backs/set1/red.gif","img/card_backs/set1/purple.gif","img/card_backs/set1/green.gif","img/card_backs/set1/yellow.gif","img/card_backs/set2/orange.gif","img/card_backs/set2/pink.gif","img/card_backs/set2/gray.gif","img/card_backs/set2/blue.gif","""event"",""trial"",""time""
""fullscreenenter"",""1"",""8558""
","
","
","""event"",""trial"",""time""
""fullscreenenter"",""1"",""8558""
","
","","2679.024999999907","","","","real_trial","2021-04-03 19:49:24.229","img/card_backs/set1/green.gif","3","40","1","",""
"casino-fixation","162","548732","0.0-25.0-0.46","795","true","img/card_backs/set1/red.gif","img/card_backs/set1/purple.gif","img/card_backs/set1/green.gif","img/card_backs/set1/yellow.gif","img/card_backs/set2/orange.gif","img/card_backs/set2/pink.gif","img/card_backs/set2/gray.gif","img/card_backs/set2/blue.gif","""event"",""trial"",""time""
""fullscreenenter"",""1"",""8558""
","
","
","""event"",""trial"",""time""
""fullscreenenter"",""1"",""8558""
","
","","null","","null","","fixation","2021-04-03 19:49:24.735","","","","","",""
"card-selection-trial","163","551685","0.0-25.0-1.46","795","true","img/card_backs/set1/red.gif","img/card_backs/set1/purple.gif","img/card_backs/set1/green.gif","img/card_backs/set1/yellow.gif","img/card_backs/set2/orange.gif","img/card_backs/set2/pink.gif","img/card_backs/set2/gray.gif","img/card_backs/set2/blue.gif","""event"",""trial"",""time""
""fullscreenenter"",""1"",""8558""
","
","
","""event"",""trial"",""time""
""fullscreenenter"",""1"",""8558""
","
","","946.2999999999302","","","","real_trial","2021-04-03 19:49:27.688","img/card_backs/set1/green.gif","2","60","1","",""
"casino-fixation","164","552190","0.0-25.0-0.47","795","true","img/card_backs/set1/red.gif","img/card_backs/set1/purple.gif","img/card_backs/set1/green.gif","img/card_backs/set1/yellow.gif","img/card_backs/set2/orange.gif","img/card_backs/set2/pink.gif","img/card_backs/set2/gray.gif","img/card_backs/set2/blue.gif","""event"",""trial"",""time""
""fullscreenenter"",""1"",""8558""
","
","
","""event"",""trial"",""time""
""fullscreenenter"",""1"",""8558""
","
","","null","","null","","fixation","2021-04-03 19:49:28.193","","","","","",""
"card-selection-trial","165","554663","0.0-25.0-1.47","795","true","img/card_backs/set1/red.gif","img/card_backs/set1/purple.gif","img/card_backs/set1/green.gif","img/card_backs/set1/yellow.gif","img/card_backs/set2/orange.gif","img/card_backs/set2/pink.gif","img/card_backs/set2/gray.gif","img/card_backs/set2/blue.gif","""event"",""trial"",""time""
""fullscreenenter"",""1"",""8558""
","
","
","""event"",""trial"",""time""
""fullscreenenter"",""1"",""8558""
","
","","468.03000000002794","","","","real_trial","2021-04-03 19:49:30.666","img/card_backs/set1/red.gif","0","240","1","",""
"casino-fixation","166","555166","0.0-25.0-0.48","795","true","img/card_backs/set1/red.gif","img/card_backs/set1/purple.gif","img/card_backs/set1/green.gif","img/card_backs/set1/yellow.gif","img/card_backs/set2/orange.gif","img/card_backs/set2/pink.gif","img/card_backs/set2/gray.gif","img/card_backs/set2/blue.gif","""event"",""trial"",""time""
""fullscreenenter"",""1"",""8558""
","
","
","""event"",""trial"",""time""
""fullscreenenter"",""1"",""8558""
","
","","null","","null","","fixation","2021-04-03 19:49:31.170","","","","","",""
"card-selection-trial","167","558055","0.0-25.0-1.48","795","true","img/card_backs/set1/red.gif","img/card_backs/set1/purple.gif","img/card_backs/set1/green.gif","img/card_backs/set1/yellow.gif","img/card_backs/set2/orange.gif","img/card_backs/set2/pink.gif","img/card_backs/set2/gray.gif","img/card_backs/set2/blue.gif","""event"",""trial"",""time""
""fullscreenenter"",""1"",""8558""
","
","
","""event"",""trial"",""time""
""fullscreenenter"",""1"",""8558""
","
