"trial_type","trial_index","time_elapsed","internal_node_id","sub_id","risk_good_first","block1_A","block1_B","block1_C","block1_D","block2_A","block2_B","block2_C","block2_D","interactions","blur_events","focus_events","fullscreenenter_events","fullscreenexit_events","success","rt","stimulus","key_press","button_pressed","task_part","timestamp","card_choice","choice_position","points_earned","block","correct","response"
"pavlovia","0","9","0.0-0.0","A790","false","img/card_backs/set1/green.gif","img/card_backs/set1/red.gif","img/card_backs/set1/yellow.gif","img/card_backs/set1/purple.gif","img/card_backs/set2/blue.gif","img/card_backs/set2/pink.gif","img/card_backs/set2/orange.gif","img/card_backs/set2/gray.gif","""event"",""trial"",""time""
""fullscreenenter"",""1"",""4912""
","
","
","""event"",""trial"",""time""
""fullscreenenter"",""1"",""4912""
","
","","","","","","","","","","","","",""
"fullscreen","1","5632","0.0-1.0","A790","false","img/card_backs/set1/green.gif","img/card_backs/set1/red.gif","img/card_backs/set1/yellow.gif","img/card_backs/set1/purple.gif","img/card_backs/set2/blue.gif","img/card_backs/set2/pink.gif","img/card_backs/set2/orange.gif","img/card_backs/set2/gray.gif","""event"",""trial"",""time""
""fullscreenenter"",""1"",""4912""
","
","
","""event"",""trial"",""time""
""fullscreenenter"",""1"",""4912""
","
","true","","","","","","","","","","","",""
"audio-keyboard-response","2","7969","0.0-2.0","A790","false","img/card_backs/set1/green.gif","img/card_backs/set1/red.gif","img/card_backs/set1/yellow.gif","img/card_backs/set1/purple.gif","img/card_backs/set2/blue.gif","img/card_backs/set2/pink.gif","img/card_backs/set2/orange.gif","img/card_backs/set2/gray.gif","""event"",""trial"",""time""
""fullscreenenter"",""1"",""4912""
","
","
","""event"",""trial"",""time""
""fullscreenenter"",""1"",""4912""
","
","","2339","audio/beep_loop.wav","32","","","","","","","","",""
"audio-button-response","3","10812","0.0-3.0","A790","false","img/card_backs/set1/green.gif","img/card_backs/set1/red.gif","img/card_backs/set1/yellow.gif","img/card_backs/set1/purple.gif","img/card_backs/set2/blue.gif","img/card_backs/set2/pink.gif","img/card_backs/set2/orange.gif","img/card_backs/set2/gray.gif","""event"",""trial"",""time""
""fullscreenenter"",""1"",""4912""
","
","
","""event"",""trial"",""time""
""fullscreenenter"",""1"",""4912""
","
","","NaN","audio/turtle.mp3","","3","","","","","","","",""
"audio-button-response","4","13107","0.0-4.0","A790","false","img/card_backs/set1/green.gif","img/card_backs/set1/red.gif","img/card_backs/set1/yellow.gif","img/card_backs/set1/purple.gif","img/card_backs/set2/blue.gif","img/card_backs/set2/pink.gif","img/card_backs/set2/orange.gif","img/card_backs/set2/gray.gif","""event"",""trial"",""time""
""fullscreenenter"",""1"",""4912""
","
","
","""event"",""trial"",""time""
""fullscreenenter"",""1"",""4912""
","
","","NaN","audio/shark.mp3","","2","","","","","","","",""
"fullscreen","5","16738","0.0-5.0","A790","false","img/card_backs/set1/green.gif","img/card_backs/set1/red.gif","img/card_backs/set1/yellow.gif","img/card_backs/set1/purple.gif","img/card_backs/set2/blue.gif","img/card_backs/set2/pink.gif","img/card_backs/set2/orange.gif","img/card_backs/set2/gray.gif","""event"",""trial"",""time""
""fullscreenenter"",""1"",""4912""
","
","
","""event"",""trial"",""time""
""fullscreenenter"",""1"",""4912""
","
","true","","","","","","","","","","","",""
"casino-keyboard-response","6","22815","0.0-6.0-0.0","A790","false","img/card_backs/set1/green.gif","img/card_backs/set1/red.gif","img/card_backs/set1/yellow.gif","img/card_backs/set1/purple.gif","img/card_backs/set2/blue.gif","img/card_backs/set2/pink.gif","img/card_backs/set2/orange.gif","img/card_backs/set2/gray.gif","""event"",""trial"",""time""
""fullscreenenter"",""1"",""4912""
","
","
","""event"",""trial"",""time""
""fullscreenenter"",""1"",""4912""
","
","","6070","Welcome to the casino!","71","","instructions","2021-04-05 07:57:15.510","","","","","",""
"casino-keyboard-response","7","32902","0.0-6.0-0.1","A790","false","img/card_backs/set1/green.gif","img/card_backs/set1/red.gif","img/card_backs/set1/yellow.gif","img/card_backs/set1/purple.gif","img/card_backs/set2/blue.gif","img/card_backs/set2/pink.gif","img/card_backs/set2/orange.gif","img/card_backs/set2/gray.gif","""event"",""trial"",""time""
""fullscreenenter"",""1"",""4912""
","
","
","""event"",""trial"",""time""
""fullscreenenter"",""1"",""4912""
","
","","10084","Today you will be playing a game to earn tokens. </br> At the end of the experiment, you will be paid a bonus based on how many tokens you win. ","69","","instructions","2021-04-05 07:57:25.597","","","","","",""
"casino-keyboard-response","8","40195","0.0-6.0-0.2","A790","false","img/card_backs/set1/green.gif","img/card_backs/set1/red.gif","img/card_backs/set1/yellow.gif","img/card_backs/set1/purple.gif","img/card_backs/set2/blue.gif","img/card_backs/set2/pink.gif","img/card_backs/set2/orange.gif","img/card_backs/set2/gray.gif","""event"",""trial"",""time""
""fullscreenenter"",""1"",""4912""
","
","
","""event"",""trial"",""time""
""fullscreenenter"",""1"",""4912""
","
","","7291","On every turn, you will be shown four different decks of cards. </br> You need to select a card from one of the four decks.  ","75","","instructions","2021-04-05 07:57:32.890","","","","","",""
"casino-keyboard-response","9","44778","0.0-6.0-0.3","A790","false","img/card_backs/set1/green.gif","img/card_backs/set1/red.gif","img/card_backs/set1/yellow.gif","img/card_backs/set1/purple.gif","img/card_backs/set2/blue.gif","img/card_backs/set2/pink.gif","img/card_backs/set2/orange.gif","img/card_backs/set2/gray.gif","""event"",""trial"",""time""
""fullscreenenter"",""1"",""4912""
","
","
","""event"",""trial"",""time""
""fullscreenenter"",""1"",""4912""
","
","","4580","On the next screen, you will see what the decks will look like. ","66","","instructions","2021-04-05 07:57:37.473","","","","","",""
"card-selection-trial","10","48806","0.0-7.0-0.0","A790","false","img/card_backs/set1/green.gif","img/card_backs/set1/red.gif","img/card_backs/set1/yellow.gif","img/card_backs/set1/purple.gif","img/card_backs/set2/blue.gif","img/card_backs/set2/pink.gif","img/card_backs/set2/orange.gif","img/card_backs/set2/gray.gif","""event"",""trial"",""time""
""fullscreenenter"",""1"",""4912""
","
","
","""event"",""trial"",""time""
""fullscreenenter"",""1"",""4912""
","
","","null","","","","practice","2021-04-05 07:57:41.502","null","null","null","0","",""
"casino-keyboard-response","11","57188","0.0-8.0-0.0","A790","false","img/card_backs/set1/green.gif","img/card_backs/set1/red.gif","img/card_backs/set1/yellow.gif","img/card_backs/set1/purple.gif","img/card_backs/set2/blue.gif","img/card_backs/set2/pink.gif","img/card_backs/set2/orange.gif","img/card_backs/set2/gray.gif","""event"",""trial"",""time""
""fullscreenenter"",""1"",""4912""
","
","
","""event"",""trial"",""time""
""fullscreenenter"",""1"",""4912""
","
","","8378","You should pick a card from a deck using the '2', '4', '6', and '8' keys at the top of the keyboard.","85","","instructions","2021-04-05 07:57:49.884","","","","","",""
"casino-keyboard-response","12","63891","0.0-8.0-0.1","A790","false","img/card_backs/set1/green.gif","img/card_backs/set1/red.gif","img/card_backs/set1/yellow.gif","img/card_backs/set1/purple.gif","img/card_backs/set2/blue.gif","img/card_backs/set2/pink.gif","img/card_backs/set2/orange.gif","img/card_backs/set2/gray.gif","""event"",""trial"",""time""
""fullscreenenter"",""1"",""4912""
","
","
","""event"",""trial"",""time""
""fullscreenenter"",""1"",""4912""
","
","","6693","Once you select a card, it will turn over and you will see how many tokens you earned.","83","","instructions","2021-04-05 07:57:56.586","","","","","",""
"casino-keyboard-response","13","81578","0.0-8.0-0.2","A790","false","img/card_backs/set1/green.gif","img/card_backs/set1/red.gif","img/card_backs/set1/yellow.gif","img/card_backs/set1/purple.gif","img/card_backs/set2/blue.gif","img/card_backs/set2/pink.gif","img/card_backs/set2/orange.gif","img/card_backs/set2/gray.gif","""event"",""trial"",""time""
""fullscreenenter"",""1"",""4912""
","
","
","""event"",""trial"",""time""
""fullscreenenter"",""1"",""4912""
","
","","17683","Let's try practicing that! </br> First, try to put your fingers over the '2', '4', '6', and '8' keys. </br>  You can use whatever fingers are most comfortable for you. Try to find a comfortable position now. ","50","","instructions","2021-04-05 07:58:14.274","","","","","",""
"casino-keyboard-response","14","87588","0.0-8.0-0.3","A790","false","img/card_backs/set1/green.gif","img/card_backs/set1/red.gif","img/card_backs/set1/yellow.gif","img/card_backs/set1/purple.gif","img/card_backs/set2/blue.gif","img/card_backs/set2/pink.gif","img/card_backs/set2/orange.gif","img/card_backs/set2/gray.gif","""event"",""trial"",""time""
""fullscreenenter"",""1"",""4912""
","
","
","""event"",""trial"",""time""
""fullscreenenter"",""1"",""4912""
","
","","6006","Okay ready? </br> On the next screen, press '2' to select the left deck. ","50","","instructions","2021-04-05 07:58:20.283","","","","","",""
"card-selection-trial","15","90436","0.0-9.0-0.0","A790","false","img/card_backs/set1/green.gif","img/card_backs/set1/red.gif","img/card_backs/set1/yellow.gif","img/card_backs/set1/purple.gif","img/card_backs/set2/blue.gif","img/card_backs/set2/pink.gif","img/card_backs/set2/orange.gif","img/card_backs/set2/gray.gif","""event"",""trial"",""time""
""fullscreenenter"",""1"",""4912""
","
","
","""event"",""trial"",""time""
""fullscreenenter"",""1"",""4912""
","
","","827","","","","practice_card_selection","2021-04-05 07:58:23.132","img/practice_cards/backs/dark_blue.gif","0","-200","","",""
"casino-keyboard-response","16","96331","0.0-10.0-0.0","A790","false","img/card_backs/set1/green.gif","img/card_backs/set1/red.gif","img/card_backs/set1/yellow.gif","img/card_backs/set1/purple.gif","img/card_backs/set2/blue.gif","img/card_backs/set2/pink.gif","img/card_backs/set2/orange.gif","img/card_backs/set2/gray.gif","""event"",""trial"",""time""
""fullscreenenter"",""1"",""4912""
","
","
","""event"",""trial"",""time""
""fullscreenenter"",""1"",""4912""
","
","","5890","Great! Now on the next screen, try pressing '6' to select the third deck.","54","","instructions","2021-04-05 07:58:29.026","","","","","",""
"card-selection-trial","17","98935","0.0-11.0-0.0","A790","false","img/card_backs/set1/green.gif","img/card_backs/set1/red.gif","img/card_backs/set1/yellow.gif","img/card_backs/set1/purple.gif","img/card_backs/set2/blue.gif","img/card_backs/set2/pink.gif","img/card_backs/set2/orange.gif","img/card_backs/set2/gray.gif","""event"",""trial"",""time""
""fullscreenenter"",""1"",""4912""
","
","
","""event"",""trial"",""time""
""fullscreenenter"",""1"",""4912""
","
","","577","","","","practice_card_selection","2021-04-05 07:58:31.630","img/practice_cards/backs/dark_blue.gif","2","-200","","",""
"casino-keyboard-response","18","102555","0.0-12.0-0.0","A790","false","img/card_backs/set1/green.gif","img/card_backs/set1/red.gif","img/card_backs/set1/yellow.gif","img/card_backs/set1/purple.gif","img/card_backs/set2/blue.gif","img/card_backs/set2/pink.gif","img/card_backs/set2/orange.gif","img/card_backs/set2/gray.gif","""event"",""trial"",""time""
""fullscreenenter"",""1"",""4912""
","
","
","""event"",""trial"",""time""
""fullscreenenter"",""1"",""4912""
","
","","3619","Now on the next screen, try pressing '4' to select the second deck.","52","","instructions","2021-04-05 07:58:35.251","","","","","",""
"card-selection-trial","19","105417","0.0-13.0-0.0","A790","false","img/card_backs/set1/green.gif","img/card_backs/set1/red.gif","img/card_backs/set1/yellow.gif","img/card_backs/set1/purple.gif","img/card_backs/set2/blue.gif","img/card_backs/set2/pink.gif","img/card_backs/set2/orange.gif","img/card_backs/set2/gray.gif","""event"",""trial"",""time""
""fullscreenenter"",""1"",""4912""
","
","
","""event"",""trial"",""time""
""fullscreenenter"",""1"",""4912""
","
","","847","","","","practice_card_selection","2021-04-05 07:58:38.112","img/practice_cards/backs/black.gif","1","100","","",""
"casino-keyboard-response","20","110132","0.0-14.0-0.0","A790","false","img/card_backs/set1/green.gif","img/card_backs/set1/red.gif","img/card_backs/set1/yellow.gif","img/card_backs/set1/purple.gif","img/card_backs/set2/blue.gif","img/card_backs/set2/pink.gif","img/card_backs/set2/orange.gif","img/card_backs/set2/gray.gif","""event"",""trial"",""time""
""fullscreenenter"",""1"",""4912""
","
","
","""event"",""trial"",""time""
""fullscreenenter"",""1"",""4912""
","
","","4712","Finally, try pressing '8' to select the deck all the way on the right.","56","","instructions","2021-04-05 07:58:42.828","","","","","",""
"card-selection-trial","21","112764","0.0-15.0-0.0","A790","false","img/card_backs/set1/green.gif","img/card_backs/set1/red.gif","img/card_backs/set1/yellow.gif","img/card_backs/set1/purple.gif","img/card_backs/set2/blue.gif","img/card_backs/set2/pink.gif","img/card_backs/set2/orange.gif","img/card_backs/set2/gray.gif","""event"",""trial"",""time""
""fullscreenenter"",""1"",""4912""
","
","
","""event"",""trial"",""time""
""fullscreenenter"",""1"",""4912""
","
","","613","","","","practice_card_selection","2021-04-05 07:58:45.460","img/practice_cards/backs/brown.gif","3","100","","",""
"casino-keyboard-response","22","117367","0.0-16.0-0.0","A790","false","img/card_backs/set1/green.gif","img/card_backs/set1/red.gif","img/card_backs/set1/yellow.gif","img/card_backs/set1/purple.gif","img/card_backs/set2/blue.gif","img/card_backs/set2/pink.gif","img/card_backs/set2/orange.gif","img/card_backs/set2/gray.gif","""event"",""trial"",""time""
""fullscreenenter"",""1"",""4912""
","
","
","""event"",""trial"",""time""
""fullscreenenter"",""1"",""4912""
","
","","4598","Great! It seems like you are getting the hang of this.","80","","instructions","2021-04-05 07:58:50.062","","","","","",""
"casino-keyboard-response","23","124808","0.0-16.0-0.1","A790","false","img/card_backs/set1/green.gif","img/card_backs/set1/red.gif","img/card_backs/set1/yellow.gif","img/card_backs/set1/purple.gif","img/card_backs/set2/blue.gif","img/card_backs/set2/pink.gif","img/card_backs/set2/orange.gif","img/card_backs/set2/gray.gif","""event"",""trial"",""time""
""fullscreenenter"",""1"",""4912""
","
","
","""event"",""trial"",""time""
""fullscreenenter"",""1"",""4912""
","
","","7441","You may have noticed that some cards will cause you to <b> win </b> tokens while other cards will cause you to <b> lose </b>  tokens.","70","","instructions","2021-04-05 07:58:57.504","","","","","",""
"casino-keyboard-response","24","133333","0.0-16.0-0.2","A790","false","img/card_backs/set1/green.gif","img/card_backs/set1/red.gif","img/card_backs/set1/yellow.gif","img/card_backs/set1/purple.gif","img/card_backs/set2/blue.gif","img/card_backs/set2/pink.gif","img/card_backs/set2/orange.gif","img/card_backs/set2/gray.gif","""event"",""trial"",""time""
""fullscreenenter"",""1"",""4912""
","
","
","""event"",""trial"",""time""
""fullscreenenter"",""1"",""4912""
","
","","8522","Each deck has a mix of cards that will cause you to win and lose tokens. </br> However, the cards in each colored deck are different.","73","","instructions","2021-04-05 07:59:06.029","","","","","",""
"casino-keyboard-response","25","142176","0.0-16.0-0.3","A790","false","img/card_backs/set1/green.gif","img/card_backs/set1/red.gif","img/card_backs/set1/yellow.gif","img/card_backs/set1/purple.gif","img/card_backs/set2/blue.gif","img/card_backs/set2/pink.gif","img/card_backs/set2/orange.gif","img/card_backs/set2/gray.gif","""event"",""trial"",""time""
""fullscreenenter"",""1"",""4912""
","
","
","""event"",""trial"",""time""
""fullscreenenter"",""1"",""4912""
","
","","8838","Some colored decks are luckier than others. </br> If you choose the lucky decks, you will earn more tokens than if you choose the unlucky decks.","69","","instructions","2021-04-05 07:59:14.871","","","","","",""
"casino-keyboard-response","26","150114","0.0-16.0-0.4","A790","false","img/card_backs/set1/green.gif","img/card_backs/set1/red.gif","img/card_backs/set1/yellow.gif","img/card_backs/set1/purple.gif","img/card_backs/set2/blue.gif","img/card_backs/set2/pink.gif","img/card_backs/set2/orange.gif","img/card_backs/set2/gray.gif","""event"",""trial"",""time""
""fullscreenenter"",""1"",""4912""
","
","
","""event"",""trial"",""time""
""fullscreenenter"",""1"",""4912""
","
","","7935","You should try to figure out which decks are lucky. </br> Then, try to choose the lucky decks so you can win the most tokens.","87","","instructions","2021-04-05 07:59:22.809","","","","","",""
"casino-keyboard-response","27","161830","0.0-16.0-0.5","A790","false","img/card_backs/set1/green.gif","img/card_backs/set1/red.gif","img/card_backs/set1/yellow.gif","img/card_backs/set1/purple.gif","img/card_backs/set2/blue.gif","img/card_backs/set2/pink.gif","img/card_backs/set2/orange.gif","img/card_backs/set2/gray.gif","""event"",""trial"",""time""
""fullscreenenter"",""1"",""4912""
","
","
","""event"",""trial"",""time""
""fullscreenenter"",""1"",""4912""
","
","","11713","To make it trickier, the casino dealer will switch the locations of the decks on every turn. </br> The color of the deck determines how lucky it is. The location does not matter.","88","","instructions","2021-04-05 07:59:34.525","","","","","",""
"casino-keyboard-response","28","170966","0.0-16.0-0.6","A790","false","img/card_backs/set1/green.gif","img/card_backs/set1/red.gif","img/card_backs/set1/yellow.gif","img/card_backs/set1/purple.gif","img/card_backs/set2/blue.gif","img/card_backs/set2/pink.gif","img/card_backs/set2/orange.gif","img/card_backs/set2/gray.gif","""event"",""trial"",""time""
""fullscreenenter"",""1"",""4912""
","
","
","""event"",""trial"",""time""
""fullscreenenter"",""1"",""4912""
","
","","9134","The mix of cards in each colored deck will stay the same throughout the game. </br> That means that a deck that is lucky early on will stay lucky.","79","","instructions","2021-04-05 07:59:43.661","","","","","",""
"casino-keyboard-response","29","179452","0.0-16.0-0.7","A790","false","img/card_backs/set1/green.gif","img/card_backs/set1/red.gif","img/card_backs/set1/yellow.gif","img/card_backs/set1/purple.gif","img/card_backs/set2/blue.gif","img/card_backs/set2/pink.gif","img/card_backs/set2/orange.gif","img/card_backs/set2/gray.gif","""event"",""trial"",""time""
""fullscreenenter"",""1"",""4912""
","
","
","""event"",""trial"",""time""
""fullscreenenter"",""1"",""4912""
","
","","8483","Remember though, all the decks have a <b> mix </b> of both <b> good </b> and <b> bad </b> cards so it may take a couple of turns to figure out if a deck is lucky.","69","","instructions","2021-04-05 07:59:52.147","","","","","",""
"casino-keyboard-response","30","188952","0.0-16.0-0.8","A790","false","img/card_backs/set1/green.gif","img/card_backs/set1/red.gif","img/card_backs/set1/yellow.gif","img/card_backs/set1/purple.gif","img/card_backs/set2/blue.gif","img/card_backs/set2/pink.gif","img/card_backs/set2/orange.gif","img/card_backs/set2/gray.gif","""event"",""trial"",""time""
""fullscreenenter"",""1"",""4912""
","
","
","""event"",""trial"",""time""
""fullscreenenter"",""1"",""4912""
","
","","9498","At the end of the game, you will be paid bonus money based on how many tokens you win. </br> If you win more tokens, you will earn more money!","72","","instructions","2021-04-05 08:00:01.647","","","","","",""
"casino-keyboard-response","31","200048","0.0-16.0-0.9","A790","false","img/card_backs/set1/green.gif","img/card_backs/set1/red.gif","img/card_backs/set1/yellow.gif","img/card_backs/set1/purple.gif","img/card_backs/set2/blue.gif","img/card_backs/set2/pink.gif","img/card_backs/set2/orange.gif","img/card_backs/set2/gray.gif","""event"",""trial"",""time""
""fullscreenenter"",""1"",""4912""
","
","
","""event"",""trial"",""time""
""fullscreenenter"",""1"",""4912""
","
","","11095","You will never <b> lose </b> money. </br> If you end up with fewer than 0 tokens, you will earn $0 of bonus money, but you will still be paid for playing the game.","83","","instructions","2021-04-05 08:00:12.743","","","","","",""
"casino-keyboard-response","32","204623","0.0-16.0-0.10","A790","false","img/card_backs/set1/green.gif","img/card_backs/set1/red.gif","img/card_backs/set1/yellow.gif","img/card_backs/set1/purple.gif","img/card_backs/set2/blue.gif","img/card_backs/set2/pink.gif","img/card_backs/set2/orange.gif","img/card_backs/set2/gray.gif","""event"",""trial"",""time""
""fullscreenenter"",""1"",""4912""
","
","
","""event"",""trial"",""time""
""fullscreenenter"",""1"",""4912""
","
","","4573","You will have 10 seconds to make each choice.","82","","instructions","2021-04-05 08:00:17.318","","","","","",""
"casino-keyboard-response","33","212830","0.0-16.0-0.11","A790","false","img/card_backs/set1/green.gif","img/card_backs/set1/red.gif","img/card_backs/set1/yellow.gif","img/card_backs/set1/purple.gif","img/card_backs/set2/blue.gif","img/card_backs/set2/pink.gif","img/card_backs/set2/orange.gif","img/card_backs/set2/gray.gif","""event"",""trial"",""time""
""fullscreenenter"",""1"",""4912""
","
","
","""event"",""trial"",""time""
""fullscreenenter"",""1"",""4912""
","
","","8205","Before you play the game for real, you will play with practice decks. </br> The tokens you earn during practice won't count toward your total.","86","","instructions","2021-04-05 08:00:25.525","","","","","",""
"casino-keyboard-response","34","224373","0.0-16.0-0.12","A790","false","img/card_backs/set1/green.gif","img/card_backs/set1/red.gif","img/card_backs/set1/yellow.gif","img/card_backs/set1/purple.gif","img/card_backs/set2/blue.gif","img/card_backs/set2/pink.gif","img/card_backs/set2/orange.gif","img/card_backs/set2/gray.gif","""event"",""trial"",""time""
""fullscreenenter"",""1"",""4912""
","
","
","""event"",""trial"",""time""
""fullscreenenter"",""1"",""4912""
","
","","11542","Ready? Remember, use the '2', '4', '6', and '8' keys to select the decks. </br> Put your fingers on those keys now and then press '2' to begin.","50","","instructions","2021-04-05 08:00:37.068","","","","","",""
"casino-fixation","35","224894","0.0-17.0-0.0","A790","false","img/card_backs/set1/green.gif","img/card_backs/set1/red.gif","img/card_backs/set1/yellow.gif","img/card_backs/set1/purple.gif","img/card_backs/set2/blue.gif","img/card_backs/set2/pink.gif","img/card_backs/set2/orange.gif","img/card_backs/set2/gray.gif","""event"",""trial"",""time""
""fullscreenenter"",""1"",""4912""
","
","
","""event"",""trial"",""time""
""fullscreenenter"",""1"",""4912""
","
","","null","","null","","fixation","2021-04-05 08:00:37.590","","","","","",""
"card-selection-trial","36","227892","0.0-17.0-1.0","A790","false","img/card_backs/set1/green.gif","img/card_backs/set1/red.gif","img/card_backs/set1/yellow.gif","img/card_backs/set1/purple.gif","img/card_backs/set2/blue.gif","img/card_backs/set2/pink.gif","img/card_backs/set2/orange.gif","img/card_backs/set2/gray.gif","""event"",""trial"",""time""
""fullscreenenter"",""1"",""4912""
","
","
","""event"",""trial"",""time""
""fullscreenenter"",""1"",""4912""
","
","","944","","","","practice","2021-04-05 08:00:40.587","img/practice_cards/backs/black.gif","1","-100","0","",""
"casino-fixation","37","228407","0.0-17.0-0.1","A790","false","img/card_backs/set1/green.gif","img/card_backs/set1/red.gif","img/card_backs/set1/yellow.gif","img/card_backs/set1/purple.gif","img/card_backs/set2/blue.gif","img/card_backs/set2/pink.gif","img/card_backs/set2/orange.gif","img/card_backs/set2/gray.gif","""event"",""trial"",""time""
""fullscreenenter"",""1"",""4912""
","
","
","""event"",""trial"",""time""
""fullscreenenter"",""1"",""4912""
","
","","null","","null","","fixation","2021-04-05 08:00:41.102","","","","","",""
"card-selection-trial","38","230964","0.0-17.0-1.1","A790","false","img/card_backs/set1/green.gif","img/card_backs/set1/red.gif","img/card_backs/set1/yellow.gif","img/card_backs/set1/purple.gif","img/card_backs/set2/blue.gif","img/card_backs/set2/pink.gif","img/card_backs/set2/orange.gif","img/card_backs/set2/gray.gif","""event"",""trial"",""time""
""fullscreenenter"",""1"",""4912""
","
","
","""event"",""trial"",""time""
""fullscreenenter"",""1"",""4912""
","
","","538","","","","practice","2021-04-05 08:00:43.660","img/practice_cards/backs/black.gif","1","-100","0","",""
"casino-fixation","39","231483","0.0-17.0-0.2","A790","false","img/card_backs/set1/green.gif","img/card_backs/set1/red.gif","img/card_backs/set1/yellow.gif","img/card_backs/set1/purple.gif","img/card_backs/set2/blue.gif","img/card_backs/set2/pink.gif","img/card_backs/set2/orange.gif","img/card_backs/set2/gray.gif","""event"",""trial"",""time""
""fullscreenenter"",""1"",""4912""
","
","
","""event"",""trial"",""time""
""fullscreenenter"",""1"",""4912""
","
","","null","","null","","fixation","2021-04-05 08:00:44.178","","","","","",""
"card-selection-trial","40","234054","0.0-17.0-1.2","A790","false","img/card_backs/set1/green.gif","img/card_backs/set1/red.gif","img/card_backs/set1/yellow.gif","img/card_backs/set1/purple.gif","img/card_backs/set2/blue.gif","img/card_backs/set2/pink.gif","img/card_backs/set2/orange.gif","img/card_backs/set2/gray.gif","""event"",""trial"",""time""
""fullscreenenter"",""1"",""4912""
","
","
","""event"",""trial"",""time""
""fullscreenenter"",""1"",""4912""
","
","","552","","","","practice","2021-04-05 08:00:46.750","img/practice_cards/backs/black.gif","0","-100","0","",""
"casino-fixation","41","234574","0.0-17.0-0.3","A790","false","img/card_backs/set1/green.gif","img/card_backs/set1/red.gif","img/card_backs/set1/yellow.gif","img/card_backs/set1/purple.gif","img/card_backs/set2/blue.gif","img/card_backs/set2/pink.gif","img/card_backs/set2/orange.gif","img/card_backs/set2/gray.gif","""event"",""trial"",""time""
""fullscreenenter"",""1"",""4912""
","
","
","""event"",""trial"",""time""
""fullscreenenter"",""1"",""4912""
","
","","null","","null","","fixation","2021-04-05 08:00:47.269","","","","","",""
"card-selection-trial","42","238125","0.0-17.0-1.3","A790","false","img/card_backs/set1/green.gif","img/card_backs/set1/red.gif","img/card_backs/set1/yellow.gif","img/card_backs/set1/purple.gif","img/card_backs/set2/blue.gif","img/card_backs/set2/pink.gif","img/card_backs/set2/orange.gif","img/card_backs/set2/gray.gif","""event"",""trial"",""time""
""fullscreenenter"",""1"",""4912""
","
","
","""event"",""trial"",""time""
""fullscreenenter"",""1"",""4912""
","
","","1536","","","","practice","2021-04-05 08:00:50.820","img/practice_cards/backs/dark_blue.gif","0","200","0","",""
"casino-fixation","43","238643","0.0-17.0-0.4","A790","false","img/card_backs/set1/green.gif","img/card_backs/set1/red.gif","img/card_backs/set1/yellow.gif","img/card_backs/set1/purple.gif","img/card_backs/set2/blue.gif","img/card_backs/set2/pink.gif","img/card_backs/set2/orange.gif","img/card_backs/set2/gray.gif","""event"",""trial"",""time""
""fullscreenenter"",""1"",""4912""
","
","
","""event"",""trial"",""time""
""fullscreenenter"",""1"",""4912""
","
","","null","","null","","fixation","2021-04-05 08:00:51.339","","","","","",""
"card-selection-trial","44","241353","0.0-17.0-1.4","A790","false","img/card_backs/set1/green.gif","img/card_backs/set1/red.gif","img/card_backs/set1/yellow.gif","img/card_backs/set1/purple.gif","img/card_backs/set2/blue.gif","img/card_backs/set2/pink.gif","img/card_backs/set2/orange.gif","img/card_backs/set2/gray.gif","""event"",""trial"",""time""
""fullscreenenter"",""1"",""4912""
","
","
","""event"",""trial"",""time""
""fullscreenenter"",""1"",""4912""
","
","","695","","","","practice","2021-04-05 08:00:54.049","img/practice_cards/backs/dark_blue.gif","0","200","0","",""
"casino-fixation","45","241863","0.0-17.0-0.5","A790","false","img/card_backs/set1/green.gif","img/card_backs/set1/red.gif","img/card_backs/set1/yellow.gif","img/card_backs/set1/purple.gif","img/card_backs/set2/blue.gif","img/card_backs/set2/pink.gif","img/card_backs/set2/orange.gif","img/card_backs/set2/gray.gif","""event"",""trial"",""time""
""fullscreenenter"",""1"",""4912""
","
","
","""event"",""trial"",""time""
""fullscreenenter"",""1"",""4912""
","
","","null","","null","","fixation","2021-04-05 08:00:54.559","","","","","",""
"card-selection-trial","46","245586","0.0-17.0-1.5","A790","false","img/card_backs/set1/green.gif","img/card_backs/set1/red.gif","img/card_backs/set1/yellow.gif","img/card_backs/set1/purple.gif","img/card_backs/set2/blue.gif","img/card_backs/set2/pink.gif","img/card_backs/set2/orange.gif","img/card_backs/set2/gray.gif","""event"",""trial"",""time""
""fullscreenenter"",""1"",""4912""
","
","
","""event"",""trial"",""time""
""fullscreenenter"",""1"",""4912""
","
","","1698","","","","practice","2021-04-05 08:00:58.281","img/practice_cards/backs/dark_green.gif","2","200","0","",""
"casino-fixation","47","246103","0.0-17.0-0.6","A790","false","img/card_backs/set1/green.gif","img/card_backs/set1/red.gif","img/card_backs/set1/yellow.gif","img/card_backs/set1/purple.gif","img/card_backs/set2/blue.gif","img/card_backs/set2/pink.gif","img/card_backs/set2/orange.gif","img/card_backs/set2/gray.gif","""event"",""trial"",""time""
""fullscreenenter"",""1"",""4912""
","
","
","""event"",""trial"",""time""
""fullscreenenter"",""1"",""4912""
","
","","null","","null","","fixation","2021-04-05 08:00:58.798","","","","","",""
"card-selection-trial","48","249295","0.0-17.0-1.6","A790","false","img/card_backs/set1/green.gif","img/card_backs/set1/red.gif","img/card_backs/set1/yellow.gif","img/card_backs/set1/purple.gif","img/card_backs/set2/blue.gif","img/card_backs/set2/pink.gif","img/card_backs/set2/orange.gif","img/card_backs/set2/gray.gif","""event"",""trial"",""time""
""fullscreenenter"",""1"",""4912""
","
","
","""event"",""trial"",""time""
""fullscreenenter"",""1"",""4912""
","
","","1169","","","","practice","2021-04-05 08:01:01.991","img/practice_cards/backs/dark_green.gif","3","200","0","",""
"casino-fixation","49","249804","0.0-17.0-0.7","A790","false","img/card_backs/set1/green.gif","img/card_backs/set1/red.gif","img/card_backs/set1/yellow.gif","img/card_backs/set1/purple.gif","img/card_backs/set2/blue.gif","img/card_backs/set2/pink.gif","img/card_backs/set2/orange.gif","img/card_backs/set2/gray.gif","""event"",""trial"",""time""
""fullscreenenter"",""1"",""4912""
","
","
","""event"",""trial"",""time""
""fullscreenenter"",""1"",""4912""
","
","","null","","null","","fixation","2021-04-05 08:01:02.499","","","","","",""
"card-selection-trial","50","253145","0.0-17.0-1.7","A790","false","img/card_backs/set1/green.gif","img/card_backs/set1/red.gif","img/card_backs/set1/yellow.gif","img/card_backs/set1/purple.gif","img/card_backs/set2/blue.gif","img/card_backs/set2/pink.gif","img/card_backs/set2/orange.gif","img/card_backs/set2/gray.gif","""event"",""trial"",""time""
""fullscreenenter"",""1"",""4912""
","
","
","""event"",""trial"",""time""
""fullscreenenter"",""1"",""4912""
","
","","1329","","","","practice","2021-04-05 08:01:05.840","img/practice_cards/backs/brown.gif","2","100","0","",""
"casino-fixation","51","253663","0.0-17.0-0.8","A790","false","img/card_backs/set1/green.gif","img/card_backs/set1/red.gif","img/card_backs/set1/yellow.gif","img/card_backs/set1/purple.gif","img/card_backs/set2/blue.gif","img/card_backs/set2/pink.gif","img/card_backs/set2/orange.gif","img/card_backs/set2/gray.gif","""event"",""trial"",""time""
""fullscreenenter"",""1"",""4912""
","
","
","""event"",""trial"",""time""
""fullscreenenter"",""1"",""4912""
","
","","null","","null","","fixation","2021-04-05 08:01:06.358","","","","","",""
"card-selection-trial","52","256695","0.0-17.0-1.8","A790","false","img/card_backs/set1/green.gif","img/card_backs/set1/red.gif","img/card_backs/set1/yellow.gif","img/card_backs/set1/purple.gif","img/card_backs/set2/blue.gif","img/card_backs/set2/pink.gif","img/card_backs/set2/orange.gif","img/card_backs/set2/gray.gif","""event"",""trial"",""time""
""fullscreenenter"",""1"",""4912""
","
","
","""event"",""trial"",""time""
""fullscreenenter"",""1"",""4912""
","
","","1008","","","","practice","2021-04-05 08:01:09.390","img/practice_cards/backs/brown.gif","0","100","0","",""
"casino-fixation","53","257204","0.0-17.0-0.9","A790","false","img/card_backs/set1/green.gif","img/card_backs/set1/red.gif","img/card_backs/set1/yellow.gif","img/card_backs/set1/purple.gif","img/card_backs/set2/blue.gif","img/card_backs/set2/pink.gif","img/card_backs/set2/orange.gif","img/card_backs/set2/gray.gif","""event"",""trial"",""time""
""fullscreenenter"",""1"",""4912""
","
","
","""event"",""trial"",""time""
""fullscreenenter"",""1"",""4912""
","
","","null","","null","","fixation","2021-04-05 08:01:09.900","","","","","",""
"card-selection-trial","54","260854","0.0-17.0-1.9","A790","false","img/card_backs/set1/green.gif","img/card_backs/set1/red.gif","img/card_backs/set1/yellow.gif","img/card_backs/set1/purple.gif","img/card_backs/set2/blue.gif","img/card_backs/set2/pink.gif","img/card_backs/set2/orange.gif","img/card_backs/set2/gray.gif","""event"",""trial"",""time""
""fullscreenenter"",""1"",""4912""
","
","
","""event"",""trial"",""time""
""fullscreenenter"",""1"",""4912""
","
","","1620","","","","practice","2021-04-05 08:01:13.549","img/practice_cards/backs/black.gif","3","100","0","",""
"casino-keyboard-response","55","264251","0.0-18.0","A790","false","img/card_backs/set1/green.gif","img/card_backs/set1/red.gif","img/card_backs/set1/yellow.gif","img/card_backs/set1/purple.gif","img/card_backs/set2/blue.gif","img/card_backs/set2/pink.gif","img/card_backs/set2/orange.gif","img/card_backs/set2/gray.gif","""event"",""trial"",""time""
""fullscreenenter"",""1"",""4912""
","
","
","""event"",""trial"",""time""
""fullscreenenter"",""1"",""4912""
","
","","3394","You earned 800 tokens during the practice round!","82","","","2021-04-05 08:01:16.946","","","","","",""
"casino-keyboard-response","56","269286","0.0-19.0-0.0","A790","false","img/card_backs/set1/green.gif","img/card_backs/set1/red.gif","img/card_backs/set1/yellow.gif","img/card_backs/set1/purple.gif","img/card_backs/set2/blue.gif","img/card_backs/set2/pink.gif","img/card_backs/set2/orange.gif","img/card_backs/set2/gray.gif","""event"",""trial"",""time""
""fullscreenenter"",""1"",""4912""
","
","
","""event"",""trial"",""time""
""fullscreenenter"",""1"",""4912""
","
","","5033","Nice job! You are almost ready to play the real game.","86","","instructions","2021-04-05 08:01:21.981","","","","","",""
"casino-keyboard-response","57","276031","0.0-19.0-0.1","A790","false","img/card_backs/set1/green.gif","img/card_backs/set1/red.gif","img/card_backs/set1/yellow.gif","img/card_backs/set1/purple.gif","img/card_backs/set2/blue.gif","img/card_backs/set2/pink.gif","img/card_backs/set2/orange.gif","img/card_backs/set2/gray.gif","""event"",""trial"",""time""
""fullscreenenter"",""1"",""4912""
","
","
","""event"",""trial"",""time""
""fullscreenenter"",""1"",""4912""
","
","","6741","You will play two rounds of the real game. In each round, you will pick 100 cards in total.","73","","instructions","2021-04-05 08:01:28.727","","","","","",""
"casino-keyboard-response","58","280230","0.0-19.0-0.2","A790","false","img/card_backs/set1/green.gif","img/card_backs/set1/red.gif","img/card_backs/set1/yellow.gif","img/card_backs/set1/purple.gif","img/card_backs/set2/blue.gif","img/card_backs/set2/pink.gif","img/card_backs/set2/orange.gif","img/card_backs/set2/gray.gif","""event"",""trial"",""time""
""fullscreenenter"",""1"",""4912""
","
","
","""event"",""trial"",""time""
""fullscreenenter"",""1"",""4912""
","
","","4196","We are now going to ask you some questions about how the game works.","66","","instructions","2021-04-05 08:01:32.926","","","","","",""
"casino-keyboard-response","59","287285","0.0-19.0-0.3","A790","false","img/card_backs/set1/green.gif","img/card_backs/set1/red.gif","img/card_backs/set1/yellow.gif","img/card_backs/set1/purple.gif","img/card_backs/set2/blue.gif","img/card_backs/set2/pink.gif","img/card_backs/set2/orange.gif","img/card_backs/set2/gray.gif","""event"",""trial"",""time""
""fullscreenenter"",""1"",""4912""
","
","
","""event"",""trial"",""time""
""fullscreenenter"",""1"",""4912""
","
","","7053","Answer carefully. You will not be able to begin the game until you answer them correctly.","67","","instructions","2021-04-05 08:01:39.980","","","","","",""
"casino-comp_q","60","294702","0.0-20.0-0.0","A790","false","img/card_backs/set1/green.gif","img/card_backs/set1/red.gif","img/card_backs/set1/yellow.gif","img/card_backs/set1/purple.gif","img/card_backs/set2/blue.gif","img/card_backs/set2/pink.gif","img/card_backs/set2/orange.gif","img/card_backs/set2/gray.gif","""event"",""trial"",""time""
""fullscreenenter"",""1"",""4912""
","
","
","""event"",""trial"",""time""
""fullscreenenter"",""1"",""4912""
","
","","7414","True or False: All the decks have some cards that cause you to win tokens and some cards that cause you to lose tokens.","84","","","2021-04-05 08:01:47.397","","","","","",""
"casino-keyboard-response","61","299237","0.0-20.0-1.0","A790","false","img/card_backs/set1/green.gif","img/card_backs/set1/red.gif","img/card_backs/set1/yellow.gif","img/card_backs/set1/purple.gif","img/card_backs/set2/blue.gif","img/card_backs/set2/pink.gif","img/card_backs/set2/orange.gif","img/card_backs/set2/gray.gif","""event"",""trial"",""time""
""fullscreenenter"",""1"",""4912""
","
","
","""event"",""trial"",""time""
""fullscreenenter"",""1"",""4912""
","
","","4533","True is correct! All the decks have a mix of winning and losing cards.","77","","","2021-04-05 08:01:51.932","","","","","true",""
"casino-comp_q","62","304551","0.0-21.0-0.0","A790","false","img/card_backs/set1/green.gif","img/card_backs/set1/red.gif","img/card_backs/set1/yellow.gif","img/card_backs/set1/purple.gif","img/card_backs/set2/blue.gif","img/card_backs/set2/pink.gif","img/card_backs/set2/orange.gif","img/card_backs/set2/gray.gif","""event"",""trial"",""time""
""fullscreenenter"",""1"",""4912""
","
","
","""event"",""trial"",""time""
""fullscreenenter"",""1"",""4912""
","
","","5311","True or False: You will have as much time as you want to make your response.","70","","","2021-04-05 08:01:57.246","","","","","",""
"casino-keyboard-response","63","309340","0.0-21.0-1.0","A790","false","img/card_backs/set1/green.gif","img/card_backs/set1/red.gif","img/card_backs/set1/yellow.gif","img/card_backs/set1/purple.gif","img/card_backs/set2/blue.gif","img/card_backs/set2/pink.gif","img/card_backs/set2/orange.gif","img/card_backs/set2/gray.gif","""event"",""trial"",""time""
""fullscreenenter"",""1"",""4912""
","
","
","""event"",""trial"",""time""
""fullscreenenter"",""1"",""4912""
","
","","4787","False is correct! You will only have 10 seconds to make each choice.","75","","","2021-04-05 08:02:02.035","","","","","true",""
"casino-comp_q","64","316091","0.0-22.0-0.0","A790","false","img/card_backs/set1/green.gif","img/card_backs/set1/red.gif","img/card_backs/set1/yellow.gif","img/card_backs/set1/purple.gif","img/card_backs/set2/blue.gif","img/card_backs/set2/pink.gif","img/card_backs/set2/orange.gif","img/card_backs/set2/gray.gif","""event"",""trial"",""time""
""fullscreenenter"",""1"",""4912""
","
","
","""event"",""trial"",""time""
""fullscreenenter"",""1"",""4912""
","
","","6747","True or False: The location of the deck determines how lucky it is.","70","","","2021-04-05 08:02:08.786","","","","","",""
"casino-keyboard-response","65","322167","0.0-22.0-1.0","A790","false","img/card_backs/set1/green.gif","img/card_backs/set1/red.gif","img/card_backs/set1/yellow.gif","img/card_backs/set1/purple.gif","img/card_backs/set2/blue.gif","img/card_backs/set2/pink.gif","img/card_backs/set2/orange.gif","img/card_backs/set2/gray.gif","""event"",""trial"",""time""
""fullscreenenter"",""1"",""4912""
","
","
","""event"",""trial"",""time""
""fullscreenenter"",""1"",""4912""
","
","","6074","False is correct! The <i>color</i>  of the deck determines how lucky or unlucky it is.","68","","","2021-04-05 08:02:14.862","","","","","true",""
"casino-keyboard-response","66","328697","0.0-23.0-0.0","A790","false","img/card_backs/set1/green.gif","img/card_backs/set1/red.gif","img/card_backs/set1/yellow.gif","img/card_backs/set1/purple.gif","img/card_backs/set2/blue.gif","img/card_backs/set2/pink.gif","img/card_backs/set2/orange.gif","img/card_backs/set2/gray.gif","""event"",""trial"",""time""
""fullscreenenter"",""1"",""4912""
","
","
","""event"",""trial"",""time""
""fullscreenenter"",""1"",""4912""
","
","","6528","Great job! Now it's time to start the real game.","82","","instructions","2021-04-05 08:02:21.393","","","","","",""
"casino-keyboard-response","67","334087","0.0-23.0-0.1","A790","false","img/card_backs/set1/green.gif","img/card_backs/set1/red.gif","img/card_backs/set1/yellow.gif","img/card_backs/set1/purple.gif","img/card_backs/set2/blue.gif","img/card_backs/set2/pink.gif","img/card_backs/set2/orange.gif","img/card_backs/set2/gray.gif","""event"",""trial"",""time""
""fullscreenenter"",""1"",""4912""
","
","
","""event"",""trial"",""time""
""fullscreenenter"",""1"",""4912""
","
","","5387","Before we start, we're going to head into a new room of the casino.","86","","instructions","2021-04-05 08:02:26.782","","","","","",""
"casino-keyboard-response","68","340669","0.0-24.0-0.0","A790","false","img/card_backs/set1/green.gif","img/card_backs/set1/red.gif","img/card_backs/set1/yellow.gif","img/card_backs/set1/purple.gif","img/card_backs/set2/blue.gif","img/card_backs/set2/pink.gif","img/card_backs/set2/orange.gif","img/card_backs/set2/gray.gif","""event"",""trial"",""time""
""fullscreenenter"",""1"",""4912""
","
","
","""event"",""trial"",""time""
""fullscreenenter"",""1"",""4912""
","
","","6580","Here we are! The real game will use different cards, but the rules will be the same.","71","","instructions","2021-04-05 08:02:33.364","","","","","",""
"casino-keyboard-response","69","350685","0.0-24.0-0.1","A790","false","img/card_backs/set1/green.gif","img/card_backs/set1/red.gif","img/card_backs/set1/yellow.gif","img/card_backs/set1/purple.gif","img/card_backs/set2/blue.gif","img/card_backs/set2/pink.gif","img/card_backs/set2/orange.gif","img/card_backs/set2/gray.gif","""event"",""trial"",""time""
""fullscreenenter"",""1"",""4912""
","
","
","""event"",""trial"",""time""
""fullscreenenter"",""1"",""4912""
","
","","10014","Ready? Put your fingers over the '2', '4', 6', and '8' keys so you are ready to play the game. </br> Then press 2 to start.","50","","instructions","2021-04-05 08:02:43.381","","","","","",""
"casino-fixation","70","351203","0.0-25.0-0.0","A790","false","img/card_backs/set1/green.gif","img/card_backs/set1/red.gif","img/card_backs/set1/yellow.gif","img/card_backs/set1/purple.gif","img/card_backs/set2/blue.gif","img/card_backs/set2/pink.gif","img/card_backs/set2/orange.gif","img/card_backs/set2/gray.gif","""event"",""trial"",""time""
""fullscreenenter"",""1"",""4912""
","
","
","""event"",""trial"",""time""
""fullscreenenter"",""1"",""4912""
","
","","null","","null","","fixation","2021-04-05 08:02:43.899","","","","","",""
"card-selection-trial","71","354385","0.0-25.0-1.0","A790","false","img/card_backs/set1/green.gif","img/card_backs/set1/red.gif","img/card_backs/set1/yellow.gif","img/card_backs/set1/purple.gif","img/card_backs/set2/blue.gif","img/card_backs/set2/pink.gif","img/card_backs/set2/orange.gif","img/card_backs/set2/gray.gif","""event"",""trial"",""time""
""fullscreenenter"",""1"",""4912""
","
","
","""event"",""trial"",""time""
""fullscreenenter"",""1"",""4912""
","
","","1166","","","","real_trial","2021-04-05 08:02:47.081","img/card_backs/set1/red.gif","0","200","1","",""
"casino-fixation","72","354893","0.0-25.0-0.1","A790","false","img/card_backs/set1/green.gif","img/card_backs/set1/red.gif","img/card_backs/set1/yellow.gif","img/card_backs/set1/purple.gif","img/card_backs/set2/blue.gif","img/card_backs/set2/pink.gif","img/card_backs/set2/orange.gif","img/card_backs/set2/gray.gif","""event"",""trial"",""time""
""fullscreenenter"",""1"",""4912""
","
","
","""event"",""trial"",""time""
""fullscreenenter"",""1"",""4912""
","
","","null","","null","","fixation","2021-04-05 08:02:47.589","","","","","",""
"card-selection-trial","73","357735","0.0-25.0-1.1","A790","false","img/card_backs/set1/green.gif","img/card_backs/set1/red.gif","img/card_backs/set1/yellow.gif","img/card_backs/set1/purple.gif","img/card_backs/set2/blue.gif","img/card_backs/set2/pink.gif","img/card_backs/set2/orange.gif","img/card_backs/set2/gray.gif","""event"",""trial"",""time""
""fullscreenenter"",""1"",""4912""
","
","
","""event"",""trial"",""time""
""fullscreenenter"",""1"",""4912""
","
","","813","","","","real_trial","2021-04-05 08:02:50.430","img/card_backs/set1/red.gif","3","-240","1","",""
"casino-fixation","74","358253","0.0-25.0-0.2","A790","false","img/card_backs/set1/green.gif","img/card_backs/set1/red.gif","img/card_backs/set1/yellow.gif","img/card_backs/set1/purple.gif","img/card_backs/set2/blue.gif","img/card_backs/set2/pink.gif","img/card_backs/set2/orange.gif","img/card_backs/set2/gray.gif","""event"",""trial"",""time""
""fullscreenenter"",""1"",""4912""
","
","
","""event"",""trial"",""time""
""fullscreenenter"",""1"",""4912""
","
","","null","","null","","fixation","2021-04-05 08:02:50.948","","","","","",""
"card-selection-trial","75","361683","0.0-25.0-1.2","A790","false","img/card_backs/set1/green.gif","img/card_backs/set1/red.gif","img/card_backs/set1/yellow.gif","img/card_backs/set1/purple.gif","img/card_backs/set2/blue.gif","img/card_backs/set2/pink.gif","img/card_backs/set2/orange.gif","img/card_backs/set2/gray.gif","""event"",""trial"",""time""
""fullscreenenter"",""1"",""4912""
","
","
","""event"",""trial"",""time""
""fullscreenenter"",""1"",""4912""
","
","","1404","","","","real_trial","2021-04-05 08:02:54.379","img/card_backs/set1/red.gif","2","180","1","",""
"casino-fixation","76","362203","0.0-25.0-0.3","A790","false","img/card_backs/set1/green.gif","img/card_backs/set1/red.gif","img/card_backs/set1/yellow.gif","img/card_backs/set1/purple.gif","img/card_backs/set2/blue.gif","img/card_backs/set2/pink.gif","img/card_backs/set2/orange.gif","img/card_backs/set2/gray.gif","""event"",""trial"",""time""
""fullscreenenter"",""1"",""4912""
","
","
","""event"",""trial"",""time""
""fullscreenenter"",""1"",""4912""
","
","","null","","null","","fixation","2021-04-05 08:02:54.898","","","","","",""
"card-selection-trial","77","365255","0.0-25.0-1.3","A790","false","img/card_backs/set1/green.gif","img/card_backs/set1/red.gif","img/card_backs/set1/yellow.gif","img/card_backs/set1/purple.gif","img/card_backs/set2/blue.gif","img/card_backs/set2/pink.gif","img/card_backs/set2/orange.gif","img/card_backs/set2/gray.gif","""event"",""trial"",""time""
""fullscreenenter"",""1"",""4912""
","
","
","""event"",""trial"",""time""
""fullscreenenter"",""1"",""4912""
","
","","1036","","","","real_trial","2021-04-05 08:02:57.950","img/card_backs/set1/red.gif","2","200","1","",""
"casino-fixation","78","365773","0.0-25.0-0.4","A790","false","img/card_backs/set1/green.gif","img/card_backs/set1/red.gif","img/card_backs/set1/yellow.gif","img/card_backs/set1/purple.gif","img/card_backs/set2/blue.gif","img/card_backs/set2/pink.gif","img/card_backs/set2/orange.gif","img/card_backs/set2/gray.gif","""event"",""trial"",""time""
""fullscreenenter"",""1"",""4912""
","
","
","""event"",""trial"",""time""
""fullscreenenter"",""1"",""4912""
","
","","null","","null","","fixation","2021-04-05 08:02:58.469","","","","","",""
"card-selection-trial","79","368545","0.0-25.0-1.4","A790","false","img/card_backs/set1/green.gif","img/card_backs/set1/red.gif","img/card_backs/set1/yellow.gif","img/card_backs/set1/purple.gif","img/card_backs/set2/blue.gif","img/card_backs/set2/pink.gif","img/card_backs/set2/orange.gif","img/card_backs/set2/gray.gif","""event"",""trial"",""time""
""fullscreenenter"",""1"",""4912""
","
","
","""event"",""trial"",""time""
""fullscreenenter"",""1"",""4912""
","
","","744","","","","real_trial","2021-04-05 08:03:01.240","img/card_backs/set1/red.gif","2","200","1","",""
"casino-fixation","80","369063","0.0-25.0-0.5","A790","false","img/card_backs/set1/green.gif","img/card_backs/set1/red.gif","img/card_backs/set1/yellow.gif","img/card_backs/set1/purple.gif","img/card_backs/set2/blue.gif","img/card_backs/set2/pink.gif","img/card_backs/set2/orange.gif","img/card_backs/set2/gray.gif","""event"",""trial"",""time""
""fullscreenenter"",""1"",""4912""
","
","
","""event"",""trial"",""time""
""fullscreenenter"",""1"",""4912""
","
","","null","","null","","fixation","2021-04-05 08:03:01.758","","","","","",""
"card-selection-trial","81","372155","0.0-25.0-1.5","A790","false","img/card_backs/set1/green.gif","img/card_backs/set1/red.gif","img/card_backs/set1/yellow.gif","img/card_backs/set1/purple.gif","img/card_backs/set2/blue.gif","img/card_backs/set2/pink.gif","img/card_backs/set2/orange.gif","img/card_backs/set2/gray.gif","""event"",""trial"",""time""
""fullscreenenter"",""1"",""4912""
","
","
","""event"",""trial"",""time""
""fullscreenenter"",""1"",""4912""
","
","","1073","","","","real_trial","2021-04-05 08:03:04.851","img/card_backs/set1/red.gif","0","190","1","",""
"casino-fixation","82","372672","0.0-25.0-0.6","A790","false","img/card_backs/set1/green.gif","img/card_backs/set1/red.gif","img/card_backs/set1/yellow.gif","img/card_backs/set1/purple.gif","img/card_backs/set2/blue.gif","img/card_backs/set2/pink.gif","img/card_backs/set2/orange.gif","img/card_backs/set2/gray.gif","""event"",""trial"",""time""
""fullscreenenter"",""1"",""4912""
","
","
","""event"",""trial"",""time""
""fullscreenenter"",""1"",""4912""
","
","","null","","null","","fixation","2021-04-05 08:03:05.367","","","","","",""
"card-selection-trial","83","375715","0.0-25.0-1.6","A790","false","img/card_backs/set1/green.gif","img/card_backs/set1/red.gif","img/card_backs/set1/yellow.gif","img/card_backs/set1/purple.gif","img/card_backs/set2/blue.gif","img/card_backs/set2/pink.gif","img/card_backs/set2/orange.gif","img/card_backs/set2/gray.gif","""event"",""trial"",""time""
""fullscreenenter"",""1"",""4912""
","
","
","""event"",""trial"",""time""
""fullscreenenter"",""1"",""4912""
","
","","1019","","","","real_trial","2021-04-05 08:03:08.410","img/card_backs/set1/red.gif","3","200","1","",""
"casino-fixation","84","376233","0.0-25.0-0.7","A790","false","img/card_backs/set1/green.gif","img/card_backs/set1/red.gif","img/card_backs/set1/yellow.gif","img/card_backs/set1/purple.gif","img/card_backs/set2/blue.gif","img/card_backs/set2/pink.gif","img/card_backs/set2/orange.gif","img/card_backs/set2/gray.gif","""event"",""trial"",""time""
""fullscreenenter"",""1"",""4912""
","
","
","""event"",""trial"",""time""
""fullscreenenter"",""1"",""4912""
","
","","null","","null","","fixation","2021-04-05 08:03:08.928","","","","","",""
"card-selection-trial","85","378794","0.0-25.0-1.7","A790","false","img/card_backs/set1/green.gif","img/card_backs/set1/red.gif","img/card_backs/set1/yellow.gif","img/card_backs/set1/purple.gif","img/card_backs/set2/blue.gif","img/card_backs/set2/pink.gif","img/card_backs/set2/orange.gif","img/card_backs/set2/gray.gif","""event"",""trial"",""time""
""fullscreenenter"",""1"",""4912""
","
","
","""event"",""trial"",""time""
""fullscreenenter"",""1"",""4912""
","
","","546","","","","real_trial","2021-04-05 08:03:11.489","img/card_backs/set1/red.gif","3","200","1","",""
"casino-fixation","86","379314","0.0-25.0-0.8","A790","false","img/card_backs/set1/green.gif","img/card_backs/set1/red.gif","img/card_backs/set1/yellow.gif","img/card_backs/set1/purple.gif","img/card_backs/set2/blue.gif","img/card_backs/set2/pink.gif","img/card_backs/set2/orange.gif","img/card_backs/set2/gray.gif","""event"",""trial"",""time""
""fullscreenenter"",""1"",""4912""
","
","
","""event"",""trial"",""time""
""fullscreenenter"",""1"",""4912""
","
","","null","","null","","fixation","2021-04-05 08:03:12.009","","","","","",""
"card-selection-trial","87","382295","0.0-25.0-1.8","A790","false","img/card_backs/set1/green.gif","img/card_backs/set1/red.gif","img/card_backs/set1/yellow.gif","img/card_backs/set1/purple.gif","img/card_backs/set2/blue.gif","img/card_backs/set2/pink.gif","img/card_backs/set2/orange.gif","img/card_backs/set2/gray.gif","""event"",""trial"",""time""
""fullscreenenter"",""1"",""4912""
","
","
","""event"",""trial"",""time""
""fullscreenenter"",""1"",""4912""
","
","","957","","","","real_trial","2021-04-05 08:03:14.990","img/card_backs/set1/red.gif","2","-230","1","",""
"casino-fixation","88","382814","0.0-25.0-0.9","A790","false","img/card_backs/set1/green.gif","img/card_backs/set1/red.gif","img/card_backs/set1/yellow.gif","img/card_backs/set1/purple.gif","img/card_backs/set2/blue.gif","img/card_backs/set2/pink.gif","img/card_backs/set2/orange.gif","img/card_backs/set2/gray.gif","""event"",""trial"",""time""
""fullscreenenter"",""1"",""4912""
","
","
","""event"",""trial"",""time""
""fullscreenenter"",""1"",""4912""
","
","","null","","null","","fixation","2021-04-05 08:03:15.509","","","","","",""
"card-selection-trial","89","387044","0.0-25.0-1.9","A790","false","img/card_backs/set1/green.gif","img/card_backs/set1/red.gif","img/card_backs/set1/yellow.gif","img/card_backs/set1/purple.gif","img/card_backs/set2/blue.gif","img/card_backs/set2/pink.gif","img/card_backs/set2/orange.gif","img/card_backs/set2/gray.gif","""event"",""trial"",""time""
""fullscreenenter"",""1"",""4912""
","
","
","""event"",""trial"",""time""
""fullscreenenter"",""1"",""4912""
","
","","2210","","","","real_trial","2021-04-05 08:03:19.740","img/card_backs/set1/red.gif","0","-250","1","",""
"casino-fixation","90","387563","0.0-25.0-0.10","A790","false","img/card_backs/set1/green.gif","img/card_backs/set1/red.gif","img/card_backs/set1/yellow.gif","img/card_backs/set1/purple.gif","img/card_backs/set2/blue.gif","img/card_backs/set2/pink.gif","img/card_backs/set2/orange.gif","img/card_backs/set2/gray.gif","""event"",""trial"",""time""
""fullscreenenter"",""1"",""4912""
","
","
","""event"",""trial"",""time""
""fullscreenenter"",""1"",""4912""
","
","","null","","null","","fixation","2021-04-05 08:03:20.258","","","","","",""
"card-selection-trial","91","390649","0.0-25.0-1.10","A790","false","img/card_backs/set1/green.gif","img/card_backs/set1/red.gif","img/card_backs/set1/yellow.gif","img/card_backs/set1/purple.gif","img/card_backs/set2/blue.gif","img/card_backs/set2/pink.gif","img/card_backs/set2/orange.gif","img/card_backs/set2/gray.gif","""event"",""trial"",""time""
""fullscreenenter"",""1"",""4912""
","
","
","""event"",""trial"",""time""
""fullscreenenter"",""1"",""4912""
","
","","1065","","","","real_trial","2021-04-05 08:03:23.345","img/card_backs/set1/red.gif","1","190","1","",""
"casino-fixation","92","391163","0.0-25.0-0.11","A790","false","img/card_backs/set1/green.gif","img/card_backs/set1/red.gif","img/card_backs/set1/yellow.gif","img/card_backs/set1/purple.gif","img/card_backs/set2/blue.gif","img/card_backs/set2/pink.gif","img/card_backs/set2/orange.gif","img/card_backs/set2/gray.gif","""event"",""trial"",""time""
""fullscreenenter"",""1"",""4912""
","
","
","""event"",""trial"",""time""
""fullscreenenter"",""1"",""4912""
","
","","null","","null","","fixation","2021-04-05 08:03:23.858","","","","","",""
"card-selection-trial","93","394254","0.0-25.0-1.11","A790","false","img/card_backs/set1/green.gif","img/card_backs/set1/red.gif","img/card_backs/set1/yellow.gif","img/card_backs/set1/purple.gif","img/card_backs/set2/blue.gif","img/card_backs/set2/pink.gif","img/card_backs/set2/orange.gif","img/card_backs/set2/gray.gif","""event"",""trial"",""time""
""fullscreenenter"",""1"",""4912""
","
","
","""event"",""trial"",""time""
""fullscreenenter"",""1"",""4912""
","
","","1078","","","","real_trial","2021-04-05 08:03:26.949","img/card_backs/set1/red.gif","3","180","1","",""
"casino-fixation","94","394763","0.0-25.0-0.12","A790","false","img/card_backs/set1/green.gif","img/card_backs/set1/red.gif","img/card_backs/set1/yellow.gif","img/card_backs/set1/purple.gif","img/card_backs/set2/blue.gif","img/card_backs/set2/pink.gif","img/card_backs/set2/orange.gif","img/card_backs/set2/gray.gif","""event"",""trial"",""time""
""fullscreenenter"",""1"",""4912""
","
","
","""event"",""trial"",""time""
""fullscreenenter"",""1"",""4912""
","
","","null","","null","","fixation","2021-04-05 08:03:27.459","","","","","",""
"card-selection-trial","95","397985","0.0-25.0-1.12","A790","false","img/card_backs/set1/green.gif","img/card_backs/set1/red.gif","img/card_backs/set1/yellow.gif","img/card_backs/set1/purple.gif","img/card_backs/set2/blue.gif","img/card_backs/set2/pink.gif","img/card_backs/set2/orange.gif","img/card_backs/set2/gray.gif","""event"",""trial"",""time""
""fullscreenenter"",""1"",""4912""
","
","
","""event"",""trial"",""time""
""fullscreenenter"",""1"",""4912""
","
","","1200","","","","real_trial","2021-04-05 08:03:30.681","img/card_backs/set1/red.gif","1","180","1","",""
"casino-fixation","96","398493","0.0-25.0-0.13","A790","false","img/card_backs/set1/green.gif","img/card_backs/set1/red.gif","img/card_backs/set1/yellow.gif","img/card_backs/set1/purple.gif","img/card_backs/set2/blue.gif","img/card_backs/set2/pink.gif","img/card_backs/set2/orange.gif","img/card_backs/set2/gray.gif","""event"",""trial"",""time""
""fullscreenenter"",""1"",""4912""
","
","
","""event"",""trial"",""time""
""fullscreenenter"",""1"",""4912""
","
","","null","","null","","fixation","2021-04-05 08:03:31.188","","","","","",""
"card-selection-trial","97","401884","0.0-25.0-1.13","A790","false","img/card_backs/set1/green.gif","img/card_backs/set1/red.gif","img/card_backs/set1/yellow.gif","img/card_backs/set1/purple.gif","img/card_backs/set2/blue.gif","img/card_backs/set2/pink.gif","img/card_backs/set2/orange.gif","img/card_backs/set2/gray.gif","""event"",""trial"",""time""
""fullscreenenter"",""1"",""4912""
","
","
","""event"",""trial"",""time""
""fullscreenenter"",""1"",""4912""
","
","","1364","","","","real_trial","2021-04-05 08:03:34.579","img/card_backs/set1/red.gif","2","-240","1","",""
"casino-fixation","98","402401","0.0-25.0-0.14","A790","false","img/card_backs/set1/green.gif","img/card_backs/set1/red.gif","img/card_backs/set1/yellow.gif","img/card_backs/set1/purple.gif","img/card_backs/set2/blue.gif","img/card_backs/set2/pink.gif","img/card_backs/set2/orange.gif","img/card_backs/set2/gray.gif","""event"",""trial"",""time""
""fullscreenenter"",""1"",""4912""
","
","
","""event"",""trial"",""time""
""fullscreenenter"",""1"",""4912""
","
","","null","","null","","fixation","2021-04-05 08:03:35.097","","","","","",""
"card-selection-trial","99","405354","0.0-25.0-1.14","A790","false","img/card_backs/set1/green.gif","img/card_backs/set1/red.gif","img/card_backs/set1/yellow.gif","img/card_backs/set1/purple.gif","img/card_backs/set2/blue.gif","img/card_backs/set2/pink.gif","img/card_backs/set2/orange.gif","img/card_backs/set2/gray.gif","""event"",""trial"",""time""
""fullscreenenter"",""1"",""4912""
","
","
","""event"",""trial"",""time""
""fullscreenenter"",""1"",""4912""
","
","","937","","","","real_trial","2021-04-05 08:03:38.049","img/card_backs/set1/red.gif","3","180","1","",""
"casino-fixation","100","405863","0.0-25.0-0.15","A790","false","img/card_backs/set1/green.gif","img/card_backs/set1/red.gif","img/card_backs/set1/yellow.gif","img/card_backs/set1/purple.gif","img/card_backs/set2/blue.gif","img/card_backs/set2/pink.gif","img/card_backs/set2/orange.gif","img/card_backs/set2/gray.gif","""event"",""trial"",""time""
""fullscreenenter"",""1"",""4912""
","
","
","""event"",""trial"",""time""
""fullscreenenter"",""1"",""4912""
","
","","null","","null","","fixation","2021-04-05 08:03:38.558","","","","","",""
"card-selection-trial","101","408554","0.0-25.0-1.15","A790","false","img/card_backs/set1/green.gif","img/card_backs/set1/red.gif","img/card_backs/set1/yellow.gif","img/card_backs/set1/purple.gif","img/card_backs/set2/blue.gif","img/card_backs/set2/pink.gif","img/card_backs/set2/orange.gif","img/card_backs/set2/gray.gif","""event"",""trial"",""time""
""fullscreenenter"",""1"",""4912""
","
","
","""event"",""trial"",""time""
""fullscreenenter"",""1"",""4912""
","
","","671","","","","real_trial","2021-04-05 08:03:41.249","img/card_backs/set1/red.gif","3","180","1","",""
"casino-fixation","102","409063","0.0-25.0-0.16","A790","false","img/card_backs/set1/green.gif","img/card_backs/set1/red.gif","img/card_backs/set1/yellow.gif","img/card_backs/set1/purple.gif","img/card_backs/set2/blue.gif","img/card_backs/set2/pink.gif","img/card_backs/set2/orange.gif","img/card_backs/set2/gray.gif","""event"",""trial"",""time""
""fullscreenenter"",""1"",""4912""
","
","
","""event"",""trial"",""time""
""fullscreenenter"",""1"",""4912""
","
","","null","","null","","fixation","2021-04-05 08:03:41.758","","","","","",""
"card-selection-trial","103","412524","0.0-25.0-1.16","A790","false","img/card_backs/set1/green.gif","img/card_backs/set1/red.gif","img/card_backs/set1/yellow.gif","img/card_backs/set1/purple.gif","img/card_backs/set2/blue.gif","img/card_backs/set2/pink.gif","img/card_backs/set2/orange.gif","img/card_backs/set2/gray.gif","""event"",""trial"",""time""
""fullscreenenter"",""1"",""4912""
","
","
","""event"",""trial"",""time""
""fullscreenenter"",""1"",""4912""
","
","","1435","","","","real_trial","2021-04-05 08:03:45.219","img/card_backs/set1/purple.gif","2","120","1","",""
"casino-fixation","104","413044","0.0-25.0-0.17","A790","false","img/card_backs/set1/green.gif","img/card_backs/set1/red.gif","img/card_backs/set1/yellow.gif","img/card_backs/set1/purple.gif","img/card_backs/set2/blue.gif","img/card_backs/set2/pink.gif","img/card_backs/set2/orange.gif","img/card_backs/set2/gray.gif","""event"",""trial"",""time""
""fullscreenenter"",""1"",""4912""
","
","
","""event"",""trial"",""time""
""fullscreenenter"",""1"",""4912""
","
","","null","","null","","fixation","2021-04-05 08:03:45.739","","","","","",""
"card-selection-trial","105","416754","0.0-25.0-1.17","A790","false","img/card_backs/set1/green.gif","img/card_backs/set1/red.gif","img/card_backs/set1/yellow.gif","img/card_backs/set1/purple.gif","img/card_backs/set2/blue.gif","img/card_backs/set2/pink.gif","img/card_backs/set2/orange.gif","img/card_backs/set2/gray.gif","""event"",""trial"",""time""
""fullscreenenter"",""1"",""4912""
","
","
","""event"",""trial"",""time""
""fullscreenenter"",""1"",""4912""
","
","","1692","","","","real_trial","2021-04-05 08:03:49.450","img/card_backs/set1/purple.gif","0","120","1","",""
"casino-fixation","106","417273","0.0-25.0-0.18","A790","false","img/card_backs/set1/green.gif","img/card_backs/set1/red.gif","img/card_backs/set1/yellow.gif","img/card_backs/set1/purple.gif","img/card_backs/set2/blue.gif","img/card_backs/set2/pink.gif","img/card_backs/set2/orange.gif","img/card_backs/set2/gray.gif","""event"",""trial"",""time""
""fullscreenenter"",""1"",""4912""
","
","
","""event"",""trial"",""time""
""fullscreenenter"",""1"",""4912""
","
","","null","","null","","fixation","2021-04-05 08:03:49.968","","","","","",""
"card-selection-trial","107","419994","0.0-25.0-1.18","A790","false","img/card_backs/set1/green.gif","img/card_backs/set1/red.gif","img/card_backs/set1/yellow.gif","img/card_backs/set1/purple.gif","img/card_backs/set2/blue.gif","img/card_backs/set2/pink.gif","img/card_backs/set2/orange.gif","img/card_backs/set2/gray.gif","""event"",""trial"",""time""
""fullscreenenter"",""1"",""4912""
","
","
","""event"",""trial"",""time""
""fullscreenenter"",""1"",""4912""
","
","","705","","","","real_trial","2021-04-05 08:03:52.689","img/card_backs/set1/purple.gif","2","110","1","",""
"casino-fixation","108","420503","0.0-25.0-0.19","A790","false","img/card_backs/set1/green.gif","img/card_backs/set1/red.gif","img/card_backs/set1/yellow.gif","img/card_backs/set1/purple.gif","img/card_backs/set2/blue.gif","img/card_backs/set2/pink.gif","img/card_backs/set2/orange.gif","img/card_backs/set2/gray.gif","""event"",""trial"",""time""
""fullscreenenter"",""1"",""4912""
","
","
","""event"",""trial"",""time""
""fullscreenenter"",""1"",""4912""
","
","","null","","null","","fixation","2021-04-05 08:03:53.199","","","","","",""
"card-selection-trial","109","423234","0.0-25.0-1.19","A790","false","img/card_backs/set1/green.gif","img/card_backs/set1/red.gif","img/card_backs/set1/yellow.gif","img/card_backs/set1/purple.gif","img/card_backs/set2/blue.gif","img/card_backs/set2/pink.gif","img/card_backs/set2/orange.gif","img/card_backs/set2/gray.gif","""event"",""trial"",""time""
""fullscreenenter"",""1"",""4912""
","
","
","""event"",""trial"",""time""
""fullscreenenter"",""1"",""4912""
","
","","712","","","","real_trial","2021-04-05 08:03:55.930","img/card_backs/set1/purple.gif","2","100","1","",""
"casino-fixation","110","423755","0.0-25.0-0.20","A790","false","img/card_backs/set1/green.gif","img/card_backs/set1/red.gif","img/card_backs/set1/yellow.gif","img/card_backs/set1/purple.gif","img/card_backs/set2/blue.gif","img/card_backs/set2/pink.gif","img/card_backs/set2/orange.gif","img/card_backs/set2/gray.gif","""event"",""trial"",""time""
""fullscreenenter"",""1"",""4912""
","
","
","""event"",""trial"",""time""
""fullscreenenter"",""1"",""4912""
","
","","null","","null","","fixation","2021-04-05 08:03:56.450","","","","","",""
"card-selection-trial","111","427103","0.0-25.0-1.20","A790","false","img/card_backs/set1/green.gif","img/card_backs/set1/red.gif","img/card_backs/set1/yellow.gif","img/card_backs/set1/purple.gif","img/card_backs/set2/blue.gif","img/card_backs/set2/pink.gif","img/card_backs/set2/orange.gif","img/card_backs/set2/gray.gif","""event"",""trial"",""time""
""fullscreenenter"",""1"",""4912""
","
","
","""event"",""trial"",""time""
""fullscreenenter"",""1"",""4912""
","
","","1325","","","","real_trial","2021-04-05 08:03:59.799","img/card_backs/set1/purple.gif","1","120","1","",""
"casino-fixation","112","427624","0.0-25.0-0.21","A790","false","img/card_backs/set1/green.gif","img/card_backs/set1/red.gif","img/card_backs/set1/yellow.gif","img/card_backs/set1/purple.gif","img/card_backs/set2/blue.gif","img/card_backs/set2/pink.gif","img/card_backs/set2/orange.gif","img/card_backs/set2/gray.gif","""event"",""trial"",""time""
""fullscreenenter"",""1"",""4912""
","
","
","""event"",""trial"",""time""
""fullscreenenter"",""1"",""4912""
","
","","null","","null","","fixation","2021-04-05 08:04:00.319","","","","","",""
"card-selection-trial","113","430554","0.0-25.0-1.21","A790","false","img/card_backs/set1/green.gif","img/card_backs/set1/red.gif","img/card_backs/set1/yellow.gif","img/card_backs/set1/purple.gif","img/card_backs/set2/blue.gif","img/card_backs/set2/pink.gif","img/card_backs/set2/orange.gif","img/card_backs/set2/gray.gif","""event"",""trial"",""time""
""fullscreenenter"",""1"",""4912""
","
","
","""event"",""trial"",""time""
""fullscreenenter"",""1"",""4912""
","
","","909","","","","real_trial","2021-04-05 08:04:03.249","img/card_backs/set1/purple.gif","1","110","1","",""
"casino-fixation","114","431062","0.0-25.0-0.22","A790","false","img/card_backs/set1/green.gif","img/card_backs/set1/red.gif","img/card_backs/set1/yellow.gif","img/card_backs/set1/purple.gif","img/card_backs/set2/blue.gif","img/card_backs/set2/pink.gif","img/card_backs/set2/orange.gif","img/card_backs/set2/gray.gif","""event"",""trial"",""time""
""fullscreenenter"",""1"",""4912""
","
","
","""event"",""trial"",""time""
""fullscreenenter"",""1"",""4912""
","
","","null","","null","","fixation","2021-04-05 08:04:03.758","","","","","",""
"card-selection-trial","115","433634","0.0-25.0-1.22","A790","false","img/card_backs/set1/green.gif","img/card_backs/set1/red.gif","img/card_backs/set1/yellow.gif","img/card_backs/set1/purple.gif","img/card_backs/set2/blue.gif","img/card_backs/set2/pink.gif","img/card_backs/set2/orange.gif","img/card_backs/set2/gray.gif","""event"",""trial"",""time""
""fullscreenenter"",""1"",""4912""
","
","
","""event"",""trial"",""time""
""fullscreenenter"",""1"",""4912""
","
","","559","","","","real_trial","2021-04-05 08:04:06.330","img/card_backs/set1/purple.gif","1","110","1","",""
"casino-fixation","116","434153","0.0-25.0-0.23","A790","false","img/card_backs/set1/green.gif","img/card_backs/set1/red.gif","img/card_backs/set1/yellow.gif","img/card_backs/set1/purple.gif","img/card_backs/set2/blue.gif","img/card_backs/set2/pink.gif","img/card_backs/set2/orange.gif","img/card_backs/set2/gray.gif","""event"",""trial"",""time""
""fullscreenenter"",""1"",""4912""
","
","
","""event"",""trial"",""time""
""fullscreenenter"",""1"",""4912""
","
","","null","","null","","fixation","2021-04-05 08:04:06.848","","","","","",""
"card-selection-trial","117","437514","0.0-25.0-1.23","A790","false","img/card_backs/set1/green.gif","img/card_backs/set1/red.gif","img/card_backs/set1/yellow.gif","img/card_backs/set1/purple.gif","img/card_backs/set2/blue.gif","img/card_backs/set2/pink.gif","img/card_backs/set2/orange.gif","img/card_backs/set2/gray.gif","""event"",""trial"",""time""
""fullscreenenter"",""1"",""4912""
","
","
","""event"",""trial"",""time""
""fullscreenenter"",""1"",""4912""
","
","","1349","","","","real_trial","2021-04-05 08:04:10.209","img/card_backs/set1/purple.gif","0","-60","1","",""
"casino-fixation","118","438033","0.0-25.0-0.24","A790","false","img/card_backs/set1/green.gif","img/card_backs/set1/red.gif","img/card_backs/set1/yellow.gif","img/card_backs/set1/purple.gif","img/card_backs/set2/blue.gif","img/card_backs/set2/pink.gif","img/card_backs/set2/orange.gif","img/card_backs/set2/gray.gif","""event"",""trial"",""time""
""fullscreenenter"",""1"",""4912""
","
","
","""event"",""trial"",""time""
""fullscreenenter"",""1"",""4912""
","
","","null","","null","","fixation","2021-04-05 08:04:10.728","","","","","",""
"card-selection-trial","119","441077","0.0-25.0-1.24","A790","false","img/card_backs/set1/green.gif","img/card_backs/set1/red.gif","img/card_backs/set1/yellow.gif","img/card_backs/set1/purple.gif","img/card_backs/set2/blue.gif","img/card_backs/set2/pink.gif","img/card_backs/set2/orange.gif","img/card_backs/set2/gray.gif","""event"",""trial"",""time""
""fullscreenenter"",""1"",""4912""
","
","
","""event"",""trial"",""time""
""fullscreenenter"",""1"",""4912""
","
","","1017","","","","real_trial","2021-04-05 08:04:13.772","img/card_backs/set1/purple.gif","0","-70","1","",""
"casino-fixation","120","441593","0.0-25.0-0.25","A790","false","img/card_backs/set1/green.gif","img/card_backs/set1/red.gif","img/card_backs/set1/yellow.gif","img/card_backs/set1/purple.gif","img/card_backs/set2/blue.gif","img/card_backs/set2/pink.gif","img/card_backs/set2/orange.gif","img/card_backs/set2/gray.gif","""event"",""trial"",""time""
""fullscreenenter"",""1"",""4912""
","
","
","""event"",""trial"",""time""
""fullscreenenter"",""1"",""4912""
","
","","null","","null","","fixation","2021-04-05 08:04:14.288","","","","","",""
"card-selection-trial","121","444345","0.0-25.0-1.25","A790","false","img/card_backs/set1/green.gif","img/card_backs/set1/red.gif","img/card_backs/set1/yellow.gif","img/card_backs/set1/purple.gif","img/card_backs/set2/blue.gif","img/card_backs/set2/pink.gif","img/card_backs/set2/orange.gif","img/card_backs/set2/gray.gif","""event"",""trial"",""time""
""fullscreenenter"",""1"",""4912""
","
","
","""event"",""trial"",""time""
""fullscreenenter"",""1"",""4912""
","
","","735","","","","real_trial","2021-04-05 08:04:17.040","img/card_backs/set1/yellow.gif","1","100","1","",""
"casino-fixation","122","444863","0.0-25.0-0.26","A790","false","img/card_backs/set1/green.gif","img/card_backs/set1/red.gif","img/card_backs/set1/yellow.gif","img/card_backs/set1/purple.gif","img/card_backs/set2/blue.gif","img/card_backs/set2/pink.gif","img/card_backs/set2/orange.gif","img/card_backs/set2/gray.gif","""event"",""trial"",""time""
""fullscreenenter"",""1"",""4912""
","
","
","""event"",""trial"",""time""
""fullscreenenter"",""1"",""4912""
","
","","null","","null","","fixation","2021-04-05 08:04:17.558","","","","","",""
"card-selection-trial","123","447774","0.0-25.0-1.26","A790","false","img/card_backs/set1/green.gif","img/card_backs/set1/red.gif","img/card_backs/set1/yellow.gif","img/card_backs/set1/purple.gif","img/card_backs/set2/blue.gif","img/card_backs/set2/pink.gif","img/card_backs/set2/orange.gif","img/card_backs/set2/gray.gif","""event"",""trial"",""time""
""fullscreenenter"",""1"",""4912""
","
","
","""event"",""trial"",""time""
""fullscreenenter"",""1"",""4912""
","
","","898","","","","real_trial","2021-04-05 08:04:20.469","img/card_backs/set1/purple.gif","0","-60","1","",""
"casino-fixation","124","448294","0.0-25.0-0.27","A790","false","img/card_backs/set1/green.gif","img/card_backs/set1/red.gif","img/card_backs/set1/yellow.gif","img/card_backs/set1/purple.gif","img/card_backs/set2/blue.gif","img/card_backs/set2/pink.gif","img/card_backs/set2/orange.gif","img/card_backs/set2/gray.gif","""event"",""trial"",""time""
""fullscreenenter"",""1"",""4912""
","
","
","""event"",""trial"",""time""
""fullscreenenter"",""1"",""4912""
","
","","null","","null","","fixation","2021-04-05 08:04:20.989","","","","","",""
"card-selection-trial","125","452364","0.0-25.0-1.27","A790","false","img/card_backs/set1/green.gif","img/card_backs/set1/red.gif","img/card_backs/set1/yellow.gif","img/card_backs/set1/purple.gif","img/card_backs/set2/blue.gif","img/card_backs/set2/pink.gif","img/card_backs/set2/orange.gif","img/card_backs/set2/gray.gif","""event"",""trial"",""time""
""fullscreenenter"",""1"",""4912""
","
","
","""event"",""trial"",""time""
""fullscreenenter"",""1"",""4912""
","
","","2058","","","","real_trial","2021-04-05 08:04:25.059","img/card_backs/set1/purple.gif","1","-50","1","",""
"casino-fixation","126","452883","0.0-25.0-0.28","A790","false","img/card_backs/set1/green.gif","img/card_backs/set1/red.gif","img/card_backs/set1/yellow.gif","img/card_backs/set1/purple.gif","img/card_backs/set2/blue.gif","img/card_backs/set2/pink.gif","img/card_backs/set2/orange.gif","img/card_backs/set2/gray.gif","""event"",""trial"",""time""
""fullscreenenter"",""1"",""4912""
","
","
","""event"",""trial"",""time""
""fullscreenenter"",""1"",""4912""
","
","","null","","null","","fixation","2021-04-05 08:04:25.579","","","","","",""
"card-selection-trial","127","457315","0.0-25.0-1.28","A790","false","img/card_backs/set1/green.gif","img/card_backs/set1/red.gif","img/card_backs/set1/yellow.gif","img/card_backs/set1/purple.gif","img/card_backs/set2/blue.gif","img/card_backs/set2/pink.gif","img/card_backs/set2/orange.gif","img/card_backs/set2/gray.gif","""event"",""trial"",""time""
""fullscreenenter"",""1"",""4912""
","
","
","""event"",""trial"",""time""
""fullscreenenter"",""1"",""4912""
","
","","2401","","","","real_trial","2021-04-05 08:04:30.010","img/card_backs/set1/yellow.gif","0","-50","1","",""
"casino-fixation","128","457833","0.0-25.0-0.29","A790","false","img/card_backs/set1/green.gif","img/card_backs/set1/red.gif","img/card_backs/set1/yellow.gif","img/card_backs/set1/purple.gif","img/card_backs/set2/blue.gif","img/card_backs/set2/pink.gif","img/card_backs/set2/orange.gif","img/card_backs/set2/gray.gif","""event"",""trial"",""time""
""fullscreenenter"",""1"",""4912""
","
","
","""event"",""trial"",""time""
""fullscreenenter"",""1"",""4912""
","
","","null","","null","","fixation","2021-04-05 08:04:30.528","","","","","",""
"card-selection-trial","129","461974","0.0-25.0-1.29","A790","false","img/card_backs/set1/green.gif","img/card_backs/set1/red.gif","img/card_backs/set1/yellow.gif","img/card_backs/set1/purple.gif","img/card_backs/set2/blue.gif","img/card_backs/set2/pink.gif","img/card_backs/set2/orange.gif","img/card_backs/set2/gray.gif","""event"",""trial"",""time""
""fullscreenenter"",""1"",""4912""
","
","
","""event"",""trial"",""time""
""fullscreenenter"",""1"",""4912""
","
","","2119","","","","real_trial","2021-04-05 08:04:34.670","img/card_backs/set1/green.gif","3","-230","1","",""
"casino-fixation","130","462481","0.0-25.0-0.30","A790","false","img/card_backs/set1/green.gif","img/card_backs/set1/red.gif","img/card_backs/set1/yellow.gif","img/card_backs/set1/purple.gif","img/card_backs/set2/blue.gif","img/card_backs/set2/pink.gif","img/card_backs/set2/orange.gif","img/card_backs/set2/gray.gif","""event"",""trial"",""time""
""fullscreenenter"",""1"",""4912""
","
","
","""event"",""trial"",""time""
""fullscreenenter"",""1"",""4912""
","
","","null","","null","","fixation","2021-04-05 08:04:35.176","","","","","",""
"card-selection-trial","131","465793","0.0-25.0-1.30","A790","false","img/card_backs/set1/green.gif","img/card_backs/set1/red.gif","img/card_backs/set1/yellow.gif","img/card_backs/set1/purple.gif","img/card_backs/set2/blue.gif","img/card_backs/set2/pink.gif","img/card_backs/set2/orange.gif","img/card_backs/set2/gray.gif","""event"",""trial"",""time""
""fullscreenenter"",""1"",""4912""
","
","
","""event"",""trial"",""time""
""fullscreenenter"",""1"",""4912""
","
","","1299","","","","real_trial","2021-04-05 08:04:38.489","img/card_backs/set1/red.gif","1","-250","1","",""
"casino-fixation","132","466313","0.0-25.0-0.31","A790","false","img/card_backs/set1/green.gif","img/card_backs/set1/red.gif","img/card_backs/set1/yellow.gif","img/card_backs/set1/purple.gif","img/card_backs/set2/blue.gif","img/card_backs/set2/pink.gif","img/card_backs/set2/orange.gif","img/card_backs/set2/gray.gif","""event"",""trial"",""time""
""fullscreenenter"",""1"",""4912""
","
","
","""event"",""trial"",""time""
""fullscreenenter"",""1"",""4912""
","
","","null","","null","","fixation","2021-04-05 08:04:39.009","","","","","",""
"card-selection-trial","133","470124","0.0-25.0-1.31","A790","false","img/card_backs/set1/green.gif","img/card_backs/set1/red.gif","img/card_backs/set1/yellow.gif","img/card_backs/set1/purple.gif","img/card_backs/set2/blue.gif","img/card_backs/set2/pink.gif","img/card_backs/set2/orange.gif","img/card_backs/set2/gray.gif","""event"",""trial"",""time""
""fullscreenenter"",""1"",""4912""
","
","
","""event"",""trial"",""time""
""fullscreenenter"",""1"",""4912""
","
","","1784","","","","real_trial","2021-04-05 08:04:42.820","img/card_backs/set1/red.gif","0","200","1","",""
"casino-fixation","134","470634","0.0-25.0-0.32","A790","false","img/card_backs/set1/green.gif","img/card_backs/set1/red.gif","img/card_backs/set1/yellow.gif","img/card_backs/set1/purple.gif","img/card_backs/set2/blue.gif","img/card_backs/set2/pink.gif","img/card_backs/set2/orange.gif","img/card_backs/set2/gray.gif","""event"",""trial"",""time""
""fullscreenenter"",""1"",""4912""
","
","
","""event"",""trial"",""time""
""fullscreenenter"",""1"",""4912""
","
","","null","","null","","fixation","2021-04-05 08:04:43.329","","","","","",""
"card-selection-trial","135","473254","0.0-25.0-1.32","A790","false","img/card_backs/set1/green.gif","img/card_backs/set1/red.gif","img/card_backs/set1/yellow.gif","img/card_backs/set1/purple.gif","img/card_backs/set2/blue.gif","img/card_backs/set2/pink.gif","img/card_backs/set2/orange.gif","img/card_backs/set2/gray.gif","""event"",""trial"",""time""
""fullscreenenter"",""1"",""4912""
","
","
","""event"",""trial"",""time""
""fullscreenenter"",""1"",""4912""
","
","","595","","","","real_trial","2021-04-05 08:04:45.949","img/card_backs/set1/red.gif","0","190","1","",""
"casino-fixation","136","473772","0.0-25.0-0.33","A790","false","img/card_backs/set1/green.gif","img/card_backs/set1/red.gif","img/card_backs/set1/yellow.gif","img/card_backs/set1/purple.gif","img/card_backs/set2/blue.gif","img/card_backs/set2/pink.gif","img/card_backs/set2/orange.gif","img/card_backs/set2/gray.gif","""event"",""trial"",""time""
""fullscreenenter"",""1"",""4912""
","
","
","""event"",""trial"",""time""
""fullscreenenter"",""1"",""4912""
","
","","null","","null","","fixation","2021-04-05 08:04:46.468","","","","","",""
"card-selection-trial","137","476633","0.0-25.0-1.33","A790","false","img/card_backs/set1/green.gif","img/card_backs/set1/red.gif","img/card_backs/set1/yellow.gif","img/card_backs/set1/purple.gif","img/card_backs/set2/blue.gif","img/card_backs/set2/pink.gif","img/card_backs/set2/orange.gif","img/card_backs/set2/gray.gif","""event"",""trial"",""time""
""fullscreenenter"",""1"",""4912""
","
","
","""event"",""trial"",""time""
""fullscreenenter"",""1"",""4912""
","
","","848","","","","real_trial","2021-04-05 08:04:49.330","img/card_backs/set1/red.gif","0","-240","1","",""
"casino-fixation","138","477145","0.0-25.0-0.34","A790","false","img/card_backs/set1/green.gif","img/card_backs/set1/red.gif","img/card_backs/set1/yellow.gif","img/card_backs/set1/purple.gif","img/card_backs/set2/blue.gif","img/card_backs/set2/pink.gif","img/card_backs/set2/orange.gif","img/card_backs/set2/gray.gif","""event"",""trial"",""time""
""fullscreenenter"",""1"",""4912""
","
","
","""event"",""trial"",""time""
""fullscreenenter"",""1"",""4912""
","
","","null","","null","","fixation","2021-04-05 08:04:49.840","","","","","",""
"card-selection-trial","139","480245","0.0-25.0-1.34","A790","false","img/card_backs/set1/green.gif","img/card_backs/set1/red.gif","img/card_backs/set1/yellow.gif","img/card_backs/set1/purple.gif","img/card_backs/set2/blue.gif","img/card_backs/set2/pink.gif","img/card_backs/set2/orange.gif","img/card_backs/set2/gray.gif","""event"",""trial"",""time""
""fullscreenenter"",""1"",""4912""
","
","
","""event"",""trial"",""time""
""fullscreenenter"",""1"",""4912""
","
","","1076","","","","real_trial","2021-04-05 08:04:52.941","img/card_backs/set1/red.gif","1","-230","1","",""
"casino-fixation","140","480754","0.0-25.0-0.35","A790","false","img/card_backs/set1/green.gif","img/card_backs/set1/red.gif","img/card_backs/set1/yellow.gif","img/card_backs/set1/purple.gif","img/card_backs/set2/blue.gif","img/card_backs/set2/pink.gif","img/card_backs/set2/orange.gif","img/card_backs/set2/gray.gif","""event"",""trial"",""time""
""fullscreenenter"",""1"",""4912""
","
","
","""event"",""trial"",""time""
""fullscreenenter"",""1"",""4912""
","
","","null","","null","","fixation","2021-04-05 08:04:53.449","","","","","",""
"card-selection-trial","141","484555","0.0-25.0-1.35","A790","false","img/card_backs/set1/green.gif","img/card_backs/set1/red.gif","img/card_backs/set1/yellow.gif","img/card_backs/set1/purple.gif","img/card_backs/set2/blue.gif","img/card_backs/set2/pink.gif","img/card_backs/set2/orange.gif","img/card_backs/set2/gray.gif","""event"",""trial"",""time""
""fullscreenenter"",""1"",""4912""
","
","
","""event"",""trial"",""time""
""fullscreenenter"",""1"",""4912""
","
","","1781","","","","real_trial","2021-04-05 08:04:57.250","img/card_backs/set1/yellow.gif","2","-60","1","",""
"casino-fixation","142","485059","0.0-25.0-0.36","A790","false","img/card_backs/set1/green.gif","img/card_backs/set1/red.gif","img/card_backs/set1/yellow.gif","img/card_backs/set1/purple.gif","img/card_backs/set2/blue.gif","img/card_backs/set2/pink.gif","img/card_backs/set2/orange.gif","img/card_backs/set2/gray.gif","""event"",""trial"",""time""
""fullscreenenter"",""1"",""4912""
","
","
","""event"",""trial"",""time""
""fullscreenenter"",""1"",""4912""
","
","","null","","null","","fixation","2021-04-05 08:04:57.754","","","","","",""
"card-selection-trial","143","488194","0.0-25.0-1.36","A790","false","img/card_backs/set1/green.gif","img/card_backs/set1/red.gif","img/card_backs/set1/yellow.gif","img/card_backs/set1/purple.gif","img/card_backs/set2/blue.gif","img/card_backs/set2/pink.gif","img/card_backs/set2/orange.gif","img/card_backs/set2/gray.gif","""event"",""trial"",""time""
""fullscreenenter"",""1"",""4912""
","
","
","""event"",""trial"",""time""
""fullscreenenter"",""1"",""4912""
","
","","1114","","","","real_trial","2021-04-05 08:05:00.889","img/card_backs/set1/purple.gif","1","-60","1","",""
"casino-fixation","144","488713","0.0-25.0-0.37","A790","false","img/card_backs/set1/green.gif","img/card_backs/set1/red.gif","img/card_backs/set1/yellow.gif","img/card_backs/set1/purple.gif","img/card_backs/set2/blue.gif","img/card_backs/set2/pink.gif","img/card_backs/set2/orange.gif","img/card_backs/set2/gray.gif","""event"",""trial"",""time""
""fullscreenenter"",""1"",""4912""
","
","
","""event"",""trial"",""time""
""fullscreenenter"",""1"",""4912""
","
","","null","","null","","fixation","2021-04-05 08:05:01.408","","","","","",""
"card-selection-trial","145","493774","0.0-25.0-1.37","A790","false","img/card_backs/set1/green.gif","img/card_backs/set1/red.gif","img/card_backs/set1/yellow.gif","img/card_backs/set1/purple.gif","img/card_backs/set2/blue.gif","img/card_backs/set2/pink.gif","img/card_backs/set2/orange.gif","img/card_backs/set2/gray.gif","""event"",""trial"",""time""
""fullscreenenter"",""1"",""4912""
","
","
","""event"",""trial"",""time""
""fullscreenenter"",""1"",""4912""
","
","","3029","","","","real_trial","2021-04-05 08:05:06.470","img/card_backs/set1/red.gif","2","-250","1","",""
"casino-fixation","146","494294","0.0-25.0-0.38","A790","false","img/card_backs/set1/green.gif","img/card_backs/set1/red.gif","img/card_backs/set1/yellow.gif","img/card_backs/set1/purple.gif","img/card_backs/set2/blue.gif","img/card_backs/set2/pink.gif","img/card_backs/set2/orange.gif","img/card_backs/set2/gray.gif","""event"",""trial"",""time""
""fullscreenenter"",""1"",""4912""
","
","
","""event"",""trial"",""time""
""fullscreenenter"",""1"",""4912""
","
","","null","","null","","fixation","2021-04-05 08:05:06.989","","","","","",""
"card-selection-trial","147","497754","0.0-25.0-1.38","A790","false","img/card_backs/set1/green.gif","img/card_backs/set1/red.gif","img/card_backs/set1/yellow.gif","img/card_backs/set1/purple.gif","img/card_backs/set2/blue.gif","img/card_backs/set2/pink.gif","img/card_backs/set2/orange.gif","img/card_backs/set2/gray.gif","""event"",""trial"",""time""
""fullscreenenter"",""1"",""4912""
","
","
","""event"",""trial"",""time""
""fullscreenenter"",""1"",""4912""
","
","","1431","","","","real_trial","2021-04-05 08:05:10.449","img/card_backs/set1/purple.gif","3","110","1","",""
"casino-fixation","148","498272","0.0-25.0-0.39","A790","false","img/card_backs/set1/green.gif","img/card_backs/set1/red.gif","img/card_backs/set1/yellow.gif","img/card_backs/set1/purple.gif","img/card_backs/set2/blue.gif","img/card_backs/set2/pink.gif","img/card_backs/set2/orange.gif","img/card_backs/set2/gray.gif","""event"",""trial"",""time""
""fullscreenenter"",""1"",""4912""
","
","
","""event"",""trial"",""time""
""fullscreenenter"",""1"",""4912""
","
","","null","","null","","fixation","2021-04-05 08:05:10.968","","","","","",""
"card-selection-trial","149","501705","0.0-25.0-1.39","A790","false","img/card_backs/set1/green.gif","img/card_backs/set1/red.gif","img/card_backs/set1/yellow.gif","img/card_backs/set1/purple.gif","img/card_backs/set2/blue.gif","img/card_backs/set2/pink.gif","img/card_backs/set2/orange.gif","img/card_backs/set2/gray.gif","""event"",""trial"",""time""
""fullscreenenter"",""1"",""4912""
","
","
","""event"",""trial"",""time""
""fullscreenenter"",""1"",""4912""
","
","","1414","","","","real_trial","2021-04-05 08:05:14.400","img/card_backs/set1/purple.gif","0","120","1","",""
"casino-fixation","150","502223","0.0-25.0-0.40","A790","false","img/card_backs/set1/green.gif","img/card_backs/set1/red.gif","img/card_backs/set1/yellow.gif","img/card_backs/set1/purple.gif","img/card_backs/set2/blue.gif","img/card_backs/set2/pink.gif","img/card_backs/set2/orange.gif","img/card_backs/set2/gray.gif","""event"",""trial"",""time""
""fullscreenenter"",""1"",""4912""
","
","
","""event"",""trial"",""time""
""fullscreenenter"",""1"",""4912""
","
","","null","","null","","fixation","2021-04-05 08:05:14.919","","","","","",""
"card-selection-trial","151","505054","0.0-25.0-1.40","A790","false","img/card_backs/set1/green.gif","img/card_backs/set1/red.gif","img/card_backs/set1/yellow.gif","img/card_backs/set1/purple.gif","img/card_backs/set2/blue.gif","img/card_backs/set2/pink.gif","img/card_backs/set2/orange.gif","img/card_backs/set2/gray.gif","""event"",""trial"",""time""
""fullscreenenter"",""1"",""4912""
","
","
","""event"",""trial"",""time""
""fullscreenenter"",""1"",""4912""
","
","","819","","","","real_trial","2021-04-05 08:05:17.749","img/card_backs/set1/purple.gif","0","120","1","",""
"casino-fixation","152","505573","0.0-25.0-0.41","A790","false","img/card_backs/set1/green.gif","img/card_backs/set1/red.gif","img/card_backs/set1/yellow.gif","img/card_backs/set1/purple.gif","img/card_backs/set2/blue.gif","img/card_backs/set2/pink.gif","img/card_backs/set2/orange.gif","img/card_backs/set2/gray.gif","""event"",""trial"",""time""
""fullscreenenter"",""1"",""4912""
","
","
","""event"",""trial"",""time""
""fullscreenenter"",""1"",""4912""
","
","","null","","null","","fixation","2021-04-05 08:05:18.268","","","","","",""
"card-selection-trial","153","508784","0.0-25.0-1.41","A790","false","img/card_backs/set1/green.gif","img/card_backs/set1/red.gif","img/card_backs/set1/yellow.gif","img/card_backs/set1/purple.gif","img/card_backs/set2/blue.gif","img/card_backs/set2/pink.gif","img/card_backs/set2/orange.gif","img/card_backs/set2/gray.gif","""event"",""trial"",""time""
""fullscreenenter"",""1"",""4912""
","
","
","""event"",""trial"",""time""
""fullscreenenter"",""1"",""4912""
","
","","1186","","","","real_trial","2021-04-05 08:05:21.479","img/card_backs/set1/purple.gif","1","-50","1","",""
"casino-fixation","154","509294","0.0-25.0-0.42","A790","false","img/card_backs/set1/green.gif","img/card_backs/set1/red.gif","img/card_backs/set1/yellow.gif","img/card_backs/set1/purple.gif","img/card_backs/set2/blue.gif","img/card_backs/set2/pink.gif","img/card_backs/set2/orange.gif","img/card_backs/set2/gray.gif","""event"",""trial"",""time""
""fullscreenenter"",""1"",""4912""
","
","
","""event"",""trial"",""time""
""fullscreenenter"",""1"",""4912""
","
","","null","","null","","fixation","2021-04-05 08:05:21.989","","","","","",""
"card-selection-trial","155","512515","0.0-25.0-1.42","A790","false","img/card_backs/set1/green.gif","img/card_backs/set1/red.gif","img/card_backs/set1/yellow.gif","img/card_backs/set1/purple.gif","img/card_backs/set2/blue.gif","img/card_backs/set2/pink.gif","img/card_backs/set2/orange.gif","img/card_backs/set2/gray.gif","""event"",""trial"",""time""
""fullscreenenter"",""1"",""4912""
","
","
","""event"",""trial"",""time""
""fullscreenenter"",""1"",""4912""
","
","","1204","","","","real_trial","2021-04-05 08:05:25.210","img/card_backs/set1/red.gif","2","180","1","",""
"casino-fixation","156","513033","0.0-25.0-0.43","A790","false","img/card_backs/set1/green.gif","img/card_backs/set1/red.gif","img/card_backs/set1/yellow.gif","img/card_backs/set1/purple.gif","img/card_backs/set2/blue.gif","img/card_backs/set2/pink.gif","img/card_backs/set2/orange.gif","img/card_backs/set2/gray.gif","""event"",""trial"",""time""
""fullscreenenter"",""1"",""4912""
","
","
","""event"",""trial"",""time""
""fullscreenenter"",""1"",""4912""
","
","","null","","null","","fixation","2021-04-05 08:05:25.729","","","","","",""
"card-selection-trial","157","516384","0.0-25.0-1.43","A790","false","img/card_backs/set1/green.gif","img/card_backs/set1/red.gif","img/card_backs/set1/yellow.gif","img/card_backs/set1/purple.gif","img/card_backs/set2/blue.gif","img/card_backs/set2/pink.gif","img/card_backs/set2/orange.gif","img/card_backs/set2/gray.gif","""event"",""trial"",""time""
""fullscreenenter"",""1"",""4912""
","
","
","""event"",""trial"",""time""
""fullscreenenter"",""1"",""4912""
","
","","1320","","","","real_trial","2021-04-05 08:05:29.079","img/card_backs/set1/yellow.gif","3","-50","1","",""
"casino-fixation","158","516904","0.0-25.0-0.44","A790","false","img/card_backs/set1/green.gif","img/card_backs/set1/red.gif","img/card_backs/set1/yellow.gif","img/card_backs/set1/purple.gif","img/card_backs/set2/blue.gif","img/card_backs/set2/pink.gif","img/card_backs/set2/orange.gif","img/card_backs/set2/gray.gif","""event"",""trial"",""time""
""fullscreenenter"",""1"",""4912""
","
","
","""event"",""trial"",""time""
""fullscreenenter"",""1"",""4912""
","
","","null","","null","","fixation","2021-04-05 08:05:29.599","","","","","",""
"card-selection-trial","159","520014","0.0-25.0-1.44","A790","false","img/card_backs/set1/green.gif","img/card_backs/set1/red.gif","img/card_backs/set1/yellow.gif","img/card_backs/set1/purple.gif","img/card_backs/set2/blue.gif","img/card_backs/set2/pink.gif","img/card_backs/set2/orange.gif","img/card_backs/set2/gray.gif","""event"",""trial"",""time""
""fullscreenenter"",""1"",""4912""
","
","
","""event"",""trial"",""time""
""fullscreenenter"",""1"",""4912""
","
","","1085","","","","real_trial","2021-04-05 08:05:32.709","img/card_backs/set1/green.gif","0","-230","1","",""
"casino-fixation","160","520533","0.0-25.0-0.45","A790","false","img/card_backs/set1/green.gif","img/card_backs/set1/red.gif","img/card_backs/set1/yellow.gif","img/card_backs/set1/purple.gif","img/card_backs/set2/blue.gif","img/card_backs/set2/pink.gif","img/card_backs/set2/orange.gif","img/card_backs/set2/gray.gif","""event"",""trial"",""time""
""fullscreenenter"",""1"",""4912""
","
","
","""event"",""trial"",""time""
""fullscreenenter"",""1"",""4912""
","
","","null","","null","","fixation","2021-04-05 08:05:33.228","","","","","",""
"card-selection-trial","161","525394","0.0-25.0-1.45","A790","false","img/card_backs/set1/green.gif","img/card_backs/set1/red.gif","img/card_backs/set1/yellow.gif","img/card_backs/set1/purple.gif","img/card_backs/set2/blue.gif","img/card_backs/set2/pink.gif","img/card_backs/set2/orange.gif","img/card_backs/set2/gray.gif","""event"",""trial"",""time""
""fullscreenenter"",""1"",""4912""
","
","
","""event"",""trial"",""time""
""fullscreenenter"",""1"",""4912""
","
","","2836","","","","real_trial","2021-04-05 08:05:38.089","img/card_backs/set1/red.gif","3","-240","1","",""
"casino-fixation","162","525904","0.0-25.0-0.46","A790","false","img/card_backs/set1/green.gif","img/card_backs/set1/red.gif","img/card_backs/set1/yellow.gif","img/card_backs/set1/purple.gif","img/card_backs/set2/blue.gif","img/card_backs/set2/pink.gif","img/card_backs/set2/orange.gif","img/card_backs/set2/gray.gif","""event"",""trial"",""time""
""fullscreenenter"",""1"",""4912""
","
","
","""event"",""trial"",""time""
""fullscreenenter"",""1"",""4912""
","
","","null","","null","","fixation","2021-04-05 08:05:38.599","","","","","",""
"card-selection-trial","163","529174","0.0-25.0-1.46","A790","false","img/card_backs/set1/green.gif","img/card_backs/set1/red.gif","img/card_backs/set1/yellow.gif","img/card_backs/set1/purple.gif","img/card_backs/set2/blue.gif","img/card_backs/set2/pink.gif","img/card_backs/set2/orange.gif","img/card_backs/set2/gray.gif","""event"",""trial"",""time""
""fullscreenenter"",""1"",""4912""
","
","
","""event"",""trial"",""time""
""fullscreenenter"",""1"",""4912""
","
","","1259","","","","real_trial","2021-04-05 08:05:41.869","img/card_backs/set1/purple.gif","0","120","1","",""
"casino-fixation","164","529693","0.0-25.0-0.47","A790","false","img/card_backs/set1/green.gif","img/card_backs/set1/red.gif","img/card_backs/set1/yellow.gif","img/card_backs/set1/purple.gif","img/card_backs/set2/blue.gif","img/card_backs/set2/pink.gif","img/card_backs/set2/orange.gif","img/card_backs/set2/gray.gif","""event"",""trial"",""time""
""fullscreenenter"",""1"",""4912""
","
","
","""event"",""trial"",""time""
""fullscreenenter"",""1"",""4912""
","
","","null","","null","","fixation","2021-04-05 08:05:42.388","","","","","",""
"card-selection-trial","165","532913","0.0-25.0-1.47","A790","false","img/card_backs/set1/green.gif","img/card_backs/set1/red.gif","img/card_backs/set1/yellow.gif","img/card_backs/set1/purple.gif","img/card_backs/set2/blue.gif","img/card_backs/set2/pink.gif","img/card_backs/set2/orange.gif","img/card_backs/set2/gray.gif","""event"",""trial"",""time""
""fullscreenenter"",""1"",""4912""
","
","
","""event"",""trial"",""time""
""fullscreenenter"",""1"",""4912""
","
","","1189","","","","real_trial","2021-04-05 08:05:45.608","img/card_backs/set1/purple.gif","1","110","1","",""
"casino-fixation","166","533424","0.0-25.0-0.48","A790","false","img/card_backs/set1/green.gif","img/card_backs/set1/red.gif","img/card_backs/set1/yellow.gif","img/card_backs/set1/purple.gif","img/card_backs/set2/blue.gif","img/card_backs/set2/pink.gif","img/card_backs/set2/orange.gif","img/card_backs/set2/gray.gif","""event"",""trial"",""time""
""fullscreenenter"",""1"",""4912""
","
","
","""event"",""trial"",""time""
""fullscreenenter"",""1"",""4912""
","
","","null","","null","","fixation","2021-04-05 08:05:46.119","","","","","",""
"card-selection-trial","167","536394","0.0-25.0-1.48","A790","false","img/card_backs/set1/green.gif","img/card_backs/set1/red.gif","img/card_backs/set1/yellow.gif","img/card_backs/set1/purple.gif","img/card_backs/set2/blue.gif","img/card_backs/set2/pink.gif","img/card_backs/set2/orange.gif","img/card_backs/set2/gray.gif","""event"",""trial"",""time""
""fullscreenenter"",""1"",""4912""
","
","
","""event"",""trial"",""time""
""fullscreenenter"",""1"",""4912""
","
","","959","","","","real_trial","2021-04-05 08:05:49.089","img/card_backs/set1/purple.gif","0","120","1","",""
"casino-fixation","168","536913","0.0-25.0-0.49","A790","false","img/card_backs/set1/green.gif","img/card_backs/set1/red.gif","img/card_backs/set1/yellow.gif","img/card_backs/set1/purple.gif","img/card_backs/set2/blue.gif","img/card_backs/set2/pink.gif","img/card_backs/set2/orange.gif","img/card_backs/set2/gray.gif","""event"",""trial"",""time""
""fullscreenenter"",""1"",""4912""
","
","
","""event"",""trial"",""time""
""fullscreenenter"",""1"",""4912""
","
","","null","","null","","fixation","2021-04-05 08:05:49.608","","","","","",""
"card-selection-trial","169","540033","0.0-25.0-1.49","A790","false","img/card_backs/set1/green.gif","img/card_backs/set1/red.gif","img/card_backs/set1/yellow.gif","img/card_backs/set1/purple.gif","img/card_backs/set2/blue.gif","img/card_backs/set2/pink.gif","img/card_backs/set2/orange.gif","img/card_backs/set2/gray.gif","""event"",""trial"",""time""
