"trial_type","trial_index","time_elapsed","internal_node_id","sub_id","risk_good_first","block1_A","block1_B","block1_C","block1_D","block2_A","block2_B","block2_C","block2_D","interactions","blur_events","focus_events","fullscreenenter_events","fullscreenexit_events","success","rt","stimulus","key_press","button_pressed","task_part","timestamp","card_choice","choice_position","points_earned","block","correct","response"
"pavlovia","0","12","0.0-0.0","130","false","img/card_backs/set1/yellow.gif","img/card_backs/set1/purple.gif","img/card_backs/set1/green.gif","img/card_backs/set1/red.gif","img/card_backs/set2/orange.gif","img/card_backs/set2/pink.gif","img/card_backs/set2/gray.gif","img/card_backs/set2/blue.gif","""event"",""trial"",""time""
""fullscreenenter"",""1"",""6024""
","
","
","""event"",""trial"",""time""
""fullscreenenter"",""1"",""6024""
","
","","","","","","","","","","","","",""
"fullscreen","1","7016","0.0-1.0","130","false","img/card_backs/set1/yellow.gif","img/card_backs/set1/purple.gif","img/card_backs/set1/green.gif","img/card_backs/set1/red.gif","img/card_backs/set2/orange.gif","img/card_backs/set2/pink.gif","img/card_backs/set2/gray.gif","img/card_backs/set2/blue.gif","""event"",""trial"",""time""
""fullscreenenter"",""1"",""6024""
","
","
","""event"",""trial"",""time""
""fullscreenenter"",""1"",""6024""
","
","true","","","","","","","","","","","",""
"audio-keyboard-response","2","8886","0.0-2.0","130","false","img/card_backs/set1/yellow.gif","img/card_backs/set1/purple.gif","img/card_backs/set1/green.gif","img/card_backs/set1/red.gif","img/card_backs/set2/orange.gif","img/card_backs/set2/pink.gif","img/card_backs/set2/gray.gif","img/card_backs/set2/blue.gif","""event"",""trial"",""time""
""fullscreenenter"",""1"",""6024""
","
","
","""event"",""trial"",""time""
""fullscreenenter"",""1"",""6024""
","
","","1813","audio/beep_loop.wav","32","","","","","","","","",""
"audio-button-response","3","11036","0.0-3.0","130","false","img/card_backs/set1/yellow.gif","img/card_backs/set1/purple.gif","img/card_backs/set1/green.gif","img/card_backs/set1/red.gif","img/card_backs/set2/orange.gif","img/card_backs/set2/pink.gif","img/card_backs/set2/gray.gif","img/card_backs/set2/blue.gif","""event"",""trial"",""time""
""fullscreenenter"",""1"",""6024""
","
","
","""event"",""trial"",""time""
""fullscreenenter"",""1"",""6024""
","
","","NaN","audio/turtle.mp3","","3","","","","","","","",""
"audio-button-response","4","13456","0.0-4.0","130","false","img/card_backs/set1/yellow.gif","img/card_backs/set1/purple.gif","img/card_backs/set1/green.gif","img/card_backs/set1/red.gif","img/card_backs/set2/orange.gif","img/card_backs/set2/pink.gif","img/card_backs/set2/gray.gif","img/card_backs/set2/blue.gif","""event"",""trial"",""time""
""fullscreenenter"",""1"",""6024""
","
","
","""event"",""trial"",""time""
""fullscreenenter"",""1"",""6024""
","
","","NaN","audio/shark.mp3","","2","","","","","","","",""
"fullscreen","5","16529","0.0-5.0","130","false","img/card_backs/set1/yellow.gif","img/card_backs/set1/purple.gif","img/card_backs/set1/green.gif","img/card_backs/set1/red.gif","img/card_backs/set2/orange.gif","img/card_backs/set2/pink.gif","img/card_backs/set2/gray.gif","img/card_backs/set2/blue.gif","""event"",""trial"",""time""
""fullscreenenter"",""1"",""6024""
","
","
","""event"",""trial"",""time""
""fullscreenenter"",""1"",""6024""
","
","true","","","","","","","","","","","",""
"casino-keyboard-response","6","20084","0.0-6.0-0.0","130","false","img/card_backs/set1/yellow.gif","img/card_backs/set1/purple.gif","img/card_backs/set1/green.gif","img/card_backs/set1/red.gif","img/card_backs/set2/orange.gif","img/card_backs/set2/pink.gif","img/card_backs/set2/gray.gif","img/card_backs/set2/blue.gif","""event"",""trial"",""time""
""fullscreenenter"",""1"",""6024""
","
","
","""event"",""trial"",""time""
""fullscreenenter"",""1"",""6024""
","
","","3548.899999999907","Welcome to the casino!","71","","instructions","2021-06-30 14:43:57.033","","","","","",""
"casino-keyboard-response","7","29827","0.0-6.0-0.1","130","false","img/card_backs/set1/yellow.gif","img/card_backs/set1/purple.gif","img/card_backs/set1/green.gif","img/card_backs/set1/red.gif","img/card_backs/set2/orange.gif","img/card_backs/set2/pink.gif","img/card_backs/set2/gray.gif","img/card_backs/set2/blue.gif","""event"",""trial"",""time""
""fullscreenenter"",""1"",""6024""
","
","
","""event"",""trial"",""time""
""fullscreenenter"",""1"",""6024""
","
","","9739.200000000186","Today you will be playing a game to earn tokens. </br> At the end of the experiment, you will be paid a bonus based on how many tokens you win. ","69","","instructions","2021-06-30 14:44:06.775","","","","","",""
"casino-keyboard-response","8","37268","0.0-6.0-0.2","130","false","img/card_backs/set1/yellow.gif","img/card_backs/set1/purple.gif","img/card_backs/set1/green.gif","img/card_backs/set1/red.gif","img/card_backs/set2/orange.gif","img/card_backs/set2/pink.gif","img/card_backs/set2/gray.gif","img/card_backs/set2/blue.gif","""event"",""trial"",""time""
""fullscreenenter"",""1"",""6024""
","
","
","""event"",""trial"",""time""
""fullscreenenter"",""1"",""6024""
","
","","7437.899999999907","On every turn, you will be shown four different decks of cards. </br> You need to select a card from one of the four decks.  ","75","","instructions","2021-06-30 14:44:14.217","","","","","",""
"casino-keyboard-response","9","42054","0.0-6.0-0.3","130","false","img/card_backs/set1/yellow.gif","img/card_backs/set1/purple.gif","img/card_backs/set1/green.gif","img/card_backs/set1/red.gif","img/card_backs/set2/orange.gif","img/card_backs/set2/pink.gif","img/card_backs/set2/gray.gif","img/card_backs/set2/blue.gif","""event"",""trial"",""time""
""fullscreenenter"",""1"",""6024""
","
","
","""event"",""trial"",""time""
""fullscreenenter"",""1"",""6024""
","
","","4781.600000000093","On the next screen, you will see what the decks will look like. ","66","","instructions","2021-06-30 14:44:19.002","","","","","",""
"card-selection-trial","10","46062","0.0-7.0-0.0","130","false","img/card_backs/set1/yellow.gif","img/card_backs/set1/purple.gif","img/card_backs/set1/green.gif","img/card_backs/set1/red.gif","img/card_backs/set2/orange.gif","img/card_backs/set2/pink.gif","img/card_backs/set2/gray.gif","img/card_backs/set2/blue.gif","""event"",""trial"",""time""
""fullscreenenter"",""1"",""6024""
","
","
","""event"",""trial"",""time""
""fullscreenenter"",""1"",""6024""
","
","","null","","","","practice","2021-06-30 14:44:23.010","null","null","null","0","",""
"casino-keyboard-response","11","53691","0.0-8.0-0.0","130","false","img/card_backs/set1/yellow.gif","img/card_backs/set1/purple.gif","img/card_backs/set1/green.gif","img/card_backs/set1/red.gif","img/card_backs/set2/orange.gif","img/card_backs/set2/pink.gif","img/card_backs/set2/gray.gif","img/card_backs/set2/blue.gif","""event"",""trial"",""time""
""fullscreenenter"",""1"",""6024""
","
","
","""event"",""trial"",""time""
""fullscreenenter"",""1"",""6024""
","
","","7625.399999999907","You should pick a card from a deck using the '2', '4', '6', and '8' keys at the top of the keyboard.","85","","instructions","2021-06-30 14:44:30.639","","","","","",""
"casino-keyboard-response","12","59195","0.0-8.0-0.1","130","false","img/card_backs/set1/yellow.gif","img/card_backs/set1/purple.gif","img/card_backs/set1/green.gif","img/card_backs/set1/red.gif","img/card_backs/set2/orange.gif","img/card_backs/set2/pink.gif","img/card_backs/set2/gray.gif","img/card_backs/set2/blue.gif","""event"",""trial"",""time""
""fullscreenenter"",""1"",""6024""
","
","
","""event"",""trial"",""time""
""fullscreenenter"",""1"",""6024""
","
","","5499.200000000186","Once you select a card, it will turn over and you will see how many tokens you earned.","83","","instructions","2021-06-30 14:44:36.143","","","","","",""
"casino-keyboard-response","13","72237","0.0-8.0-0.2","130","false","img/card_backs/set1/yellow.gif","img/card_backs/set1/purple.gif","img/card_backs/set1/green.gif","img/card_backs/set1/red.gif","img/card_backs/set2/orange.gif","img/card_backs/set2/pink.gif","img/card_backs/set2/gray.gif","img/card_backs/set2/blue.gif","""event"",""trial"",""time""
""fullscreenenter"",""1"",""6024""
","
","
","""event"",""trial"",""time""
""fullscreenenter"",""1"",""6024""
","
","","13038.399999999907","Let's try practicing that! </br> First, try to put your fingers over the '2', '4', '6', and '8' keys. </br>  You can use whatever fingers are most comfortable for you. Try to find a comfortable position now. ","50","","instructions","2021-06-30 14:44:49.185","","","","","",""
"casino-keyboard-response","14","74989","0.0-8.0-0.3","130","false","img/card_backs/set1/yellow.gif","img/card_backs/set1/purple.gif","img/card_backs/set1/green.gif","img/card_backs/set1/red.gif","img/card_backs/set2/orange.gif","img/card_backs/set2/pink.gif","img/card_backs/set2/gray.gif","img/card_backs/set2/blue.gif","""event"",""trial"",""time""
""fullscreenenter"",""1"",""6024""
","
","
","""event"",""trial"",""time""
""fullscreenenter"",""1"",""6024""
","
","","2748.7000000001863","Okay ready? </br> On the next screen, press '2' to select the left deck. ","50","","instructions","2021-06-30 14:44:51.937","","","","","",""
"card-selection-trial","15","80177","0.0-9.0-0.0","130","false","img/card_backs/set1/yellow.gif","img/card_backs/set1/purple.gif","img/card_backs/set1/green.gif","img/card_backs/set1/red.gif","img/card_backs/set2/orange.gif","img/card_backs/set2/pink.gif","img/card_backs/set2/gray.gif","img/card_backs/set2/blue.gif","""event"",""trial"",""time""
""fullscreenenter"",""1"",""6024""
","
","
","""event"",""trial"",""time""
""fullscreenenter"",""1"",""6024""
","
","","3132.2000000001863","","","","practice_card_selection","2021-06-30 14:44:57.126","img/practice_cards/backs/dark_green.gif","0","200","","",""
"casino-keyboard-response","16","86121","0.0-10.0-0.0","130","false","img/card_backs/set1/yellow.gif","img/card_backs/set1/purple.gif","img/card_backs/set1/green.gif","img/card_backs/set1/red.gif","img/card_backs/set2/orange.gif","img/card_backs/set2/pink.gif","img/card_backs/set2/gray.gif","img/card_backs/set2/blue.gif","""event"",""trial"",""time""
""fullscreenenter"",""1"",""6024""
","
","
","""event"",""trial"",""time""
""fullscreenenter"",""1"",""6024""
","
","","5940.100000000093","Great! Now on the next screen, try pressing '6' to select the third deck.","54","","instructions","2021-06-30 14:45:03.070","","","","","",""
"card-selection-trial","17","88316","0.0-11.0-0.0","130","false","img/card_backs/set1/yellow.gif","img/card_backs/set1/purple.gif","img/card_backs/set1/green.gif","img/card_backs/set1/red.gif","img/card_backs/set2/orange.gif","img/card_backs/set2/pink.gif","img/card_backs/set2/gray.gif","img/card_backs/set2/blue.gif","""event"",""trial"",""time""
""fullscreenenter"",""1"",""6024""
","
","
","""event"",""trial"",""time""
""fullscreenenter"",""1"",""6024""
","
","","180.39999999990687","","","","practice_card_selection","2021-06-30 14:45:05.264","img/practice_cards/backs/dark_blue.gif","2","200","","",""
"casino-keyboard-response","18","93625","0.0-12.0-0.0","130","false","img/card_backs/set1/yellow.gif","img/card_backs/set1/purple.gif","img/card_backs/set1/green.gif","img/card_backs/set1/red.gif","img/card_backs/set2/orange.gif","img/card_backs/set2/pink.gif","img/card_backs/set2/gray.gif","img/card_backs/set2/blue.gif","""event"",""trial"",""time""
""fullscreenenter"",""1"",""6024""
","
","
","""event"",""trial"",""time""
""fullscreenenter"",""1"",""6024""
","
","","5305.200000000186","Now on the next screen, try pressing '4' to select the second deck.","52","","instructions","2021-06-30 14:45:10.573","","","","","",""
"card-selection-trial","19","96248","0.0-13.0-0.0","130","false","img/card_backs/set1/yellow.gif","img/card_backs/set1/purple.gif","img/card_backs/set1/green.gif","img/card_backs/set1/red.gif","img/card_backs/set2/orange.gif","img/card_backs/set2/pink.gif","img/card_backs/set2/gray.gif","img/card_backs/set2/blue.gif","""event"",""trial"",""time""
""fullscreenenter"",""1"",""6024""
""blur"",""20"",""99431""
""focus"",""20"",""100358""
","""event"",""trial"",""time""
""blur"",""20"",""99431""
","""event"",""trial"",""time""
""focus"",""20"",""100358""
","""event"",""trial"",""time""
""fullscreenenter"",""1"",""6024""
","
","","605.3999999999069","","","","practice_card_selection","2021-06-30 14:45:13.197","img/practice_cards/backs/brown.gif","1","100","","",""
"casino-keyboard-response","20","100697","0.0-14.0-0.0","130","false","img/card_backs/set1/yellow.gif","img/card_backs/set1/purple.gif","img/card_backs/set1/green.gif","img/card_backs/set1/red.gif","img/card_backs/set2/orange.gif","img/card_backs/set2/pink.gif","img/card_backs/set2/gray.gif","img/card_backs/set2/blue.gif","""event"",""trial"",""time""
""fullscreenenter"",""1"",""6024""
""blur"",""20"",""99431""
""focus"",""20"",""100358""
","""event"",""trial"",""time""
""blur"",""20"",""99431""
","""event"",""trial"",""time""
""focus"",""20"",""100358""
","""event"",""trial"",""time""
""fullscreenenter"",""1"",""6024""
","
","","4445.0999999996275","Finally, try pressing '8' to select the deck all the way on the right.","56","","instructions","2021-06-30 14:45:17.645","","","","","",""
"card-selection-trial","21","103211","0.0-15.0-0.0","130","false","img/card_backs/set1/yellow.gif","img/card_backs/set1/purple.gif","img/card_backs/set1/green.gif","img/card_backs/set1/red.gif","img/card_backs/set2/orange.gif","img/card_backs/set2/pink.gif","img/card_backs/set2/gray.gif","img/card_backs/set2/blue.gif","""event"",""trial"",""time""
""fullscreenenter"",""1"",""6024""
""blur"",""20"",""99431""
""focus"",""20"",""100358""
","""event"",""trial"",""time""
""blur"",""20"",""99431""
","""event"",""trial"",""time""
""focus"",""20"",""100358""
","""event"",""trial"",""time""
""fullscreenenter"",""1"",""6024""
","
","","495.1999999997206","","","","practice_card_selection","2021-06-30 14:45:20.159","img/practice_cards/backs/dark_green.gif","3","200","","",""
"casino-keyboard-response","22","107894","0.0-16.0-0.0","130","false","img/card_backs/set1/yellow.gif","img/card_backs/set1/purple.gif","img/card_backs/set1/green.gif","img/card_backs/set1/red.gif","img/card_backs/set2/orange.gif","img/card_backs/set2/pink.gif","img/card_backs/set2/gray.gif","img/card_backs/set2/blue.gif","""event"",""trial"",""time""
""fullscreenenter"",""1"",""6024""
""blur"",""20"",""99431""
""focus"",""20"",""100358""
","""event"",""trial"",""time""
""blur"",""20"",""99431""
","""event"",""trial"",""time""
""focus"",""20"",""100358""
","""event"",""trial"",""time""
""fullscreenenter"",""1"",""6024""
","
","","4679.9000000003725","Great! It seems like you are getting the hang of this.","80","","instructions","2021-06-30 14:45:24.842","","","","","",""
"casino-keyboard-response","23","115356","0.0-16.0-0.1","130","false","img/card_backs/set1/yellow.gif","img/card_backs/set1/purple.gif","img/card_backs/set1/green.gif","img/card_backs/set1/red.gif","img/card_backs/set2/orange.gif","img/card_backs/set2/pink.gif","img/card_backs/set2/gray.gif","img/card_backs/set2/blue.gif","""event"",""trial"",""time""
""fullscreenenter"",""1"",""6024""
""blur"",""20"",""99431""
""focus"",""20"",""100358""
","""event"",""trial"",""time""
""blur"",""20"",""99431""
","""event"",""trial"",""time""
""focus"",""20"",""100358""
","""event"",""trial"",""time""
""fullscreenenter"",""1"",""6024""
","
","","7456.700000000186","You may have noticed that some cards will cause you to <b> win </b> tokens while other cards will cause you to <b> lose </b>  tokens.","70","","instructions","2021-06-30 14:45:32.304","","","","","",""
"casino-keyboard-response","24","124083","0.0-16.0-0.2","130","false","img/card_backs/set1/yellow.gif","img/card_backs/set1/purple.gif","img/card_backs/set1/green.gif","img/card_backs/set1/red.gif","img/card_backs/set2/orange.gif","img/card_backs/set2/pink.gif","img/card_backs/set2/gray.gif","img/card_backs/set2/blue.gif","""event"",""trial"",""time""
""fullscreenenter"",""1"",""6024""
""blur"",""20"",""99431""
""focus"",""20"",""100358""
","""event"",""trial"",""time""
""blur"",""20"",""99431""
","""event"",""trial"",""time""
""focus"",""20"",""100358""
","""event"",""trial"",""time""
""fullscreenenter"",""1"",""6024""
","
","","8722.19999999972","Each deck has a mix of cards that will cause you to win and lose tokens. </br> However, the cards in each colored deck are different.","73","","instructions","2021-06-30 14:45:41.031","","","","","",""
"casino-keyboard-response","25","132337","0.0-16.0-0.3","130","false","img/card_backs/set1/yellow.gif","img/card_backs/set1/purple.gif","img/card_backs/set1/green.gif","img/card_backs/set1/red.gif","img/card_backs/set2/orange.gif","img/card_backs/set2/pink.gif","img/card_backs/set2/gray.gif","img/card_backs/set2/blue.gif","""event"",""trial"",""time""
""fullscreenenter"",""1"",""6024""
""blur"",""20"",""99431""
""focus"",""20"",""100358""
","""event"",""trial"",""time""
""blur"",""20"",""99431""
","""event"",""trial"",""time""
""focus"",""20"",""100358""
","""event"",""trial"",""time""
""fullscreenenter"",""1"",""6024""
","
","","8249.700000000186","Some colored decks are luckier than others. </br> If you choose the lucky decks, you will earn more tokens than if you choose the unlucky decks.","69","","instructions","2021-06-30 14:45:49.285","","","","","",""
"casino-keyboard-response","26","139461","0.0-16.0-0.4","130","false","img/card_backs/set1/yellow.gif","img/card_backs/set1/purple.gif","img/card_backs/set1/green.gif","img/card_backs/set1/red.gif","img/card_backs/set2/orange.gif","img/card_backs/set2/pink.gif","img/card_backs/set2/gray.gif","img/card_backs/set2/blue.gif","""event"",""trial"",""time""
""fullscreenenter"",""1"",""6024""
""blur"",""20"",""99431""
""focus"",""20"",""100358""
","""event"",""trial"",""time""
""blur"",""20"",""99431""
","""event"",""trial"",""time""
""focus"",""20"",""100358""
","""event"",""trial"",""time""
""fullscreenenter"",""1"",""6024""
","
","","7120.4000000003725","You should try to figure out which decks are lucky. </br> Then, try to choose the lucky decks so you can win the most tokens.","87","","instructions","2021-06-30 14:45:56.409","","","","","",""
"casino-keyboard-response","27","150898","0.0-16.0-0.5","130","false","img/card_backs/set1/yellow.gif","img/card_backs/set1/purple.gif","img/card_backs/set1/green.gif","img/card_backs/set1/red.gif","img/card_backs/set2/orange.gif","img/card_backs/set2/pink.gif","img/card_backs/set2/gray.gif","img/card_backs/set2/blue.gif","""event"",""trial"",""time""
""fullscreenenter"",""1"",""6024""
""blur"",""20"",""99431""
""focus"",""20"",""100358""
","""event"",""trial"",""time""
""blur"",""20"",""99431""
","""event"",""trial"",""time""
""focus"",""20"",""100358""
","""event"",""trial"",""time""
""fullscreenenter"",""1"",""6024""
","
","","11432.600000000093","To make it trickier, the casino dealer will switch the locations of the decks on every turn. </br> The color of the deck determines how lucky it is. The location does not matter.","88","","instructions","2021-06-30 14:46:07.846","","","","","",""
"casino-keyboard-response","28","161104","0.0-16.0-0.6","130","false","img/card_backs/set1/yellow.gif","img/card_backs/set1/purple.gif","img/card_backs/set1/green.gif","img/card_backs/set1/red.gif","img/card_backs/set2/orange.gif","img/card_backs/set2/pink.gif","img/card_backs/set2/gray.gif","img/card_backs/set2/blue.gif","""event"",""trial"",""time""
""fullscreenenter"",""1"",""6024""
""blur"",""20"",""99431""
""focus"",""20"",""100358""
","""event"",""trial"",""time""
""blur"",""20"",""99431""
","""event"",""trial"",""time""
""focus"",""20"",""100358""
","""event"",""trial"",""time""
""fullscreenenter"",""1"",""6024""
","
","","10202.5","The mix of cards in each colored deck will stay the same throughout the game. </br> That means that a deck that is lucky early on will stay lucky.","79","","instructions","2021-06-30 14:46:18.052","","","","","",""
"casino-keyboard-response","29","169287","0.0-16.0-0.7","130","false","img/card_backs/set1/yellow.gif","img/card_backs/set1/purple.gif","img/card_backs/set1/green.gif","img/card_backs/set1/red.gif","img/card_backs/set2/orange.gif","img/card_backs/set2/pink.gif","img/card_backs/set2/gray.gif","img/card_backs/set2/blue.gif","""event"",""trial"",""time""
""fullscreenenter"",""1"",""6024""
""blur"",""20"",""99431""
""focus"",""20"",""100358""
","""event"",""trial"",""time""
""blur"",""20"",""99431""
","""event"",""trial"",""time""
""focus"",""20"",""100358""
","""event"",""trial"",""time""
""fullscreenenter"",""1"",""6024""
","
","","8179.299999999814","Remember though, all the decks have a <b> mix </b> of both <b> good </b> and <b> bad </b> cards so it may take a couple of turns to figure out if a deck is lucky.","69","","instructions","2021-06-30 14:46:26.235","","","","","",""
"casino-keyboard-response","30","177700","0.0-16.0-0.8","130","false","img/card_backs/set1/yellow.gif","img/card_backs/set1/purple.gif","img/card_backs/set1/green.gif","img/card_backs/set1/red.gif","img/card_backs/set2/orange.gif","img/card_backs/set2/pink.gif","img/card_backs/set2/gray.gif","img/card_backs/set2/blue.gif","""event"",""trial"",""time""
""fullscreenenter"",""1"",""6024""
""blur"",""20"",""99431""
""focus"",""20"",""100358""
","""event"",""trial"",""time""
""blur"",""20"",""99431""
","""event"",""trial"",""time""
""focus"",""20"",""100358""
","""event"",""trial"",""time""
""fullscreenenter"",""1"",""6024""
","
","","8407.900000000373","At the end of the game, you will be paid bonus money based on how many tokens you win. </br> If you win more tokens, you will earn more money!","72","","instructions","2021-06-30 14:46:34.648","","","","","",""
"casino-keyboard-response","31","187796","0.0-16.0-0.9","130","false","img/card_backs/set1/yellow.gif","img/card_backs/set1/purple.gif","img/card_backs/set1/green.gif","img/card_backs/set1/red.gif","img/card_backs/set2/orange.gif","img/card_backs/set2/pink.gif","img/card_backs/set2/gray.gif","img/card_backs/set2/blue.gif","""event"",""trial"",""time""
""fullscreenenter"",""1"",""6024""
""blur"",""20"",""99431""
""focus"",""20"",""100358""
","""event"",""trial"",""time""
""blur"",""20"",""99431""
","""event"",""trial"",""time""
""focus"",""20"",""100358""
","""event"",""trial"",""time""
""fullscreenenter"",""1"",""6024""
","
","","10089.5","You will never <b> lose </b> money. </br> If you end up with fewer than 0 tokens, you will earn $0 of bonus money, but you will still be paid for playing the game.","83","","instructions","2021-06-30 14:46:44.744","","","","","",""
"casino-keyboard-response","32","192459","0.0-16.0-0.10","130","false","img/card_backs/set1/yellow.gif","img/card_backs/set1/purple.gif","img/card_backs/set1/green.gif","img/card_backs/set1/red.gif","img/card_backs/set2/orange.gif","img/card_backs/set2/pink.gif","img/card_backs/set2/gray.gif","img/card_backs/set2/blue.gif","""event"",""trial"",""time""
""fullscreenenter"",""1"",""6024""
""blur"",""20"",""99431""
""focus"",""20"",""100358""
","""event"",""trial"",""time""
""blur"",""20"",""99431""
","""event"",""trial"",""time""
""focus"",""20"",""100358""
","""event"",""trial"",""time""
""fullscreenenter"",""1"",""6024""
","
","","4658.399999999907","You will have 10 seconds to make each choice.","82","","instructions","2021-06-30 14:46:49.407","","","","","",""
"casino-keyboard-response","33","200790","0.0-16.0-0.11","130","false","img/card_backs/set1/yellow.gif","img/card_backs/set1/purple.gif","img/card_backs/set1/green.gif","img/card_backs/set1/red.gif","img/card_backs/set2/orange.gif","img/card_backs/set2/pink.gif","img/card_backs/set2/gray.gif","img/card_backs/set2/blue.gif","""event"",""trial"",""time""
""fullscreenenter"",""1"",""6024""
""blur"",""20"",""99431""
""focus"",""20"",""100358""
","""event"",""trial"",""time""
""blur"",""20"",""99431""
","""event"",""trial"",""time""
""focus"",""20"",""100358""
","""event"",""trial"",""time""
""fullscreenenter"",""1"",""6024""
","
","","8325.100000000093","Before you play the game for real, you will play with practice decks. </br> The tokens you earn during practice won't count toward your total.","86","","instructions","2021-06-30 14:46:57.739","","","","","",""
"casino-keyboard-response","34","211739","0.0-16.0-0.12","130","false","img/card_backs/set1/yellow.gif","img/card_backs/set1/purple.gif","img/card_backs/set1/green.gif","img/card_backs/set1/red.gif","img/card_backs/set2/orange.gif","img/card_backs/set2/pink.gif","img/card_backs/set2/gray.gif","img/card_backs/set2/blue.gif","""event"",""trial"",""time""
""fullscreenenter"",""1"",""6024""
""blur"",""20"",""99431""
""focus"",""20"",""100358""
","""event"",""trial"",""time""
""blur"",""20"",""99431""
","""event"",""trial"",""time""
""focus"",""20"",""100358""
","""event"",""trial"",""time""
""fullscreenenter"",""1"",""6024""
","
","","10943.600000000093","Ready? Remember, use the '2', '4', '6', and '8' keys to select the decks. </br> Put your fingers on those keys now and then press '2' to begin.","50","","instructions","2021-06-30 14:47:08.687","","","","","",""
"casino-fixation","35","212247","0.0-17.0-0.0","130","false","img/card_backs/set1/yellow.gif","img/card_backs/set1/purple.gif","img/card_backs/set1/green.gif","img/card_backs/set1/red.gif","img/card_backs/set2/orange.gif","img/card_backs/set2/pink.gif","img/card_backs/set2/gray.gif","img/card_backs/set2/blue.gif","""event"",""trial"",""time""
""fullscreenenter"",""1"",""6024""
""blur"",""20"",""99431""
""focus"",""20"",""100358""
","""event"",""trial"",""time""
""blur"",""20"",""99431""
","""event"",""trial"",""time""
""focus"",""20"",""100358""
","""event"",""trial"",""time""
""fullscreenenter"",""1"",""6024""
","
","","null","","null","","fixation","2021-06-30 14:47:09.195","","","","","",""
"card-selection-trial","36","215274","0.0-17.0-1.0","130","false","img/card_backs/set1/yellow.gif","img/card_backs/set1/purple.gif","img/card_backs/set1/green.gif","img/card_backs/set1/red.gif","img/card_backs/set2/orange.gif","img/card_backs/set2/pink.gif","img/card_backs/set2/gray.gif","img/card_backs/set2/blue.gif","""event"",""trial"",""time""
""fullscreenenter"",""1"",""6024""
""blur"",""20"",""99431""
""focus"",""20"",""100358""
","""event"",""trial"",""time""
""blur"",""20"",""99431""
","""event"",""trial"",""time""
""focus"",""20"",""100358""
","""event"",""trial"",""time""
""fullscreenenter"",""1"",""6024""
","
","","1013.1000000000931","","","","practice","2021-06-30 14:47:12.223","img/practice_cards/backs/dark_blue.gif","0","-200","0","",""
"casino-fixation","37","215777","0.0-17.0-0.1","130","false","img/card_backs/set1/yellow.gif","img/card_backs/set1/purple.gif","img/card_backs/set1/green.gif","img/card_backs/set1/red.gif","img/card_backs/set2/orange.gif","img/card_backs/set2/pink.gif","img/card_backs/set2/gray.gif","img/card_backs/set2/blue.gif","""event"",""trial"",""time""
""fullscreenenter"",""1"",""6024""
""blur"",""20"",""99431""
""focus"",""20"",""100358""
","""event"",""trial"",""time""
""blur"",""20"",""99431""
","""event"",""trial"",""time""
""focus"",""20"",""100358""
","""event"",""trial"",""time""
""fullscreenenter"",""1"",""6024""
","
","","null","","null","","fixation","2021-06-30 14:47:12.725","","","","","",""
"card-selection-trial","38","218338","0.0-17.0-1.1","130","false","img/card_backs/set1/yellow.gif","img/card_backs/set1/purple.gif","img/card_backs/set1/green.gif","img/card_backs/set1/red.gif","img/card_backs/set2/orange.gif","img/card_backs/set2/pink.gif","img/card_backs/set2/gray.gif","img/card_backs/set2/blue.gif","""event"",""trial"",""time""
""fullscreenenter"",""1"",""6024""
""blur"",""20"",""99431""
""focus"",""20"",""100358""
","""event"",""trial"",""time""
""blur"",""20"",""99431""
","""event"",""trial"",""time""
""focus"",""20"",""100358""
","""event"",""trial"",""time""
""fullscreenenter"",""1"",""6024""
","
","","546.5","","","","practice","2021-06-30 14:47:15.286","img/practice_cards/backs/black.gif","2","-100","0","",""
"casino-fixation","39","218840","0.0-17.0-0.2","130","false","img/card_backs/set1/yellow.gif","img/card_backs/set1/purple.gif","img/card_backs/set1/green.gif","img/card_backs/set1/red.gif","img/card_backs/set2/orange.gif","img/card_backs/set2/pink.gif","img/card_backs/set2/gray.gif","img/card_backs/set2/blue.gif","""event"",""trial"",""time""
""fullscreenenter"",""1"",""6024""
""blur"",""20"",""99431""
""focus"",""20"",""100358""
","""event"",""trial"",""time""
""blur"",""20"",""99431""
","""event"",""trial"",""time""
""focus"",""20"",""100358""
","""event"",""trial"",""time""
""fullscreenenter"",""1"",""6024""
","
","","null","","null","","fixation","2021-06-30 14:47:15.788","","","","","",""
"card-selection-trial","40","221772","0.0-17.0-1.2","130","false","img/card_backs/set1/yellow.gif","img/card_backs/set1/purple.gif","img/card_backs/set1/green.gif","img/card_backs/set1/red.gif","img/card_backs/set2/orange.gif","img/card_backs/set2/pink.gif","img/card_backs/set2/gray.gif","img/card_backs/set2/blue.gif","""event"",""trial"",""time""
""fullscreenenter"",""1"",""6024""
""blur"",""20"",""99431""
""focus"",""20"",""100358""
","""event"",""trial"",""time""
""blur"",""20"",""99431""
","""event"",""trial"",""time""
""focus"",""20"",""100358""
","""event"",""trial"",""time""
""fullscreenenter"",""1"",""6024""
","
","","916.2000000001863","","","","practice","2021-06-30 14:47:18.720","img/practice_cards/backs/dark_blue.gif","3","-200","0","",""
"casino-fixation","41","222275","0.0-17.0-0.3","130","false","img/card_backs/set1/yellow.gif","img/card_backs/set1/purple.gif","img/card_backs/set1/green.gif","img/card_backs/set1/red.gif","img/card_backs/set2/orange.gif","img/card_backs/set2/pink.gif","img/card_backs/set2/gray.gif","img/card_backs/set2/blue.gif","""event"",""trial"",""time""
""fullscreenenter"",""1"",""6024""
""blur"",""20"",""99431""
""focus"",""20"",""100358""
","""event"",""trial"",""time""
""blur"",""20"",""99431""
","""event"",""trial"",""time""
""focus"",""20"",""100358""
","""event"",""trial"",""time""
""fullscreenenter"",""1"",""6024""
","
","","null","","null","","fixation","2021-06-30 14:47:19.223","","","","","",""
"card-selection-trial","42","224737","0.0-17.0-1.3","130","false","img/card_backs/set1/yellow.gif","img/card_backs/set1/purple.gif","img/card_backs/set1/green.gif","img/card_backs/set1/red.gif","img/card_backs/set2/orange.gif","img/card_backs/set2/pink.gif","img/card_backs/set2/gray.gif","img/card_backs/set2/blue.gif","""event"",""trial"",""time""
""fullscreenenter"",""1"",""6024""
""blur"",""20"",""99431""
""focus"",""20"",""100358""
","""event"",""trial"",""time""
""blur"",""20"",""99431""
","""event"",""trial"",""time""
""focus"",""20"",""100358""
","""event"",""trial"",""time""
""fullscreenenter"",""1"",""6024""
","
","","449.20000000018626","","","","practice","2021-06-30 14:47:21.685","img/practice_cards/backs/dark_blue.gif","0","-200","0","",""
"casino-fixation","43","225240","0.0-17.0-0.4","130","false","img/card_backs/set1/yellow.gif","img/card_backs/set1/purple.gif","img/card_backs/set1/green.gif","img/card_backs/set1/red.gif","img/card_backs/set2/orange.gif","img/card_backs/set2/pink.gif","img/card_backs/set2/gray.gif","img/card_backs/set2/blue.gif","""event"",""trial"",""time""
""fullscreenenter"",""1"",""6024""
""blur"",""20"",""99431""
""focus"",""20"",""100358""
","""event"",""trial"",""time""
""blur"",""20"",""99431""
","""event"",""trial"",""time""
""focus"",""20"",""100358""
","""event"",""trial"",""time""
""fullscreenenter"",""1"",""6024""
","
","","null","","null","","fixation","2021-06-30 14:47:22.189","","","","","",""
"card-selection-trial","44","227763","0.0-17.0-1.4","130","false","img/card_backs/set1/yellow.gif","img/card_backs/set1/purple.gif","img/card_backs/set1/green.gif","img/card_backs/set1/red.gif","img/card_backs/set2/orange.gif","img/card_backs/set2/pink.gif","img/card_backs/set2/gray.gif","img/card_backs/set2/blue.gif","""event"",""trial"",""time""
""fullscreenenter"",""1"",""6024""
""blur"",""20"",""99431""
""focus"",""20"",""100358""
","""event"",""trial"",""time""
""blur"",""20"",""99431""
","""event"",""trial"",""time""
""focus"",""20"",""100358""
","""event"",""trial"",""time""
""fullscreenenter"",""1"",""6024""
","
","","508.5","","","","practice","2021-06-30 14:47:24.711","img/practice_cards/backs/black.gif","1","-100","0","",""
"casino-fixation","45","228267","0.0-17.0-0.5","130","false","img/card_backs/set1/yellow.gif","img/card_backs/set1/purple.gif","img/card_backs/set1/green.gif","img/card_backs/set1/red.gif","img/card_backs/set2/orange.gif","img/card_backs/set2/pink.gif","img/card_backs/set2/gray.gif","img/card_backs/set2/blue.gif","""event"",""trial"",""time""
""fullscreenenter"",""1"",""6024""
""blur"",""20"",""99431""
""focus"",""20"",""100358""
","""event"",""trial"",""time""
""blur"",""20"",""99431""
","""event"",""trial"",""time""
""focus"",""20"",""100358""
","""event"",""trial"",""time""
""fullscreenenter"",""1"",""6024""
","
","","null","","null","","fixation","2021-06-30 14:47:25.215","","","","","",""
"card-selection-trial","46","230654","0.0-17.0-1.5","130","false","img/card_backs/set1/yellow.gif","img/card_backs/set1/purple.gif","img/card_backs/set1/green.gif","img/card_backs/set1/red.gif","img/card_backs/set2/orange.gif","img/card_backs/set2/pink.gif","img/card_backs/set2/gray.gif","img/card_backs/set2/blue.gif","""event"",""trial"",""time""
""fullscreenenter"",""1"",""6024""
""blur"",""20"",""99431""
""focus"",""20"",""100358""
","""event"",""trial"",""time""
""blur"",""20"",""99431""
","""event"",""trial"",""time""
""focus"",""20"",""100358""
","""event"",""trial"",""time""
""fullscreenenter"",""1"",""6024""
","
","","375.5","","","","practice","2021-06-30 14:47:27.602","img/practice_cards/backs/dark_green.gif","0","200","0","",""
"casino-fixation","47","231157","0.0-17.0-0.6","130","false","img/card_backs/set1/yellow.gif","img/card_backs/set1/purple.gif","img/card_backs/set1/green.gif","img/card_backs/set1/red.gif","img/card_backs/set2/orange.gif","img/card_backs/set2/pink.gif","img/card_backs/set2/gray.gif","img/card_backs/set2/blue.gif","""event"",""trial"",""time""
""fullscreenenter"",""1"",""6024""
""blur"",""20"",""99431""
""focus"",""20"",""100358""
","""event"",""trial"",""time""
""blur"",""20"",""99431""
","""event"",""trial"",""time""
""focus"",""20"",""100358""
","""event"",""trial"",""time""
""fullscreenenter"",""1"",""6024""
","
","","null","","null","","fixation","2021-06-30 14:47:28.105","","","","","",""
"card-selection-trial","48","233368","0.0-17.0-1.6","130","false","img/card_backs/set1/yellow.gif","img/card_backs/set1/purple.gif","img/card_backs/set1/green.gif","img/card_backs/set1/red.gif","img/card_backs/set2/orange.gif","img/card_backs/set2/pink.gif","img/card_backs/set2/gray.gif","img/card_backs/set2/blue.gif","""event"",""trial"",""time""
""fullscreenenter"",""1"",""6024""
""blur"",""20"",""99431""
""focus"",""20"",""100358""
","""event"",""trial"",""time""
""blur"",""20"",""99431""
","""event"",""trial"",""time""
""focus"",""20"",""100358""
","""event"",""trial"",""time""
""fullscreenenter"",""1"",""6024""
","
","","199.29999999981374","","","","practice","2021-06-30 14:47:30.317","img/practice_cards/backs/dark_green.gif","0","-200","0","",""
"casino-fixation","49","233873","0.0-17.0-0.7","130","false","img/card_backs/set1/yellow.gif","img/card_backs/set1/purple.gif","img/card_backs/set1/green.gif","img/card_backs/set1/red.gif","img/card_backs/set2/orange.gif","img/card_backs/set2/pink.gif","img/card_backs/set2/gray.gif","img/card_backs/set2/blue.gif","""event"",""trial"",""time""
""fullscreenenter"",""1"",""6024""
""blur"",""20"",""99431""
""focus"",""20"",""100358""
","""event"",""trial"",""time""
""blur"",""20"",""99431""
","""event"",""trial"",""time""
""focus"",""20"",""100358""
","""event"",""trial"",""time""
""fullscreenenter"",""1"",""6024""
","
","","null","","null","","fixation","2021-06-30 14:47:30.821","","","","","",""
"card-selection-trial","50","236298","0.0-17.0-1.7","130","false","img/card_backs/set1/yellow.gif","img/card_backs/set1/purple.gif","img/card_backs/set1/green.gif","img/card_backs/set1/red.gif","img/card_backs/set2/orange.gif","img/card_backs/set2/pink.gif","img/card_backs/set2/gray.gif","img/card_backs/set2/blue.gif","""event"",""trial"",""time""
""fullscreenenter"",""1"",""6024""
""blur"",""20"",""99431""
""focus"",""20"",""100358""
","""event"",""trial"",""time""
""blur"",""20"",""99431""
","""event"",""trial"",""time""
""focus"",""20"",""100358""
","""event"",""trial"",""time""
""fullscreenenter"",""1"",""6024""
","
","","411.70000000018626","","","","practice","2021-06-30 14:47:33.247","img/practice_cards/backs/black.gif","1","100","0","",""
"casino-fixation","51","236802","0.0-17.0-0.8","130","false","img/card_backs/set1/yellow.gif","img/card_backs/set1/purple.gif","img/card_backs/set1/green.gif","img/card_backs/set1/red.gif","img/card_backs/set2/orange.gif","img/card_backs/set2/pink.gif","img/card_backs/set2/gray.gif","img/card_backs/set2/blue.gif","""event"",""trial"",""time""
""fullscreenenter"",""1"",""6024""
""blur"",""20"",""99431""
""focus"",""20"",""100358""
","""event"",""trial"",""time""
""blur"",""20"",""99431""
","""event"",""trial"",""time""
""focus"",""20"",""100358""
","""event"",""trial"",""time""
""fullscreenenter"",""1"",""6024""
","
","","null","","null","","fixation","2021-06-30 14:47:33.750","","","","","",""
"card-selection-trial","52","238823","0.0-17.0-1.8","130","false","img/card_backs/set1/yellow.gif","img/card_backs/set1/purple.gif","img/card_backs/set1/green.gif","img/card_backs/set1/red.gif","img/card_backs/set2/orange.gif","img/card_backs/set2/pink.gif","img/card_backs/set2/gray.gif","img/card_backs/set2/blue.gif","""event"",""trial"",""time""
""fullscreenenter"",""1"",""6024""
""blur"",""20"",""99431""
""focus"",""20"",""100358""
","""event"",""trial"",""time""
""blur"",""20"",""99431""
","""event"",""trial"",""time""
""focus"",""20"",""100358""
","""event"",""trial"",""time""
""fullscreenenter"",""1"",""6024""
","
","","7.100000000093132","","","","practice","2021-06-30 14:47:35.771","img/practice_cards/backs/dark_blue.gif","3","-200","0","",""
"casino-fixation","53","239328","0.0-17.0-0.9","130","false","img/card_backs/set1/yellow.gif","img/card_backs/set1/purple.gif","img/card_backs/set1/green.gif","img/card_backs/set1/red.gif","img/card_backs/set2/orange.gif","img/card_backs/set2/pink.gif","img/card_backs/set2/gray.gif","img/card_backs/set2/blue.gif","""event"",""trial"",""time""
""fullscreenenter"",""1"",""6024""
""blur"",""20"",""99431""
""focus"",""20"",""100358""
","""event"",""trial"",""time""
""blur"",""20"",""99431""
","""event"",""trial"",""time""
""focus"",""20"",""100358""
","""event"",""trial"",""time""
""fullscreenenter"",""1"",""6024""
","
","","null","","null","","fixation","2021-06-30 14:47:36.276","","","","","",""
"card-selection-trial","54","242222","0.0-17.0-1.9","130","false","img/card_backs/set1/yellow.gif","img/card_backs/set1/purple.gif","img/card_backs/set1/green.gif","img/card_backs/set1/red.gif","img/card_backs/set2/orange.gif","img/card_backs/set2/pink.gif","img/card_backs/set2/gray.gif","img/card_backs/set2/blue.gif","""event"",""trial"",""time""
""fullscreenenter"",""1"",""6024""
""blur"",""20"",""99431""
""focus"",""20"",""100358""
","""event"",""trial"",""time""
""blur"",""20"",""99431""
","""event"",""trial"",""time""
""focus"",""20"",""100358""
","""event"",""trial"",""time""
""fullscreenenter"",""1"",""6024""
","
","","874.7000000001863","","","","practice","2021-06-30 14:47:39.171","img/practice_cards/backs/dark_blue.gif","3","-200","0","",""
"casino-keyboard-response","55","245610","0.0-18.0","130","false","img/card_backs/set1/yellow.gif","img/card_backs/set1/purple.gif","img/card_backs/set1/green.gif","img/card_backs/set1/red.gif","img/card_backs/set2/orange.gif","img/card_backs/set2/pink.gif","img/card_backs/set2/gray.gif","img/card_backs/set2/blue.gif","""event"",""trial"",""time""
""fullscreenenter"",""1"",""6024""
""blur"",""20"",""99431""
""focus"",""20"",""100358""
","""event"",""trial"",""time""
""blur"",""20"",""99431""
","""event"",""trial"",""time""
""focus"",""20"",""100358""
","""event"",""trial"",""time""
""fullscreenenter"",""1"",""6024""
","
","","3383.7000000001863","You earned -1100 tokens during the practice round!","82","","","2021-06-30 14:47:42.559","","","","","",""
"casino-keyboard-response","56","250370","0.0-19.0-0.0","130","false","img/card_backs/set1/yellow.gif","img/card_backs/set1/purple.gif","img/card_backs/set1/green.gif","img/card_backs/set1/red.gif","img/card_backs/set2/orange.gif","img/card_backs/set2/pink.gif","img/card_backs/set2/gray.gif","img/card_backs/set2/blue.gif","""event"",""trial"",""time""
""fullscreenenter"",""1"",""6024""
""blur"",""20"",""99431""
""focus"",""20"",""100358""
","""event"",""trial"",""time""
""blur"",""20"",""99431""
","""event"",""trial"",""time""
""focus"",""20"",""100358""
","""event"",""trial"",""time""
""fullscreenenter"",""1"",""6024""
","
","","4755.9000000003725","Nice job! You are almost ready to play the real game.","86","","instructions","2021-06-30 14:47:47.319","","","","","",""
"casino-keyboard-response","57","256801","0.0-19.0-0.1","130","false","img/card_backs/set1/yellow.gif","img/card_backs/set1/purple.gif","img/card_backs/set1/green.gif","img/card_backs/set1/red.gif","img/card_backs/set2/orange.gif","img/card_backs/set2/pink.gif","img/card_backs/set2/gray.gif","img/card_backs/set2/blue.gif","""event"",""trial"",""time""
""fullscreenenter"",""1"",""6024""
""blur"",""20"",""99431""
""focus"",""20"",""100358""
","""event"",""trial"",""time""
""blur"",""20"",""99431""
","""event"",""trial"",""time""
""focus"",""20"",""100358""
","""event"",""trial"",""time""
""fullscreenenter"",""1"",""6024""
","
","","6427.100000000093","You will play two rounds of the real game. In each round, you will pick 100 cards in total.","73","","instructions","2021-06-30 14:47:53.750","","","","","",""
"casino-keyboard-response","58","261058","0.0-19.0-0.2","130","false","img/card_backs/set1/yellow.gif","img/card_backs/set1/purple.gif","img/card_backs/set1/green.gif","img/card_backs/set1/red.gif","img/card_backs/set2/orange.gif","img/card_backs/set2/pink.gif","img/card_backs/set2/gray.gif","img/card_backs/set2/blue.gif","""event"",""trial"",""time""
""fullscreenenter"",""1"",""6024""
""blur"",""20"",""99431""
""focus"",""20"",""100358""
","""event"",""trial"",""time""
""blur"",""20"",""99431""
","""event"",""trial"",""time""
""focus"",""20"",""100358""
","""event"",""trial"",""time""
""fullscreenenter"",""1"",""6024""
","
","","4247.199999999721","We are now going to ask you some questions about how the game works.","66","","instructions","2021-06-30 14:47:58.006","","","","","",""
"casino-keyboard-response","59","267285","0.0-19.0-0.3","130","false","img/card_backs/set1/yellow.gif","img/card_backs/set1/purple.gif","img/card_backs/set1/green.gif","img/card_backs/set1/red.gif","img/card_backs/set2/orange.gif","img/card_backs/set2/pink.gif","img/card_backs/set2/gray.gif","img/card_backs/set2/blue.gif","""event"",""trial"",""time""
""fullscreenenter"",""1"",""6024""
""blur"",""20"",""99431""
""focus"",""20"",""100358""
","""event"",""trial"",""time""
""blur"",""20"",""99431""
","""event"",""trial"",""time""
""focus"",""20"",""100358""
","""event"",""trial"",""time""
""fullscreenenter"",""1"",""6024""
","
","","6222.600000000093","Answer carefully. You will not be able to begin the game until you answer them correctly.","67","","instructions","2021-06-30 14:48:04.233","","","","","",""
"casino-comp_q","60","273415","0.0-20.0-0.0","130","false","img/card_backs/set1/yellow.gif","img/card_backs/set1/purple.gif","img/card_backs/set1/green.gif","img/card_backs/set1/red.gif","img/card_backs/set2/orange.gif","img/card_backs/set2/pink.gif","img/card_backs/set2/gray.gif","img/card_backs/set2/blue.gif","""event"",""trial"",""time""
""fullscreenenter"",""1"",""6024""
""blur"",""20"",""99431""
""focus"",""20"",""100358""
","""event"",""trial"",""time""
""blur"",""20"",""99431""
","""event"",""trial"",""time""
""focus"",""20"",""100358""
","""event"",""trial"",""time""
""fullscreenenter"",""1"",""6024""
","
","","6124.899999999907","True or False: All the decks have some cards that cause you to win tokens and some cards that cause you to lose tokens.","84","","","2021-06-30 14:48:10.364","","","","","",""
"casino-keyboard-response","61","276177","0.0-20.0-1.0","130","false","img/card_backs/set1/yellow.gif","img/card_backs/set1/purple.gif","img/card_backs/set1/green.gif","img/card_backs/set1/red.gif","img/card_backs/set2/orange.gif","img/card_backs/set2/pink.gif","img/card_backs/set2/gray.gif","img/card_backs/set2/blue.gif","""event"",""trial"",""time""
""fullscreenenter"",""1"",""6024""
""blur"",""20"",""99431""
""focus"",""20"",""100358""
","""event"",""trial"",""time""
""blur"",""20"",""99431""
","""event"",""trial"",""time""
""focus"",""20"",""100358""
","""event"",""trial"",""time""
""fullscreenenter"",""1"",""6024""
","
","","2757.399999999907","True is correct! All the decks have a mix of winning and losing cards.","77","","","2021-06-30 14:48:13.126","","","","","true",""
"casino-comp_q","62","280398","0.0-21.0-0.0","130","false","img/card_backs/set1/yellow.gif","img/card_backs/set1/purple.gif","img/card_backs/set1/green.gif","img/card_backs/set1/red.gif","img/card_backs/set2/orange.gif","img/card_backs/set2/pink.gif","img/card_backs/set2/gray.gif","img/card_backs/set2/blue.gif","""event"",""trial"",""time""
""fullscreenenter"",""1"",""6024""
""blur"",""20"",""99431""
""focus"",""20"",""100358""
","""event"",""trial"",""time""
""blur"",""20"",""99431""
","""event"",""trial"",""time""
""focus"",""20"",""100358""
","""event"",""trial"",""time""
""fullscreenenter"",""1"",""6024""
","
","","4212.199999999721","True or False: You will have as much time as you want to make your response.","70","","","2021-06-30 14:48:17.346","","","","","",""
"casino-keyboard-response","63","283206","0.0-21.0-1.0","130","false","img/card_backs/set1/yellow.gif","img/card_backs/set1/purple.gif","img/card_backs/set1/green.gif","img/card_backs/set1/red.gif","img/card_backs/set2/orange.gif","img/card_backs/set2/pink.gif","img/card_backs/set2/gray.gif","img/card_backs/set2/blue.gif","""event"",""trial"",""time""
""fullscreenenter"",""1"",""6024""
""blur"",""20"",""99431""
""focus"",""20"",""100358""
","""event"",""trial"",""time""
""blur"",""20"",""99431""
","""event"",""trial"",""time""
""focus"",""20"",""100358""
","""event"",""trial"",""time""
""fullscreenenter"",""1"",""6024""
","
","","2804.399999999907","False is correct! You will only have 10 seconds to make each choice.","75","","","2021-06-30 14:48:20.155","","","","","true",""
"casino-comp_q","64","287023","0.0-22.0-0.0","130","false","img/card_backs/set1/yellow.gif","img/card_backs/set1/purple.gif","img/card_backs/set1/green.gif","img/card_backs/set1/red.gif","img/card_backs/set2/orange.gif","img/card_backs/set2/pink.gif","img/card_backs/set2/gray.gif","img/card_backs/set2/blue.gif","""event"",""trial"",""time""
""fullscreenenter"",""1"",""6024""
""blur"",""20"",""99431""
""focus"",""20"",""100358""
","""event"",""trial"",""time""
""blur"",""20"",""99431""
","""event"",""trial"",""time""
""focus"",""20"",""100358""
","""event"",""trial"",""time""
""fullscreenenter"",""1"",""6024""
","
","","3812.5999999996275","True or False: The location of the deck determines how lucky it is.","70","","","2021-06-30 14:48:23.971","","","","","",""
"casino-keyboard-response","65","290622","0.0-22.0-1.0","130","false","img/card_backs/set1/yellow.gif","img/card_backs/set1/purple.gif","img/card_backs/set1/green.gif","img/card_backs/set1/red.gif","img/card_backs/set2/orange.gif","img/card_backs/set2/pink.gif","img/card_backs/set2/gray.gif","img/card_backs/set2/blue.gif","""event"",""trial"",""time""
""fullscreenenter"",""1"",""6024""
""blur"",""20"",""99431""
""focus"",""20"",""100358""
","""event"",""trial"",""time""
""blur"",""20"",""99431""
","""event"",""trial"",""time""
""focus"",""20"",""100358""
","""event"",""trial"",""time""
""fullscreenenter"",""1"",""6024""
","
","","3595.100000000093","False is correct! The <i>color</i>  of the deck determines how lucky or unlucky it is.","68","","","2021-06-30 14:48:27.570","","","","","true",""
"casino-keyboard-response","66","294713","0.0-23.0-0.0","130","false","img/card_backs/set1/yellow.gif","img/card_backs/set1/purple.gif","img/card_backs/set1/green.gif","img/card_backs/set1/red.gif","img/card_backs/set2/orange.gif","img/card_backs/set2/pink.gif","img/card_backs/set2/gray.gif","img/card_backs/set2/blue.gif","""event"",""trial"",""time""
""fullscreenenter"",""1"",""6024""
""blur"",""20"",""99431""
""focus"",""20"",""100358""
","""event"",""trial"",""time""
""blur"",""20"",""99431""
","""event"",""trial"",""time""
""focus"",""20"",""100358""
","""event"",""trial"",""time""
""fullscreenenter"",""1"",""6024""
","
","","4085.2999999998137","Great job! Now it's time to start the real game.","82","","instructions","2021-06-30 14:48:31.661","","","","","",""
"casino-keyboard-response","67","299841","0.0-23.0-0.1","130","false","img/card_backs/set1/yellow.gif","img/card_backs/set1/purple.gif","img/card_backs/set1/green.gif","img/card_backs/set1/red.gif","img/card_backs/set2/orange.gif","img/card_backs/set2/pink.gif","img/card_backs/set2/gray.gif","img/card_backs/set2/blue.gif","""event"",""trial"",""time""
""fullscreenenter"",""1"",""6024""
""blur"",""20"",""99431""
""focus"",""20"",""100358""
","""event"",""trial"",""time""
""blur"",""20"",""99431""
","""event"",""trial"",""time""
""focus"",""20"",""100358""
","""event"",""trial"",""time""
""fullscreenenter"",""1"",""6024""
","
","","5124.600000000093","Before we start, we're going to head into a new room of the casino.","86","","instructions","2021-06-30 14:48:36.790","","","","","",""
"casino-keyboard-response","68","306287","0.0-24.0-0.0","130","false","img/card_backs/set1/yellow.gif","img/card_backs/set1/purple.gif","img/card_backs/set1/green.gif","img/card_backs/set1/red.gif","img/card_backs/set2/orange.gif","img/card_backs/set2/pink.gif","img/card_backs/set2/gray.gif","img/card_backs/set2/blue.gif","""event"",""trial"",""time""
""fullscreenenter"",""1"",""6024""
""blur"",""20"",""99431""
""focus"",""20"",""100358""
","""event"",""trial"",""time""
""blur"",""20"",""99431""
","""event"",""trial"",""time""
""focus"",""20"",""100358""
","""event"",""trial"",""time""
""fullscreenenter"",""1"",""6024""
","
","","6440.899999999907","Here we are! The real game will use different cards, but the rules will be the same.","71","","instructions","2021-06-30 14:48:43.235","","","","","",""
"casino-keyboard-response","69","315394","0.0-24.0-0.1","130","false","img/card_backs/set1/yellow.gif","img/card_backs/set1/purple.gif","img/card_backs/set1/green.gif","img/card_backs/set1/red.gif","img/card_backs/set2/orange.gif","img/card_backs/set2/pink.gif","img/card_backs/set2/gray.gif","img/card_backs/set2/blue.gif","""event"",""trial"",""time""
""fullscreenenter"",""1"",""6024""
""blur"",""20"",""99431""
""focus"",""20"",""100358""
","""event"",""trial"",""time""
""blur"",""20"",""99431""
","""event"",""trial"",""time""
""focus"",""20"",""100358""
","""event"",""trial"",""time""
""fullscreenenter"",""1"",""6024""
","
","","9102.700000000186","Ready? Put your fingers over the '2', '4', 6', and '8' keys so you are ready to play the game. </br> Then press 2 to start.","50","","instructions","2021-06-30 14:48:52.342","","","","","",""
"casino-fixation","70","315898","0.0-25.0-0.0","130","false","img/card_backs/set1/yellow.gif","img/card_backs/set1/purple.gif","img/card_backs/set1/green.gif","img/card_backs/set1/red.gif","img/card_backs/set2/orange.gif","img/card_backs/set2/pink.gif","img/card_backs/set2/gray.gif","img/card_backs/set2/blue.gif","""event"",""trial"",""time""
""fullscreenenter"",""1"",""6024""
""blur"",""20"",""99431""
""focus"",""20"",""100358""
","""event"",""trial"",""time""
""blur"",""20"",""99431""
","""event"",""trial"",""time""
""focus"",""20"",""100358""
","""event"",""trial"",""time""
""fullscreenenter"",""1"",""6024""
","
","","null","","null","","fixation","2021-06-30 14:48:52.846","","","","","",""
"card-selection-trial","71","317946","0.0-25.0-1.0","130","false","img/card_backs/set1/yellow.gif","img/card_backs/set1/purple.gif","img/card_backs/set1/green.gif","img/card_backs/set1/red.gif","img/card_backs/set2/orange.gif","img/card_backs/set2/pink.gif","img/card_backs/set2/gray.gif","img/card_backs/set2/blue.gif","""event"",""trial"",""time""
""fullscreenenter"",""1"",""6024""
""blur"",""20"",""99431""
""focus"",""20"",""100358""
","""event"",""trial"",""time""
""blur"",""20"",""99431""
","""event"",""trial"",""time""
""focus"",""20"",""100358""
","""event"",""trial"",""time""
""fullscreenenter"",""1"",""6024""
","
","","31.399999999906868","","","","real_trial","2021-06-30 14:48:54.895","img/card_backs/set1/purple.gif","1","-240","1","",""
"casino-fixation","72","318449","0.0-25.0-0.1","130","false","img/card_backs/set1/yellow.gif","img/card_backs/set1/purple.gif","img/card_backs/set1/green.gif","img/card_backs/set1/red.gif","img/card_backs/set2/orange.gif","img/card_backs/set2/pink.gif","img/card_backs/set2/gray.gif","img/card_backs/set2/blue.gif","""event"",""trial"",""time""
""fullscreenenter"",""1"",""6024""
""blur"",""20"",""99431""
""focus"",""20"",""100358""
","""event"",""trial"",""time""
""blur"",""20"",""99431""
","""event"",""trial"",""time""
""focus"",""20"",""100358""
","""event"",""trial"",""time""
""fullscreenenter"",""1"",""6024""
","
","","null","","null","","fixation","2021-06-30 14:48:55.397","","","","","",""
"card-selection-trial","73","320930","0.0-25.0-1.1","130","false","img/card_backs/set1/yellow.gif","img/card_backs/set1/purple.gif","img/card_backs/set1/green.gif","img/card_backs/set1/red.gif","img/card_backs/set2/orange.gif","img/card_backs/set2/pink.gif","img/card_backs/set2/gray.gif","img/card_backs/set2/blue.gif","""event"",""trial"",""time""
""fullscreenenter"",""1"",""6024""
""blur"",""20"",""99431""
""focus"",""20"",""100358""
","""event"",""trial"",""time""
""blur"",""20"",""99431""
","""event"",""trial"",""time""
""focus"",""20"",""100358""
","""event"",""trial"",""time""
""fullscreenenter"",""1"",""6024""
","
","","468.10000000009313","","","","real_trial","2021-06-30 14:48:57.878","img/card_backs/set1/yellow.gif","0","-240","1","",""
"casino-fixation","74","321434","0.0-25.0-0.2","130","false","img/card_backs/set1/yellow.gif","img/card_backs/set1/purple.gif","img/card_backs/set1/green.gif","img/card_backs/set1/red.gif","img/card_backs/set2/orange.gif","img/card_backs/set2/pink.gif","img/card_backs/set2/gray.gif","img/card_backs/set2/blue.gif","""event"",""trial"",""time""
""fullscreenenter"",""1"",""6024""
""blur"",""20"",""99431""
""focus"",""20"",""100358""
","""event"",""trial"",""time""
""blur"",""20"",""99431""
","""event"",""trial"",""time""
""focus"",""20"",""100358""
","""event"",""trial"",""time""
""fullscreenenter"",""1"",""6024""
","
","","null","","null","","fixation","2021-06-30 14:48:58.382","","","","","",""
"card-selection-trial","75","323938","0.0-25.0-1.2","130","false","img/card_backs/set1/yellow.gif","img/card_backs/set1/purple.gif","img/card_backs/set1/green.gif","img/card_backs/set1/red.gif","img/card_backs/set2/orange.gif","img/card_backs/set2/pink.gif","img/card_backs/set2/gray.gif","img/card_backs/set2/blue.gif","""event"",""trial"",""time""
""fullscreenenter"",""1"",""6024""
""blur"",""20"",""99431""
""focus"",""20"",""100358""
","""event"",""trial"",""time""
""blur"",""20"",""99431""
","""event"",""trial"",""time""
""focus"",""20"",""100358""
","""event"",""trial"",""time""
""fullscreenenter"",""1"",""6024""
","
","","490.60000000009313","","","","real_trial","2021-06-30 14:49:00.886","img/card_backs/set1/green.gif","3","-50","1","",""
"casino-fixation","76","324443","0.0-25.0-0.3","130","false","img/card_backs/set1/yellow.gif","img/card_backs/set1/purple.gif","img/card_backs/set1/green.gif","img/card_backs/set1/red.gif","img/card_backs/set2/orange.gif","img/card_backs/set2/pink.gif","img/card_backs/set2/gray.gif","img/card_backs/set2/blue.gif","""event"",""trial"",""time""
""fullscreenenter"",""1"",""6024""
""blur"",""20"",""99431""
""focus"",""20"",""100358""
","""event"",""trial"",""time""
""blur"",""20"",""99431""
","""event"",""trial"",""time""
""focus"",""20"",""100358""
","""event"",""trial"",""time""
""fullscreenenter"",""1"",""6024""
","
","","null","","null","","fixation","2021-06-30 14:49:01.391","","","","","",""
"card-selection-trial","77","327008","0.0-25.0-1.3","130","false","img/card_backs/set1/yellow.gif","img/card_backs/set1/purple.gif","img/card_backs/set1/green.gif","img/card_backs/set1/red.gif","img/card_backs/set2/orange.gif","img/card_backs/set2/pink.gif","img/card_backs/set2/gray.gif","img/card_backs/set2/blue.gif","""event"",""trial"",""time""
""fullscreenenter"",""1"",""6024""
""blur"",""20"",""99431""
""focus"",""20"",""100358""
","""event"",""trial"",""time""
""blur"",""20"",""99431""
","""event"",""trial"",""time""
""focus"",""20"",""100358""
","""event"",""trial"",""time""
""fullscreenenter"",""1"",""6024""
","
","","552.6000000000931","","","","real_trial","2021-06-30 14:49:03.956","img/card_backs/set1/yellow.gif","3","-250","1","",""
"casino-fixation","78","327512","0.0-25.0-0.4","130","false","img/card_backs/set1/yellow.gif","img/card_backs/set1/purple.gif","img/card_backs/set1/green.gif","img/card_backs/set1/red.gif","img/card_backs/set2/orange.gif","img/card_backs/set2/pink.gif","img/card_backs/set2/gray.gif","img/card_backs/set2/blue.gif","""event"",""trial"",""time""
""fullscreenenter"",""1"",""6024""
""blur"",""20"",""99431""
""focus"",""20"",""100358""
","""event"",""trial"",""time""
""blur"",""20"",""99431""
","""event"",""trial"",""time""
""focus"",""20"",""100358""
","""event"",""trial"",""time""
""fullscreenenter"",""1"",""6024""
","
","","null","","null","","fixation","2021-06-30 14:49:04.460","","","","","",""
"card-selection-trial","79","329590","0.0-25.0-1.4","130","false","img/card_backs/set1/yellow.gif","img/card_backs/set1/purple.gif","img/card_backs/set1/green.gif","img/card_backs/set1/red.gif","img/card_backs/set2/orange.gif","img/card_backs/set2/pink.gif","img/card_backs/set2/gray.gif","img/card_backs/set2/blue.gif","""event"",""trial"",""time""
""fullscreenenter"",""1"",""6024""
""blur"",""20"",""99431""
""focus"",""20"",""100358""
","""event"",""trial"",""time""
""blur"",""20"",""99431""
","""event"",""trial"",""time""
""focus"",""20"",""100358""
","""event"",""trial"",""time""
""fullscreenenter"",""1"",""6024""
","
","","66.29999999981374","","","","real_trial","2021-06-30 14:49:06.538","img/card_backs/set1/yellow.gif","0","200","1","",""
"casino-fixation","80","330093","0.0-25.0-0.5","130","false","img/card_backs/set1/yellow.gif","img/card_backs/set1/purple.gif","img/card_backs/set1/green.gif","img/card_backs/set1/red.gif","img/card_backs/set2/orange.gif","img/card_backs/set2/pink.gif","img/card_backs/set2/gray.gif","img/card_backs/set2/blue.gif","""event"",""trial"",""time""
""fullscreenenter"",""1"",""6024""
""blur"",""20"",""99431""
""focus"",""20"",""100358""
","""event"",""trial"",""time""
""blur"",""20"",""99431""
","""event"",""trial"",""time""
""focus"",""20"",""100358""
","""event"",""trial"",""time""
""fullscreenenter"",""1"",""6024""
","
","","null","","null","","fixation","2021-06-30 14:49:07.041","","","","","",""
"card-selection-trial","81","332594","0.0-25.0-1.5","130","false","img/card_backs/set1/yellow.gif","img/card_backs/set1/purple.gif","img/card_backs/set1/green.gif","img/card_backs/set1/red.gif","img/card_backs/set2/orange.gif","img/card_backs/set2/pink.gif","img/card_backs/set2/gray.gif","img/card_backs/set2/blue.gif","""event"",""trial"",""time""
""fullscreenenter"",""1"",""6024""
""blur"",""20"",""99431""
""focus"",""20"",""100358""
","""event"",""trial"",""time""
""blur"",""20"",""99431""
","""event"",""trial"",""time""
""focus"",""20"",""100358""
","""event"",""trial"",""time""
""fullscreenenter"",""1"",""6024""
","
","","487.39999999990687","","","","real_trial","2021-06-30 14:49:09.542","img/card_backs/set1/red.gif","2","-60","1","",""
"casino-fixation","82","333097","0.0-25.0-0.6","130","false","img/card_backs/set1/yellow.gif","img/card_backs/set1/purple.gif","img/card_backs/set1/green.gif","img/card_backs/set1/red.gif","img/card_backs/set2/orange.gif","img/card_backs/set2/pink.gif","img/card_backs/set2/gray.gif","img/card_backs/set2/blue.gif","""event"",""trial"",""time""
""fullscreenenter"",""1"",""6024""
""blur"",""20"",""99431""
""focus"",""20"",""100358""
","""event"",""trial"",""time""
""blur"",""20"",""99431""
","""event"",""trial"",""time""
""focus"",""20"",""100358""
","""event"",""trial"",""time""
""fullscreenenter"",""1"",""6024""
","
","","null","","null","","fixation","2021-06-30 14:49:10.045","","","","","",""
"card-selection-trial","83","335495","0.0-25.0-1.6","130","false","img/card_backs/set1/yellow.gif","img/card_backs/set1/purple.gif","img/card_backs/set1/green.gif","img/card_backs/set1/red.gif","img/card_backs/set2/orange.gif","img/card_backs/set2/pink.gif","img/card_backs/set2/gray.gif","img/card_backs/set2/blue.gif","""event"",""trial"",""time""
""fullscreenenter"",""1"",""6024""
""blur"",""20"",""99431""
""focus"",""20"",""100358""
","""event"",""trial"",""time""
""blur"",""20"",""99431""
","""event"",""trial"",""time""
""focus"",""20"",""100358""
","""event"",""trial"",""time""
""fullscreenenter"",""1"",""6024""
","
","","383.10000000009313","","","","real_trial","2021-06-30 14:49:12.444","img/card_backs/set1/green.gif","0","110","1","",""
"casino-fixation","84","336003","0.0-25.0-0.7","130","false","img/card_backs/set1/yellow.gif","img/card_backs/set1/purple.gif","img/card_backs/set1/green.gif","img/card_backs/set1/red.gif","img/card_backs/set2/orange.gif","img/card_backs/set2/pink.gif","img/card_backs/set2/gray.gif","img/card_backs/set2/blue.gif","""event"",""trial"",""time""
""fullscreenenter"",""1"",""6024""
""blur"",""20"",""99431""
""focus"",""20"",""100358""
","""event"",""trial"",""time""
""blur"",""20"",""99431""
","""event"",""trial"",""time""
""focus"",""20"",""100358""
","""event"",""trial"",""time""
""fullscreenenter"",""1"",""6024""
","
","","null","","null","","fixation","2021-06-30 14:49:12.951","","","","","",""
"card-selection-trial","85","338289","0.0-25.0-1.7","130","false","img/card_backs/set1/yellow.gif","img/card_backs/set1/purple.gif","img/card_backs/set1/green.gif","img/card_backs/set1/red.gif","img/card_backs/set2/orange.gif","img/card_backs/set2/pink.gif","img/card_backs/set2/gray.gif","img/card_backs/set2/blue.gif","""event"",""trial"",""time""
""fullscreenenter"",""1"",""6024""
""blur"",""20"",""99431""
""focus"",""20"",""100358""
","""event"",""trial"",""time""
""blur"",""20"",""99431""
","""event"",""trial"",""time""
""focus"",""20"",""100358""
","""event"",""trial"",""time""
""fullscreenenter"",""1"",""6024""
","
","","271.40000000037253","","","","real_trial","2021-06-30 14:49:15.237","img/card_backs/set1/yellow.gif","1","190","1","",""
"casino-fixation","86","338793","0.0-25.0-0.8","130","false","img/card_backs/set1/yellow.gif","img/card_backs/set1/purple.gif","img/card_backs/set1/green.gif","img/card_backs/set1/red.gif","img/card_backs/set2/orange.gif","img/card_backs/set2/pink.gif","img/card_backs/set2/gray.gif","img/card_backs/set2/blue.gif","""event"",""trial"",""time""
""fullscreenenter"",""1"",""6024""
""blur"",""20"",""99431""
""focus"",""20"",""100358""
","""event"",""trial"",""time""
""blur"",""20"",""99431""
","""event"",""trial"",""time""
""focus"",""20"",""100358""
","""event"",""trial"",""time""
""fullscreenenter"",""1"",""6024""
","
","","null","","null","","fixation","2021-06-30 14:49:15.741","","","","","",""
"card-selection-trial","87","341247","0.0-25.0-1.8","130","false","img/card_backs/set1/yellow.gif","img/card_backs/set1/purple.gif","img/card_backs/set1/green.gif","img/card_backs/set1/red.gif","img/card_backs/set2/orange.gif","img/card_backs/set2/pink.gif","img/card_backs/set2/gray.gif","img/card_backs/set2/blue.gif","""event"",""trial"",""time""
""fullscreenenter"",""1"",""6024""
""blur"",""20"",""99431""
""focus"",""20"",""100358""
","""event"",""trial"",""time""
""blur"",""20"",""99431""
","""event"",""trial"",""time""
""focus"",""20"",""100358""
","""event"",""trial"",""time""
""fullscreenenter"",""1"",""6024""
","
","","442","","","","real_trial","2021-06-30 14:49:18.195","img/card_backs/set1/green.gif","3","120","1","",""
"casino-fixation","88","341751","0.0-25.0-0.9","130","false","img/card_backs/set1/yellow.gif","img/card_backs/set1/purple.gif","img/card_backs/set1/green.gif","img/card_backs/set1/red.gif","img/card_backs/set2/orange.gif","img/card_backs/set2/pink.gif","img/card_backs/set2/gray.gif","img/card_backs/set2/blue.gif","""event"",""trial"",""time""
""fullscreenenter"",""1"",""6024""
""blur"",""20"",""99431""
""focus"",""20"",""100358""
","""event"",""trial"",""time""
""blur"",""20"",""99431""
","""event"",""trial"",""time""
""focus"",""20"",""100358""
","""event"",""trial"",""time""
""fullscreenenter"",""1"",""6024""
","
","","null","","null","","fixation","2021-06-30 14:49:18.699","","","","","",""
"card-selection-trial","89","343850","0.0-25.0-1.9","130","false","img/card_backs/set1/yellow.gif","img/card_backs/set1/purple.gif","img/card_backs/set1/green.gif","img/card_backs/set1/red.gif","img/card_backs/set2/orange.gif","img/card_backs/set2/pink.gif","img/card_backs/set2/gray.gif","img/card_backs/set2/blue.gif","""event"",""trial"",""time""
""fullscreenenter"",""1"",""6024""
""blur"",""20"",""99431""
""focus"",""20"",""100358""
","""event"",""trial"",""time""
""blur"",""20"",""99431""
","""event"",""trial"",""time""
""focus"",""20"",""100358""
","""event"",""trial"",""time""
""fullscreenenter"",""1"",""6024""
","
","","83","","","","real_trial","2021-06-30 14:49:20.798","img/card_backs/set1/red.gif","0","-60","1","",""
"casino-fixation","90","344354","0.0-25.0-0.10","130","false","img/card_backs/set1/yellow.gif","img/card_backs/set1/purple.gif","img/card_backs/set1/green.gif","img/card_backs/set1/red.gif","img/card_backs/set2/orange.gif","img/card_backs/set2/pink.gif","img/card_backs/set2/gray.gif","img/card_backs/set2/blue.gif","""event"",""trial"",""time""
""fullscreenenter"",""1"",""6024""
""blur"",""20"",""99431""
""focus"",""20"",""100358""
","""event"",""trial"",""time""
""blur"",""20"",""99431""
","""event"",""trial"",""time""
""focus"",""20"",""100358""
","""event"",""trial"",""time""
""fullscreenenter"",""1"",""6024""
","
","","null","","null","","fixation","2021-06-30 14:49:21.302","","","","","",""
"card-selection-trial","91","347813","0.0-25.0-1.10","130","false","img/card_backs/set1/yellow.gif","img/card_backs/set1/purple.gif","img/card_backs/set1/green.gif","img/card_backs/set1/red.gif","img/card_backs/set2/orange.gif","img/card_backs/set2/pink.gif","img/card_backs/set2/gray.gif","img/card_backs/set2/blue.gif","""event"",""trial"",""time""
""fullscreenenter"",""1"",""6024""
""blur"",""20"",""99431""
""focus"",""20"",""100358""
","""event"",""trial"",""time""
""blur"",""20"",""99431""
","""event"",""trial"",""time""
""focus"",""20"",""100358""
","""event"",""trial"",""time""
""fullscreenenter"",""1"",""6024""
","
","","1443.7999999998137","","","","real_trial","2021-06-30 14:49:24.761","img/card_backs/set1/green.gif","2","120","1","",""
"casino-fixation","92","348317","0.0-25.0-0.11","130","false","img/card_backs/set1/yellow.gif","img/card_backs/set1/purple.gif","img/card_backs/set1/green.gif","img/card_backs/set1/red.gif","img/card_backs/set2/orange.gif","img/card_backs/set2/pink.gif","img/card_backs/set2/gray.gif","img/card_backs/set2/blue.gif","""event"",""trial"",""time""
""fullscreenenter"",""1"",""6024""
""blur"",""20"",""99431""
""focus"",""20"",""100358""
","""event"",""trial"",""time""
""blur"",""20"",""99431""
","""event"",""trial"",""time""
""focus"",""20"",""100358""
","""event"",""trial"",""time""
""fullscreenenter"",""1"",""6024""
","
","","null","","null","","fixation","2021-06-30 14:49:25.265","","","","","",""
"card-selection-trial","93","352226","0.0-25.0-1.11","130","false","img/card_backs/set1/yellow.gif","img/card_backs/set1/purple.gif","img/card_backs/set1/green.gif","img/card_backs/set1/red.gif","img/card_backs/set2/orange.gif","img/card_backs/set2/pink.gif","img/card_backs/set2/gray.gif","img/card_backs/set2/blue.gif","""event"",""trial"",""time""
""fullscreenenter"",""1"",""6024""
""blur"",""20"",""99431""
""focus"",""20"",""100358""
","""event"",""trial"",""time""
""blur"",""20"",""99431""
","""event"",""trial"",""time""
""focus"",""20"",""100358""
","""event"",""trial"",""time""
""fullscreenenter"",""1"",""6024""
","
","","1896.2000000001863","","","","real_trial","2021-06-30 14:49:29.175","img/card_backs/set1/purple.gif","1","-230","1","",""
"casino-fixation","94","352730","0.0-25.0-0.12","130","false","img/card_backs/set1/yellow.gif","img/card_backs/set1/purple.gif","img/card_backs/set1/green.gif","img/card_backs/set1/red.gif","img/card_backs/set2/orange.gif","img/card_backs/set2/pink.gif","img/card_backs/set2/gray.gif","img/card_backs/set2/blue.gif","""event"",""trial"",""time""
""fullscreenenter"",""1"",""6024""
""blur"",""20"",""99431""
""focus"",""20"",""100358""
","""event"",""trial"",""time""
""blur"",""20"",""99431""
","""event"",""trial"",""time""
""focus"",""20"",""100358""
","""event"",""trial"",""time""
""fullscreenenter"",""1"",""6024""
","
","","null","","null","","fixation","2021-06-30 14:49:29.678","","","","","",""
"card-selection-trial","95","355096","0.0-25.0-1.12","130","false","img/card_backs/set1/yellow.gif","img/card_backs/set1/purple.gif","img/card_backs/set1/green.gif","img/card_backs/set1/red.gif","img/card_backs/set2/orange.gif","img/card_backs/set2/pink.gif","img/card_backs/set2/gray.gif","img/card_backs/set2/blue.gif","""event"",""trial"",""time""
""fullscreenenter"",""1"",""6024""
""blur"",""20"",""99431""
""focus"",""20"",""100358""
","""event"",""trial"",""time""
""blur"",""20"",""99431""
","""event"",""trial"",""time""
""focus"",""20"",""100358""
","""event"",""trial"",""time""
""fullscreenenter"",""1"",""6024""
","
","","350.20000000018626","","","","real_trial","2021-06-30 14:49:32.044","img/card_backs/set1/green.gif","0","-60","1","",""
"casino-fixation","96","355600","0.0-25.0-0.13","130","false","img/card_backs/set1/yellow.gif","img/card_backs/set1/purple.gif","img/card_backs/set1/green.gif","img/card_backs/set1/red.gif","img/card_backs/set2/orange.gif","img/card_backs/set2/pink.gif","img/card_backs/set2/gray.gif","img/card_backs/set2/blue.gif","""event"",""trial"",""time""
""fullscreenenter"",""1"",""6024""
""blur"",""20"",""99431""
""focus"",""20"",""100358""
","""event"",""trial"",""time""
""blur"",""20"",""99431""
","""event"",""trial"",""time""
""focus"",""20"",""100358""
","""event"",""trial"",""time""
""fullscreenenter"",""1"",""6024""
","
","","null","","null","","fixation","2021-06-30 14:49:32.548","","","","","",""
"card-selection-trial","97","357924","0.0-25.0-1.13","130","false","img/card_backs/set1/yellow.gif","img/card_backs/set1/purple.gif","img/card_backs/set1/green.gif","img/card_backs/set1/red.gif","img/card_backs/set2/orange.gif","img/card_backs/set2/pink.gif","img/card_backs/set2/gray.gif","img/card_backs/set2/blue.gif","""event"",""trial"",""time""
""fullscreenenter"",""1"",""6024""
""blur"",""20"",""99431""
""focus"",""20"",""100358""
","""event"",""trial"",""time""
""blur"",""20"",""99431""
","""event"",""trial"",""time""
""focus"",""20"",""100358""
","""event"",""trial"",""time""
""fullscreenenter"",""1"",""6024""
","
","","299.3000000002794","","","","real_trial","2021-06-30 14:49:34.872","img/card_backs/set1/green.gif","3","110","1","",""
"casino-fixation","98","358427","0.0-25.0-0.14","130","false","img/card_backs/set1/yellow.gif","img/card_backs/set1/purple.gif","img/card_backs/set1/green.gif","img/card_backs/set1/red.gif","img/card_backs/set2/orange.gif","img/card_backs/set2/pink.gif","img/card_backs/set2/gray.gif","img/card_backs/set2/blue.gif","""event"",""trial"",""time""
""fullscreenenter"",""1"",""6024""
""blur"",""20"",""99431""
""focus"",""20"",""100358""
","""event"",""trial"",""time""
""blur"",""20"",""99431""
","""event"",""trial"",""time""
""focus"",""20"",""100358""
","""event"",""trial"",""time""
""fullscreenenter"",""1"",""6024""
","
","","null","","null","","fixation","2021-06-30 14:49:35.375","","","","","",""
"card-selection-trial","99","360780","0.0-25.0-1.14","130","false","img/card_backs/set1/yellow.gif","img/card_backs/set1/purple.gif","img/card_backs/set1/green.gif","img/card_backs/set1/red.gif","img/card_backs/set2/orange.gif","img/card_backs/set2/pink.gif","img/card_backs/set2/gray.gif","img/card_backs/set2/blue.gif","""event"",""trial"",""time""
""fullscreenenter"",""1"",""6024""
""blur"",""20"",""99431""
""focus"",""20"",""100358""
","""event"",""trial"",""time""
""blur"",""20"",""99431""
","""event"",""trial"",""time""
""focus"",""20"",""100358""
","""event"",""trial"",""time""
""fullscreenenter"",""1"",""6024""
","
","","332.60000000009313","","","","real_trial","2021-06-30 14:49:37.729","img/card_backs/set1/yellow.gif","1","200","1","",""
"casino-fixation","100","361283","0.0-25.0-0.15","130","false","img/card_backs/set1/yellow.gif","img/card_backs/set1/purple.gif","img/card_backs/set1/green.gif","img/card_backs/set1/red.gif","img/card_backs/set2/orange.gif","img/card_backs/set2/pink.gif","img/card_backs/set2/gray.gif","img/card_backs/set2/blue.gif","""event"",""trial"",""time""
""fullscreenenter"",""1"",""6024""
""blur"",""20"",""99431""
""focus"",""20"",""100358""
","""event"",""trial"",""time""
""blur"",""20"",""99431""
","""event"",""trial"",""time""
""focus"",""20"",""100358""
","""event"",""trial"",""time""
""fullscreenenter"",""1"",""6024""
","
","","null","","null","","fixation","2021-06-30 14:49:38.232","","","","","",""
"card-selection-trial","101","363610","0.0-25.0-1.15","130","false","img/card_backs/set1/yellow.gif","img/card_backs/set1/purple.gif","img/card_backs/set1/green.gif","img/card_backs/set1/red.gif","img/card_backs/set2/orange.gif","img/card_backs/set2/pink.gif","img/card_backs/set2/gray.gif","img/card_backs/set2/blue.gif","""event"",""trial"",""time""
""fullscreenenter"",""1"",""6024""
""blur"",""20"",""99431""
""focus"",""20"",""100358""
","""event"",""trial"",""time""
""blur"",""20"",""99431""
","""event"",""trial"",""time""
""focus"",""20"",""100358""
","""event"",""trial"",""time""
""fullscreenenter"",""1"",""6024""
","
","","310.10000000009313","","","","real_trial","2021-06-30 14:49:40.558","img/card_backs/set1/yellow.gif","3","-240","1","",""
"casino-fixation","102","364116","0.0-25.0-0.16","130","false","img/card_backs/set1/yellow.gif","img/card_backs/set1/purple.gif","img/card_backs/set1/green.gif","img/card_backs/set1/red.gif","img/card_backs/set2/orange.gif","img/card_backs/set2/pink.gif","img/card_backs/set2/gray.gif","img/card_backs/set2/blue.gif","""event"",""trial"",""time""
""fullscreenenter"",""1"",""6024""
""blur"",""20"",""99431""
""focus"",""20"",""100358""
","""event"",""trial"",""time""
""blur"",""20"",""99431""
","""event"",""trial"",""time""
""focus"",""20"",""100358""
","""event"",""trial"",""time""
""fullscreenenter"",""1"",""6024""
","
","","null","","null","","fixation","2021-06-30 14:49:41.064","","","","","",""
"card-selection-trial","103","366823","0.0-25.0-1.16","130","false","img/card_backs/set1/yellow.gif","img/card_backs/set1/purple.gif","img/card_backs/set1/green.gif","img/card_backs/set1/red.gif","img/card_backs/set2/orange.gif","img/card_backs/set2/pink.gif","img/card_backs/set2/gray.gif","img/card_backs/set2/blue.gif","""event"",""trial"",""time""
""fullscreenenter"",""1"",""6024""
""blur"",""20"",""99431""
""focus"",""20"",""100358""
","""event"",""trial"",""time""
""blur"",""20"",""99431""
","""event"",""trial"",""time""
""focus"",""20"",""100358""
","""event"",""trial"",""time""
""fullscreenenter"",""1"",""6024""
","
","","691.1000000000931","","","","real_trial","2021-06-30 14:49:43.771","img/card_backs/set1/purple.gif","1","-230","1","",""
"casino-fixation","104","367327","0.0-25.0-0.17","130","false","img/card_backs/set1/yellow.gif","img/card_backs/set1/purple.gif","img/card_backs/set1/green.gif","img/card_backs/set1/red.gif","img/card_backs/set2/orange.gif","img/card_backs/set2/pink.gif","img/card_backs/set2/gray.gif","img/card_backs/set2/blue.gif","""event"",""trial"",""time""
""fullscreenenter"",""1"",""6024""
""blur"",""20"",""99431""
""focus"",""20"",""100358""
","""event"",""trial"",""time""
""blur"",""20"",""99431""
","""event"",""trial"",""time""
""focus"",""20"",""100358""
","""event"",""trial"",""time""
""fullscreenenter"",""1"",""6024""
","
","","null","","null","","fixation","2021-06-30 14:49:44.275","","","","","",""
"card-selection-trial","105","369346","0.0-25.0-1.17","130","false","img/card_backs/set1/yellow.gif","img/card_backs/set1/purple.gif","img/card_backs/set1/green.gif","img/card_backs/set1/red.gif","img/card_backs/set2/orange.gif","img/card_backs/set2/pink.gif","img/card_backs/set2/gray.gif","img/card_backs/set2/blue.gif","""event"",""trial"",""time""
""fullscreenenter"",""1"",""6024""
""blur"",""20"",""99431""
""focus"",""20"",""100358""
","""event"",""trial"",""time""
""blur"",""20"",""99431""
","""event"",""trial"",""time""
""focus"",""20"",""100358""
","""event"",""trial"",""time""
""fullscreenenter"",""1"",""6024""
","
","","3.6999999997206032","","","","real_trial","2021-06-30 14:49:46.294","img/card_backs/set1/red.gif","3","120","1","",""
"casino-fixation","106","369851","0.0-25.0-0.18","130","false","img/card_backs/set1/yellow.gif","img/card_backs/set1/purple.gif","img/card_backs/set1/green.gif","img/card_backs/set1/red.gif","img/card_backs/set2/orange.gif","img/card_backs/set2/pink.gif","img/card_backs/set2/gray.gif","img/card_backs/set2/blue.gif","""event"",""trial"",""time""
""fullscreenenter"",""1"",""6024""
""blur"",""20"",""99431""
""focus"",""20"",""100358""
","""event"",""trial"",""time""
""blur"",""20"",""99431""
","""event"",""trial"",""time""
""focus"",""20"",""100358""
","""event"",""trial"",""time""
""fullscreenenter"",""1"",""6024""
","
","","null","","null","","fixation","2021-06-30 14:49:46.800","","","","","",""
"card-selection-trial","107","372136","0.0-25.0-1.18","130","false","img/card_backs/set1/yellow.gif","img/card_backs/set1/purple.gif","img/card_backs/set1/green.gif","img/card_backs/set1/red.gif","img/card_backs/set2/orange.gif","img/card_backs/set2/pink.gif","img/card_backs/set2/gray.gif","img/card_backs/set2/blue.gif","""event"",""trial"",""time""
""fullscreenenter"",""1"",""6024""
""blur"",""20"",""99431""
""focus"",""20"",""100358""
","""event"",""trial"",""time""
""blur"",""20"",""99431""
","""event"",""trial"",""time""
""focus"",""20"",""100358""
","""event"",""trial"",""time""
""fullscreenenter"",""1"",""6024""
","
","","269.3000000002794","","","","real_trial","2021-06-30 14:49:49.084","img/card_backs/set1/purple.gif","0","-250","1","",""
"casino-fixation","108","372639","0.0-25.0-0.19","130","false","img/card_backs/set1/yellow.gif","img/card_backs/set1/purple.gif","img/card_backs/set1/green.gif","img/card_backs/set1/red.gif","img/card_backs/set2/orange.gif","img/card_backs/set2/pink.gif","img/card_backs/set2/gray.gif","img/card_backs/set2/blue.gif","""event"",""trial"",""time""
""fullscreenenter"",""1"",""6024""
""blur"",""20"",""99431""
""focus"",""20"",""100358""
","""event"",""trial"",""time""
""blur"",""20"",""99431""
","""event"",""trial"",""time""
""focus"",""20"",""100358""
","""event"",""trial"",""time""
""fullscreenenter"",""1"",""6024""
","
","","null","","null","","fixation","2021-06-30 14:49:49.587","","","","","",""
"card-selection-trial","109","375766","0.0-25.0-1.19","130","false","img/card_backs/set1/yellow.gif","img/card_backs/set1/purple.gif","img/card_backs/set1/green.gif","img/card_backs/set1/red.gif","img/card_backs/set2/orange.gif","img/card_backs/set2/pink.gif","img/card_backs/set2/gray.gif","img/card_backs/set2/blue.gif","""event"",""trial"",""time""
""fullscreenenter"",""1"",""6024""
""blur"",""20"",""99431""
""focus"",""20"",""100358""
","""event"",""trial"",""time""
""blur"",""20"",""99431""
","""event"",""trial"",""time""
""focus"",""20"",""100358""
","""event"",""trial"",""time""
""fullscreenenter"",""1"",""6024""
","
","","1116","","","","real_trial","2021-06-30 14:49:52.714","img/card_backs/set1/yellow.gif","1","200","1","",""
"casino-fixation","110","376271","0.0-25.0-0.20","130","false","img/card_backs/set1/yellow.gif","img/card_backs/set1/purple.gif","img/card_backs/set1/green.gif","img/card_backs/set1/red.gif","img/card_backs/set2/orange.gif","img/card_backs/set2/pink.gif","img/card_backs/set2/gray.gif","img/card_backs/set2/blue.gif","""event"",""trial"",""time""
""fullscreenenter"",""1"",""6024""
""blur"",""20"",""99431""
""focus"",""20"",""100358""
","""event"",""trial"",""time""
""blur"",""20"",""99431""
","""event"",""trial"",""time""
""focus"",""20"",""100358""
","""event"",""trial"",""time""
""fullscreenenter"",""1"",""6024""
","
","","null","","null","","fixation","2021-06-30 14:49:53.219","","","","","",""
"card-selection-trial","111","378567","0.0-25.0-1.20","130","false","img/card_backs/set1/yellow.gif","img/card_backs/set1/purple.gif","img/card_backs/set1/green.gif","img/card_backs/set1/red.gif","img/card_backs/set2/orange.gif","img/card_backs/set2/pink.gif","img/card_backs/set2/gray.gif","img/card_backs/set2/blue.gif","""event"",""trial"",""time""
""fullscreenenter"",""1"",""6024""
""blur"",""20"",""99431""
""focus"",""20"",""100358""
","""event"",""trial"",""time""
""blur"",""20"",""99431""
","""event"",""trial"",""time""
""focus"",""20"",""100358""
","""event"",""trial"",""time""
""fullscreenenter"",""1"",""6024""
","
","","280","","","","real_trial","2021-06-30 14:49:55.515","img/card_backs/set1/green.gif","2","120","1","",""
"casino-fixation","112","379070","0.0-25.0-0.21","130","false","img/card_backs/set1/yellow.gif","img/card_backs/set1/purple.gif","img/card_backs/set1/green.gif","img/card_backs/set1/red.gif","img/card_backs/set2/orange.gif","img/card_backs/set2/pink.gif","img/card_backs/set2/gray.gif","img/card_backs/set2/blue.gif","""event"",""trial"",""time""
""fullscreenenter"",""1"",""6024""
""blur"",""20"",""99431""
""focus"",""20"",""100358""
","""event"",""trial"",""time""
""blur"",""20"",""99431""
","""event"",""trial"",""time""
""focus"",""20"",""100358""
","""event"",""trial"",""time""
""fullscreenenter"",""1"",""6024""
","
","","null","","null","","fixation","2021-06-30 14:49:56.018","","","","","",""
"card-selection-trial","113","381210","0.0-25.0-1.21","130","false","img/card_backs/set1/yellow.gif","img/card_backs/set1/purple.gif","img/card_backs/set1/green.gif","img/card_backs/set1/red.gif","img/card_backs/set2/orange.gif","img/card_backs/set2/pink.gif","img/card_backs/set2/gray.gif","img/card_backs/set2/blue.gif","""event"",""trial"",""time""
""fullscreenenter"",""1"",""6024""
""blur"",""20"",""99431""
""focus"",""20"",""100358""
","""event"",""trial"",""time""
""blur"",""20"",""99431""
","""event"",""trial"",""time""
""focus"",""20"",""100358""
","""event"",""trial"",""time""
""fullscreenenter"",""1"",""6024""
","
","","128.1999999997206","","","","real_trial","2021-06-30 14:49:58.158","img/card_backs/set1/green.gif","0","100","1","",""
"casino-fixation","114","381713","0.0-25.0-0.22","130","false","img/card_backs/set1/yellow.gif","img/card_backs/set1/purple.gif","img/card_backs/set1/green.gif","img/card_backs/set1/red.gif","img/card_backs/set2/orange.gif","img/card_backs/set2/pink.gif","img/card_backs/set2/gray.gif","img/card_backs/set2/blue.gif","""event"",""trial"",""time""
""fullscreenenter"",""1"",""6024""
""blur"",""20"",""99431""
""focus"",""20"",""100358""
","""event"",""trial"",""time""
""blur"",""20"",""99431""
","""event"",""trial"",""time""
""focus"",""20"",""100358""
","""event"",""trial"",""time""
""fullscreenenter"",""1"",""6024""
","
","","null","","null","","fixation","2021-06-30 14:49:58.662","","","","","",""
"card-selection-trial","115","385139","0.0-25.0-1.22","130","false","img/card_backs/set1/yellow.gif","img/card_backs/set1/purple.gif","img/card_backs/set1/green.gif","img/card_backs/set1/red.gif","img/card_backs/set2/orange.gif","img/card_backs/set2/pink.gif","img/card_backs/set2/gray.gif","img/card_backs/set2/blue.gif","""event"",""trial"",""time""
""fullscreenenter"",""1"",""6024""
""blur"",""20"",""99431""
""focus"",""20"",""100358""
","""event"",""trial"",""time""
""blur"",""20"",""99431""
","""event"",""trial"",""time""
""focus"",""20"",""100358""
","""event"",""trial"",""time""
""fullscreenenter"",""1"",""6024""
","
","","1407.8999999999069","","","","real_trial","2021-06-30 14:50:02.087","img/card_backs/set1/yellow.gif","1","200","1","",""
"casino-fixation","116","385643","0.0-25.0-0.23","130","false","img/card_backs/set1/yellow.gif","img/card_backs/set1/purple.gif","img/card_backs/set1/green.gif","img/card_backs/set1/red.gif","img/card_backs/set2/orange.gif","img/card_backs/set2/pink.gif","img/card_backs/set2/gray.gif","img/card_backs/set2/blue.gif","""event"",""trial"",""time""
""fullscreenenter"",""1"",""6024""
""blur"",""20"",""99431""
""focus"",""20"",""100358""
","""event"",""trial"",""time""
""blur"",""20"",""99431""
","""event"",""trial"",""time""
""focus"",""20"",""100358""
","""event"",""trial"",""time""
""fullscreenenter"",""1"",""6024""
","
","","null","","null","","fixation","2021-06-30 14:50:02.591","","","","","",""
"card-selection-trial","117","389966","0.0-25.0-1.23","130","false","img/card_backs/set1/yellow.gif","img/card_backs/set1/purple.gif","img/card_backs/set1/green.gif","img/card_backs/set1/red.gif","img/card_backs/set2/orange.gif","img/card_backs/set2/pink.gif","img/card_backs/set2/gray.gif","img/card_backs/set2/blue.gif","""event"",""trial"",""time""
""fullscreenenter"",""1"",""6024""
""blur"",""20"",""99431""
""focus"",""20"",""100358""
","""event"",""trial"",""time""
""blur"",""20"",""99431""
","""event"",""trial"",""time""
""focus"",""20"",""100358""
","""event"",""trial"",""time""
""fullscreenenter"",""1"",""6024""
","
","","2307.100000000093","","","","real_trial","2021-06-30 14:50:06.914","img/card_backs/set1/yellow.gif","3","180","1","",""
"casino-fixation","118","390470","0.0-25.0-0.24","130","false","img/card_backs/set1/yellow.gif","img/card_backs/set1/purple.gif","img/card_backs/set1/green.gif","img/card_backs/set1/red.gif","img/card_backs/set2/orange.gif","img/card_backs/set2/pink.gif","img/card_backs/set2/gray.gif","img/card_backs/set2/blue.gif","""event"",""trial"",""time""
""fullscreenenter"",""1"",""6024""
""blur"",""20"",""99431""
""focus"",""20"",""100358""
","""event"",""trial"",""time""
""blur"",""20"",""99431""
","""event"",""trial"",""time""
""focus"",""20"",""100358""
","""event"",""trial"",""time""
""fullscreenenter"",""1"",""6024""
","
","","null","","null","","fixation","2021-06-30 14:50:07.419","","","","","",""
"card-selection-trial","119","393465","0.0-25.0-1.24","130","false","img/card_backs/set1/yellow.gif","img/card_backs/set1/purple.gif","img/card_backs/set1/green.gif","img/card_backs/set1/red.gif","img/card_backs/set2/orange.gif","img/card_backs/set2/pink.gif","img/card_backs/set2/gray.gif","img/card_backs/set2/blue.gif","""event"",""trial"",""time""
""fullscreenenter"",""1"",""6024""
""blur"",""20"",""99431""
""focus"",""20"",""100358""
","""event"",""trial"",""time""
""blur"",""20"",""99431""
","""event"",""trial"",""time""
""focus"",""20"",""100358""
","""event"",""trial"",""time""
""fullscreenenter"",""1"",""6024""
","
","","974","","","","real_trial","2021-06-30 14:50:10.413","img/card_backs/set1/yellow.gif","1","-230","1","",""
"casino-fixation","120","393972","0.0-25.0-0.25","130","false","img/card_backs/set1/yellow.gif","img/card_backs/set1/purple.gif","img/card_backs/set1/green.gif","img/card_backs/set1/red.gif","img/card_backs/set2/orange.gif","img/card_backs/set2/pink.gif","img/card_backs/set2/gray.gif","img/card_backs/set2/blue.gif","""event"",""trial"",""time""
""fullscreenenter"",""1"",""6024""
""blur"",""20"",""99431""
""focus"",""20"",""100358""
","""event"",""trial"",""time""
""blur"",""20"",""99431""
","""event"",""trial"",""time""
""focus"",""20"",""100358""
","""event"",""trial"",""time""
""fullscreenenter"",""1"",""6024""
","
","","null","","null","","fixation","2021-06-30 14:50:10.921","","","","","",""
"card-selection-trial","121","397165","0.0-25.0-1.25","130","false","img/card_backs/set1/yellow.gif","img/card_backs/set1/purple.gif","img/card_backs/set1/green.gif","img/card_backs/set1/red.gif","img/card_backs/set2/orange.gif","img/card_backs/set2/pink.gif","img/card_backs/set2/gray.gif","img/card_backs/set2/blue.gif","""event"",""trial"",""time""
""fullscreenenter"",""1"",""6024""
""blur"",""20"",""99431""
""focus"",""20"",""100358""
","""event"",""trial"",""time""
""blur"",""20"",""99431""
","""event"",""trial"",""time""
""focus"",""20"",""100358""
","""event"",""trial"",""time""
""fullscreenenter"",""1"",""6024""
","
","","1174.5","","","","real_trial","2021-06-30 14:50:14.114","img/card_backs/set1/yellow.gif","0","180","1","",""
"casino-fixation","122","397671","0.0-25.0-0.26","130","false","img/card_backs/set1/yellow.gif","img/card_backs/set1/purple.gif","img/card_backs/set1/green.gif","img/card_backs/set1/red.gif","img/card_backs/set2/orange.gif","img/card_backs/set2/pink.gif","img/card_backs/set2/gray.gif","img/card_backs/set2/blue.gif","""event"",""trial"",""time""
""fullscreenenter"",""1"",""6024""
""blur"",""20"",""99431""
""focus"",""20"",""100358""
","""event"",""trial"",""time""
""blur"",""20"",""99431""
","""event"",""trial"",""time""
""focus"",""20"",""100358""
","""event"",""trial"",""time""
""fullscreenenter"",""1"",""6024""
","
","","null","","null","","fixation","2021-06-30 14:50:14.619","","","","","",""
"card-selection-trial","123","400204","0.0-25.0-1.26","130","false","img/card_backs/set1/yellow.gif","img/card_backs/set1/purple.gif","img/card_backs/set1/green.gif","img/card_backs/set1/red.gif","img/card_backs/set2/orange.gif","img/card_backs/set2/pink.gif","img/card_backs/set2/gray.gif","img/card_backs/set2/blue.gif","""event"",""trial"",""time""
""fullscreenenter"",""1"",""6024""
""blur"",""20"",""99431""
""focus"",""20"",""100358""
","""event"",""trial"",""time""
""blur"",""20"",""99431""
","""event"",""trial"",""time""
""focus"",""20"",""100358""
","""event"",""trial"",""time""
""fullscreenenter"",""1"",""6024""
","
","","513.5","","","","real_trial","2021-06-30 14:50:17.152","img/card_backs/set1/yellow.gif","0","180","1","",""
"casino-fixation","124","400708","0.0-25.0-0.27","130","false","img/card_backs/set1/yellow.gif","img/card_backs/set1/purple.gif","img/card_backs/set1/green.gif","img/card_backs/set1/red.gif","img/card_backs/set2/orange.gif","img/card_backs/set2/pink.gif","img/card_backs/set2/gray.gif","img/card_backs/set2/blue.gif","""event"",""trial"",""time""
""fullscreenenter"",""1"",""6024""
""blur"",""20"",""99431""
""focus"",""20"",""100358""
","""event"",""trial"",""time""
""blur"",""20"",""99431""
","""event"",""trial"",""time""
""focus"",""20"",""100358""
","""event"",""trial"",""time""
""fullscreenenter"",""1"",""6024""
","
","","null","","null","","fixation","2021-06-30 14:50:17.656","","","","","",""
"card-selection-trial","125","403781","0.0-25.0-1.27","130","false","img/card_backs/set1/yellow.gif","img/card_backs/set1/purple.gif","img/card_backs/set1/green.gif","img/card_backs/set1/red.gif","img/card_backs/set2/orange.gif","img/card_backs/set2/pink.gif","img/card_backs/set2/gray.gif","img/card_backs/set2/blue.gif","""event"",""trial"",""time""
""fullscreenenter"",""1"",""6024""
""blur"",""20"",""99431""
""focus"",""20"",""100358""
","""event"",""trial"",""time""
""blur"",""20"",""99431""
","""event"",""trial"",""time""
""focus"",""20"",""100358""
","""event"",""trial"",""time""
""fullscreenenter"",""1"",""6024""
","
","","1057.2000000001863","","","","real_trial","2021-06-30 14:50:20.729","img/card_backs/set1/yellow.gif","1","-230","1","",""
"casino-fixation","126","404285","0.0-25.0-0.28","130","false","img/card_backs/set1/yellow.gif","img/card_backs/set1/purple.gif","img/card_backs/set1/green.gif","img/card_backs/set1/red.gif","img/card_backs/set2/orange.gif","img/card_backs/set2/pink.gif","img/card_backs/set2/gray.gif","img/card_backs/set2/blue.gif","""event"",""trial"",""time""
""fullscreenenter"",""1"",""6024""
""blur"",""20"",""99431""
""focus"",""20"",""100358""
","""event"",""trial"",""time""
""blur"",""20"",""99431""
","""event"",""trial"",""time""
""focus"",""20"",""100358""
","""event"",""trial"",""time""
""fullscreenenter"",""1"",""6024""
","
","","null","","null","","fixation","2021-06-30 14:50:21.233","","","","","",""
"card-selection-trial","127","406316","0.0-25.0-1.28","130","false","img/card_backs/set1/yellow.gif","img/card_backs/set1/purple.gif","img/card_backs/set1/green.gif","img/card_backs/set1/red.gif","img/card_backs/set2/orange.gif","img/card_backs/set2/pink.gif","img/card_backs/set2/gray.gif","img/card_backs/set2/blue.gif","""event"",""trial"",""time""
""fullscreenenter"",""1"",""6024""
""blur"",""20"",""99431""
""focus"",""20"",""100358""
","""event"",""trial"",""time""
""blur"",""20"",""99431""
","""event"",""trial"",""time""
""focus"",""20"",""100358""
","""event"",""trial"",""time""
""fullscreenenter"",""1"",""6024""
","
","","19.200000000186265","","","","real_trial","2021-06-30 14:50:23.264","img/card_backs/set1/purple.gif","0","-230","1","",""
"casino-fixation","128","406820","0.0-25.0-0.29","130","false","img/card_backs/set1/yellow.gif","img/card_backs/set1/purple.gif","img/card_backs/set1/green.gif","img/card_backs/set1/red.gif","img/card_backs/set2/orange.gif","img/card_backs/set2/pink.gif","img/card_backs/set2/gray.gif","img/card_backs/set2/blue.gif","""event"",""trial"",""time""
""fullscreenenter"",""1"",""6024""
""blur"",""20"",""99431""
""focus"",""20"",""100358""
","""event"",""trial"",""time""
""blur"",""20"",""99431""
","""event"",""trial"",""time""
""focus"",""20"",""100358""
","""event"",""trial"",""time""
""fullscreenenter"",""1"",""6024""
","
","","null","","null","","fixation","2021-06-30 14:50:23.768","","","","","",""
"card-selection-trial","129","410044","0.0-25.0-1.29","130","false","img/card_backs/set1/yellow.gif","img/card_backs/set1/purple.gif","img/card_backs/set1/green.gif","img/card_backs/set1/red.gif","img/card_backs/set2/orange.gif","img/card_backs/set2/pink.gif","img/card_backs/set2/gray.gif","img/card_backs/set2/blue.gif","""event"",""trial"",""time""
""fullscreenenter"",""1"",""6024""
""blur"",""20"",""99431""
""focus"",""20"",""100358""
","""event"",""trial"",""time""
""blur"",""20"",""99431""
","""event"",""trial"",""time""
""focus"",""20"",""100358""
","""event"",""trial"",""time""
""fullscreenenter"",""1"",""6024""
","
","","1209.3999999999069","","","","real_trial","2021-06-30 14:50:26.992","img/card_backs/set1/yellow.gif","3","180","1","",""
"casino-fixation","130","410548","0.0-25.0-0.30","130","false","img/card_backs/set1/yellow.gif","img/card_backs/set1/purple.gif","img/card_backs/set1/green.gif","img/card_backs/set1/red.gif","img/card_backs/set2/orange.gif","img/card_backs/set2/pink.gif","img/card_backs/set2/gray.gif","img/card_backs/set2/blue.gif","""event"",""trial"",""time""
""fullscreenenter"",""1"",""6024""
""blur"",""20"",""99431""
""focus"",""20"",""100358""
","""event"",""trial"",""time""
""blur"",""20"",""99431""
","""event"",""trial"",""time""
""focus"",""20"",""100358""
","""event"",""trial"",""time""
""fullscreenenter"",""1"",""6024""
","
","","null","","null","","fixation","2021-06-30 14:50:27.496","","","","","",""
"card-selection-trial","131","413351","0.0-25.0-1.30","130","false","img/card_backs/set1/yellow.gif","img/card_backs/set1/purple.gif","img/card_backs/set1/green.gif","img/card_backs/set1/red.gif","img/card_backs/set2/orange.gif","img/card_backs/set2/pink.gif","img/card_backs/set2/gray.gif","img/card_backs/set2/blue.gif","""event"",""trial"",""time""
""fullscreenenter"",""1"",""6024""
""blur"",""20"",""99431""
""focus"",""20"",""100358""
","""event"",""trial"",""time""
""blur"",""20"",""99431""
","""event"",""trial"",""time""
""focus"",""20"",""100358""
","""event"",""trial"",""time""
""fullscreenenter"",""1"",""6024""
","
","","786.7000000001863","","","","real_trial","2021-06-30 14:50:30.299","img/card_backs/set1/yellow.gif","0","-250","1","",""
"casino-fixation","132","413855","0.0-25.0-0.31","130","false","img/card_backs/set1/yellow.gif","img/card_backs/set1/purple.gif","img/card_backs/set1/green.gif","img/card_backs/set1/red.gif","img/card_backs/set2/orange.gif","img/card_backs/set2/pink.gif","img/card_backs/set2/gray.gif","img/card_backs/set2/blue.gif","""event"",""trial"",""time""
""fullscreenenter"",""1"",""6024""
""blur"",""20"",""99431""
""focus"",""20"",""100358""
","""event"",""trial"",""time""
""blur"",""20"",""99431""
","""event"",""trial"",""time""
""focus"",""20"",""100358""
","""event"",""trial"",""time""
""fullscreenenter"",""1"",""6024""
","
","","null","","null","","fixation","2021-06-30 14:50:30.804","","","","","",""
"card-selection-trial","133","417162","0.0-25.0-1.31","130","false","img/card_backs/set1/yellow.gif","img/card_backs/set1/purple.gif","img/card_backs/set1/green.gif","img/card_backs/set1/red.gif","img/card_backs/set2/orange.gif","img/card_backs/set2/pink.gif","img/card_backs/set2/gray.gif","img/card_backs/set2/blue.gif","""event"",""trial"",""time""
""fullscreenenter"",""1"",""6024""
""blur"",""20"",""99431""
""focus"",""20"",""100358""
","""event"",""trial"",""time""
""blur"",""20"",""99431""
","""event"",""trial"",""time""
""focus"",""20"",""100358""
","""event"",""trial"",""time""
""fullscreenenter"",""1"",""6024""
","
","","1292.6999999997206","","","","real_trial","2021-06-30 14:50:34.110","img/card_backs/set1/green.gif","1","120","1","",""
