"trial_type","trial_index","time_elapsed","internal_node_id","sub_id","risk_good_first","block1_A","block1_B","block1_C","block1_D","block2_A","block2_B","block2_C","block2_D","interactions","blur_events","focus_events","fullscreenenter_events","fullscreenexit_events","success","rt","stimulus","key_press","button_pressed","task_part","timestamp","card_choice","choice_position","points_earned","block","correct","response"
"pavlovia","0","10","0.0-0.0","841","true","img/card_backs/set1/green.gif","img/card_backs/set1/red.gif","img/card_backs/set1/yellow.gif","img/card_backs/set1/purple.gif","img/card_backs/set2/pink.gif","img/card_backs/set2/orange.gif","img/card_backs/set2/gray.gif","img/card_backs/set2/blue.gif","""event"",""trial"",""time""
""fullscreenenter"",""1"",""7669""
","
","
","""event"",""trial"",""time""
""fullscreenenter"",""1"",""7669""
","
","","","","","","","","","","","","",""
"fullscreen","1","8619","0.0-1.0","841","true","img/card_backs/set1/green.gif","img/card_backs/set1/red.gif","img/card_backs/set1/yellow.gif","img/card_backs/set1/purple.gif","img/card_backs/set2/pink.gif","img/card_backs/set2/orange.gif","img/card_backs/set2/gray.gif","img/card_backs/set2/blue.gif","""event"",""trial"",""time""
""fullscreenenter"",""1"",""7669""
","
","
","""event"",""trial"",""time""
""fullscreenenter"",""1"",""7669""
","
","true","","","","","","","","","","","",""
"audio-keyboard-response","2","10425","0.0-2.0","841","true","img/card_backs/set1/green.gif","img/card_backs/set1/red.gif","img/card_backs/set1/yellow.gif","img/card_backs/set1/purple.gif","img/card_backs/set2/pink.gif","img/card_backs/set2/orange.gif","img/card_backs/set2/gray.gif","img/card_backs/set2/blue.gif","""event"",""trial"",""time""
""fullscreenenter"",""1"",""7669""
","
","
","""event"",""trial"",""time""
""fullscreenenter"",""1"",""7669""
","
","","1664","audio/beep_loop.wav","32","","","","","","","","",""
"audio-button-response","3","12776","0.0-3.0","841","true","img/card_backs/set1/green.gif","img/card_backs/set1/red.gif","img/card_backs/set1/yellow.gif","img/card_backs/set1/purple.gif","img/card_backs/set2/pink.gif","img/card_backs/set2/orange.gif","img/card_backs/set2/gray.gif","img/card_backs/set2/blue.gif","""event"",""trial"",""time""
""fullscreenenter"",""1"",""7669""
","
","
","""event"",""trial"",""time""
""fullscreenenter"",""1"",""7669""
","
","","NaN","audio/turtle.mp3","","3","","","","","","","",""
"audio-button-response","4","14836","0.0-4.0","841","true","img/card_backs/set1/green.gif","img/card_backs/set1/red.gif","img/card_backs/set1/yellow.gif","img/card_backs/set1/purple.gif","img/card_backs/set2/pink.gif","img/card_backs/set2/orange.gif","img/card_backs/set2/gray.gif","img/card_backs/set2/blue.gif","""event"",""trial"",""time""
""fullscreenenter"",""1"",""7669""
","
","
","""event"",""trial"",""time""
""fullscreenenter"",""1"",""7669""
","
","","NaN","audio/shark.mp3","","2","","","","","","","",""
"fullscreen","5","18149","0.0-5.0","841","true","img/card_backs/set1/green.gif","img/card_backs/set1/red.gif","img/card_backs/set1/yellow.gif","img/card_backs/set1/purple.gif","img/card_backs/set2/pink.gif","img/card_backs/set2/orange.gif","img/card_backs/set2/gray.gif","img/card_backs/set2/blue.gif","""event"",""trial"",""time""
""fullscreenenter"",""1"",""7669""
","
","
","""event"",""trial"",""time""
""fullscreenenter"",""1"",""7669""
","
","true","","","","","","","","","","","",""
"casino-keyboard-response","6","21360","0.0-6.0-0.0","841","true","img/card_backs/set1/green.gif","img/card_backs/set1/red.gif","img/card_backs/set1/yellow.gif","img/card_backs/set1/purple.gif","img/card_backs/set2/pink.gif","img/card_backs/set2/orange.gif","img/card_backs/set2/gray.gif","img/card_backs/set2/blue.gif","""event"",""trial"",""time""
""fullscreenenter"",""1"",""7669""
","
","
","""event"",""trial"",""time""
""fullscreenenter"",""1"",""7669""
","
","","3191.5","Welcome to the casino!","71","","instructions","2021-07-14 22:09:05.809","","","","","",""
"casino-keyboard-response","7","30827","0.0-6.0-0.1","841","true","img/card_backs/set1/green.gif","img/card_backs/set1/red.gif","img/card_backs/set1/yellow.gif","img/card_backs/set1/purple.gif","img/card_backs/set2/pink.gif","img/card_backs/set2/orange.gif","img/card_backs/set2/gray.gif","img/card_backs/set2/blue.gif","""event"",""trial"",""time""
""fullscreenenter"",""1"",""7669""
","
","
","""event"",""trial"",""time""
""fullscreenenter"",""1"",""7669""
","
","","9464.5","Today you will be playing a game to earn tokens. </br> At the end of the experiment, you will be paid a bonus based on how many tokens you win. ","69","","instructions","2021-07-14 22:09:15.277","","","","","",""
"casino-keyboard-response","8","42062","0.0-6.0-0.2","841","true","img/card_backs/set1/green.gif","img/card_backs/set1/red.gif","img/card_backs/set1/yellow.gif","img/card_backs/set1/purple.gif","img/card_backs/set2/pink.gif","img/card_backs/set2/orange.gif","img/card_backs/set2/gray.gif","img/card_backs/set2/blue.gif","""event"",""trial"",""time""
""fullscreenenter"",""1"",""7669""
","
","
","""event"",""trial"",""time""
""fullscreenenter"",""1"",""7669""
","
","","11231.79999999702","On every turn, you will be shown four different decks of cards. </br> You need to select a card from one of the four decks.  ","75","","instructions","2021-07-14 22:09:26.511","","","","","",""
"casino-keyboard-response","9","46562","0.0-6.0-0.3","841","true","img/card_backs/set1/green.gif","img/card_backs/set1/red.gif","img/card_backs/set1/yellow.gif","img/card_backs/set1/purple.gif","img/card_backs/set2/pink.gif","img/card_backs/set2/orange.gif","img/card_backs/set2/gray.gif","img/card_backs/set2/blue.gif","""event"",""trial"",""time""
""fullscreenenter"",""1"",""7669""
","
","
","""event"",""trial"",""time""
""fullscreenenter"",""1"",""7669""
","
","","4497.5","On the next screen, you will see what the decks will look like. ","66","","instructions","2021-07-14 22:09:31.011","","","","","",""
"card-selection-trial","10","50567","0.0-7.0-0.0","841","true","img/card_backs/set1/green.gif","img/card_backs/set1/red.gif","img/card_backs/set1/yellow.gif","img/card_backs/set1/purple.gif","img/card_backs/set2/pink.gif","img/card_backs/set2/orange.gif","img/card_backs/set2/gray.gif","img/card_backs/set2/blue.gif","""event"",""trial"",""time""
""fullscreenenter"",""1"",""7669""
","
","
","""event"",""trial"",""time""
""fullscreenenter"",""1"",""7669""
","
","","null","","","","practice","2021-07-14 22:09:35.017","null","null","null","0","",""
"casino-keyboard-response","11","61380","0.0-8.0-0.0","841","true","img/card_backs/set1/green.gif","img/card_backs/set1/red.gif","img/card_backs/set1/yellow.gif","img/card_backs/set1/purple.gif","img/card_backs/set2/pink.gif","img/card_backs/set2/orange.gif","img/card_backs/set2/gray.gif","img/card_backs/set2/blue.gif","""event"",""trial"",""time""
""fullscreenenter"",""1"",""7669""
","
","
","""event"",""trial"",""time""
""fullscreenenter"",""1"",""7669""
","
","","10810.39999999106","You should pick a card from a deck using the '2', '4', '6', and '8' keys at the top of the keyboard.","85","","instructions","2021-07-14 22:09:45.829","","","","","",""
"casino-keyboard-response","12","67382","0.0-8.0-0.1","841","true","img/card_backs/set1/green.gif","img/card_backs/set1/red.gif","img/card_backs/set1/yellow.gif","img/card_backs/set1/purple.gif","img/card_backs/set2/pink.gif","img/card_backs/set2/orange.gif","img/card_backs/set2/gray.gif","img/card_backs/set2/blue.gif","""event"",""trial"",""time""
""fullscreenenter"",""1"",""7669""
","
","
","""event"",""trial"",""time""
""fullscreenenter"",""1"",""7669""
","
","","5999.9000000059605","Once you select a card, it will turn over and you will see how many tokens you earned.","83","","instructions","2021-07-14 22:09:51.831","","","","","",""
"casino-keyboard-response","13","81801","0.0-8.0-0.2","841","true","img/card_backs/set1/green.gif","img/card_backs/set1/red.gif","img/card_backs/set1/yellow.gif","img/card_backs/set1/purple.gif","img/card_backs/set2/pink.gif","img/card_backs/set2/orange.gif","img/card_backs/set2/gray.gif","img/card_backs/set2/blue.gif","""event"",""trial"",""time""
""fullscreenenter"",""1"",""7669""
","
","
","""event"",""trial"",""time""
""fullscreenenter"",""1"",""7669""
","
","","14416.09999999404","Let's try practicing that! </br> First, try to put your fingers over the '2', '4', '6', and '8' keys. </br>  You can use whatever fingers are most comfortable for you. Try to find a comfortable position now. ","50","","instructions","2021-07-14 22:10:06.250","","","","","",""
"casino-keyboard-response","14","85650","0.0-8.0-0.3","841","true","img/card_backs/set1/green.gif","img/card_backs/set1/red.gif","img/card_backs/set1/yellow.gif","img/card_backs/set1/purple.gif","img/card_backs/set2/pink.gif","img/card_backs/set2/orange.gif","img/card_backs/set2/gray.gif","img/card_backs/set2/blue.gif","""event"",""trial"",""time""
""fullscreenenter"",""1"",""7669""
","
","
","""event"",""trial"",""time""
""fullscreenenter"",""1"",""7669""
","
","","3846.5","Okay ready? </br> On the next screen, press '2' to select the left deck. ","50","","instructions","2021-07-14 22:10:10.099","","","","","",""
"card-selection-trial","15","88909","0.0-9.0-0.0","841","true","img/card_backs/set1/green.gif","img/card_backs/set1/red.gif","img/card_backs/set1/yellow.gif","img/card_backs/set1/purple.gif","img/card_backs/set2/pink.gif","img/card_backs/set2/orange.gif","img/card_backs/set2/gray.gif","img/card_backs/set2/blue.gif","""event"",""trial"",""time""
""fullscreenenter"",""1"",""7669""
","
","
","""event"",""trial"",""time""
""fullscreenenter"",""1"",""7669""
","
","","1206.5","","","","practice_card_selection","2021-07-14 22:10:13.358","img/practice_cards/backs/brown.gif","0","-100","","",""
"casino-keyboard-response","16","94411","0.0-10.0-0.0","841","true","img/card_backs/set1/green.gif","img/card_backs/set1/red.gif","img/card_backs/set1/yellow.gif","img/card_backs/set1/purple.gif","img/card_backs/set2/pink.gif","img/card_backs/set2/orange.gif","img/card_backs/set2/gray.gif","img/card_backs/set2/blue.gif","""event"",""trial"",""time""
""fullscreenenter"",""1"",""7669""
","
","
","""event"",""trial"",""time""
""fullscreenenter"",""1"",""7669""
","
","","5499.5","Great! Now on the next screen, try pressing '6' to select the third deck.","54","","instructions","2021-07-14 22:10:18.860","","","","","",""
"card-selection-trial","17","96995","0.0-11.0-0.0","841","true","img/card_backs/set1/green.gif","img/card_backs/set1/red.gif","img/card_backs/set1/yellow.gif","img/card_backs/set1/purple.gif","img/card_backs/set2/pink.gif","img/card_backs/set2/orange.gif","img/card_backs/set2/gray.gif","img/card_backs/set2/blue.gif","""event"",""trial"",""time""
""fullscreenenter"",""1"",""7669""
","
","
","""event"",""trial"",""time""
""fullscreenenter"",""1"",""7669""
","
","","579.1000000089407","","","","practice_card_selection","2021-07-14 22:10:21.444","img/practice_cards/backs/brown.gif","2","-100","","",""
"casino-keyboard-response","18","98065","0.0-12.0-0.0","841","true","img/card_backs/set1/green.gif","img/card_backs/set1/red.gif","img/card_backs/set1/yellow.gif","img/card_backs/set1/purple.gif","img/card_backs/set2/pink.gif","img/card_backs/set2/orange.gif","img/card_backs/set2/gray.gif","img/card_backs/set2/blue.gif","""event"",""trial"",""time""
""fullscreenenter"",""1"",""7669""
","
","
","""event"",""trial"",""time""
""fullscreenenter"",""1"",""7669""
","
","","1067.2000000029802","Now on the next screen, try pressing '4' to select the second deck.","52","","instructions","2021-07-14 22:10:22.514","","","","","",""
"card-selection-trial","19","100518","0.0-13.0-0.0","841","true","img/card_backs/set1/green.gif","img/card_backs/set1/red.gif","img/card_backs/set1/yellow.gif","img/card_backs/set1/purple.gif","img/card_backs/set2/pink.gif","img/card_backs/set2/orange.gif","img/card_backs/set2/gray.gif","img/card_backs/set2/blue.gif","""event"",""trial"",""time""
""fullscreenenter"",""1"",""7669""
","
","
","""event"",""trial"",""time""
""fullscreenenter"",""1"",""7669""
","
","","443.69999998807907","","","","practice_card_selection","2021-07-14 22:10:24.968","img/practice_cards/backs/black.gif","1","100","","",""
"casino-keyboard-response","20","101418","0.0-14.0-0.0","841","true","img/card_backs/set1/green.gif","img/card_backs/set1/red.gif","img/card_backs/set1/yellow.gif","img/card_backs/set1/purple.gif","img/card_backs/set2/pink.gif","img/card_backs/set2/orange.gif","img/card_backs/set2/gray.gif","img/card_backs/set2/blue.gif","""event"",""trial"",""time""
""fullscreenenter"",""1"",""7669""
","
","
","""event"",""trial"",""time""
""fullscreenenter"",""1"",""7669""
","
","","897.4000000059605","Finally, try pressing '8' to select the deck all the way on the right.","56","","instructions","2021-07-14 22:10:25.867","","","","","",""
"card-selection-trial","21","103802","0.0-15.0-0.0","841","true","img/card_backs/set1/green.gif","img/card_backs/set1/red.gif","img/card_backs/set1/yellow.gif","img/card_backs/set1/purple.gif","img/card_backs/set2/pink.gif","img/card_backs/set2/orange.gif","img/card_backs/set2/gray.gif","img/card_backs/set2/blue.gif","""event"",""trial"",""time""
""fullscreenenter"",""1"",""7669""
","
","
","""event"",""trial"",""time""
""fullscreenenter"",""1"",""7669""
","
","","372.90000000596046","","","","practice_card_selection","2021-07-14 22:10:28.251","img/practice_cards/backs/brown.gif","3","-100","","",""
"casino-keyboard-response","22","107352","0.0-16.0-0.0","841","true","img/card_backs/set1/green.gif","img/card_backs/set1/red.gif","img/card_backs/set1/yellow.gif","img/card_backs/set1/purple.gif","img/card_backs/set2/pink.gif","img/card_backs/set2/orange.gif","img/card_backs/set2/gray.gif","img/card_backs/set2/blue.gif","""event"",""trial"",""time""
""fullscreenenter"",""1"",""7669""
","
","
","""event"",""trial"",""time""
""fullscreenenter"",""1"",""7669""
","
","","3548.300000011921","Great! It seems like you are getting the hang of this.","80","","instructions","2021-07-14 22:10:31.801","","","","","",""
"casino-keyboard-response","23","115201","0.0-16.0-0.1","841","true","img/card_backs/set1/green.gif","img/card_backs/set1/red.gif","img/card_backs/set1/yellow.gif","img/card_backs/set1/purple.gif","img/card_backs/set2/pink.gif","img/card_backs/set2/orange.gif","img/card_backs/set2/gray.gif","img/card_backs/set2/blue.gif","""event"",""trial"",""time""
""fullscreenenter"",""1"",""7669""
","
","
","""event"",""trial"",""time""
""fullscreenenter"",""1"",""7669""
","
","","7846.899999991059","You may have noticed that some cards will cause you to <b> win </b> tokens while other cards will cause you to <b> lose </b>  tokens.","70","","instructions","2021-07-14 22:10:39.650","","","","","",""
"casino-keyboard-response","24","124907","0.0-16.0-0.2","841","true","img/card_backs/set1/green.gif","img/card_backs/set1/red.gif","img/card_backs/set1/yellow.gif","img/card_backs/set1/purple.gif","img/card_backs/set2/pink.gif","img/card_backs/set2/orange.gif","img/card_backs/set2/gray.gif","img/card_backs/set2/blue.gif","""event"",""trial"",""time""
""fullscreenenter"",""1"",""7669""
","
","
","""event"",""trial"",""time""
""fullscreenenter"",""1"",""7669""
","
","","9703.29999999702","Each deck has a mix of cards that will cause you to win and lose tokens. </br> However, the cards in each colored deck are different.","73","","instructions","2021-07-14 22:10:49.356","","","","","",""
"casino-keyboard-response","25","134256","0.0-16.0-0.3","841","true","img/card_backs/set1/green.gif","img/card_backs/set1/red.gif","img/card_backs/set1/yellow.gif","img/card_backs/set1/purple.gif","img/card_backs/set2/pink.gif","img/card_backs/set2/orange.gif","img/card_backs/set2/gray.gif","img/card_backs/set2/blue.gif","""event"",""trial"",""time""
""fullscreenenter"",""1"",""7669""
","
","
","""event"",""trial"",""time""
""fullscreenenter"",""1"",""7669""
","
","","9346.70000000298","Some colored decks are luckier than others. </br> If you choose the lucky decks, you will earn more tokens than if you choose the unlucky decks.","69","","instructions","2021-07-14 22:10:58.705","","","","","",""
"casino-keyboard-response","26","142203","0.0-16.0-0.4","841","true","img/card_backs/set1/green.gif","img/card_backs/set1/red.gif","img/card_backs/set1/yellow.gif","img/card_backs/set1/purple.gif","img/card_backs/set2/pink.gif","img/card_backs/set2/orange.gif","img/card_backs/set2/gray.gif","img/card_backs/set2/blue.gif","""event"",""trial"",""time""
""fullscreenenter"",""1"",""7669""
","
","
","""event"",""trial"",""time""
""fullscreenenter"",""1"",""7669""
","
","","7944.600000008941","You should try to figure out which decks are lucky. </br> Then, try to choose the lucky decks so you can win the most tokens.","87","","instructions","2021-07-14 22:11:06.652","","","","","",""
"casino-keyboard-response","27","154206","0.0-16.0-0.5","841","true","img/card_backs/set1/green.gif","img/card_backs/set1/red.gif","img/card_backs/set1/yellow.gif","img/card_backs/set1/purple.gif","img/card_backs/set2/pink.gif","img/card_backs/set2/orange.gif","img/card_backs/set2/gray.gif","img/card_backs/set2/blue.gif","""event"",""trial"",""time""
""fullscreenenter"",""1"",""7669""
","
","
","""event"",""trial"",""time""
""fullscreenenter"",""1"",""7669""
","
","","11998.89999999106","To make it trickier, the casino dealer will switch the locations of the decks on every turn. </br> The color of the deck determines how lucky it is. The location does not matter.","88","","instructions","2021-07-14 22:11:18.655","","","","","",""
"casino-keyboard-response","28","163679","0.0-16.0-0.6","841","true","img/card_backs/set1/green.gif","img/card_backs/set1/red.gif","img/card_backs/set1/yellow.gif","img/card_backs/set1/purple.gif","img/card_backs/set2/pink.gif","img/card_backs/set2/orange.gif","img/card_backs/set2/gray.gif","img/card_backs/set2/blue.gif","""event"",""trial"",""time""
""fullscreenenter"",""1"",""7669""
","
","
","""event"",""trial"",""time""
""fullscreenenter"",""1"",""7669""
","
","","9471","The mix of cards in each colored deck will stay the same throughout the game. </br> That means that a deck that is lucky early on will stay lucky.","79","","instructions","2021-07-14 22:11:28.128","","","","","",""
"casino-keyboard-response","29","173404","0.0-16.0-0.7","841","true","img/card_backs/set1/green.gif","img/card_backs/set1/red.gif","img/card_backs/set1/yellow.gif","img/card_backs/set1/purple.gif","img/card_backs/set2/pink.gif","img/card_backs/set2/orange.gif","img/card_backs/set2/gray.gif","img/card_backs/set2/blue.gif","""event"",""trial"",""time""
""fullscreenenter"",""1"",""7669""
","
","
","""event"",""trial"",""time""
""fullscreenenter"",""1"",""7669""
","
","","9722.70000000298","Remember though, all the decks have a <b> mix </b> of both <b> good </b> and <b> bad </b> cards so it may take a couple of turns to figure out if a deck is lucky.","69","","instructions","2021-07-14 22:11:37.854","","","","","",""
"casino-keyboard-response","30","181594","0.0-16.0-0.8","841","true","img/card_backs/set1/green.gif","img/card_backs/set1/red.gif","img/card_backs/set1/yellow.gif","img/card_backs/set1/purple.gif","img/card_backs/set2/pink.gif","img/card_backs/set2/orange.gif","img/card_backs/set2/gray.gif","img/card_backs/set2/blue.gif","""event"",""trial"",""time""
""fullscreenenter"",""1"",""7669""
","
","
","""event"",""trial"",""time""
""fullscreenenter"",""1"",""7669""
","
","","8186.4000000059605","At the end of the game, you will be paid bonus money based on how many tokens you win. </br> If you win more tokens, you will earn more money!","72","","instructions","2021-07-14 22:11:46.043","","","","","",""
"casino-keyboard-response","31","192288","0.0-16.0-0.9","841","true","img/card_backs/set1/green.gif","img/card_backs/set1/red.gif","img/card_backs/set1/yellow.gif","img/card_backs/set1/purple.gif","img/card_backs/set2/pink.gif","img/card_backs/set2/orange.gif","img/card_backs/set2/gray.gif","img/card_backs/set2/blue.gif","""event"",""trial"",""time""
""fullscreenenter"",""1"",""7669""
","
","
","""event"",""trial"",""time""
""fullscreenenter"",""1"",""7669""
","
","","10691.20000000298","You will never <b> lose </b> money. </br> If you end up with fewer than 0 tokens, you will earn $0 of bonus money, but you will still be paid for playing the game.","83","","instructions","2021-07-14 22:11:56.737","","","","","",""
"casino-keyboard-response","32","197511","0.0-16.0-0.10","841","true","img/card_backs/set1/green.gif","img/card_backs/set1/red.gif","img/card_backs/set1/yellow.gif","img/card_backs/set1/purple.gif","img/card_backs/set2/pink.gif","img/card_backs/set2/orange.gif","img/card_backs/set2/gray.gif","img/card_backs/set2/blue.gif","""event"",""trial"",""time""
""fullscreenenter"",""1"",""7669""
","
","
","""event"",""trial"",""time""
""fullscreenenter"",""1"",""7669""
","
","","5221","You will have 10 seconds to make each choice.","82","","instructions","2021-07-14 22:12:01.960","","","","","",""
"casino-keyboard-response","33","212850","0.0-16.0-0.11","841","true","img/card_backs/set1/green.gif","img/card_backs/set1/red.gif","img/card_backs/set1/yellow.gif","img/card_backs/set1/purple.gif","img/card_backs/set2/pink.gif","img/card_backs/set2/orange.gif","img/card_backs/set2/gray.gif","img/card_backs/set2/blue.gif","""event"",""trial"",""time""
""fullscreenenter"",""1"",""7669""
","
","
","""event"",""trial"",""time""
""fullscreenenter"",""1"",""7669""
","
","","15335.5","Before you play the game for real, you will play with practice decks. </br> The tokens you earn during practice won't count toward your total.","86","","instructions","2021-07-14 22:12:17.300","","","","","",""
"casino-keyboard-response","34","220226","0.0-16.0-0.12","841","true","img/card_backs/set1/green.gif","img/card_backs/set1/red.gif","img/card_backs/set1/yellow.gif","img/card_backs/set1/purple.gif","img/card_backs/set2/pink.gif","img/card_backs/set2/orange.gif","img/card_backs/set2/gray.gif","img/card_backs/set2/blue.gif","""event"",""trial"",""time""
""fullscreenenter"",""1"",""7669""
","
","
","""event"",""trial"",""time""
""fullscreenenter"",""1"",""7669""
","
","","7372.70000000298","Ready? Remember, use the '2', '4', '6', and '8' keys to select the decks. </br> Put your fingers on those keys now and then press '2' to begin.","50","","instructions","2021-07-14 22:12:24.675","","","","","",""
"casino-fixation","35","220729","0.0-17.0-0.0","841","true","img/card_backs/set1/green.gif","img/card_backs/set1/red.gif","img/card_backs/set1/yellow.gif","img/card_backs/set1/purple.gif","img/card_backs/set2/pink.gif","img/card_backs/set2/orange.gif","img/card_backs/set2/gray.gif","img/card_backs/set2/blue.gif","""event"",""trial"",""time""
""fullscreenenter"",""1"",""7669""
","
","
","""event"",""trial"",""time""
""fullscreenenter"",""1"",""7669""
","
","","null","","null","","fixation","2021-07-14 22:12:25.178","","","","","",""
"card-selection-trial","36","223537","0.0-17.0-1.0","841","true","img/card_backs/set1/green.gif","img/card_backs/set1/red.gif","img/card_backs/set1/yellow.gif","img/card_backs/set1/purple.gif","img/card_backs/set2/pink.gif","img/card_backs/set2/orange.gif","img/card_backs/set2/gray.gif","img/card_backs/set2/blue.gif","""event"",""trial"",""time""
""fullscreenenter"",""1"",""7669""
","
","
","""event"",""trial"",""time""
""fullscreenenter"",""1"",""7669""
","
","","800.4000000059605","","","","practice","2021-07-14 22:12:27.986","img/practice_cards/backs/dark_green.gif","1","-200","0","",""
"casino-fixation","37","224039","0.0-17.0-0.1","841","true","img/card_backs/set1/green.gif","img/card_backs/set1/red.gif","img/card_backs/set1/yellow.gif","img/card_backs/set1/purple.gif","img/card_backs/set2/pink.gif","img/card_backs/set2/orange.gif","img/card_backs/set2/gray.gif","img/card_backs/set2/blue.gif","""event"",""trial"",""time""
""fullscreenenter"",""1"",""7669""
","
","
","""event"",""trial"",""time""
""fullscreenenter"",""1"",""7669""
","
","","null","","null","","fixation","2021-07-14 22:12:28.488","","","","","",""
"card-selection-trial","38","226594","0.0-17.0-1.1","841","true","img/card_backs/set1/green.gif","img/card_backs/set1/red.gif","img/card_backs/set1/yellow.gif","img/card_backs/set1/purple.gif","img/card_backs/set2/pink.gif","img/card_backs/set2/orange.gif","img/card_backs/set2/gray.gif","img/card_backs/set2/blue.gif","""event"",""trial"",""time""
""fullscreenenter"",""1"",""7669""
","
","
","""event"",""trial"",""time""
""fullscreenenter"",""1"",""7669""
","
","","545.5","","","","practice","2021-07-14 22:12:31.043","img/practice_cards/backs/dark_green.gif","3","-200","0","",""
"casino-fixation","39","227095","0.0-17.0-0.2","841","true","img/card_backs/set1/green.gif","img/card_backs/set1/red.gif","img/card_backs/set1/yellow.gif","img/card_backs/set1/purple.gif","img/card_backs/set2/pink.gif","img/card_backs/set2/orange.gif","img/card_backs/set2/gray.gif","img/card_backs/set2/blue.gif","""event"",""trial"",""time""
""fullscreenenter"",""1"",""7669""
","
","
","""event"",""trial"",""time""
""fullscreenenter"",""1"",""7669""
","
","","null","","null","","fixation","2021-07-14 22:12:31.544","","","","","",""
"card-selection-trial","40","231081","0.0-17.0-1.2","841","true","img/card_backs/set1/green.gif","img/card_backs/set1/red.gif","img/card_backs/set1/yellow.gif","img/card_backs/set1/purple.gif","img/card_backs/set2/pink.gif","img/card_backs/set2/orange.gif","img/card_backs/set2/gray.gif","img/card_backs/set2/blue.gif","""event"",""trial"",""time""
""fullscreenenter"",""1"",""7669""
","
","
","""event"",""trial"",""time""
""fullscreenenter"",""1"",""7669""
","
","","1977.8999999910593","","","","practice","2021-07-14 22:12:35.530","img/practice_cards/backs/dark_blue.gif","1","200","0","",""
"casino-fixation","41","231583","0.0-17.0-0.3","841","true","img/card_backs/set1/green.gif","img/card_backs/set1/red.gif","img/card_backs/set1/yellow.gif","img/card_backs/set1/purple.gif","img/card_backs/set2/pink.gif","img/card_backs/set2/orange.gif","img/card_backs/set2/gray.gif","img/card_backs/set2/blue.gif","""event"",""trial"",""time""
""fullscreenenter"",""1"",""7669""
","
","
","""event"",""trial"",""time""
""fullscreenenter"",""1"",""7669""
","
","","null","","null","","fixation","2021-07-14 22:12:36.033","","","","","",""
"card-selection-trial","42","241156","0.0-17.0-1.3","841","true","img/card_backs/set1/green.gif","img/card_backs/set1/red.gif","img/card_backs/set1/yellow.gif","img/card_backs/set1/purple.gif","img/card_backs/set2/pink.gif","img/card_backs/set2/orange.gif","img/card_backs/set2/gray.gif","img/card_backs/set2/blue.gif","""event"",""trial"",""time""
""fullscreenenter"",""1"",""7669""
","
","
","""event"",""trial"",""time""
""fullscreenenter"",""1"",""7669""
","
","","7561.899999991059","","","","practice","2021-07-14 22:12:45.606","img/practice_cards/backs/dark_blue.gif","3","-200","0","",""
"casino-fixation","43","241659","0.0-17.0-0.4","841","true","img/card_backs/set1/green.gif","img/card_backs/set1/red.gif","img/card_backs/set1/yellow.gif","img/card_backs/set1/purple.gif","img/card_backs/set2/pink.gif","img/card_backs/set2/orange.gif","img/card_backs/set2/gray.gif","img/card_backs/set2/blue.gif","""event"",""trial"",""time""
""fullscreenenter"",""1"",""7669""
","
","
","""event"",""trial"",""time""
""fullscreenenter"",""1"",""7669""
","
","","null","","null","","fixation","2021-07-14 22:12:46.108","","","","","",""
"card-selection-trial","44","246107","0.0-17.0-1.4","841","true","img/card_backs/set1/green.gif","img/card_backs/set1/red.gif","img/card_backs/set1/yellow.gif","img/card_backs/set1/purple.gif","img/card_backs/set2/pink.gif","img/card_backs/set2/orange.gif","img/card_backs/set2/gray.gif","img/card_backs/set2/blue.gif","""event"",""trial"",""time""
""fullscreenenter"",""1"",""7669""
","
","
","""event"",""trial"",""time""
""fullscreenenter"",""1"",""7669""
","
","","2436.8999999910593","","","","practice","2021-07-14 22:12:50.556","img/practice_cards/backs/dark_green.gif","0","200","0","",""
"casino-fixation","45","246609","0.0-17.0-0.5","841","true","img/card_backs/set1/green.gif","img/card_backs/set1/red.gif","img/card_backs/set1/yellow.gif","img/card_backs/set1/purple.gif","img/card_backs/set2/pink.gif","img/card_backs/set2/orange.gif","img/card_backs/set2/gray.gif","img/card_backs/set2/blue.gif","""event"",""trial"",""time""
""fullscreenenter"",""1"",""7669""
","
","
","""event"",""trial"",""time""
""fullscreenenter"",""1"",""7669""
","
","","null","","null","","fixation","2021-07-14 22:12:51.059","","","","","",""
"card-selection-trial","46","249752","0.0-17.0-1.5","841","true","img/card_backs/set1/green.gif","img/card_backs/set1/red.gif","img/card_backs/set1/yellow.gif","img/card_backs/set1/purple.gif","img/card_backs/set2/pink.gif","img/card_backs/set2/orange.gif","img/card_backs/set2/gray.gif","img/card_backs/set2/blue.gif","""event"",""trial"",""time""
""fullscreenenter"",""1"",""7669""
","
","
","""event"",""trial"",""time""
""fullscreenenter"",""1"",""7669""
","
","","1134.5","","","","practice","2021-07-14 22:12:54.201","img/practice_cards/backs/dark_green.gif","1","-200","0","",""
"casino-fixation","47","250255","0.0-17.0-0.6","841","true","img/card_backs/set1/green.gif","img/card_backs/set1/red.gif","img/card_backs/set1/yellow.gif","img/card_backs/set1/purple.gif","img/card_backs/set2/pink.gif","img/card_backs/set2/orange.gif","img/card_backs/set2/gray.gif","img/card_backs/set2/blue.gif","""event"",""trial"",""time""
""fullscreenenter"",""1"",""7669""
","
","
","""event"",""trial"",""time""
""fullscreenenter"",""1"",""7669""
","
","","null","","null","","fixation","2021-07-14 22:12:54.705","","","","","",""
"card-selection-trial","48","255192","0.0-17.0-1.6","841","true","img/card_backs/set1/green.gif","img/card_backs/set1/red.gif","img/card_backs/set1/yellow.gif","img/card_backs/set1/purple.gif","img/card_backs/set2/pink.gif","img/card_backs/set2/orange.gif","img/card_backs/set2/gray.gif","img/card_backs/set2/blue.gif","""event"",""trial"",""time""
""fullscreenenter"",""1"",""7669""
","
","
","""event"",""trial"",""time""
""fullscreenenter"",""1"",""7669""
","
","","2928.4000000059605","","","","practice","2021-07-14 22:12:59.641","img/practice_cards/backs/black.gif","3","100","0","",""
"casino-fixation","49","255694","0.0-17.0-0.7","841","true","img/card_backs/set1/green.gif","img/card_backs/set1/red.gif","img/card_backs/set1/yellow.gif","img/card_backs/set1/purple.gif","img/card_backs/set2/pink.gif","img/card_backs/set2/orange.gif","img/card_backs/set2/gray.gif","img/card_backs/set2/blue.gif","""event"",""trial"",""time""
""fullscreenenter"",""1"",""7669""
","
","
","""event"",""trial"",""time""
""fullscreenenter"",""1"",""7669""
","
","","null","","null","","fixation","2021-07-14 22:13:00.143","","","","","",""
"card-selection-trial","50","258874","0.0-17.0-1.7","841","true","img/card_backs/set1/green.gif","img/card_backs/set1/red.gif","img/card_backs/set1/yellow.gif","img/card_backs/set1/purple.gif","img/card_backs/set2/pink.gif","img/card_backs/set2/orange.gif","img/card_backs/set2/gray.gif","img/card_backs/set2/blue.gif","""event"",""trial"",""time""
""fullscreenenter"",""1"",""7669""
","
","
","""event"",""trial"",""time""
""fullscreenenter"",""1"",""7669""
","
","","1173.2000000029802","","","","practice","2021-07-14 22:13:03.324","img/practice_cards/backs/brown.gif","2","100","0","",""
"casino-fixation","51","259376","0.0-17.0-0.8","841","true","img/card_backs/set1/green.gif","img/card_backs/set1/red.gif","img/card_backs/set1/yellow.gif","img/card_backs/set1/purple.gif","img/card_backs/set2/pink.gif","img/card_backs/set2/orange.gif","img/card_backs/set2/gray.gif","img/card_backs/set2/blue.gif","""event"",""trial"",""time""
""fullscreenenter"",""1"",""7669""
","
","
","""event"",""trial"",""time""
""fullscreenenter"",""1"",""7669""
","
","","null","","null","","fixation","2021-07-14 22:13:03.826","","","","","",""
"card-selection-trial","52","264377","0.0-17.0-1.8","841","true","img/card_backs/set1/green.gif","img/card_backs/set1/red.gif","img/card_backs/set1/yellow.gif","img/card_backs/set1/purple.gif","img/card_backs/set2/pink.gif","img/card_backs/set2/orange.gif","img/card_backs/set2/gray.gif","img/card_backs/set2/blue.gif","""event"",""trial"",""time""
""fullscreenenter"",""1"",""7669""
","
","
","""event"",""trial"",""time""
""fullscreenenter"",""1"",""7669""
","
","","2993.1000000089407","","","","practice","2021-07-14 22:13:08.826","img/practice_cards/backs/dark_green.gif","1","-200","0","",""
"casino-fixation","53","264879","0.0-17.0-0.9","841","true","img/card_backs/set1/green.gif","img/card_backs/set1/red.gif","img/card_backs/set1/yellow.gif","img/card_backs/set1/purple.gif","img/card_backs/set2/pink.gif","img/card_backs/set2/orange.gif","img/card_backs/set2/gray.gif","img/card_backs/set2/blue.gif","""event"",""trial"",""time""
""fullscreenenter"",""1"",""7669""
","
","
","""event"",""trial"",""time""
""fullscreenenter"",""1"",""7669""
","
","","null","","null","","fixation","2021-07-14 22:13:09.328","","","","","",""
"card-selection-trial","54","268999","0.0-17.0-1.9","841","true","img/card_backs/set1/green.gif","img/card_backs/set1/red.gif","img/card_backs/set1/yellow.gif","img/card_backs/set1/purple.gif","img/card_backs/set2/pink.gif","img/card_backs/set2/orange.gif","img/card_backs/set2/gray.gif","img/card_backs/set2/blue.gif","""event"",""trial"",""time""
""fullscreenenter"",""1"",""7669""
","
","
","""event"",""trial"",""time""
""fullscreenenter"",""1"",""7669""
","
","","2111.2000000029802","","","","practice","2021-07-14 22:13:13.448","img/practice_cards/backs/black.gif","2","100","0","",""
"casino-keyboard-response","55","272995","0.0-18.0","841","true","img/card_backs/set1/green.gif","img/card_backs/set1/red.gif","img/card_backs/set1/yellow.gif","img/card_backs/set1/purple.gif","img/card_backs/set2/pink.gif","img/card_backs/set2/orange.gif","img/card_backs/set2/gray.gif","img/card_backs/set2/blue.gif","""event"",""trial"",""time""
""fullscreenenter"",""1"",""7669""
","
","
","""event"",""trial"",""time""
""fullscreenenter"",""1"",""7669""
","
","","3994.0999999940395","You earned -300 tokens during the practice round!","82","","","2021-07-14 22:13:17.444","","","","","",""
"casino-keyboard-response","56","277445","0.0-19.0-0.0","841","true","img/card_backs/set1/green.gif","img/card_backs/set1/red.gif","img/card_backs/set1/yellow.gif","img/card_backs/set1/purple.gif","img/card_backs/set2/pink.gif","img/card_backs/set2/orange.gif","img/card_backs/set2/gray.gif","img/card_backs/set2/blue.gif","""event"",""trial"",""time""
""fullscreenenter"",""1"",""7669""
","
","
","""event"",""trial"",""time""
""fullscreenenter"",""1"",""7669""
","
","","4448","Nice job! You are almost ready to play the real game.","86","","instructions","2021-07-14 22:13:21.894","","","","","",""
"casino-keyboard-response","57","283894","0.0-19.0-0.1","841","true","img/card_backs/set1/green.gif","img/card_backs/set1/red.gif","img/card_backs/set1/yellow.gif","img/card_backs/set1/purple.gif","img/card_backs/set2/pink.gif","img/card_backs/set2/orange.gif","img/card_backs/set2/gray.gif","img/card_backs/set2/blue.gif","""event"",""trial"",""time""
""fullscreenenter"",""1"",""7669""
","
","
","""event"",""trial"",""time""
""fullscreenenter"",""1"",""7669""
","
","","6447.20000000298","You will play two rounds of the real game. In each round, you will pick 100 cards in total.","73","","instructions","2021-07-14 22:13:28.343","","","","","",""
"casino-keyboard-response","58","288406","0.0-19.0-0.2","841","true","img/card_backs/set1/green.gif","img/card_backs/set1/red.gif","img/card_backs/set1/yellow.gif","img/card_backs/set1/purple.gif","img/card_backs/set2/pink.gif","img/card_backs/set2/orange.gif","img/card_backs/set2/gray.gif","img/card_backs/set2/blue.gif","""event"",""trial"",""time""
""fullscreenenter"",""1"",""7669""
","
","
","""event"",""trial"",""time""
""fullscreenenter"",""1"",""7669""
","
","","4509.600000008941","We are now going to ask you some questions about how the game works.","66","","instructions","2021-07-14 22:13:32.855","","","","","",""
"casino-keyboard-response","59","294983","0.0-19.0-0.3","841","true","img/card_backs/set1/green.gif","img/card_backs/set1/red.gif","img/card_backs/set1/yellow.gif","img/card_backs/set1/purple.gif","img/card_backs/set2/pink.gif","img/card_backs/set2/orange.gif","img/card_backs/set2/gray.gif","img/card_backs/set2/blue.gif","""event"",""trial"",""time""
""fullscreenenter"",""1"",""7669""
","
","
","""event"",""trial"",""time""
""fullscreenenter"",""1"",""7669""
","
","","6574.29999999702","Answer carefully. You will not be able to begin the game until you answer them correctly.","67","","instructions","2021-07-14 22:13:39.432","","","","","",""
"casino-comp_q","60","301880","0.0-20.0-0.0","841","true","img/card_backs/set1/green.gif","img/card_backs/set1/red.gif","img/card_backs/set1/yellow.gif","img/card_backs/set1/purple.gif","img/card_backs/set2/pink.gif","img/card_backs/set2/orange.gif","img/card_backs/set2/gray.gif","img/card_backs/set2/blue.gif","""event"",""trial"",""time""
""fullscreenenter"",""1"",""7669""
","
","
","""event"",""trial"",""time""
""fullscreenenter"",""1"",""7669""
","
","","6894","True or False: All the decks have some cards that cause you to win tokens and some cards that cause you to lose tokens.","84","","","2021-07-14 22:13:46.330","","","","","",""
"casino-keyboard-response","61","307093","0.0-20.0-1.0","841","true","img/card_backs/set1/green.gif","img/card_backs/set1/red.gif","img/card_backs/set1/yellow.gif","img/card_backs/set1/purple.gif","img/card_backs/set2/pink.gif","img/card_backs/set2/orange.gif","img/card_backs/set2/gray.gif","img/card_backs/set2/blue.gif","""event"",""trial"",""time""
""fullscreenenter"",""1"",""7669""
","
","
","""event"",""trial"",""time""
""fullscreenenter"",""1"",""7669""
","
","","5210.0999999940395","True is correct! All the decks have a mix of winning and losing cards.","77","","","2021-07-14 22:13:51.543","","","","","true",""
"casino-comp_q","62","312159","0.0-21.0-0.0","841","true","img/card_backs/set1/green.gif","img/card_backs/set1/red.gif","img/card_backs/set1/yellow.gif","img/card_backs/set1/purple.gif","img/card_backs/set2/pink.gif","img/card_backs/set2/orange.gif","img/card_backs/set2/gray.gif","img/card_backs/set2/blue.gif","""event"",""trial"",""time""
""fullscreenenter"",""1"",""7669""
","
","
","""event"",""trial"",""time""
""fullscreenenter"",""1"",""7669""
","
","","5062.9000000059605","True or False: You will have as much time as you want to make your response.","70","","","2021-07-14 22:13:56.608","","","","","",""
"casino-keyboard-response","63","316076","0.0-21.0-1.0","841","true","img/card_backs/set1/green.gif","img/card_backs/set1/red.gif","img/card_backs/set1/yellow.gif","img/card_backs/set1/purple.gif","img/card_backs/set2/pink.gif","img/card_backs/set2/orange.gif","img/card_backs/set2/gray.gif","img/card_backs/set2/blue.gif","""event"",""trial"",""time""
""fullscreenenter"",""1"",""7669""
","
","
","""event"",""trial"",""time""
""fullscreenenter"",""1"",""7669""
","
","","3912.7000000029802","False is correct! You will only have 10 seconds to make each choice.","75","","","2021-07-14 22:14:00.526","","","","","true",""
"casino-comp_q","64","321851","0.0-22.0-0.0","841","true","img/card_backs/set1/green.gif","img/card_backs/set1/red.gif","img/card_backs/set1/yellow.gif","img/card_backs/set1/purple.gif","img/card_backs/set2/pink.gif","img/card_backs/set2/orange.gif","img/card_backs/set2/gray.gif","img/card_backs/set2/blue.gif","""event"",""trial"",""time""
""fullscreenenter"",""1"",""7669""
","
","
","""event"",""trial"",""time""
""fullscreenenter"",""1"",""7669""
","
","","5772.5999999940395","True or False: The location of the deck determines how lucky it is.","70","","","2021-07-14 22:14:06.300","","","","","",""
"casino-keyboard-response","65","325309","0.0-22.0-1.0","841","true","img/card_backs/set1/green.gif","img/card_backs/set1/red.gif","img/card_backs/set1/yellow.gif","img/card_backs/set1/purple.gif","img/card_backs/set2/pink.gif","img/card_backs/set2/orange.gif","img/card_backs/set2/gray.gif","img/card_backs/set2/blue.gif","""event"",""trial"",""time""
""fullscreenenter"",""1"",""7669""
","
","
","""event"",""trial"",""time""
""fullscreenenter"",""1"",""7669""
","
","","3455","False is correct! The <i>color</i>  of the deck determines how lucky or unlucky it is.","68","","","2021-07-14 22:14:09.758","","","","","true",""
"casino-keyboard-response","66","331164","0.0-23.0-0.0","841","true","img/card_backs/set1/green.gif","img/card_backs/set1/red.gif","img/card_backs/set1/yellow.gif","img/card_backs/set1/purple.gif","img/card_backs/set2/pink.gif","img/card_backs/set2/orange.gif","img/card_backs/set2/gray.gif","img/card_backs/set2/blue.gif","""event"",""trial"",""time""
""fullscreenenter"",""1"",""7669""
","
","
","""event"",""trial"",""time""
""fullscreenenter"",""1"",""7669""
","
","","5852.699999988079","Great job! Now it's time to start the real game.","82","","instructions","2021-07-14 22:14:15.613","","","","","",""
"casino-keyboard-response","67","336392","0.0-23.0-0.1","841","true","img/card_backs/set1/green.gif","img/card_backs/set1/red.gif","img/card_backs/set1/yellow.gif","img/card_backs/set1/purple.gif","img/card_backs/set2/pink.gif","img/card_backs/set2/orange.gif","img/card_backs/set2/gray.gif","img/card_backs/set2/blue.gif","""event"",""trial"",""time""
""fullscreenenter"",""1"",""7669""
","
","
","""event"",""trial"",""time""
""fullscreenenter"",""1"",""7669""
","
","","5226.4000000059605","Before we start, we're going to head into a new room of the casino.","86","","instructions","2021-07-14 22:14:20.841","","","","","",""
"casino-keyboard-response","68","342893","0.0-24.0-0.0","841","true","img/card_backs/set1/green.gif","img/card_backs/set1/red.gif","img/card_backs/set1/yellow.gif","img/card_backs/set1/purple.gif","img/card_backs/set2/pink.gif","img/card_backs/set2/orange.gif","img/card_backs/set2/gray.gif","img/card_backs/set2/blue.gif","""event"",""trial"",""time""
""fullscreenenter"",""1"",""7669""
","
","
","""event"",""trial"",""time""
""fullscreenenter"",""1"",""7669""
","
","","6498.79999999702","Here we are! The real game will use different cards, but the rules will be the same.","71","","instructions","2021-07-14 22:14:27.342","","","","","",""
"casino-keyboard-response","69","346047","0.0-24.0-0.1","841","true","img/card_backs/set1/green.gif","img/card_backs/set1/red.gif","img/card_backs/set1/yellow.gif","img/card_backs/set1/purple.gif","img/card_backs/set2/pink.gif","img/card_backs/set2/orange.gif","img/card_backs/set2/gray.gif","img/card_backs/set2/blue.gif","""event"",""trial"",""time""
""fullscreenenter"",""1"",""7669""
","
","
","""event"",""trial"",""time""
""fullscreenenter"",""1"",""7669""
","
","","3151.5999999940395","Ready? Put your fingers over the '2', '4', 6', and '8' keys so you are ready to play the game. </br> Then press 2 to start.","50","","instructions","2021-07-14 22:14:30.496","","","","","",""
"casino-fixation","70","346549","0.0-25.0-0.0","841","true","img/card_backs/set1/green.gif","img/card_backs/set1/red.gif","img/card_backs/set1/yellow.gif","img/card_backs/set1/purple.gif","img/card_backs/set2/pink.gif","img/card_backs/set2/orange.gif","img/card_backs/set2/gray.gif","img/card_backs/set2/blue.gif","""event"",""trial"",""time""
""fullscreenenter"",""1"",""7669""
","
","
","""event"",""trial"",""time""
""fullscreenenter"",""1"",""7669""
","
","","null","","null","","fixation","2021-07-14 22:14:30.998","","","","","",""
"card-selection-trial","71","350024","0.0-25.0-1.0","841","true","img/card_backs/set1/green.gif","img/card_backs/set1/red.gif","img/card_backs/set1/yellow.gif","img/card_backs/set1/purple.gif","img/card_backs/set2/pink.gif","img/card_backs/set2/orange.gif","img/card_backs/set2/gray.gif","img/card_backs/set2/blue.gif","""event"",""trial"",""time""
""fullscreenenter"",""1"",""7669""
","
","
","""event"",""trial"",""time""
""fullscreenenter"",""1"",""7669""
","
","","1466.7999999970198","","","","real_trial","2021-07-14 22:14:34.473","img/card_backs/set1/yellow.gif","1","40","1","",""
"casino-fixation","72","350526","0.0-25.0-0.1","841","true","img/card_backs/set1/green.gif","img/card_backs/set1/red.gif","img/card_backs/set1/yellow.gif","img/card_backs/set1/purple.gif","img/card_backs/set2/pink.gif","img/card_backs/set2/orange.gif","img/card_backs/set2/gray.gif","img/card_backs/set2/blue.gif","""event"",""trial"",""time""
""fullscreenenter"",""1"",""7669""
","
","
","""event"",""trial"",""time""
""fullscreenenter"",""1"",""7669""
","
","","null","","null","","fixation","2021-07-14 22:14:34.975","","","","","",""
"card-selection-trial","73","353938","0.0-25.0-1.1","841","true","img/card_backs/set1/green.gif","img/card_backs/set1/red.gif","img/card_backs/set1/yellow.gif","img/card_backs/set1/purple.gif","img/card_backs/set2/pink.gif","img/card_backs/set2/orange.gif","img/card_backs/set2/gray.gif","img/card_backs/set2/blue.gif","""event"",""trial"",""time""
""fullscreenenter"",""1"",""7669""
","
","
","""event"",""trial"",""time""
""fullscreenenter"",""1"",""7669""
","
","","1404.5999999940395","","","","real_trial","2021-07-14 22:14:38.387","img/card_backs/set1/purple.gif","2","-110","1","",""
"casino-fixation","74","354440","0.0-25.0-0.2","841","true","img/card_backs/set1/green.gif","img/card_backs/set1/red.gif","img/card_backs/set1/yellow.gif","img/card_backs/set1/purple.gif","img/card_backs/set2/pink.gif","img/card_backs/set2/orange.gif","img/card_backs/set2/gray.gif","img/card_backs/set2/blue.gif","""event"",""trial"",""time""
""fullscreenenter"",""1"",""7669""
","
","
","""event"",""trial"",""time""
""fullscreenenter"",""1"",""7669""
","
","","null","","null","","fixation","2021-07-14 22:14:38.890","","","","","",""
"card-selection-trial","75","357980","0.0-25.0-1.2","841","true","img/card_backs/set1/green.gif","img/card_backs/set1/red.gif","img/card_backs/set1/yellow.gif","img/card_backs/set1/purple.gif","img/card_backs/set2/pink.gif","img/card_backs/set2/orange.gif","img/card_backs/set2/gray.gif","img/card_backs/set2/blue.gif","""event"",""trial"",""time""
""fullscreenenter"",""1"",""7669""
","
","
","""event"",""trial"",""time""
""fullscreenenter"",""1"",""7669""
","
","","1530.5","","","","real_trial","2021-07-14 22:14:42.429","img/card_backs/set1/yellow.gif","0","50","1","",""
"casino-fixation","76","358483","0.0-25.0-0.3","841","true","img/card_backs/set1/green.gif","img/card_backs/set1/red.gif","img/card_backs/set1/yellow.gif","img/card_backs/set1/purple.gif","img/card_backs/set2/pink.gif","img/card_backs/set2/orange.gif","img/card_backs/set2/gray.gif","img/card_backs/set2/blue.gif","""event"",""trial"",""time""
""fullscreenenter"",""1"",""7669""
","
","
","""event"",""trial"",""time""
""fullscreenenter"",""1"",""7669""
","
","","null","","null","","fixation","2021-07-14 22:14:42.932","","","","","",""
"card-selection-trial","77","362227","0.0-25.0-1.3","841","true","img/card_backs/set1/green.gif","img/card_backs/set1/red.gif","img/card_backs/set1/yellow.gif","img/card_backs/set1/purple.gif","img/card_backs/set2/pink.gif","img/card_backs/set2/orange.gif","img/card_backs/set2/gray.gif","img/card_backs/set2/blue.gif","""event"",""trial"",""time""
""fullscreenenter"",""1"",""7669""
","
","
","""event"",""trial"",""time""
""fullscreenenter"",""1"",""7669""
","
","","1736.5","","","","real_trial","2021-07-14 22:14:46.676","img/card_backs/set1/red.gif","1","250","1","",""
"casino-fixation","78","362729","0.0-25.0-0.4","841","true","img/card_backs/set1/green.gif","img/card_backs/set1/red.gif","img/card_backs/set1/yellow.gif","img/card_backs/set1/purple.gif","img/card_backs/set2/pink.gif","img/card_backs/set2/orange.gif","img/card_backs/set2/gray.gif","img/card_backs/set2/blue.gif","""event"",""trial"",""time""
""fullscreenenter"",""1"",""7669""
","
","
","""event"",""trial"",""time""
""fullscreenenter"",""1"",""7669""
","
","","null","","null","","fixation","2021-07-14 22:14:47.178","","","","","",""
"card-selection-trial","79","365859","0.0-25.0-1.4","841","true","img/card_backs/set1/green.gif","img/card_backs/set1/red.gif","img/card_backs/set1/yellow.gif","img/card_backs/set1/purple.gif","img/card_backs/set2/pink.gif","img/card_backs/set2/orange.gif","img/card_backs/set2/gray.gif","img/card_backs/set2/blue.gif","""event"",""trial"",""time""
""fullscreenenter"",""1"",""7669""
","
","
","""event"",""trial"",""time""
""fullscreenenter"",""1"",""7669""
","
","","1121.4000000059605","","","","real_trial","2021-07-14 22:14:50.308","img/card_backs/set1/yellow.gif","2","40","1","",""
"casino-fixation","80","366361","0.0-25.0-0.5","841","true","img/card_backs/set1/green.gif","img/card_backs/set1/red.gif","img/card_backs/set1/yellow.gif","img/card_backs/set1/purple.gif","img/card_backs/set2/pink.gif","img/card_backs/set2/orange.gif","img/card_backs/set2/gray.gif","img/card_backs/set2/blue.gif","""event"",""trial"",""time""
""fullscreenenter"",""1"",""7669""
","
","
","""event"",""trial"",""time""
""fullscreenenter"",""1"",""7669""
","
","","null","","null","","fixation","2021-07-14 22:14:50.810","","","","","",""
"card-selection-trial","81","369483","0.0-25.0-1.5","841","true","img/card_backs/set1/green.gif","img/card_backs/set1/red.gif","img/card_backs/set1/yellow.gif","img/card_backs/set1/purple.gif","img/card_backs/set2/pink.gif","img/card_backs/set2/orange.gif","img/card_backs/set2/gray.gif","img/card_backs/set2/blue.gif","""event"",""trial"",""time""
""fullscreenenter"",""1"",""7669""
","
","
","""event"",""trial"",""time""
""fullscreenenter"",""1"",""7669""
","
","","1113.8999999910593","","","","real_trial","2021-07-14 22:14:53.932","img/card_backs/set1/red.gif","3","260","1","",""
"casino-fixation","82","369985","0.0-25.0-0.6","841","true","img/card_backs/set1/green.gif","img/card_backs/set1/red.gif","img/card_backs/set1/yellow.gif","img/card_backs/set1/purple.gif","img/card_backs/set2/pink.gif","img/card_backs/set2/orange.gif","img/card_backs/set2/gray.gif","img/card_backs/set2/blue.gif","""event"",""trial"",""time""
""fullscreenenter"",""1"",""7669""
","
","
","""event"",""trial"",""time""
""fullscreenenter"",""1"",""7669""
","
","","null","","null","","fixation","2021-07-14 22:14:54.434","","","","","",""
"card-selection-trial","83","372874","0.0-25.0-1.6","841","true","img/card_backs/set1/green.gif","img/card_backs/set1/red.gif","img/card_backs/set1/yellow.gif","img/card_backs/set1/purple.gif","img/card_backs/set2/pink.gif","img/card_backs/set2/orange.gif","img/card_backs/set2/gray.gif","img/card_backs/set2/blue.gif","""event"",""trial"",""time""
""fullscreenenter"",""1"",""7669""
","
","
","""event"",""trial"",""time""
""fullscreenenter"",""1"",""7669""
","
","","882.7999999970198","","","","real_trial","2021-07-14 22:14:57.323","img/card_backs/set1/yellow.gif","3","-100","1","",""
"casino-fixation","84","373375","0.0-25.0-0.7","841","true","img/card_backs/set1/green.gif","img/card_backs/set1/red.gif","img/card_backs/set1/yellow.gif","img/card_backs/set1/purple.gif","img/card_backs/set2/pink.gif","img/card_backs/set2/orange.gif","img/card_backs/set2/gray.gif","img/card_backs/set2/blue.gif","""event"",""trial"",""time""
""fullscreenenter"",""1"",""7669""
","
","
","""event"",""trial"",""time""
""fullscreenenter"",""1"",""7669""
","
","","null","","null","","fixation","2021-07-14 22:14:57.824","","","","","",""
"card-selection-trial","85","378504","0.0-25.0-1.7","841","true","img/card_backs/set1/green.gif","img/card_backs/set1/red.gif","img/card_backs/set1/yellow.gif","img/card_backs/set1/purple.gif","img/card_backs/set2/pink.gif","img/card_backs/set2/orange.gif","img/card_backs/set2/gray.gif","img/card_backs/set2/blue.gif","""event"",""trial"",""time""
""fullscreenenter"",""1"",""7669""
","
","
","""event"",""trial"",""time""
""fullscreenenter"",""1"",""7669""
","
","","3121.5999999940395","","","","real_trial","2021-07-14 22:15:02.953","img/card_backs/set1/green.gif","3","-200","1","",""
"casino-fixation","86","379006","0.0-25.0-0.8","841","true","img/card_backs/set1/green.gif","img/card_backs/set1/red.gif","img/card_backs/set1/yellow.gif","img/card_backs/set1/purple.gif","img/card_backs/set2/pink.gif","img/card_backs/set2/orange.gif","img/card_backs/set2/gray.gif","img/card_backs/set2/blue.gif","""event"",""trial"",""time""
""fullscreenenter"",""1"",""7669""
","
","
","""event"",""trial"",""time""
""fullscreenenter"",""1"",""7669""
","
","","null","","null","","fixation","2021-07-14 22:15:03.455","","","","","",""
"card-selection-trial","87","382407","0.0-25.0-1.8","841","true","img/card_backs/set1/green.gif","img/card_backs/set1/red.gif","img/card_backs/set1/yellow.gif","img/card_backs/set1/purple.gif","img/card_backs/set2/pink.gif","img/card_backs/set2/orange.gif","img/card_backs/set2/gray.gif","img/card_backs/set2/blue.gif","""event"",""trial"",""time""
""fullscreenenter"",""1"",""7669""
","
","
","""event"",""trial"",""time""
""fullscreenenter"",""1"",""7669""
","
","","1393.9000000059605","","","","real_trial","2021-07-14 22:15:06.856","img/card_backs/set1/green.gif","2","260","1","",""
"casino-fixation","88","382909","0.0-25.0-0.9","841","true","img/card_backs/set1/green.gif","img/card_backs/set1/red.gif","img/card_backs/set1/yellow.gif","img/card_backs/set1/purple.gif","img/card_backs/set2/pink.gif","img/card_backs/set2/orange.gif","img/card_backs/set2/gray.gif","img/card_backs/set2/blue.gif","""event"",""trial"",""time""
""fullscreenenter"",""1"",""7669""
","
","
","""event"",""trial"",""time""
""fullscreenenter"",""1"",""7669""
","
","","null","","null","","fixation","2021-07-14 22:15:07.358","","","","","",""
"card-selection-trial","89","386563","0.0-25.0-1.9","841","true","img/card_backs/set1/green.gif","img/card_backs/set1/red.gif","img/card_backs/set1/yellow.gif","img/card_backs/set1/purple.gif","img/card_backs/set2/pink.gif","img/card_backs/set2/orange.gif","img/card_backs/set2/gray.gif","img/card_backs/set2/blue.gif","""event"",""trial"",""time""
""fullscreenenter"",""1"",""7669""
","
","
","""event"",""trial"",""time""
""fullscreenenter"",""1"",""7669""
","
","","1645.7999999970198","","","","real_trial","2021-07-14 22:15:11.012","img/card_backs/set1/yellow.gif","0","40","1","",""
"casino-fixation","90","387065","0.0-25.0-0.10","841","true","img/card_backs/set1/green.gif","img/card_backs/set1/red.gif","img/card_backs/set1/yellow.gif","img/card_backs/set1/purple.gif","img/card_backs/set2/pink.gif","img/card_backs/set2/orange.gif","img/card_backs/set2/gray.gif","img/card_backs/set2/blue.gif","""event"",""trial"",""time""
""fullscreenenter"",""1"",""7669""
","
","
","""event"",""trial"",""time""
""fullscreenenter"",""1"",""7669""
","
","","null","","null","","fixation","2021-07-14 22:15:11.514","","","","","",""
"card-selection-trial","91","390180","0.0-25.0-1.10","841","true","img/card_backs/set1/green.gif","img/card_backs/set1/red.gif","img/card_backs/set1/yellow.gif","img/card_backs/set1/purple.gif","img/card_backs/set2/pink.gif","img/card_backs/set2/orange.gif","img/card_backs/set2/gray.gif","img/card_backs/set2/blue.gif","""event"",""trial"",""time""
""fullscreenenter"",""1"",""7669""
","
","
","""event"",""trial"",""time""
""fullscreenenter"",""1"",""7669""
","
","","1108","","","","real_trial","2021-07-14 22:15:14.629","img/card_backs/set1/green.gif","1","260","1","",""
"casino-fixation","92","390682","0.0-25.0-0.11","841","true","img/card_backs/set1/green.gif","img/card_backs/set1/red.gif","img/card_backs/set1/yellow.gif","img/card_backs/set1/purple.gif","img/card_backs/set2/pink.gif","img/card_backs/set2/orange.gif","img/card_backs/set2/gray.gif","img/card_backs/set2/blue.gif","""event"",""trial"",""time""
""fullscreenenter"",""1"",""7669""
","
","
","""event"",""trial"",""time""
""fullscreenenter"",""1"",""7669""
","
","","null","","null","","fixation","2021-07-14 22:15:15.131","","","","","",""
"card-selection-trial","93","393939","0.0-25.0-1.11","841","true","img/card_backs/set1/green.gif","img/card_backs/set1/red.gif","img/card_backs/set1/yellow.gif","img/card_backs/set1/purple.gif","img/card_backs/set2/pink.gif","img/card_backs/set2/orange.gif","img/card_backs/set2/gray.gif","img/card_backs/set2/blue.gif","""event"",""trial"",""time""
""fullscreenenter"",""1"",""7669""
","
","
","""event"",""trial"",""time""
""fullscreenenter"",""1"",""7669""
","
","","1248.7000000029802","","","","real_trial","2021-07-14 22:15:18.388","img/card_backs/set1/yellow.gif","2","-110","1","",""
"casino-fixation","94","394441","0.0-25.0-0.12","841","true","img/card_backs/set1/green.gif","img/card_backs/set1/red.gif","img/card_backs/set1/yellow.gif","img/card_backs/set1/purple.gif","img/card_backs/set2/pink.gif","img/card_backs/set2/orange.gif","img/card_backs/set2/gray.gif","img/card_backs/set2/blue.gif","""event"",""trial"",""time""
""fullscreenenter"",""1"",""7669""
","
","
","""event"",""trial"",""time""
""fullscreenenter"",""1"",""7669""
","
","","null","","null","","fixation","2021-07-14 22:15:18.890","","","","","",""
"card-selection-trial","95","397302","0.0-25.0-1.12","841","true","img/card_backs/set1/green.gif","img/card_backs/set1/red.gif","img/card_backs/set1/yellow.gif","img/card_backs/set1/purple.gif","img/card_backs/set2/pink.gif","img/card_backs/set2/orange.gif","img/card_backs/set2/gray.gif","img/card_backs/set2/blue.gif","""event"",""trial"",""time""
""fullscreenenter"",""1"",""7669""
","
","
","""event"",""trial"",""time""
""fullscreenenter"",""1"",""7669""
","
","","851.5","","","","real_trial","2021-07-14 22:15:21.751","img/card_backs/set1/purple.gif","3","-110","1","",""
"casino-fixation","96","397804","0.0-25.0-0.13","841","true","img/card_backs/set1/green.gif","img/card_backs/set1/red.gif","img/card_backs/set1/yellow.gif","img/card_backs/set1/purple.gif","img/card_backs/set2/pink.gif","img/card_backs/set2/orange.gif","img/card_backs/set2/gray.gif","img/card_backs/set2/blue.gif","""event"",""trial"",""time""
""fullscreenenter"",""1"",""7669""
","
","
","""event"",""trial"",""time""
""fullscreenenter"",""1"",""7669""
","
","","null","","null","","fixation","2021-07-14 22:15:22.253","","","","","",""
"card-selection-trial","97","400760","0.0-25.0-1.13","841","true","img/card_backs/set1/green.gif","img/card_backs/set1/red.gif","img/card_backs/set1/yellow.gif","img/card_backs/set1/purple.gif","img/card_backs/set2/pink.gif","img/card_backs/set2/orange.gif","img/card_backs/set2/gray.gif","img/card_backs/set2/blue.gif","""event"",""trial"",""time""
""fullscreenenter"",""1"",""7669""
","
","
","""event"",""trial"",""time""
""fullscreenenter"",""1"",""7669""
","
","","947.2999999970198","","","","real_trial","2021-07-14 22:15:25.209","img/card_backs/set1/yellow.gif","0","40","1","",""
"casino-fixation","98","401262","0.0-25.0-0.14","841","true","img/card_backs/set1/green.gif","img/card_backs/set1/red.gif","img/card_backs/set1/yellow.gif","img/card_backs/set1/purple.gif","img/card_backs/set2/pink.gif","img/card_backs/set2/orange.gif","img/card_backs/set2/gray.gif","img/card_backs/set2/blue.gif","""event"",""trial"",""time""
""fullscreenenter"",""1"",""7669""
","
","
","""event"",""trial"",""time""
""fullscreenenter"",""1"",""7669""
","
","","null","","null","","fixation","2021-07-14 22:15:25.711","","","","","",""
"card-selection-trial","99","403780","0.0-25.0-1.14","841","true","img/card_backs/set1/green.gif","img/card_backs/set1/red.gif","img/card_backs/set1/yellow.gif","img/card_backs/set1/purple.gif","img/card_backs/set2/pink.gif","img/card_backs/set2/orange.gif","img/card_backs/set2/gray.gif","img/card_backs/set2/blue.gif","""event"",""trial"",""time""
""fullscreenenter"",""1"",""7669""
","
","
","""event"",""trial"",""time""
""fullscreenenter"",""1"",""7669""
","
","","510.09999999403954","","","","real_trial","2021-07-14 22:15:28.230","img/card_backs/set1/yellow.gif","1","-90","1","",""
"casino-fixation","100","404282","0.0-25.0-0.15","841","true","img/card_backs/set1/green.gif","img/card_backs/set1/red.gif","img/card_backs/set1/yellow.gif","img/card_backs/set1/purple.gif","img/card_backs/set2/pink.gif","img/card_backs/set2/orange.gif","img/card_backs/set2/gray.gif","img/card_backs/set2/blue.gif","""event"",""trial"",""time""
""fullscreenenter"",""1"",""7669""
","
","
","""event"",""trial"",""time""
""fullscreenenter"",""1"",""7669""
","
","","null","","null","","fixation","2021-07-14 22:15:28.731","","","","","",""
"card-selection-trial","101","406995","0.0-25.0-1.15","841","true","img/card_backs/set1/green.gif","img/card_backs/set1/red.gif","img/card_backs/set1/yellow.gif","img/card_backs/set1/purple.gif","img/card_backs/set2/pink.gif","img/card_backs/set2/orange.gif","img/card_backs/set2/gray.gif","img/card_backs/set2/blue.gif","""event"",""trial"",""time""
""fullscreenenter"",""1"",""7669""
","
","
","""event"",""trial"",""time""
""fullscreenenter"",""1"",""7669""
","
","","705.8000000119209","","","","real_trial","2021-07-14 22:15:31.444","img/card_backs/set1/yellow.gif","1","60","1","",""
"casino-fixation","102","407497","0.0-25.0-0.16","841","true","img/card_backs/set1/green.gif","img/card_backs/set1/red.gif","img/card_backs/set1/yellow.gif","img/card_backs/set1/purple.gif","img/card_backs/set2/pink.gif","img/card_backs/set2/orange.gif","img/card_backs/set2/gray.gif","img/card_backs/set2/blue.gif","""event"",""trial"",""time""
""fullscreenenter"",""1"",""7669""
","
","
","""event"",""trial"",""time""
""fullscreenenter"",""1"",""7669""
","
","","null","","null","","fixation","2021-07-14 22:15:31.946","","","","","",""
"card-selection-trial","103","410105","0.0-25.0-1.16","841","true","img/card_backs/set1/green.gif","img/card_backs/set1/red.gif","img/card_backs/set1/yellow.gif","img/card_backs/set1/purple.gif","img/card_backs/set2/pink.gif","img/card_backs/set2/orange.gif","img/card_backs/set2/gray.gif","img/card_backs/set2/blue.gif","""event"",""trial"",""time""
""fullscreenenter"",""1"",""7669""
","
","
","""event"",""trial"",""time""
""fullscreenenter"",""1"",""7669""
","
","","600.5","","","","real_trial","2021-07-14 22:15:34.554","img/card_backs/set1/red.gif","2","260","1","",""
"casino-fixation","104","410606","0.0-25.0-0.17","841","true","img/card_backs/set1/green.gif","img/card_backs/set1/red.gif","img/card_backs/set1/yellow.gif","img/card_backs/set1/purple.gif","img/card_backs/set2/pink.gif","img/card_backs/set2/orange.gif","img/card_backs/set2/gray.gif","img/card_backs/set2/blue.gif","""event"",""trial"",""time""
""fullscreenenter"",""1"",""7669""
","
","
","""event"",""trial"",""time""
""fullscreenenter"",""1"",""7669""
","
","","null","","null","","fixation","2021-07-14 22:15:35.055","","","","","",""
"card-selection-trial","105","413198","0.0-25.0-1.17","841","true","img/card_backs/set1/green.gif","img/card_backs/set1/red.gif","img/card_backs/set1/yellow.gif","img/card_backs/set1/purple.gif","img/card_backs/set2/pink.gif","img/card_backs/set2/orange.gif","img/card_backs/set2/gray.gif","img/card_backs/set2/blue.gif","""event"",""trial"",""time""
""fullscreenenter"",""1"",""7669""
","
","
","""event"",""trial"",""time""
""fullscreenenter"",""1"",""7669""
","
","","584.5","","","","real_trial","2021-07-14 22:15:37.647","img/card_backs/set1/red.gif","3","260","1","",""
"casino-fixation","106","413700","0.0-25.0-0.18","841","true","img/card_backs/set1/green.gif","img/card_backs/set1/red.gif","img/card_backs/set1/yellow.gif","img/card_backs/set1/purple.gif","img/card_backs/set2/pink.gif","img/card_backs/set2/orange.gif","img/card_backs/set2/gray.gif","img/card_backs/set2/blue.gif","""event"",""trial"",""time""
""fullscreenenter"",""1"",""7669""
","
","
","""event"",""trial"",""time""
""fullscreenenter"",""1"",""7669""
","
","","null","","null","","fixation","2021-07-14 22:15:38.149","","","","","",""
"card-selection-trial","107","416901","0.0-25.0-1.18","841","true","img/card_backs/set1/green.gif","img/card_backs/set1/red.gif","img/card_backs/set1/yellow.gif","img/card_backs/set1/purple.gif","img/card_backs/set2/pink.gif","img/card_backs/set2/orange.gif","img/card_backs/set2/gray.gif","img/card_backs/set2/blue.gif","""event"",""trial"",""time""
""fullscreenenter"",""1"",""7669""
","
","
","""event"",""trial"",""time""
""fullscreenenter"",""1"",""7669""
","
","","1194.5999999940395","","","","real_trial","2021-07-14 22:15:41.351","img/card_backs/set1/yellow.gif","0","60","1","",""
"casino-fixation","108","417404","0.0-25.0-0.19","841","true","img/card_backs/set1/green.gif","img/card_backs/set1/red.gif","img/card_backs/set1/yellow.gif","img/card_backs/set1/purple.gif","img/card_backs/set2/pink.gif","img/card_backs/set2/orange.gif","img/card_backs/set2/gray.gif","img/card_backs/set2/blue.gif","""event"",""trial"",""time""
""fullscreenenter"",""1"",""7669""
","
","
","""event"",""trial"",""time""
""fullscreenenter"",""1"",""7669""
","
","","null","","null","","fixation","2021-07-14 22:15:41.853","","","","","",""
"card-selection-trial","109","420434","0.0-25.0-1.19","841","true","img/card_backs/set1/green.gif","img/card_backs/set1/red.gif","img/card_backs/set1/yellow.gif","img/card_backs/set1/purple.gif","img/card_backs/set2/pink.gif","img/card_backs/set2/orange.gif","img/card_backs/set2/gray.gif","img/card_backs/set2/blue.gif","""event"",""trial"",""time""
""fullscreenenter"",""1"",""7669""
","
","
","""event"",""trial"",""time""
""fullscreenenter"",""1"",""7669""
","
","","1023.2000000029802","","","","real_trial","2021-07-14 22:15:44.883","img/card_backs/set1/purple.gif","1","60","1","",""
"casino-fixation","110","420936","0.0-25.0-0.20","841","true","img/card_backs/set1/green.gif","img/card_backs/set1/red.gif","img/card_backs/set1/yellow.gif","img/card_backs/set1/purple.gif","img/card_backs/set2/pink.gif","img/card_backs/set2/orange.gif","img/card_backs/set2/gray.gif","img/card_backs/set2/blue.gif","""event"",""trial"",""time""
""fullscreenenter"",""1"",""7669""
","
","
","""event"",""trial"",""time""
""fullscreenenter"",""1"",""7669""
","
","","null","","null","","fixation","2021-07-14 22:15:45.385","","","","","",""
"card-selection-trial","111","424275","0.0-25.0-1.20","841","true","img/card_backs/set1/green.gif","img/card_backs/set1/red.gif","img/card_backs/set1/yellow.gif","img/card_backs/set1/purple.gif","img/card_backs/set2/pink.gif","img/card_backs/set2/orange.gif","img/card_backs/set2/gray.gif","img/card_backs/set2/blue.gif","""event"",""trial"",""time""
""fullscreenenter"",""1"",""7669""
","
","
","""event"",""trial"",""time""
""fullscreenenter"",""1"",""7669""
","
","","1330.7000000029802","","","","real_trial","2021-07-14 22:15:48.724","img/card_backs/set1/purple.gif","2","60","1","",""
"casino-fixation","112","424776","0.0-25.0-0.21","841","true","img/card_backs/set1/green.gif","img/card_backs/set1/red.gif","img/card_backs/set1/yellow.gif","img/card_backs/set1/purple.gif","img/card_backs/set2/pink.gif","img/card_backs/set2/orange.gif","img/card_backs/set2/gray.gif","img/card_backs/set2/blue.gif","""event"",""trial"",""time""
""fullscreenenter"",""1"",""7669""
","
","
","""event"",""trial"",""time""
""fullscreenenter"",""1"",""7669""
","
","","null","","null","","fixation","2021-07-14 22:15:49.226","","","","","",""
"card-selection-trial","113","427893","0.0-25.0-1.21","841","true","img/card_backs/set1/green.gif","img/card_backs/set1/red.gif","img/card_backs/set1/yellow.gif","img/card_backs/set1/purple.gif","img/card_backs/set2/pink.gif","img/card_backs/set2/orange.gif","img/card_backs/set2/gray.gif","img/card_backs/set2/blue.gif","""event"",""trial"",""time""
""fullscreenenter"",""1"",""7669""
","
","
","""event"",""trial"",""time""
""fullscreenenter"",""1"",""7669""
","
","","1107.5","","","","real_trial","2021-07-14 22:15:52.342","img/card_backs/set1/green.gif","0","240","1","",""
"casino-fixation","114","428395","0.0-25.0-0.22","841","true","img/card_backs/set1/green.gif","img/card_backs/set1/red.gif","img/card_backs/set1/yellow.gif","img/card_backs/set1/purple.gif","img/card_backs/set2/pink.gif","img/card_backs/set2/orange.gif","img/card_backs/set2/gray.gif","img/card_backs/set2/blue.gif","""event"",""trial"",""time""
""fullscreenenter"",""1"",""7669""
","
","
","""event"",""trial"",""time""
""fullscreenenter"",""1"",""7669""
","
","","null","","null","","fixation","2021-07-14 22:15:52.844","","","","","",""
"card-selection-trial","115","431428","0.0-25.0-1.22","841","true","img/card_backs/set1/green.gif","img/card_backs/set1/red.gif","img/card_backs/set1/yellow.gif","img/card_backs/set1/purple.gif","img/card_backs/set2/pink.gif","img/card_backs/set2/orange.gif","img/card_backs/set2/gray.gif","img/card_backs/set2/blue.gif","""event"",""trial"",""time""
""fullscreenenter"",""1"",""7669""
","
","
","""event"",""trial"",""time""
""fullscreenenter"",""1"",""7669""
","
","","1024.1000000089407","","","","real_trial","2021-07-14 22:15:55.877","img/card_backs/set1/yellow.gif","1","-100","1","",""
"casino-fixation","116","431930","0.0-25.0-0.23","841","true","img/card_backs/set1/green.gif","img/card_backs/set1/red.gif","img/card_backs/set1/yellow.gif","img/card_backs/set1/purple.gif","img/card_backs/set2/pink.gif","img/card_backs/set2/orange.gif","img/card_backs/set2/gray.gif","img/card_backs/set2/blue.gif","""event"",""trial"",""time""
""fullscreenenter"",""1"",""7669""
","
","
","""event"",""trial"",""time""
""fullscreenenter"",""1"",""7669""
","
","","null","","null","","fixation","2021-07-14 22:15:56.379","","","","","",""
"card-selection-trial","117","435018","0.0-25.0-1.23","841","true","img/card_backs/set1/green.gif","img/card_backs/set1/red.gif","img/card_backs/set1/yellow.gif","img/card_backs/set1/purple.gif","img/card_backs/set2/pink.gif","img/card_backs/set2/orange.gif","img/card_backs/set2/gray.gif","img/card_backs/set2/blue.gif","""event"",""trial"",""time""
""fullscreenenter"",""1"",""7669""
","
","
","""event"",""trial"",""time""
""fullscreenenter"",""1"",""7669""
","
","","1080.5","","","","real_trial","2021-07-14 22:15:59.467","img/card_backs/set1/red.gif","1","-200","1","",""
"casino-fixation","118","435520","0.0-25.0-0.24","841","true","img/card_backs/set1/green.gif","img/card_backs/set1/red.gif","img/card_backs/set1/yellow.gif","img/card_backs/set1/purple.gif","img/card_backs/set2/pink.gif","img/card_backs/set2/orange.gif","img/card_backs/set2/gray.gif","img/card_backs/set2/blue.gif","""event"",""trial"",""time""
""fullscreenenter"",""1"",""7669""
","
","
","""event"",""trial"",""time""
""fullscreenenter"",""1"",""7669""
","
","","null","","null","","fixation","2021-07-14 22:15:59.969","","","","","",""
"card-selection-trial","119","438168","0.0-25.0-1.24","841","true","img/card_backs/set1/green.gif","img/card_backs/set1/red.gif","img/card_backs/set1/yellow.gif","img/card_backs/set1/purple.gif","img/card_backs/set2/pink.gif","img/card_backs/set2/orange.gif","img/card_backs/set2/gray.gif","img/card_backs/set2/blue.gif","""event"",""trial"",""time""
""fullscreenenter"",""1"",""7669""
","
","
","""event"",""trial"",""time""
""fullscreenenter"",""1"",""7669""
","
","","641.9000000059605","","","","real_trial","2021-07-14 22:16:02.618","img/card_backs/set1/yellow.gif","2","60","1","",""
"casino-fixation","120","438670","0.0-25.0-0.25","841","true","img/card_backs/set1/green.gif","img/card_backs/set1/red.gif","img/card_backs/set1/yellow.gif","img/card_backs/set1/purple.gif","img/card_backs/set2/pink.gif","img/card_backs/set2/orange.gif","img/card_backs/set2/gray.gif","img/card_backs/set2/blue.gif","""event"",""trial"",""time""
""fullscreenenter"",""1"",""7669""
","
","
","""event"",""trial"",""time""
""fullscreenenter"",""1"",""7669""
","
","","null","","null","","fixation","2021-07-14 22:16:03.119","","","","","",""
"card-selection-trial","121","441275","0.0-25.0-1.25","841","true","img/card_backs/set1/green.gif","img/card_backs/set1/red.gif","img/card_backs/set1/yellow.gif","img/card_backs/set1/purple.gif","img/card_backs/set2/pink.gif","img/card_backs/set2/orange.gif","img/card_backs/set2/gray.gif","img/card_backs/set2/blue.gif","""event"",""trial"",""time""
""fullscreenenter"",""1"",""7669""
","
","
","""event"",""trial"",""time""
""fullscreenenter"",""1"",""7669""
","
","","597.6999999880791","","","","real_trial","2021-07-14 22:16:05.724","img/card_backs/set1/red.gif","3","-190","1","",""
"casino-fixation","122","441778","0.0-25.0-0.26","841","true","img/card_backs/set1/green.gif","img/card_backs/set1/red.gif","img/card_backs/set1/yellow.gif","img/card_backs/set1/purple.gif","img/card_backs/set2/pink.gif","img/card_backs/set2/orange.gif","img/card_backs/set2/gray.gif","img/card_backs/set2/blue.gif","""event"",""trial"",""time""
""fullscreenenter"",""1"",""7669""
","
","
","""event"",""trial"",""time""
""fullscreenenter"",""1"",""7669""
","
","","null","","null","","fixation","2021-07-14 22:16:06.227","","","","","",""
"card-selection-trial","123","444296","0.0-25.0-1.26","841","true","img/card_backs/set1/green.gif","img/card_backs/set1/red.gif","img/card_backs/set1/yellow.gif","img/card_backs/set1/purple.gif","img/card_backs/set2/pink.gif","img/card_backs/set2/orange.gif","img/card_backs/set2/gray.gif","img/card_backs/set2/blue.gif","""event"",""trial"",""time""
""fullscreenenter"",""1"",""7669""
","
","
","""event"",""trial"",""time""
""fullscreenenter"",""1"",""7669""
","
","","508.79999999701977","","","","real_trial","2021-07-14 22:16:08.745","img/card_backs/set1/yellow.gif","0","-100","1","",""
"casino-fixation","124","444798","0.0-25.0-0.27","841","true","img/card_backs/set1/green.gif","img/card_backs/set1/red.gif","img/card_backs/set1/yellow.gif","img/card_backs/set1/purple.gif","img/card_backs/set2/pink.gif","img/card_backs/set2/orange.gif","img/card_backs/set2/gray.gif","img/card_backs/set2/blue.gif","""event"",""trial"",""time""
""fullscreenenter"",""1"",""7669""
","
","
","""event"",""trial"",""time""
""fullscreenenter"",""1"",""7669""
","
","","null","","null","","fixation","2021-07-14 22:16:09.247","","","","","",""
"card-selection-trial","125","447828","0.0-25.0-1.27","841","true","img/card_backs/set1/green.gif","img/card_backs/set1/red.gif","img/card_backs/set1/yellow.gif","img/card_backs/set1/purple.gif","img/card_backs/set2/pink.gif","img/card_backs/set2/orange.gif","img/card_backs/set2/gray.gif","img/card_backs/set2/blue.gif","""event"",""trial"",""time""
""fullscreenenter"",""1"",""7669""
","
","
","""event"",""trial"",""time""
""fullscreenenter"",""1"",""7669""
","
","","1023.3000000119209","","","","real_trial","2021-07-14 22:16:12.278","img/card_backs/set1/purple.gif","2","-100","1","",""
"casino-fixation","126","448331","0.0-25.0-0.28","841","true","img/card_backs/set1/green.gif","img/card_backs/set1/red.gif","img/card_backs/set1/yellow.gif","img/card_backs/set1/purple.gif","img/card_backs/set2/pink.gif","img/card_backs/set2/orange.gif","img/card_backs/set2/gray.gif","img/card_backs/set2/blue.gif","""event"",""trial"",""time""
""fullscreenenter"",""1"",""7669""
","
","
","""event"",""trial"",""time""
""fullscreenenter"",""1"",""7669""
","
","","null","","null","","fixation","2021-07-14 22:16:12.780","","","","","",""
"card-selection-trial","127","451500","0.0-25.0-1.28","841","true","img/card_backs/set1/green.gif","img/card_backs/set1/red.gif","img/card_backs/set1/yellow.gif","img/card_backs/set1/purple.gif","img/card_backs/set2/pink.gif","img/card_backs/set2/orange.gif","img/card_backs/set2/gray.gif","img/card_backs/set2/blue.gif","""event"",""trial"",""time""
""fullscreenenter"",""1"",""7669""
","
","
","""event"",""trial"",""time""
""fullscreenenter"",""1"",""7669""
","
","","1160.2000000029802","","","","real_trial","2021-07-14 22:16:15.949","img/card_backs/set1/yellow.gif","2","-100","1","",""
"casino-fixation","128","452002","0.0-25.0-0.29","841","true","img/card_backs/set1/green.gif","img/card_backs/set1/red.gif","img/card_backs/set1/yellow.gif","img/card_backs/set1/purple.gif","img/card_backs/set2/pink.gif","img/card_backs/set2/orange.gif","img/card_backs/set2/gray.gif","img/card_backs/set2/blue.gif","""event"",""trial"",""time""
""fullscreenenter"",""1"",""7669""
","
","
","""event"",""trial"",""time""
""fullscreenenter"",""1"",""7669""
","
","","null","","null","","fixation","2021-07-14 22:16:16.451","","","","","",""
"card-selection-trial","129","455398","0.0-25.0-1.29","841","true","img/card_backs/set1/green.gif","img/card_backs/set1/red.gif","img/card_backs/set1/yellow.gif","img/card_backs/set1/purple.gif","img/card_backs/set2/pink.gif","img/card_backs/set2/orange.gif","img/card_backs/set2/gray.gif","img/card_backs/set2/blue.gif","""event"",""trial"",""time""
""fullscreenenter"",""1"",""7669""
","
","
","""event"",""trial"",""time""
""fullscreenenter"",""1"",""7669""
","
","","1387.9000000059605","","","","real_trial","2021-07-14 22:16:19.847","img/card_backs/set1/yellow.gif","3","60","1","",""
"casino-fixation","130","455900","0.0-25.0-0.30","841","true","img/card_backs/set1/green.gif","img/card_backs/set1/red.gif","img/card_backs/set1/yellow.gif","img/card_backs/set1/purple.gif","img/card_backs/set2/pink.gif","img/card_backs/set2/orange.gif","img/card_backs/set2/gray.gif","img/card_backs/set2/blue.gif","""event"",""trial"",""time""
""fullscreenenter"",""1"",""7669""
","
","
","""event"",""trial"",""time""
""fullscreenenter"",""1"",""7669""
","
","","null","","null","","fixation","2021-07-14 22:16:20.349","","","","","",""
"card-selection-trial","131","459124","0.0-25.0-1.30","841","true","img/card_backs/set1/green.gif","img/card_backs/set1/red.gif","img/card_backs/set1/yellow.gif","img/card_backs/set1/purple.gif","img/card_backs/set2/pink.gif","img/card_backs/set2/orange.gif","img/card_backs/set2/gray.gif","img/card_backs/set2/blue.gif","""event"",""trial"",""time""
""fullscreenenter"",""1"",""7669""
","
","
","""event"",""trial"",""time""
""fullscreenenter"",""1"",""7669""
","
","","1216.7000000029802","","","","real_trial","2021-07-14 22:16:23.573","img/card_backs/set1/purple.gif","1","40","1","",""
"casino-fixation","132","459626","0.0-25.0-0.31","841","true","img/card_backs/set1/green.gif","img/card_backs/set1/red.gif","img/card_backs/set1/yellow.gif","img/card_backs/set1/purple.gif","img/card_backs/set2/pink.gif","img/card_backs/set2/orange.gif","img/card_backs/set2/gray.gif","img/card_backs/set2/blue.gif","""event"",""trial"",""time""
""fullscreenenter"",""1"",""7669""
","
","
","""event"",""trial"",""time""
""fullscreenenter"",""1"",""7669""
","
","","null","","null","","fixation","2021-07-14 22:16:24.075","","","","","",""
"card-selection-trial","133","462722","0.0-25.0-1.31","841","true","img/card_backs/set1/green.gif","img/card_backs/set1/red.gif","img/card_backs/set1/yellow.gif","img/card_backs/set1/purple.gif","img/card_backs/set2/pink.gif","img/card_backs/set2/orange.gif","img/card_backs/set2/gray.gif","img/card_backs/set2/blue.gif","""event"",""trial"",""time""
""fullscreenenter"",""1"",""7669""
","
","
","""event"",""trial"",""time""
""fullscreenenter"",""1"",""7669""
","
","","1089.5999999940395","","","","real_trial","2021-07-14 22:16:27.172","img/card_backs/set1/red.gif","2","-200","1","",""
"casino-fixation","134","463224","0.0-25.0-0.32","841","true","img/card_backs/set1/green.gif","img/card_backs/set1/red.gif","img/card_backs/set1/yellow.gif","img/card_backs/set1/purple.gif","img/card_backs/set2/pink.gif","img/card_backs/set2/orange.gif","img/card_backs/set2/gray.gif","img/card_backs/set2/blue.gif","""event"",""trial"",""time""
""fullscreenenter"",""1"",""7669""
","
","
","""event"",""trial"",""time""
""fullscreenenter"",""1"",""7669""
","
","","null","","null","","fixation","2021-07-14 22:16:27.673","","","","","",""
"card-selection-trial","135","466352","0.0-25.0-1.32","841","true","img/card_backs/set1/green.gif","img/card_backs/set1/red.gif","img/card_backs/set1/yellow.gif","img/card_backs/set1/purple.gif","img/card_backs/set2/pink.gif","img/card_backs/set2/orange.gif","img/card_backs/set2/gray.gif","img/card_backs/set2/blue.gif","""event"",""trial"",""time""
""fullscreenenter"",""1"",""7669""
","
","
","""event"",""trial"",""time""
""fullscreenenter"",""1"",""7669""
","
","","1118.2999999970198","","","","real_trial","2021-07-14 22:16:30.801","img/card_backs/set1/red.gif","1","240","1","",""
"casino-fixation","136","466853","0.0-25.0-0.33","841","true","img/card_backs/set1/green.gif","img/card_backs/set1/red.gif","img/card_backs/set1/yellow.gif","img/card_backs/set1/purple.gif","img/card_backs/set2/pink.gif","img/card_backs/set2/orange.gif","img/card_backs/set2/gray.gif","img/card_backs/set2/blue.gif","""event"",""trial"",""time""
""fullscreenenter"",""1"",""7669""
","
","
","""event"",""trial"",""time""
""fullscreenenter"",""1"",""7669""
","
","","null","","null","","fixation","2021-07-14 22:16:31.302","","","","","",""
"card-selection-trial","137","471047","0.0-25.0-1.33","841","true","img/card_backs/set1/green.gif","img/card_backs/set1/red.gif","img/card_backs/set1/yellow.gif","img/card_backs/set1/purple.gif","img/card_backs/set2/pink.gif","img/card_backs/set2/orange.gif","img/card_backs/set2/gray.gif","img/card_backs/set2/blue.gif","""event"",""trial"",""time""
""fullscreenenter"",""1"",""7669""
","
","
","""event"",""trial"",""time""
""fullscreenenter"",""1"",""7669""
","
","","2186.7999999970198","","","","real_trial","2021-07-14 22:16:35.496","img/card_backs/set1/green.gif","2","250","1","",""
"casino-fixation","138","471549","0.0-25.0-0.34","841","true","img/card_backs/set1/green.gif","img/card_backs/set1/red.gif","img/card_backs/set1/yellow.gif","img/card_backs/set1/purple.gif","img/card_backs/set2/pink.gif","img/card_backs/set2/orange.gif","img/card_backs/set2/gray.gif","img/card_backs/set2/blue.gif","""event"",""trial"",""time""
""fullscreenenter"",""1"",""7669""
","
","
","""event"",""trial"",""time""
""fullscreenenter"",""1"",""7669""
","
","","null","","null","","fixation","2021-07-14 22:16:35.999","","","","","",""
"card-selection-trial","139","474373","0.0-25.0-1.34","841","true","img/card_backs/set1/green.gif","img/card_backs/set1/red.gif","img/card_backs/set1/yellow.gif","img/card_backs/set1/purple.gif","img/card_backs/set2/pink.gif","img/card_backs/set2/orange.gif","img/card_backs/set2/gray.gif","img/card_backs/set2/blue.gif","""event"",""trial"",""time""
""fullscreenenter"",""1"",""7669""
","
","
","""event"",""trial"",""time""
""fullscreenenter"",""1"",""7669""
","
","","816.7000000029802","","","","real_trial","2021-07-14 22:16:38.822","img/card_backs/set1/yellow.gif","2","40","1","",""
"casino-fixation","140","474875","0.0-25.0-0.35","841","true","img/card_backs/set1/green.gif","img/card_backs/set1/red.gif","img/card_backs/set1/yellow.gif","img/card_backs/set1/purple.gif","img/card_backs/set2/pink.gif","img/card_backs/set2/orange.gif","img/card_backs/set2/gray.gif","img/card_backs/set2/blue.gif","""event"",""trial"",""time""
""fullscreenenter"",""1"",""7669""
","
","
","""event"",""trial"",""time""
""fullscreenenter"",""1"",""7669""
","
","","null","","null","","fixation","2021-07-14 22:16:39.324","","","","","",""
"card-selection-trial","141","477975","0.0-25.0-1.35","841","true","img/card_backs/set1/green.gif","img/card_backs/set1/red.gif","img/card_backs/set1/yellow.gif","img/card_backs/set1/purple.gif","img/card_backs/set2/pink.gif","img/card_backs/set2/orange.gif","img/card_backs/set2/gray.gif","img/card_backs/set2/blue.gif","""event"",""trial"",""time""
""fullscreenenter"",""1"",""7669""
","
","
","""event"",""trial"",""time""
""fullscreenenter"",""1"",""7669""
","
","","1088.5999999940395","","","","real_trial","2021-07-14 22:16:42.424","img/card_backs/set1/red.gif","3","260","1","",""
"casino-fixation","142","478477","0.0-25.0-0.36","841","true","img/card_backs/set1/green.gif","img/card_backs/set1/red.gif","img/card_backs/set1/yellow.gif","img/card_backs/set1/purple.gif","img/card_backs/set2/pink.gif","img/card_backs/set2/orange.gif","img/card_backs/set2/gray.gif","img/card_backs/set2/blue.gif","""event"",""trial"",""time""
""fullscreenenter"",""1"",""7669""
","
","
","""event"",""trial"",""time""
""fullscreenenter"",""1"",""7669""
","
","","null","","null","","fixation","2021-07-14 22:16:42.926","","","","","",""
"card-selection-trial","143","481912","0.0-25.0-1.36","841","true","img/card_backs/set1/green.gif","img/card_backs/set1/red.gif","img/card_backs/set1/yellow.gif","img/card_backs/set1/purple.gif","img/card_backs/set2/pink.gif","img/card_backs/set2/orange.gif","img/card_backs/set2/gray.gif","img/card_backs/set2/blue.gif","""event"",""trial"",""time""
""fullscreenenter"",""1"",""7669""
","
","
","""event"",""trial"",""time""
""fullscreenenter"",""1"",""7669""
","
","","1427.699999988079","","","","real_trial","2021-07-14 22:16:46.362","img/card_backs/set1/purple.gif","0","40","1","",""
"casino-fixation","144","482415","0.0-25.0-0.37","841","true","img/card_backs/set1/green.gif","img/card_backs/set1/red.gif","img/card_backs/set1/yellow.gif","img/card_backs/set1/purple.gif","img/card_backs/set2/pink.gif","img/card_backs/set2/orange.gif","img/card_backs/set2/gray.gif","img/card_backs/set2/blue.gif","""event"",""trial"",""time""
""fullscreenenter"",""1"",""7669""
","
","
","""event"",""trial"",""time""
""fullscreenenter"",""1"",""7669""
","
","","null","","null","","fixation","2021-07-14 22:16:46.864","","","","","",""
"card-selection-trial","145","485658","0.0-25.0-1.37","841","true","img/card_backs/set1/green.gif","img/card_backs/set1/red.gif","img/card_backs/set1/yellow.gif","img/card_backs/set1/purple.gif","img/card_backs/set2/pink.gif","img/card_backs/set2/orange.gif","img/card_backs/set2/gray.gif","img/card_backs/set2/blue.gif","""event"",""trial"",""time""
""fullscreenenter"",""1"",""7669""
","
","
","""event"",""trial"",""time""
""fullscreenenter"",""1"",""7669""
","
","","1235.7999999970198","","","","real_trial","2021-07-14 22:16:50.107","img/card_backs/set1/red.gif","1","-190","1","",""
"casino-fixation","146","486160","0.0-25.0-0.38","841","true","img/card_backs/set1/green.gif","img/card_backs/set1/red.gif","img/card_backs/set1/yellow.gif","img/card_backs/set1/purple.gif","img/card_backs/set2/pink.gif","img/card_backs/set2/orange.gif","img/card_backs/set2/gray.gif","img/card_backs/set2/blue.gif","""event"",""trial"",""time""
""fullscreenenter"",""1"",""7669""
","
","
","""event"",""trial"",""time""
""fullscreenenter"",""1"",""7669""
","
","","null","","null","","fixation","2021-07-14 22:16:50.609","","","","","",""
"card-selection-trial","147","489863","0.0-25.0-1.38","841","true","img/card_backs/set1/green.gif","img/card_backs/set1/red.gif","img/card_backs/set1/yellow.gif","img/card_backs/set1/purple.gif","img/card_backs/set2/pink.gif","img/card_backs/set2/orange.gif","img/card_backs/set2/gray.gif","img/card_backs/set2/blue.gif","""event"",""trial"",""time""
""fullscreenenter"",""1"",""7669""
","
","
","""event"",""trial"",""time""
""fullscreenenter"",""1"",""7669""
","
","","1691.6000000089407","","","","real_trial","2021-07-14 22:16:54.312","img/card_backs/set1/red.gif","2","250","1","",""
"casino-fixation","148","490366","0.0-25.0-0.39","841","true","img/card_backs/set1/green.gif","img/card_backs/set1/red.gif","img/card_backs/set1/yellow.gif","img/card_backs/set1/purple.gif","img/card_backs/set2/pink.gif","img/card_backs/set2/orange.gif","img/card_backs/set2/gray.gif","img/card_backs/set2/blue.gif","""event"",""trial"",""time""
""fullscreenenter"",""1"",""7669""
","
","
","""event"",""trial"",""time""
""fullscreenenter"",""1"",""7669""
","
","","null","","null","","fixation","2021-07-14 22:16:54.815","","","","","",""
"card-selection-trial","149","492921","0.0-25.0-1.39","841","true","img/card_backs/set1/green.gif","img/card_backs/set1/red.gif","img/card_backs/set1/yellow.gif","img/card_backs/set1/purple.gif","img/card_backs/set2/pink.gif","img/card_backs/set2/orange.gif","img/card_backs/set2/gray.gif","img/card_backs/set2/blue.gif","""event"",""trial"",""time""
""fullscreenenter"",""1"",""7669""
","
","
","""event"",""trial"",""time""
""fullscreenenter"",""1"",""7669""
","
","","549.4000000059605","","","","real_trial","2021-07-14 22:16:57.371","img/card_backs/set1/yellow.gif","3","-90","1","",""
"casino-fixation","150","493424","0.0-25.0-0.40","841","true","img/card_backs/set1/green.gif","img/card_backs/set1/red.gif","img/card_backs/set1/yellow.gif","img/card_backs/set1/purple.gif","img/card_backs/set2/pink.gif","img/card_backs/set2/orange.gif","img/card_backs/set2/gray.gif","img/card_backs/set2/blue.gif","""event"",""trial"",""time""
""fullscreenenter"",""1"",""7669""
","
","
","""event"",""trial"",""time""
""fullscreenenter"",""1"",""7669""
","
","","null","","null","","fixation","2021-07-14 22:16:57.873","","","","","",""
"card-selection-trial","151","496375","0.0-25.0-1.40","841","true","img/card_backs/set1/green.gif","img/card_backs/set1/red.gif","img/card_backs/set1/yellow.gif","img/card_backs/set1/purple.gif","img/card_backs/set2/pink.gif","img/card_backs/set2/orange.gif","img/card_backs/set2/gray.gif","img/card_backs/set2/blue.gif","""event"",""trial"",""time""
""fullscreenenter"",""1"",""7669""
","
","
","""event"",""trial"",""time""
""fullscreenenter"",""1"",""7669""
","
","","941.5","","","","real_trial","2021-07-14 22:17:00.824","img/card_backs/set1/red.gif","1","-200","1","",""
"casino-fixation","152","496876","0.0-25.0-0.41","841","true","img/card_backs/set1/green.gif","img/card_backs/set1/red.gif","img/card_backs/set1/yellow.gif","img/card_backs/set1/purple.gif","img/card_backs/set2/pink.gif","img/card_backs/set2/orange.gif","img/card_backs/set2/gray.gif","img/card_backs/set2/blue.gif","""event"",""trial"",""time""
""fullscreenenter"",""1"",""7669""
","
","
","""event"",""trial"",""time""
""fullscreenenter"",""1"",""7669""
","
","","null","","null","","fixation","2021-07-14 22:17:01.326","","","","","",""
"card-selection-trial","153","499544","0.0-25.0-1.41","841","true","img/card_backs/set1/green.gif","img/card_backs/set1/red.gif","img/card_backs/set1/yellow.gif","img/card_backs/set1/purple.gif","img/card_backs/set2/pink.gif","img/card_backs/set2/orange.gif","img/card_backs/set2/gray.gif","img/card_backs/set2/blue.gif","""event"",""trial"",""time""
""fullscreenenter"",""1"",""7669""
","
","
","""event"",""trial"",""time""
""fullscreenenter"",""1"",""7669""
","
","","656.4000000059605","","","","real_trial","2021-07-14 22:17:03.993","img/card_backs/set1/green.gif","2","-190","1","",""
"casino-fixation","154","500046","0.0-25.0-0.42","841","true","img/card_backs/set1/green.gif","img/card_backs/set1/red.gif","img/card_backs/set1/yellow.gif","img/card_backs/set1/purple.gif","img/card_backs/set2/pink.gif","img/card_backs/set2/orange.gif","img/card_backs/set2/gray.gif","img/card_backs/set2/blue.gif","""event"",""trial"",""time""
""fullscreenenter"",""1"",""7669""
","
","
","""event"",""trial"",""time""
""fullscreenenter"",""1"",""7669""
","
","","null","","null","","fixation","2021-07-14 22:17:04.495","","","","","",""
"card-selection-trial","155","502937","0.0-25.0-1.42","841","true","img/card_backs/set1/green.gif","img/card_backs/set1/red.gif","img/card_backs/set1/yellow.gif","img/card_backs/set1/purple.gif","img/card_backs/set2/pink.gif","img/card_backs/set2/orange.gif","img/card_backs/set2/gray.gif","img/card_backs/set2/blue.gif","""event"",""trial"",""time""
""fullscreenenter"",""1"",""7669""
","
","
","""event"",""trial"",""time""
""fullscreenenter"",""1"",""7669""
","
","","884.5999999940395","","","","real_trial","2021-07-14 22:17:07.386","img/card_backs/set1/yellow.gif","3","-100","1","",""
"casino-fixation","156","503439","0.0-25.0-0.43","841","true","img/card_backs/set1/green.gif","img/card_backs/set1/red.gif","img/card_backs/set1/yellow.gif","img/card_backs/set1/purple.gif","img/card_backs/set2/pink.gif","img/card_backs/set2/orange.gif","img/card_backs/set2/gray.gif","img/card_backs/set2/blue.gif","""event"",""trial"",""time""
""fullscreenenter"",""1"",""7669""
","
","
","""event"",""trial"",""time""
""fullscreenenter"",""1"",""7669""
","
","","null","","null","","fixation","2021-07-14 22:17:07.888","","","","","",""
"card-selection-trial","157","506272","0.0-25.0-1.43","841","true","img/card_backs/set1/green.gif","img/card_backs/set1/red.gif","img/card_backs/set1/yellow.gif","img/card_backs/set1/purple.gif","img/card_backs/set2/pink.gif","img/card_backs/set2/orange.gif","img/card_backs/set2/gray.gif","img/card_backs/set2/blue.gif","""event"",""trial"",""time""
""fullscreenenter"",""1"",""7669""
","
","
","""event"",""trial"",""time""
""fullscreenenter"",""1"",""7669""
","
","","826","","","","real_trial","2021-07-14 22:17:10.721","img/card_backs/set1/purple.gif","1","-90","1","",""
"casino-fixation","158","506774","0.0-25.0-0.44","841","true","img/card_backs/set1/green.gif","img/card_backs/set1/red.gif","img/card_backs/set1/yellow.gif","img/card_backs/set1/purple.gif","img/card_backs/set2/pink.gif","img/card_backs/set2/orange.gif","img/card_backs/set2/gray.gif","img/card_backs/set2/blue.gif","""event"",""trial"",""time""
""fullscreenenter"",""1"",""7669""
","
","
","""event"",""trial"",""time""
""fullscreenenter"",""1"",""7669""
","
","","null","","null","","fixation","2021-07-14 22:17:11.223","","","","","",""
"card-selection-trial","159","509607","0.0-25.0-1.44","841","true","img/card_backs/set1/green.gif","img/card_backs/set1/red.gif","img/card_backs/set1/yellow.gif","img/card_backs/set1/purple.gif","img/card_backs/set2/pink.gif","img/card_backs/set2/orange.gif","img/card_backs/set2/gray.gif","img/card_backs/set2/blue.gif","""event"",""trial"",""time""
""fullscreenenter"",""1"",""7669""
","
","
","""event"",""trial"",""time""
""fullscreenenter"",""1"",""7669""
","
","","825.5999999940395","","","","real_trial","2021-07-14 22:17:14.056","img/card_backs/set1/green.gif","2","-190","1","",""
"casino-fixation","160","510110","0.0-25.0-0.45","841","true","img/card_backs/set1/green.gif","img/card_backs/set1/red.gif","img/card_backs/set1/yellow.gif","img/card_backs/set1/purple.gif","img/card_backs/set2/pink.gif","img/card_backs/set2/orange.gif","img/card_backs/set2/gray.gif","img/card_backs/set2/blue.gif","""event"",""trial"",""time""
""fullscreenenter"",""1"",""7669""
","
","
","""event"",""trial"",""time""
""fullscreenenter"",""1"",""7669""
","
","","null","","null","","fixation","2021-07-14 22:17:14.559","","","","","",""
"card-selection-trial","161","513630","0.0-25.0-1.45","841","true","img/card_backs/set1/green.gif","img/card_backs/set1/red.gif","img/card_backs/set1/yellow.gif","img/card_backs/set1/purple.gif","img/card_backs/set2/pink.gif","img/card_backs/set2/orange.gif","img/card_backs/set2/gray.gif","img/card_backs/set2/blue.gif","""event"",""trial"",""time""
""fullscreenenter"",""1"",""7669""
","
","
","""event"",""trial"",""time""
""fullscreenenter"",""1"",""7669""
","
","","1513.2000000029802","","","","real_trial","2021-07-14 22:17:18.079","img/card_backs/set1/red.gif","2","-210","1","",""
"casino-fixation","162","514132","0.0-25.0-0.46","841","true","img/card_backs/set1/green.gif","img/card_backs/set1/red.gif","img/card_backs/set1/yellow.gif","img/card_backs/set1/purple.gif","img/card_backs/set2/pink.gif","img/card_backs/set2/orange.gif","img/card_backs/set2/gray.gif","img/card_backs/set2/blue.gif","""event"",""trial"",""time""
""fullscreenenter"",""1"",""7669""
","
","
","""event"",""trial"",""time""
""fullscreenenter"",""1"",""7669""
","
","","null","","null","","fixation","2021-07-14 22:17:18.581","","","","","",""
"card-selection-trial","163","517131","0.0-25.0-1.46","841","true","img/card_backs/set1/green.gif","img/card_backs/set1/red.gif","img/card_backs/set1/yellow.gif","img/card_backs/set1/purple.gif","img/card_backs/set2/pink.gif","img/card_backs/set2/orange.gif","img/card_backs/set2/gray.gif","img/card_backs/set2/blue.gif","""event"",""trial"",""time""
""fullscreenenter"",""1"",""7669""
","
","
","""event"",""trial"",""time""
""fullscreenenter"",""1"",""7669""
","
","","992.3999999910593","","","","real_trial","2021-07-14 22:17:21.580","img/card_backs/set1/purple.gif","2","-110","1","",""
"casino-fixation","164","517633","0.0-25.0-0.47","841","true","img/card_backs/set1/green.gif","img/card_backs/set1/red.gif","img/card_backs/set1/yellow.gif","img/card_backs/set1/purple.gif","img/card_backs/set2/pink.gif","img/card_backs/set2/orange.gif","img/card_backs/set2/gray.gif","img/card_backs/set2/blue.gif","""event"",""trial"",""time""
""fullscreenenter"",""1"",""7669""
","
","
","""event"",""trial"",""time""
""fullscreenenter"",""1"",""7669""
","
","","null","","null","","fixation","2021-07-14 22:17:22.082","","","","","",""
"card-selection-trial","165","520223","0.0-25.0-1.47","841","true","img/card_backs/set1/green.gif","img/card_backs/set1/red.gif","img/card_backs/set1/yellow.gif","img/card_backs/set1/purple.gif","img/card_backs/set2/pink.gif","img/card_backs/set2/orange.gif","img/card_backs/set2/gray.gif","img/card_backs/set2/blue.gif","""event"",""trial"",""time""
""fullscreenenter"",""1"",""7669""
","
","
","""event"",""trial"",""time""
""fullscreenenter"",""1"",""7669""
","
","","583.0999999940395","","","","real_trial","2021-07-14 22:17:24.672","img/card_backs/set1/purple.gif","1","-90","1","",""
"casino-fixation","166","520725","0.0-25.0-0.48","841","true","img/card_backs/set1/green.gif","img/card_backs/set1/red.gif","img/card_backs/set1/yellow.gif","img/card_backs/set1/purple.gif","img/card_backs/set2/pink.gif","img/card_backs/set2/orange.gif","img/card_backs/set2/gray.gif","img/card_backs/set2/blue.gif","""event"",""trial"",""time""
""fullscreenenter"",""1"",""7669""
","
","
","""event"",""trial"",""time""
""fullscreenenter"",""1"",""7669""
","
","","null","","null","","fixation","2021-07-14 22:17:25.174","","","","","",""
"card-selection-trial","167","524054","0.0-25.0-1.48","841","true","img/card_backs/set1/green.gif","img/card_backs/set1/red.gif","img/card_backs/set1/yellow.gif","img/card_backs/set1/purple.gif","img/card_backs/set2/pink.gif","img/card_backs/set2/orange.gif","img/card_backs/set2/gray.gif","img/card_backs/set2/blue.gif","""event"",""trial"",""time""
""fullscreenenter"",""1"",""7669""
","
","
","""event"",""trial"",""time""
""fullscreenenter"",""1"",""7669""
","
","","1321","","","","real_trial","2021-07-14 22:17:28.503","img/card_backs/set1/yellow.gif","0","40","1","",""
