"trial_type","trial_index","time_elapsed","internal_node_id","sub_id","risk_good_first","block1_A","block1_B","block1_C","block1_D","block2_A","block2_B","block2_C","block2_D","interactions","blur_events","focus_events","fullscreenenter_events","fullscreenexit_events","success","rt","stimulus","key_press","button_pressed","task_part","timestamp","card_choice","choice_position","points_earned","block","correct","response"
"pavlovia","0","6","0.0-0.0","859","false","img/card_backs/set1/yellow.gif","img/card_backs/set1/red.gif","img/card_backs/set1/green.gif","img/card_backs/set1/purple.gif","img/card_backs/set2/pink.gif","img/card_backs/set2/gray.gif","img/card_backs/set2/blue.gif","img/card_backs/set2/orange.gif","""event"",""trial"",""time""
""fullscreenenter"",""1"",""4935""
","
","
","""event"",""trial"",""time""
""fullscreenenter"",""1"",""4935""
","
","","","","","","","","","","","","",""
"fullscreen","1","5923","0.0-1.0","859","false","img/card_backs/set1/yellow.gif","img/card_backs/set1/red.gif","img/card_backs/set1/green.gif","img/card_backs/set1/purple.gif","img/card_backs/set2/pink.gif","img/card_backs/set2/gray.gif","img/card_backs/set2/blue.gif","img/card_backs/set2/orange.gif","""event"",""trial"",""time""
""fullscreenenter"",""1"",""4935""
","
","
","""event"",""trial"",""time""
""fullscreenenter"",""1"",""4935""
","
","true","","","","","","","","","","","",""
"audio-keyboard-response","2","7854","0.0-2.0","859","false","img/card_backs/set1/yellow.gif","img/card_backs/set1/red.gif","img/card_backs/set1/green.gif","img/card_backs/set1/purple.gif","img/card_backs/set2/pink.gif","img/card_backs/set2/gray.gif","img/card_backs/set2/blue.gif","img/card_backs/set2/orange.gif","""event"",""trial"",""time""
""fullscreenenter"",""1"",""4935""
","
","
","""event"",""trial"",""time""
""fullscreenenter"",""1"",""4935""
","
","","1805","audio/beep_loop.wav","32","","","","","","","","",""
"audio-button-response","3","10955","0.0-3.0","859","false","img/card_backs/set1/yellow.gif","img/card_backs/set1/red.gif","img/card_backs/set1/green.gif","img/card_backs/set1/purple.gif","img/card_backs/set2/pink.gif","img/card_backs/set2/gray.gif","img/card_backs/set2/blue.gif","img/card_backs/set2/orange.gif","""event"",""trial"",""time""
""fullscreenenter"",""1"",""4935""
","
","
","""event"",""trial"",""time""
""fullscreenenter"",""1"",""4935""
","
","","NaN","audio/turtle.mp3","","3","","","","","","","",""
"audio-button-response","4","13653","0.0-4.0","859","false","img/card_backs/set1/yellow.gif","img/card_backs/set1/red.gif","img/card_backs/set1/green.gif","img/card_backs/set1/purple.gif","img/card_backs/set2/pink.gif","img/card_backs/set2/gray.gif","img/card_backs/set2/blue.gif","img/card_backs/set2/orange.gif","""event"",""trial"",""time""
""fullscreenenter"",""1"",""4935""
","
","
","""event"",""trial"",""time""
""fullscreenenter"",""1"",""4935""
","
","","NaN","audio/shark.mp3","","2","","","","","","","",""
"fullscreen","5","17541","0.0-5.0","859","false","img/card_backs/set1/yellow.gif","img/card_backs/set1/red.gif","img/card_backs/set1/green.gif","img/card_backs/set1/purple.gif","img/card_backs/set2/pink.gif","img/card_backs/set2/gray.gif","img/card_backs/set2/blue.gif","img/card_backs/set2/orange.gif","""event"",""trial"",""time""
""fullscreenenter"",""1"",""4935""
","
","
","""event"",""trial"",""time""
""fullscreenenter"",""1"",""4935""
","
","true","","","","","","","","","","","",""
"casino-keyboard-response","6","20988","0.0-6.0-0.0","859","false","img/card_backs/set1/yellow.gif","img/card_backs/set1/red.gif","img/card_backs/set1/green.gif","img/card_backs/set1/purple.gif","img/card_backs/set2/pink.gif","img/card_backs/set2/gray.gif","img/card_backs/set2/blue.gif","img/card_backs/set2/orange.gif","""event"",""trial"",""time""
""fullscreenenter"",""1"",""4935""
","
","
","""event"",""trial"",""time""
""fullscreenenter"",""1"",""4935""
","
","","3443.1900000054156","Welcome to the casino!","71","","instructions","2021-04-12 14:46:28.091","","","","","",""
"casino-keyboard-response","7","30651","0.0-6.0-0.1","859","false","img/card_backs/set1/yellow.gif","img/card_backs/set1/red.gif","img/card_backs/set1/green.gif","img/card_backs/set1/purple.gif","img/card_backs/set2/pink.gif","img/card_backs/set2/gray.gif","img/card_backs/set2/blue.gif","img/card_backs/set2/orange.gif","""event"",""trial"",""time""
""fullscreenenter"",""1"",""4935""
","
","
","""event"",""trial"",""time""
""fullscreenenter"",""1"",""4935""
","
","","9659.794999999576","Today you will be playing a game to earn tokens. </br> At the end of the experiment, you will be paid a bonus based on how many tokens you win. ","69","","instructions","2021-04-12 14:46:37.753","","","","","",""
"casino-keyboard-response","8","38024","0.0-6.0-0.2","859","false","img/card_backs/set1/yellow.gif","img/card_backs/set1/red.gif","img/card_backs/set1/green.gif","img/card_backs/set1/purple.gif","img/card_backs/set2/pink.gif","img/card_backs/set2/gray.gif","img/card_backs/set2/blue.gif","img/card_backs/set2/orange.gif","""event"",""trial"",""time""
""fullscreenenter"",""1"",""4935""
","
","
","""event"",""trial"",""time""
""fullscreenenter"",""1"",""4935""
","
","","7369.829999996","On every turn, you will be shown four different decks of cards. </br> You need to select a card from one of the four decks.  ","75","","instructions","2021-04-12 14:46:45.126","","","","","",""
"casino-keyboard-response","9","42446","0.0-6.0-0.3","859","false","img/card_backs/set1/yellow.gif","img/card_backs/set1/red.gif","img/card_backs/set1/green.gif","img/card_backs/set1/purple.gif","img/card_backs/set2/pink.gif","img/card_backs/set2/gray.gif","img/card_backs/set2/blue.gif","img/card_backs/set2/orange.gif","""event"",""trial"",""time""
""fullscreenenter"",""1"",""4935""
","
","
","""event"",""trial"",""time""
""fullscreenenter"",""1"",""4935""
","
","","4419.580000001588","On the next screen, you will see what the decks will look like. ","66","","instructions","2021-04-12 14:46:49.548","","","","","",""
"card-selection-trial","10","46456","0.0-7.0-0.0","859","false","img/card_backs/set1/yellow.gif","img/card_backs/set1/red.gif","img/card_backs/set1/green.gif","img/card_backs/set1/purple.gif","img/card_backs/set2/pink.gif","img/card_backs/set2/gray.gif","img/card_backs/set2/blue.gif","img/card_backs/set2/orange.gif","""event"",""trial"",""time""
""fullscreenenter"",""1"",""4935""
","
","
","""event"",""trial"",""time""
""fullscreenenter"",""1"",""4935""
","
","","null","","","","practice","2021-04-12 14:46:53.558","null","null","null","0","",""
"casino-keyboard-response","11","54334","0.0-8.0-0.0","859","false","img/card_backs/set1/yellow.gif","img/card_backs/set1/red.gif","img/card_backs/set1/green.gif","img/card_backs/set1/purple.gif","img/card_backs/set2/pink.gif","img/card_backs/set2/gray.gif","img/card_backs/set2/blue.gif","img/card_backs/set2/orange.gif","""event"",""trial"",""time""
""fullscreenenter"",""1"",""4935""
","
","
","""event"",""trial"",""time""
""fullscreenenter"",""1"",""4935""
","
","","7875.2649999951245","You should pick a card from a deck using the '2', '4', '6', and '8' keys at the top of the keyboard.","85","","instructions","2021-04-12 14:47:01.436","","","","","",""
"casino-keyboard-response","12","59958","0.0-8.0-0.1","859","false","img/card_backs/set1/yellow.gif","img/card_backs/set1/red.gif","img/card_backs/set1/green.gif","img/card_backs/set1/purple.gif","img/card_backs/set2/pink.gif","img/card_backs/set2/gray.gif","img/card_backs/set2/blue.gif","img/card_backs/set2/orange.gif","""event"",""trial"",""time""
""fullscreenenter"",""1"",""4935""
","
","
","""event"",""trial"",""time""
""fullscreenenter"",""1"",""4935""
","
","","5621.885000000475","Once you select a card, it will turn over and you will see how many tokens you earned.","83","","instructions","2021-04-12 14:47:07.061","","","","","",""
"casino-keyboard-response","13","74720","0.0-8.0-0.2","859","false","img/card_backs/set1/yellow.gif","img/card_backs/set1/red.gif","img/card_backs/set1/green.gif","img/card_backs/set1/purple.gif","img/card_backs/set2/pink.gif","img/card_backs/set2/gray.gif","img/card_backs/set2/blue.gif","img/card_backs/set2/orange.gif","""event"",""trial"",""time""
""fullscreenenter"",""1"",""4935""
","
","
","""event"",""trial"",""time""
""fullscreenenter"",""1"",""4935""
","
","","14758.62000000052","Let's try practicing that! </br> First, try to put your fingers over the '2', '4', '6', and '8' keys. </br>  You can use whatever fingers are most comfortable for you. Try to find a comfortable position now. ","50","","instructions","2021-04-12 14:47:21.822","","","","","",""
"casino-keyboard-response","14","80331","0.0-8.0-0.3","859","false","img/card_backs/set1/yellow.gif","img/card_backs/set1/red.gif","img/card_backs/set1/green.gif","img/card_backs/set1/purple.gif","img/card_backs/set2/pink.gif","img/card_backs/set2/gray.gif","img/card_backs/set2/blue.gif","img/card_backs/set2/orange.gif","""event"",""trial"",""time""
""fullscreenenter"",""1"",""4935""
","
","
","""event"",""trial"",""time""
""fullscreenenter"",""1"",""4935""
","
","","5608.025000001362","Okay ready? </br> On the next screen, press '2' to select the left deck. ","50","","instructions","2021-04-12 14:47:27.433","","","","","",""
"card-selection-trial","15","82869","0.0-9.0-0.0","859","false","img/card_backs/set1/yellow.gif","img/card_backs/set1/red.gif","img/card_backs/set1/green.gif","img/card_backs/set1/purple.gif","img/card_backs/set2/pink.gif","img/card_backs/set2/gray.gif","img/card_backs/set2/blue.gif","img/card_backs/set2/orange.gif","""event"",""trial"",""time""
""fullscreenenter"",""1"",""4935""
","
","
","""event"",""trial"",""time""
""fullscreenenter"",""1"",""4935""
","
","","522.3600000026636","","","","practice_card_selection","2021-04-12 14:47:29.971","img/practice_cards/backs/dark_blue.gif","0","-200","","",""
"casino-keyboard-response","16","88509","0.0-10.0-0.0","859","false","img/card_backs/set1/yellow.gif","img/card_backs/set1/red.gif","img/card_backs/set1/green.gif","img/card_backs/set1/purple.gif","img/card_backs/set2/pink.gif","img/card_backs/set2/gray.gif","img/card_backs/set2/blue.gif","img/card_backs/set2/orange.gif","""event"",""trial"",""time""
""fullscreenenter"",""1"",""4935""
","
","
","""event"",""trial"",""time""
""fullscreenenter"",""1"",""4935""
","
","","5637.995000004594","Great! Now on the next screen, try pressing '6' to select the third deck.","54","","instructions","2021-04-12 14:47:35.611","","","","","",""
"card-selection-trial","17","91013","0.0-11.0-0.0","859","false","img/card_backs/set1/yellow.gif","img/card_backs/set1/red.gif","img/card_backs/set1/green.gif","img/card_backs/set1/purple.gif","img/card_backs/set2/pink.gif","img/card_backs/set2/gray.gif","img/card_backs/set2/blue.gif","img/card_backs/set2/orange.gif","""event"",""trial"",""time""
""fullscreenenter"",""1"",""4935""
","
","
","""event"",""trial"",""time""
""fullscreenenter"",""1"",""4935""
","
","","491.61499999900116","","","","practice_card_selection","2021-04-12 14:47:38.115","img/practice_cards/backs/dark_blue.gif","2","-200","","",""
"casino-keyboard-response","18","95804","0.0-12.0-0.0","859","false","img/card_backs/set1/yellow.gif","img/card_backs/set1/red.gif","img/card_backs/set1/green.gif","img/card_backs/set1/purple.gif","img/card_backs/set2/pink.gif","img/card_backs/set2/gray.gif","img/card_backs/set2/blue.gif","img/card_backs/set2/orange.gif","""event"",""trial"",""time""
""fullscreenenter"",""1"",""4935""
","
","
","""event"",""trial"",""time""
""fullscreenenter"",""1"",""4935""
","
","","4788.104999999632","Now on the next screen, try pressing '4' to select the second deck.","52","","instructions","2021-04-12 14:47:42.906","","","","","",""
"card-selection-trial","19","98566","0.0-13.0-0.0","859","false","img/card_backs/set1/yellow.gif","img/card_backs/set1/red.gif","img/card_backs/set1/green.gif","img/card_backs/set1/purple.gif","img/card_backs/set2/pink.gif","img/card_backs/set2/gray.gif","img/card_backs/set2/blue.gif","img/card_backs/set2/orange.gif","""event"",""trial"",""time""
""fullscreenenter"",""1"",""4935""
","
","
","""event"",""trial"",""time""
""fullscreenenter"",""1"",""4935""
","
","","749.5900000067195","","","","practice_card_selection","2021-04-12 14:47:45.668","img/practice_cards/backs/black.gif","1","-100","","",""
"casino-keyboard-response","20","103224","0.0-14.0-0.0","859","false","img/card_backs/set1/yellow.gif","img/card_backs/set1/red.gif","img/card_backs/set1/green.gif","img/card_backs/set1/purple.gif","img/card_backs/set2/pink.gif","img/card_backs/set2/gray.gif","img/card_backs/set2/blue.gif","img/card_backs/set2/orange.gif","""event"",""trial"",""time""
""fullscreenenter"",""1"",""4935""
","
","
","""event"",""trial"",""time""
""fullscreenenter"",""1"",""4935""
","
","","4655.789999997069","Finally, try pressing '8' to select the deck all the way on the right.","56","","instructions","2021-04-12 14:47:50.326","","","","","",""
"card-selection-trial","21","106125","0.0-15.0-0.0","859","false","img/card_backs/set1/yellow.gif","img/card_backs/set1/red.gif","img/card_backs/set1/green.gif","img/card_backs/set1/purple.gif","img/card_backs/set2/pink.gif","img/card_backs/set2/gray.gif","img/card_backs/set2/blue.gif","img/card_backs/set2/orange.gif","""event"",""trial"",""time""
""fullscreenenter"",""1"",""4935""
","
","
","""event"",""trial"",""time""
""fullscreenenter"",""1"",""4935""
","
","","889.5400000037625","","","","practice_card_selection","2021-04-12 14:47:53.227","img/practice_cards/backs/dark_blue.gif","3","200","","",""
"casino-keyboard-response","22","109979","0.0-16.0-0.0","859","false","img/card_backs/set1/yellow.gif","img/card_backs/set1/red.gif","img/card_backs/set1/green.gif","img/card_backs/set1/purple.gif","img/card_backs/set2/pink.gif","img/card_backs/set2/gray.gif","img/card_backs/set2/blue.gif","img/card_backs/set2/orange.gif","""event"",""trial"",""time""
""fullscreenenter"",""1"",""4935""
","
","
","""event"",""trial"",""time""
""fullscreenenter"",""1"",""4935""
","
","","3852.3499999937485","Great! It seems like you are getting the hang of this.","80","","instructions","2021-04-12 14:47:57.081","","","","","",""
"casino-keyboard-response","23","120446","0.0-16.0-0.1","859","false","img/card_backs/set1/yellow.gif","img/card_backs/set1/red.gif","img/card_backs/set1/green.gif","img/card_backs/set1/purple.gif","img/card_backs/set2/pink.gif","img/card_backs/set2/gray.gif","img/card_backs/set2/blue.gif","img/card_backs/set2/orange.gif","""event"",""trial"",""time""
""fullscreenenter"",""1"",""4935""
","
","
","""event"",""trial"",""time""
""fullscreenenter"",""1"",""4935""
","
","","10464.045000000624","You may have noticed that some cards will cause you to <b> win </b> tokens while other cards will cause you to <b> lose </b>  tokens.","70","","instructions","2021-04-12 14:48:07.548","","","","","",""
"casino-keyboard-response","24","129313","0.0-16.0-0.2","859","false","img/card_backs/set1/yellow.gif","img/card_backs/set1/red.gif","img/card_backs/set1/green.gif","img/card_backs/set1/purple.gif","img/card_backs/set2/pink.gif","img/card_backs/set2/gray.gif","img/card_backs/set2/blue.gif","img/card_backs/set2/orange.gif","""event"",""trial"",""time""
""fullscreenenter"",""1"",""4935""
","
","
","""event"",""trial"",""time""
""fullscreenenter"",""1"",""4935""
","
","","8864.034999998694","Each deck has a mix of cards that will cause you to win and lose tokens. </br> However, the cards in each colored deck are different.","73","","instructions","2021-04-12 14:48:16.415","","","","","",""
"casino-keyboard-response","25","137682","0.0-16.0-0.3","859","false","img/card_backs/set1/yellow.gif","img/card_backs/set1/red.gif","img/card_backs/set1/green.gif","img/card_backs/set1/purple.gif","img/card_backs/set2/pink.gif","img/card_backs/set2/gray.gif","img/card_backs/set2/blue.gif","img/card_backs/set2/orange.gif","""event"",""trial"",""time""
""fullscreenenter"",""1"",""4935""
","
","
","""event"",""trial"",""time""
""fullscreenenter"",""1"",""4935""
","
","","8366.395000004559","Some colored decks are luckier than others. </br> If you choose the lucky decks, you will earn more tokens than if you choose the unlucky decks.","69","","instructions","2021-04-12 14:48:24.784","","","","","",""
"casino-keyboard-response","26","144906","0.0-16.0-0.4","859","false","img/card_backs/set1/yellow.gif","img/card_backs/set1/red.gif","img/card_backs/set1/green.gif","img/card_backs/set1/purple.gif","img/card_backs/set2/pink.gif","img/card_backs/set2/gray.gif","img/card_backs/set2/blue.gif","img/card_backs/set2/orange.gif","""event"",""trial"",""time""
""fullscreenenter"",""1"",""4935""
","
","
","""event"",""trial"",""time""
""fullscreenenter"",""1"",""4935""
","
","","7221.87500000291","You should try to figure out which decks are lucky. </br> Then, try to choose the lucky decks so you can win the most tokens.","87","","instructions","2021-04-12 14:48:32.009","","","","","",""
"casino-keyboard-response","27","156680","0.0-16.0-0.5","859","false","img/card_backs/set1/yellow.gif","img/card_backs/set1/red.gif","img/card_backs/set1/green.gif","img/card_backs/set1/purple.gif","img/card_backs/set2/pink.gif","img/card_backs/set2/gray.gif","img/card_backs/set2/blue.gif","img/card_backs/set2/orange.gif","""event"",""trial"",""time""
""fullscreenenter"",""1"",""4935""
","
","
","""event"",""trial"",""time""
""fullscreenenter"",""1"",""4935""
","
","","11770.169999996142","To make it trickier, the casino dealer will switch the locations of the decks on every turn. </br> The color of the deck determines how lucky it is. The location does not matter.","88","","instructions","2021-04-12 14:48:43.782","","","","","",""
"casino-keyboard-response","28","165988","0.0-16.0-0.6","859","false","img/card_backs/set1/yellow.gif","img/card_backs/set1/red.gif","img/card_backs/set1/green.gif","img/card_backs/set1/purple.gif","img/card_backs/set2/pink.gif","img/card_backs/set2/gray.gif","img/card_backs/set2/blue.gif","img/card_backs/set2/orange.gif","""event"",""trial"",""time""
""fullscreenenter"",""1"",""4935""
","
","
","""event"",""trial"",""time""
""fullscreenenter"",""1"",""4935""
","
","","9305.444999998144","The mix of cards in each colored deck will stay the same throughout the game. </br> That means that a deck that is lucky early on will stay lucky.","79","","instructions","2021-04-12 14:48:53.090","","","","","",""
"casino-keyboard-response","29","174212","0.0-16.0-0.7","859","false","img/card_backs/set1/yellow.gif","img/card_backs/set1/red.gif","img/card_backs/set1/green.gif","img/card_backs/set1/purple.gif","img/card_backs/set2/pink.gif","img/card_backs/set2/gray.gif","img/card_backs/set2/blue.gif","img/card_backs/set2/orange.gif","""event"",""trial"",""time""
""fullscreenenter"",""1"",""4935""
","
","
","""event"",""trial"",""time""
""fullscreenenter"",""1"",""4935""
","
","","8221.109999998589","Remember though, all the decks have a <b> mix </b> of both <b> good </b> and <b> bad </b> cards so it may take a couple of turns to figure out if a deck is lucky.","69","","instructions","2021-04-12 14:49:01.314","","","","","",""
"casino-keyboard-response","30","182287","0.0-16.0-0.8","859","false","img/card_backs/set1/yellow.gif","img/card_backs/set1/red.gif","img/card_backs/set1/green.gif","img/card_backs/set1/purple.gif","img/card_backs/set2/pink.gif","img/card_backs/set2/gray.gif","img/card_backs/set2/blue.gif","img/card_backs/set2/orange.gif","""event"",""trial"",""time""
""fullscreenenter"",""1"",""4935""
","
","
","""event"",""trial"",""time""
""fullscreenenter"",""1"",""4935""
","
","","8072.2549999991315","At the end of the game, you will be paid bonus money based on how many tokens you win. </br> If you win more tokens, you will earn more money!","72","","instructions","2021-04-12 14:49:09.389","","","","","",""
"casino-keyboard-response","31","192992","0.0-16.0-0.9","859","false","img/card_backs/set1/yellow.gif","img/card_backs/set1/red.gif","img/card_backs/set1/green.gif","img/card_backs/set1/purple.gif","img/card_backs/set2/pink.gif","img/card_backs/set2/gray.gif","img/card_backs/set2/blue.gif","img/card_backs/set2/orange.gif","""event"",""trial"",""time""
""fullscreenenter"",""1"",""4935""
","
","
","""event"",""trial"",""time""
""fullscreenenter"",""1"",""4935""
","
","","10702.475000005506","You will never <b> lose </b> money. </br> If you end up with fewer than 0 tokens, you will earn $0 of bonus money, but you will still be paid for playing the game.","83","","instructions","2021-04-12 14:49:20.094","","","","","",""
"casino-keyboard-response","32","197147","0.0-16.0-0.10","859","false","img/card_backs/set1/yellow.gif","img/card_backs/set1/red.gif","img/card_backs/set1/green.gif","img/card_backs/set1/purple.gif","img/card_backs/set2/pink.gif","img/card_backs/set2/gray.gif","img/card_backs/set2/blue.gif","img/card_backs/set2/orange.gif","""event"",""trial"",""time""
""fullscreenenter"",""1"",""4935""
","
","
","""event"",""trial"",""time""
""fullscreenenter"",""1"",""4935""
","
","","4140.064999999595","You will have 10 seconds to make each choice.","82","","instructions","2021-04-12 14:49:24.249","","","","","",""
"casino-keyboard-response","33","205171","0.0-16.0-0.11","859","false","img/card_backs/set1/yellow.gif","img/card_backs/set1/red.gif","img/card_backs/set1/green.gif","img/card_backs/set1/purple.gif","img/card_backs/set2/pink.gif","img/card_backs/set2/gray.gif","img/card_backs/set2/blue.gif","img/card_backs/set2/orange.gif","""event"",""trial"",""time""
""fullscreenenter"",""1"",""4935""
","
","
","""event"",""trial"",""time""
""fullscreenenter"",""1"",""4935""
","
","","8021.290000004228","Before you play the game for real, you will play with practice decks. </br> The tokens you earn during practice won't count toward your total.","86","","instructions","2021-04-12 14:49:32.273","","","","","",""
"casino-keyboard-response","34","212004","0.0-16.0-0.12","859","false","img/card_backs/set1/yellow.gif","img/card_backs/set1/red.gif","img/card_backs/set1/green.gif","img/card_backs/set1/purple.gif","img/card_backs/set2/pink.gif","img/card_backs/set2/gray.gif","img/card_backs/set2/blue.gif","img/card_backs/set2/orange.gif","""event"",""trial"",""time""
""fullscreenenter"",""1"",""4935""
","
","
","""event"",""trial"",""time""
""fullscreenenter"",""1"",""4935""
","
","","6830.94500000152","Ready? Remember, use the '2', '4', '6', and '8' keys to select the decks. </br> Put your fingers on those keys now and then press '2' to begin.","50","","instructions","2021-04-12 14:49:39.107","","","","","",""
"casino-fixation","35","212507","0.0-17.0-0.0","859","false","img/card_backs/set1/yellow.gif","img/card_backs/set1/red.gif","img/card_backs/set1/green.gif","img/card_backs/set1/purple.gif","img/card_backs/set2/pink.gif","img/card_backs/set2/gray.gif","img/card_backs/set2/blue.gif","img/card_backs/set2/orange.gif","""event"",""trial"",""time""
""fullscreenenter"",""1"",""4935""
","
","
","""event"",""trial"",""time""
""fullscreenenter"",""1"",""4935""
","
","","null","","null","","fixation","2021-04-12 14:49:39.610","","","","","",""
"card-selection-trial","36","215451","0.0-17.0-1.0","859","false","img/card_backs/set1/yellow.gif","img/card_backs/set1/red.gif","img/card_backs/set1/green.gif","img/card_backs/set1/purple.gif","img/card_backs/set2/pink.gif","img/card_backs/set2/gray.gif","img/card_backs/set2/blue.gif","img/card_backs/set2/orange.gif","""event"",""trial"",""time""
""fullscreenenter"",""1"",""4935""
","
","
","""event"",""trial"",""time""
""fullscreenenter"",""1"",""4935""
","
","","930.1850000047125","","","","practice","2021-04-12 14:49:42.553","img/practice_cards/backs/dark_blue.gif","0","-200","0","",""
"casino-fixation","37","215956","0.0-17.0-0.1","859","false","img/card_backs/set1/yellow.gif","img/card_backs/set1/red.gif","img/card_backs/set1/green.gif","img/card_backs/set1/purple.gif","img/card_backs/set2/pink.gif","img/card_backs/set2/gray.gif","img/card_backs/set2/blue.gif","img/card_backs/set2/orange.gif","""event"",""trial"",""time""
""fullscreenenter"",""1"",""4935""
","
","
","""event"",""trial"",""time""
""fullscreenenter"",""1"",""4935""
","
","","null","","null","","fixation","2021-04-12 14:49:43.058","","","","","",""
"card-selection-trial","38","218777","0.0-17.0-1.1","859","false","img/card_backs/set1/yellow.gif","img/card_backs/set1/red.gif","img/card_backs/set1/green.gif","img/card_backs/set1/purple.gif","img/card_backs/set2/pink.gif","img/card_backs/set2/gray.gif","img/card_backs/set2/blue.gif","img/card_backs/set2/orange.gif","""event"",""trial"",""time""
""fullscreenenter"",""1"",""4935""
","
","
","""event"",""trial"",""time""
""fullscreenenter"",""1"",""4935""
","
","","812.1600000013132","","","","practice","2021-04-12 14:49:45.879","img/practice_cards/backs/dark_blue.gif","3","-200","0","",""
"casino-fixation","39","219282","0.0-17.0-0.2","859","false","img/card_backs/set1/yellow.gif","img/card_backs/set1/red.gif","img/card_backs/set1/green.gif","img/card_backs/set1/purple.gif","img/card_backs/set2/pink.gif","img/card_backs/set2/gray.gif","img/card_backs/set2/blue.gif","img/card_backs/set2/orange.gif","""event"",""trial"",""time""
""fullscreenenter"",""1"",""4935""
","
","
","""event"",""trial"",""time""
""fullscreenenter"",""1"",""4935""
","
","","null","","null","","fixation","2021-04-12 14:49:46.384","","","","","",""
"card-selection-trial","40","221667","0.0-17.0-1.2","859","false","img/card_backs/set1/yellow.gif","img/card_backs/set1/red.gif","img/card_backs/set1/green.gif","img/card_backs/set1/purple.gif","img/card_backs/set2/pink.gif","img/card_backs/set2/gray.gif","img/card_backs/set2/blue.gif","img/card_backs/set2/orange.gif","""event"",""trial"",""time""
""fullscreenenter"",""1"",""4935""
","
","
","""event"",""trial"",""time""
""fullscreenenter"",""1"",""4935""
","
","","374.9950000055833","","","","practice","2021-04-12 14:49:48.769","img/practice_cards/backs/brown.gif","2","-100","0","",""
"casino-fixation","41","222173","0.0-17.0-0.3","859","false","img/card_backs/set1/yellow.gif","img/card_backs/set1/red.gif","img/card_backs/set1/green.gif","img/card_backs/set1/purple.gif","img/card_backs/set2/pink.gif","img/card_backs/set2/gray.gif","img/card_backs/set2/blue.gif","img/card_backs/set2/orange.gif","""event"",""trial"",""time""
""fullscreenenter"",""1"",""4935""
","
","
","""event"",""trial"",""time""
""fullscreenenter"",""1"",""4935""
","
","","null","","null","","fixation","2021-04-12 14:49:49.275","","","","","",""
"card-selection-trial","42","224612","0.0-17.0-1.3","859","false","img/card_backs/set1/yellow.gif","img/card_backs/set1/red.gif","img/card_backs/set1/green.gif","img/card_backs/set1/purple.gif","img/card_backs/set2/pink.gif","img/card_backs/set2/gray.gif","img/card_backs/set2/blue.gif","img/card_backs/set2/orange.gif","""event"",""trial"",""time""
""fullscreenenter"",""1"",""4935""
","
","
","""event"",""trial"",""time""
""fullscreenenter"",""1"",""4935""
","
","","428.81499999930384","","","","practice","2021-04-12 14:49:51.714","img/practice_cards/backs/black.gif","1","-100","0","",""
"casino-fixation","43","225116","0.0-17.0-0.4","859","false","img/card_backs/set1/yellow.gif","img/card_backs/set1/red.gif","img/card_backs/set1/green.gif","img/card_backs/set1/purple.gif","img/card_backs/set2/pink.gif","img/card_backs/set2/gray.gif","img/card_backs/set2/blue.gif","img/card_backs/set2/orange.gif","""event"",""trial"",""time""
""fullscreenenter"",""1"",""4935""
","
","
","""event"",""trial"",""time""
""fullscreenenter"",""1"",""4935""
","
","","null","","null","","fixation","2021-04-12 14:49:52.218","","","","","",""
"card-selection-trial","44","227712","0.0-17.0-1.4","859","false","img/card_backs/set1/yellow.gif","img/card_backs/set1/red.gif","img/card_backs/set1/green.gif","img/card_backs/set1/purple.gif","img/card_backs/set2/pink.gif","img/card_backs/set2/gray.gif","img/card_backs/set2/blue.gif","img/card_backs/set2/orange.gif","""event"",""trial"",""time""
""fullscreenenter"",""1"",""4935""
","
","
","""event"",""trial"",""time""
""fullscreenenter"",""1"",""4935""
","
","","582.0400000011432","","","","practice","2021-04-12 14:49:54.814","img/practice_cards/backs/black.gif","3","100","0","",""
"casino-fixation","45","228213","0.0-17.0-0.5","859","false","img/card_backs/set1/yellow.gif","img/card_backs/set1/red.gif","img/card_backs/set1/green.gif","img/card_backs/set1/purple.gif","img/card_backs/set2/pink.gif","img/card_backs/set2/gray.gif","img/card_backs/set2/blue.gif","img/card_backs/set2/orange.gif","""event"",""trial"",""time""
""fullscreenenter"",""1"",""4935""
","
","
","""event"",""trial"",""time""
""fullscreenenter"",""1"",""4935""
","
","","null","","null","","fixation","2021-04-12 14:49:55.315","","","","","",""
"card-selection-trial","46","230790","0.0-17.0-1.5","859","false","img/card_backs/set1/yellow.gif","img/card_backs/set1/red.gif","img/card_backs/set1/green.gif","img/card_backs/set1/purple.gif","img/card_backs/set2/pink.gif","img/card_backs/set2/gray.gif","img/card_backs/set2/blue.gif","img/card_backs/set2/orange.gif","""event"",""trial"",""time""
""fullscreenenter"",""1"",""4935""
","
","
","""event"",""trial"",""time""
""fullscreenenter"",""1"",""4935""
","
","","563.944999994419","","","","practice","2021-04-12 14:49:57.892","img/practice_cards/backs/dark_green.gif","2","200","0","",""
"casino-fixation","47","231293","0.0-17.0-0.6","859","false","img/card_backs/set1/yellow.gif","img/card_backs/set1/red.gif","img/card_backs/set1/green.gif","img/card_backs/set1/purple.gif","img/card_backs/set2/pink.gif","img/card_backs/set2/gray.gif","img/card_backs/set2/blue.gif","img/card_backs/set2/orange.gif","""event"",""trial"",""time""
""fullscreenenter"",""1"",""4935""
","
","
","""event"",""trial"",""time""
""fullscreenenter"",""1"",""4935""
","
","","null","","null","","fixation","2021-04-12 14:49:58.395","","","","","",""
"card-selection-trial","48","234397","0.0-17.0-1.6","859","false","img/card_backs/set1/yellow.gif","img/card_backs/set1/red.gif","img/card_backs/set1/green.gif","img/card_backs/set1/purple.gif","img/card_backs/set2/pink.gif","img/card_backs/set2/gray.gif","img/card_backs/set2/blue.gif","img/card_backs/set2/orange.gif","""event"",""trial"",""time""
""fullscreenenter"",""1"",""4935""
","
","
","""event"",""trial"",""time""
""fullscreenenter"",""1"",""4935""
","
","","1093.0399999997462","","","","practice","2021-04-12 14:50:01.499","img/practice_cards/backs/dark_green.gif","3","-200","0","",""
"casino-fixation","49","234898","0.0-17.0-0.7","859","false","img/card_backs/set1/yellow.gif","img/card_backs/set1/red.gif","img/card_backs/set1/green.gif","img/card_backs/set1/purple.gif","img/card_backs/set2/pink.gif","img/card_backs/set2/gray.gif","img/card_backs/set2/blue.gif","img/card_backs/set2/orange.gif","""event"",""trial"",""time""
""fullscreenenter"",""1"",""4935""
","
","
","""event"",""trial"",""time""
""fullscreenenter"",""1"",""4935""
","
","","null","","null","","fixation","2021-04-12 14:50:02.001","","","","","",""
"card-selection-trial","50","237360","0.0-17.0-1.7","859","false","img/card_backs/set1/yellow.gif","img/card_backs/set1/red.gif","img/card_backs/set1/green.gif","img/card_backs/set1/purple.gif","img/card_backs/set2/pink.gif","img/card_backs/set2/gray.gif","img/card_backs/set2/blue.gif","img/card_backs/set2/orange.gif","""event"",""trial"",""time""
""fullscreenenter"",""1"",""4935""
","
","
","""event"",""trial"",""time""
""fullscreenenter"",""1"",""4935""
","
","","449.44499999837717","","","","practice","2021-04-12 14:50:04.462","img/practice_cards/backs/dark_blue.gif","0","200","0","",""
"casino-fixation","51","237865","0.0-17.0-0.8","859","false","img/card_backs/set1/yellow.gif","img/card_backs/set1/red.gif","img/card_backs/set1/green.gif","img/card_backs/set1/purple.gif","img/card_backs/set2/pink.gif","img/card_backs/set2/gray.gif","img/card_backs/set2/blue.gif","img/card_backs/set2/orange.gif","""event"",""trial"",""time""
""fullscreenenter"",""1"",""4935""
","
","
","""event"",""trial"",""time""
""fullscreenenter"",""1"",""4935""
","
","","null","","null","","fixation","2021-04-12 14:50:04.967","","","","","",""
"card-selection-trial","52","240501","0.0-17.0-1.8","859","false","img/card_backs/set1/yellow.gif","img/card_backs/set1/red.gif","img/card_backs/set1/green.gif","img/card_backs/set1/purple.gif","img/card_backs/set2/pink.gif","img/card_backs/set2/gray.gif","img/card_backs/set2/blue.gif","img/card_backs/set2/orange.gif","""event"",""trial"",""time""
""fullscreenenter"",""1"",""4935""
","
","
","""event"",""trial"",""time""
""fullscreenenter"",""1"",""4935""
","
","","624.3500000055064","","","","practice","2021-04-12 14:50:07.603","img/practice_cards/backs/dark_blue.gif","1","-200","0","",""
"casino-fixation","53","241006","0.0-17.0-0.9","859","false","img/card_backs/set1/yellow.gif","img/card_backs/set1/red.gif","img/card_backs/set1/green.gif","img/card_backs/set1/purple.gif","img/card_backs/set2/pink.gif","img/card_backs/set2/gray.gif","img/card_backs/set2/blue.gif","img/card_backs/set2/orange.gif","""event"",""trial"",""time""
""fullscreenenter"",""1"",""4935""
","
","
","""event"",""trial"",""time""
""fullscreenenter"",""1"",""4935""
","
","","null","","null","","fixation","2021-04-12 14:50:08.108","","","","","",""
"card-selection-trial","54","243474","0.0-17.0-1.9","859","false","img/card_backs/set1/yellow.gif","img/card_backs/set1/red.gif","img/card_backs/set1/green.gif","img/card_backs/set1/purple.gif","img/card_backs/set2/pink.gif","img/card_backs/set2/gray.gif","img/card_backs/set2/blue.gif","img/card_backs/set2/orange.gif","""event"",""trial"",""time""
""fullscreenenter"",""1"",""4935""
","
","
","""event"",""trial"",""time""
""fullscreenenter"",""1"",""4935""
","
","","458.135000000766","","","","practice","2021-04-12 14:50:10.576","img/practice_cards/backs/dark_green.gif","2","-200","0","",""
"casino-keyboard-response","55","247273","0.0-18.0","859","false","img/card_backs/set1/yellow.gif","img/card_backs/set1/red.gif","img/card_backs/set1/green.gif","img/card_backs/set1/purple.gif","img/card_backs/set2/pink.gif","img/card_backs/set2/gray.gif","img/card_backs/set2/blue.gif","img/card_backs/set2/orange.gif","""event"",""trial"",""time""
""fullscreenenter"",""1"",""4935""
","
","
","""event"",""trial"",""time""
""fullscreenenter"",""1"",""4935""
","
","","3797.0149999964633","You earned -700 tokens during the practice round!","82","","","2021-04-12 14:50:14.375","","","","","",""
"casino-keyboard-response","56","251878","0.0-19.0-0.0","859","false","img/card_backs/set1/yellow.gif","img/card_backs/set1/red.gif","img/card_backs/set1/green.gif","img/card_backs/set1/purple.gif","img/card_backs/set2/pink.gif","img/card_backs/set2/gray.gif","img/card_backs/set2/blue.gif","img/card_backs/set2/orange.gif","""event"",""trial"",""time""
""fullscreenenter"",""1"",""4935""
","
","
","""event"",""trial"",""time""
""fullscreenenter"",""1"",""4935""
","
","","4603.454999996757","Nice job! You are almost ready to play the real game.","86","","instructions","2021-04-12 14:50:18.980","","","","","",""
"casino-keyboard-response","57","258539","0.0-19.0-0.1","859","false","img/card_backs/set1/yellow.gif","img/card_backs/set1/red.gif","img/card_backs/set1/green.gif","img/card_backs/set1/purple.gif","img/card_backs/set2/pink.gif","img/card_backs/set2/gray.gif","img/card_backs/set2/blue.gif","img/card_backs/set2/orange.gif","""event"",""trial"",""time""
""fullscreenenter"",""1"",""4935""
","
","
","""event"",""trial"",""time""
""fullscreenenter"",""1"",""4935""
","
","","6658.465000000433","You will play two rounds of the real game. In each round, you will pick 100 cards in total.","73","","instructions","2021-04-12 14:50:25.641","","","","","",""
"casino-keyboard-response","58","262784","0.0-19.0-0.2","859","false","img/card_backs/set1/yellow.gif","img/card_backs/set1/red.gif","img/card_backs/set1/green.gif","img/card_backs/set1/purple.gif","img/card_backs/set2/pink.gif","img/card_backs/set2/gray.gif","img/card_backs/set2/blue.gif","img/card_backs/set2/orange.gif","""event"",""trial"",""time""
""fullscreenenter"",""1"",""4935""
","
","
","""event"",""trial"",""time""
""fullscreenenter"",""1"",""4935""
","
","","4242.279999998573","We are now going to ask you some questions about how the game works.","66","","instructions","2021-04-12 14:50:29.886","","","","","",""
"casino-keyboard-response","59","268684","0.0-19.0-0.3","859","false","img/card_backs/set1/yellow.gif","img/card_backs/set1/red.gif","img/card_backs/set1/green.gif","img/card_backs/set1/purple.gif","img/card_backs/set2/pink.gif","img/card_backs/set2/gray.gif","img/card_backs/set2/blue.gif","img/card_backs/set2/orange.gif","""event"",""trial"",""time""
""fullscreenenter"",""1"",""4935""
","
","
","""event"",""trial"",""time""
""fullscreenenter"",""1"",""4935""
","
","","5897.349999999278","Answer carefully. You will not be able to begin the game until you answer them correctly.","67","","instructions","2021-04-12 14:50:35.786","","","","","",""
"casino-comp_q","60","274952","0.0-20.0-0.0","859","false","img/card_backs/set1/yellow.gif","img/card_backs/set1/red.gif","img/card_backs/set1/green.gif","img/card_backs/set1/purple.gif","img/card_backs/set2/pink.gif","img/card_backs/set2/gray.gif","img/card_backs/set2/blue.gif","img/card_backs/set2/orange.gif","""event"",""trial"",""time""
""fullscreenenter"",""1"",""4935""
","
","
","""event"",""trial"",""time""
""fullscreenenter"",""1"",""4935""
","
","","6265.209999997751","True or False: All the decks have some cards that cause you to win tokens and some cards that cause you to lose tokens.","84","","","2021-04-12 14:50:42.054","","","","","",""
"casino-keyboard-response","61","278698","0.0-20.0-1.0","859","false","img/card_backs/set1/yellow.gif","img/card_backs/set1/red.gif","img/card_backs/set1/green.gif","img/card_backs/set1/purple.gif","img/card_backs/set2/pink.gif","img/card_backs/set2/gray.gif","img/card_backs/set2/blue.gif","img/card_backs/set2/orange.gif","""event"",""trial"",""time""
""fullscreenenter"",""1"",""4935""
","
","
","""event"",""trial"",""time""
""fullscreenenter"",""1"",""4935""
","
","","3743.19000000105","True is correct! All the decks have a mix of winning and losing cards.","77","","","2021-04-12 14:50:45.800","","","","","true",""
"casino-comp_q","62","282001","0.0-21.0-0.0","859","false","img/card_backs/set1/yellow.gif","img/card_backs/set1/red.gif","img/card_backs/set1/green.gif","img/card_backs/set1/purple.gif","img/card_backs/set2/pink.gif","img/card_backs/set2/gray.gif","img/card_backs/set2/blue.gif","img/card_backs/set2/orange.gif","""event"",""trial"",""time""
""fullscreenenter"",""1"",""4935""
","
","
","""event"",""trial"",""time""
""fullscreenenter"",""1"",""4935""
","
","","3297.565000000759","True or False: You will have as much time as you want to make your response.","70","","","2021-04-12 14:50:49.103","","","","","",""
"casino-keyboard-response","63","284754","0.0-21.0-1.0","859","false","img/card_backs/set1/yellow.gif","img/card_backs/set1/red.gif","img/card_backs/set1/green.gif","img/card_backs/set1/purple.gif","img/card_backs/set2/pink.gif","img/card_backs/set2/gray.gif","img/card_backs/set2/blue.gif","img/card_backs/set2/orange.gif","""event"",""trial"",""time""
""fullscreenenter"",""1"",""4935""
","
","
","""event"",""trial"",""time""
""fullscreenenter"",""1"",""4935""
","
","","2750.7750000004307","False is correct! You will only have 10 seconds to make each choice.","75","","","2021-04-12 14:50:51.856","","","","","true",""
"casino-comp_q","64","287845","0.0-22.0-0.0","859","false","img/card_backs/set1/yellow.gif","img/card_backs/set1/red.gif","img/card_backs/set1/green.gif","img/card_backs/set1/purple.gif","img/card_backs/set2/pink.gif","img/card_backs/set2/gray.gif","img/card_backs/set2/blue.gif","img/card_backs/set2/orange.gif","""event"",""trial"",""time""
""fullscreenenter"",""1"",""4935""
","
","
","""event"",""trial"",""time""
""fullscreenenter"",""1"",""4935""
","
","","3089.1199999969103","True or False: The location of the deck determines how lucky it is.","70","","","2021-04-12 14:50:54.947","","","","","",""
"casino-keyboard-response","65","291902","0.0-22.0-1.0","859","false","img/card_backs/set1/yellow.gif","img/card_backs/set1/red.gif","img/card_backs/set1/green.gif","img/card_backs/set1/purple.gif","img/card_backs/set2/pink.gif","img/card_backs/set2/gray.gif","img/card_backs/set2/blue.gif","img/card_backs/set2/orange.gif","""event"",""trial"",""time""
""fullscreenenter"",""1"",""4935""
","
","
","""event"",""trial"",""time""
""fullscreenenter"",""1"",""4935""
","
","","4054.0099999998347","False is correct! The <i>color</i>  of the deck determines how lucky or unlucky it is.","68","","","2021-04-12 14:50:59.004","","","","","true",""
"casino-keyboard-response","66","297258","0.0-23.0-0.0","859","false","img/card_backs/set1/yellow.gif","img/card_backs/set1/red.gif","img/card_backs/set1/green.gif","img/card_backs/set1/purple.gif","img/card_backs/set2/pink.gif","img/card_backs/set2/gray.gif","img/card_backs/set2/blue.gif","img/card_backs/set2/orange.gif","""event"",""trial"",""time""
""fullscreenenter"",""1"",""4935""
","
","
","""event"",""trial"",""time""
""fullscreenenter"",""1"",""4935""
","
","","5353.0550000068615","Great job! Now it's time to start the real game.","82","","instructions","2021-04-12 14:51:04.360","","","","","",""
"casino-keyboard-response","67","302443","0.0-23.0-0.1","859","false","img/card_backs/set1/yellow.gif","img/card_backs/set1/red.gif","img/card_backs/set1/green.gif","img/card_backs/set1/purple.gif","img/card_backs/set2/pink.gif","img/card_backs/set2/gray.gif","img/card_backs/set2/blue.gif","img/card_backs/set2/orange.gif","""event"",""trial"",""time""
""fullscreenenter"",""1"",""4935""
","
","
","""event"",""trial"",""time""
""fullscreenenter"",""1"",""4935""
","
","","5182.8349999996135","Before we start, we're going to head into a new room of the casino.","86","","instructions","2021-04-12 14:51:09.545","","","","","",""
"casino-keyboard-response","68","308832","0.0-24.0-0.0","859","false","img/card_backs/set1/yellow.gif","img/card_backs/set1/red.gif","img/card_backs/set1/green.gif","img/card_backs/set1/purple.gif","img/card_backs/set2/pink.gif","img/card_backs/set2/gray.gif","img/card_backs/set2/blue.gif","img/card_backs/set2/orange.gif","""event"",""trial"",""time""
""fullscreenenter"",""1"",""4935""
","
","
","""event"",""trial"",""time""
""fullscreenenter"",""1"",""4935""
","
","","6386.995000000752","Here we are! The real game will use different cards, but the rules will be the same.","71","","instructions","2021-04-12 14:51:15.934","","","","","",""
"casino-keyboard-response","69","317435","0.0-24.0-0.1","859","false","img/card_backs/set1/yellow.gif","img/card_backs/set1/red.gif","img/card_backs/set1/green.gif","img/card_backs/set1/purple.gif","img/card_backs/set2/pink.gif","img/card_backs/set2/gray.gif","img/card_backs/set2/blue.gif","img/card_backs/set2/orange.gif","""event"",""trial"",""time""
""fullscreenenter"",""1"",""4935""
","
","
","""event"",""trial"",""time""
""fullscreenenter"",""1"",""4935""
","
","","8600.585000000137","Ready? Put your fingers over the '2', '4', 6', and '8' keys so you are ready to play the game. </br> Then press 2 to start.","50","","instructions","2021-04-12 14:51:24.537","","","","","",""
"casino-fixation","70","317940","0.0-25.0-0.0","859","false","img/card_backs/set1/yellow.gif","img/card_backs/set1/red.gif","img/card_backs/set1/green.gif","img/card_backs/set1/purple.gif","img/card_backs/set2/pink.gif","img/card_backs/set2/gray.gif","img/card_backs/set2/blue.gif","img/card_backs/set2/orange.gif","""event"",""trial"",""time""
""fullscreenenter"",""1"",""4935""
","
","
","""event"",""trial"",""time""
""fullscreenenter"",""1"",""4935""
","
","","null","","null","","fixation","2021-04-12 14:51:25.042","","","","","",""
"card-selection-trial","71","321783","0.0-25.0-1.0","859","false","img/card_backs/set1/yellow.gif","img/card_backs/set1/red.gif","img/card_backs/set1/green.gif","img/card_backs/set1/purple.gif","img/card_backs/set2/pink.gif","img/card_backs/set2/gray.gif","img/card_backs/set2/blue.gif","img/card_backs/set2/orange.gif","""event"",""trial"",""time""
""fullscreenenter"",""1"",""4935""
","
","
","""event"",""trial"",""time""
""fullscreenenter"",""1"",""4935""
","
","","1830.3200000009383","","","","real_trial","2021-04-12 14:51:28.885","img/card_backs/set1/purple.gif","0","100","1","",""
"casino-fixation","72","322288","0.0-25.0-0.1","859","false","img/card_backs/set1/yellow.gif","img/card_backs/set1/red.gif","img/card_backs/set1/green.gif","img/card_backs/set1/purple.gif","img/card_backs/set2/pink.gif","img/card_backs/set2/gray.gif","img/card_backs/set2/blue.gif","img/card_backs/set2/orange.gif","""event"",""trial"",""time""
""fullscreenenter"",""1"",""4935""
","
","
","""event"",""trial"",""time""
""fullscreenenter"",""1"",""4935""
","
","","null","","null","","fixation","2021-04-12 14:51:29.390","","","","","",""
"card-selection-trial","73","324947","0.0-25.0-1.1","859","false","img/card_backs/set1/yellow.gif","img/card_backs/set1/red.gif","img/card_backs/set1/green.gif","img/card_backs/set1/purple.gif","img/card_backs/set2/pink.gif","img/card_backs/set2/gray.gif","img/card_backs/set2/blue.gif","img/card_backs/set2/orange.gif","""event"",""trial"",""time""
""fullscreenenter"",""1"",""4935""
","
","
","""event"",""trial"",""time""
""fullscreenenter"",""1"",""4935""
","
","","646.3199999998324","","","","real_trial","2021-04-12 14:51:32.049","img/card_backs/set1/purple.gif","0","110","1","",""
"casino-fixation","74","325449","0.0-25.0-0.2","859","false","img/card_backs/set1/yellow.gif","img/card_backs/set1/red.gif","img/card_backs/set1/green.gif","img/card_backs/set1/purple.gif","img/card_backs/set2/pink.gif","img/card_backs/set2/gray.gif","img/card_backs/set2/blue.gif","img/card_backs/set2/orange.gif","""event"",""trial"",""time""
""fullscreenenter"",""1"",""4935""
","
","
","""event"",""trial"",""time""
""fullscreenenter"",""1"",""4935""
","
","","null","","null","","fixation","2021-04-12 14:51:32.551","","","","","",""
"card-selection-trial","75","329028","0.0-25.0-1.2","859","false","img/card_backs/set1/yellow.gif","img/card_backs/set1/red.gif","img/card_backs/set1/green.gif","img/card_backs/set1/purple.gif","img/card_backs/set2/pink.gif","img/card_backs/set2/gray.gif","img/card_backs/set2/blue.gif","img/card_backs/set2/orange.gif","""event"",""trial"",""time""
""fullscreenenter"",""1"",""4935""
","
","
","""event"",""trial"",""time""
""fullscreenenter"",""1"",""4935""
","
","","1568.664999998873","","","","real_trial","2021-04-12 14:51:36.130","img/card_backs/set1/purple.gif","3","-70","1","",""
"casino-fixation","76","329533","0.0-25.0-0.3","859","false","img/card_backs/set1/yellow.gif","img/card_backs/set1/red.gif","img/card_backs/set1/green.gif","img/card_backs/set1/purple.gif","img/card_backs/set2/pink.gif","img/card_backs/set2/gray.gif","img/card_backs/set2/blue.gif","img/card_backs/set2/orange.gif","""event"",""trial"",""time""
""fullscreenenter"",""1"",""4935""
","
","
","""event"",""trial"",""time""
""fullscreenenter"",""1"",""4935""
","
","","null","","null","","fixation","2021-04-12 14:51:36.635","","","","","",""
"card-selection-trial","77","332252","0.0-25.0-1.3","859","false","img/card_backs/set1/yellow.gif","img/card_backs/set1/red.gif","img/card_backs/set1/green.gif","img/card_backs/set1/purple.gif","img/card_backs/set2/pink.gif","img/card_backs/set2/gray.gif","img/card_backs/set2/blue.gif","img/card_backs/set2/orange.gif","""event"",""trial"",""time""
""fullscreenenter"",""1"",""4935""
","
","
","""event"",""trial"",""time""
""fullscreenenter"",""1"",""4935""
","
","","708.5500000030152","","","","real_trial","2021-04-12 14:51:39.355","img/card_backs/set1/purple.gif","0","110","1","",""
"casino-fixation","78","332755","0.0-25.0-0.4","859","false","img/card_backs/set1/yellow.gif","img/card_backs/set1/red.gif","img/card_backs/set1/green.gif","img/card_backs/set1/purple.gif","img/card_backs/set2/pink.gif","img/card_backs/set2/gray.gif","img/card_backs/set2/blue.gif","img/card_backs/set2/orange.gif","""event"",""trial"",""time""
""fullscreenenter"",""1"",""4935""
","
","
","""event"",""trial"",""time""
""fullscreenenter"",""1"",""4935""
","
","","null","","null","","fixation","2021-04-12 14:51:39.857","","","","","",""
"card-selection-trial","79","335861","0.0-25.0-1.4","859","false","img/card_backs/set1/yellow.gif","img/card_backs/set1/red.gif","img/card_backs/set1/green.gif","img/card_backs/set1/purple.gif","img/card_backs/set2/pink.gif","img/card_backs/set2/gray.gif","img/card_backs/set2/blue.gif","img/card_backs/set2/orange.gif","""event"",""trial"",""time""
""fullscreenenter"",""1"",""4935""
","
","
","""event"",""trial"",""time""
""fullscreenenter"",""1"",""4935""
","
","","1093.7300000005052","","","","real_trial","2021-04-12 14:51:42.963","img/card_backs/set1/purple.gif","1","-50","1","",""
"casino-fixation","80","336366","0.0-25.0-0.5","859","false","img/card_backs/set1/yellow.gif","img/card_backs/set1/red.gif","img/card_backs/set1/green.gif","img/card_backs/set1/purple.gif","img/card_backs/set2/pink.gif","img/card_backs/set2/gray.gif","img/card_backs/set2/blue.gif","img/card_backs/set2/orange.gif","""event"",""trial"",""time""
""fullscreenenter"",""1"",""4935""
","
","
","""event"",""trial"",""time""
""fullscreenenter"",""1"",""4935""
","
","","null","","null","","fixation","2021-04-12 14:51:43.468","","","","","",""
"card-selection-trial","81","339352","0.0-25.0-1.5","859","false","img/card_backs/set1/yellow.gif","img/card_backs/set1/red.gif","img/card_backs/set1/green.gif","img/card_backs/set1/purple.gif","img/card_backs/set2/pink.gif","img/card_backs/set2/gray.gif","img/card_backs/set2/blue.gif","img/card_backs/set2/orange.gif","""event"",""trial"",""time""
""fullscreenenter"",""1"",""4935""
","
","
","""event"",""trial"",""time""
""fullscreenenter"",""1"",""4935""
","
","","973.7299999978859","","","","real_trial","2021-04-12 14:51:46.454","img/card_backs/set1/purple.gif","3","-60","1","",""
"casino-fixation","82","339855","0.0-25.0-0.6","859","false","img/card_backs/set1/yellow.gif","img/card_backs/set1/red.gif","img/card_backs/set1/green.gif","img/card_backs/set1/purple.gif","img/card_backs/set2/pink.gif","img/card_backs/set2/gray.gif","img/card_backs/set2/blue.gif","img/card_backs/set2/orange.gif","""event"",""trial"",""time""
""fullscreenenter"",""1"",""4935""
","
","
","""event"",""trial"",""time""
""fullscreenenter"",""1"",""4935""
","
","","null","","null","","fixation","2021-04-12 14:51:46.957","","","","","",""
"card-selection-trial","83","342694","0.0-25.0-1.6","859","false","img/card_backs/set1/yellow.gif","img/card_backs/set1/red.gif","img/card_backs/set1/green.gif","img/card_backs/set1/purple.gif","img/card_backs/set2/pink.gif","img/card_backs/set2/gray.gif","img/card_backs/set2/blue.gif","img/card_backs/set2/orange.gif","""event"",""trial"",""time""
""fullscreenenter"",""1"",""4935""
","
","
","""event"",""trial"",""time""
""fullscreenenter"",""1"",""4935""
","
","","828.0699999959324","","","","real_trial","2021-04-12 14:51:49.796","img/card_backs/set1/purple.gif","2","-60","1","",""
"casino-fixation","84","343199","0.0-25.0-0.7","859","false","img/card_backs/set1/yellow.gif","img/card_backs/set1/red.gif","img/card_backs/set1/green.gif","img/card_backs/set1/purple.gif","img/card_backs/set2/pink.gif","img/card_backs/set2/gray.gif","img/card_backs/set2/blue.gif","img/card_backs/set2/orange.gif","""event"",""trial"",""time""
""fullscreenenter"",""1"",""4935""
","
","
","""event"",""trial"",""time""
""fullscreenenter"",""1"",""4935""
","
","","null","","null","","fixation","2021-04-12 14:51:50.301","","","","","",""
"card-selection-trial","85","346369","0.0-25.0-1.7","859","false","img/card_backs/set1/yellow.gif","img/card_backs/set1/red.gif","img/card_backs/set1/green.gif","img/card_backs/set1/purple.gif","img/card_backs/set2/pink.gif","img/card_backs/set2/gray.gif","img/card_backs/set2/blue.gif","img/card_backs/set2/orange.gif","""event"",""trial"",""time""
""fullscreenenter"",""1"",""4935""
","
","
","""event"",""trial"",""time""
""fullscreenenter"",""1"",""4935""
","
","","1160.635000000184","","","","real_trial","2021-04-12 14:51:53.471","img/card_backs/set1/purple.gif","1","110","1","",""
"casino-fixation","86","346874","0.0-25.0-0.8","859","false","img/card_backs/set1/yellow.gif","img/card_backs/set1/red.gif","img/card_backs/set1/green.gif","img/card_backs/set1/purple.gif","img/card_backs/set2/pink.gif","img/card_backs/set2/gray.gif","img/card_backs/set2/blue.gif","img/card_backs/set2/orange.gif","""event"",""trial"",""time""
""fullscreenenter"",""1"",""4935""
","
","
","""event"",""trial"",""time""
""fullscreenenter"",""1"",""4935""
","
","","null","","null","","fixation","2021-04-12 14:51:53.976","","","","","",""
"card-selection-trial","87","349981","0.0-25.0-1.8","859","false","img/card_backs/set1/yellow.gif","img/card_backs/set1/red.gif","img/card_backs/set1/green.gif","img/card_backs/set1/purple.gif","img/card_backs/set2/pink.gif","img/card_backs/set2/gray.gif","img/card_backs/set2/blue.gif","img/card_backs/set2/orange.gif","""event"",""trial"",""time""
""fullscreenenter"",""1"",""4935""
","
","
","""event"",""trial"",""time""
""fullscreenenter"",""1"",""4935""
","
","","1098.3649999980116","","","","real_trial","2021-04-12 14:51:57.083","img/card_backs/set1/yellow.gif","1","-250","1","",""
"casino-fixation","88","350485","0.0-25.0-0.9","859","false","img/card_backs/set1/yellow.gif","img/card_backs/set1/red.gif","img/card_backs/set1/green.gif","img/card_backs/set1/purple.gif","img/card_backs/set2/pink.gif","img/card_backs/set2/gray.gif","img/card_backs/set2/blue.gif","img/card_backs/set2/orange.gif","""event"",""trial"",""time""
""fullscreenenter"",""1"",""4935""
","
","
","""event"",""trial"",""time""
""fullscreenenter"",""1"",""4935""
","
","","null","","null","","fixation","2021-04-12 14:51:57.588","","","","","",""
"card-selection-trial","89","353859","0.0-25.0-1.9","859","false","img/card_backs/set1/yellow.gif","img/card_backs/set1/red.gif","img/card_backs/set1/green.gif","img/card_backs/set1/purple.gif","img/card_backs/set2/pink.gif","img/card_backs/set2/gray.gif","img/card_backs/set2/blue.gif","img/card_backs/set2/orange.gif","""event"",""trial"",""time""
""fullscreenenter"",""1"",""4935""
","
","
","""event"",""trial"",""time""
""fullscreenenter"",""1"",""4935""
","
","","1361.0100000005332","","","","real_trial","2021-04-12 14:52:00.961","img/card_backs/set1/purple.gif","1","110","1","",""
"casino-fixation","90","354363","0.0-25.0-0.10","859","false","img/card_backs/set1/yellow.gif","img/card_backs/set1/red.gif","img/card_backs/set1/green.gif","img/card_backs/set1/purple.gif","img/card_backs/set2/pink.gif","img/card_backs/set2/gray.gif","img/card_backs/set2/blue.gif","img/card_backs/set2/orange.gif","""event"",""trial"",""time""
""fullscreenenter"",""1"",""4935""
","
","
","""event"",""trial"",""time""
""fullscreenenter"",""1"",""4935""
","
","","null","","null","","fixation","2021-04-12 14:52:01.466","","","","","",""
"card-selection-trial","91","357487","0.0-25.0-1.10","859","false","img/card_backs/set1/yellow.gif","img/card_backs/set1/red.gif","img/card_backs/set1/green.gif","img/card_backs/set1/purple.gif","img/card_backs/set2/pink.gif","img/card_backs/set2/gray.gif","img/card_backs/set2/blue.gif","img/card_backs/set2/orange.gif","""event"",""trial"",""time""
""fullscreenenter"",""1"",""4935""
","
","
","""event"",""trial"",""time""
""fullscreenenter"",""1"",""4935""
","
","","1115.2149999979883","","","","real_trial","2021-04-12 14:52:04.589","img/card_backs/set1/purple.gif","2","120","1","",""
"casino-fixation","92","357992","0.0-25.0-0.11","859","false","img/card_backs/set1/yellow.gif","img/card_backs/set1/red.gif","img/card_backs/set1/green.gif","img/card_backs/set1/purple.gif","img/card_backs/set2/pink.gif","img/card_backs/set2/gray.gif","img/card_backs/set2/blue.gif","img/card_backs/set2/orange.gif","""event"",""trial"",""time""
""fullscreenenter"",""1"",""4935""
","
","
","""event"",""trial"",""time""
""fullscreenenter"",""1"",""4935""
","
","","null","","null","","fixation","2021-04-12 14:52:05.094","","","","","",""
"card-selection-trial","93","360982","0.0-25.0-1.11","859","false","img/card_backs/set1/yellow.gif","img/card_backs/set1/red.gif","img/card_backs/set1/green.gif","img/card_backs/set1/purple.gif","img/card_backs/set2/pink.gif","img/card_backs/set2/gray.gif","img/card_backs/set2/blue.gif","img/card_backs/set2/orange.gif","""event"",""trial"",""time""
""fullscreenenter"",""1"",""4935""
","
","
","""event"",""trial"",""time""
""fullscreenenter"",""1"",""4935""
","
","","978.3600000009756","","","","real_trial","2021-04-12 14:52:08.084","img/card_backs/set1/purple.gif","1","120","1","",""
"casino-fixation","94","361487","0.0-25.0-0.12","859","false","img/card_backs/set1/yellow.gif","img/card_backs/set1/red.gif","img/card_backs/set1/green.gif","img/card_backs/set1/purple.gif","img/card_backs/set2/pink.gif","img/card_backs/set2/gray.gif","img/card_backs/set2/blue.gif","img/card_backs/set2/orange.gif","""event"",""trial"",""time""
""fullscreenenter"",""1"",""4935""
","
","
","""event"",""trial"",""time""
""fullscreenenter"",""1"",""4935""
","
","","null","","null","","fixation","2021-04-12 14:52:08.589","","","","","",""
"card-selection-trial","95","364449","0.0-25.0-1.12","859","false","img/card_backs/set1/yellow.gif","img/card_backs/set1/red.gif","img/card_backs/set1/green.gif","img/card_backs/set1/purple.gif","img/card_backs/set2/pink.gif","img/card_backs/set2/gray.gif","img/card_backs/set2/blue.gif","img/card_backs/set2/orange.gif","""event"",""trial"",""time""
""fullscreenenter"",""1"",""4935""
","
","
","""event"",""trial"",""time""
""fullscreenenter"",""1"",""4935""
","
","","952.4999999994179","","","","real_trial","2021-04-12 14:52:11.551","img/card_backs/set1/purple.gif","2","110","1","",""
"casino-fixation","96","364952","0.0-25.0-0.13","859","false","img/card_backs/set1/yellow.gif","img/card_backs/set1/red.gif","img/card_backs/set1/green.gif","img/card_backs/set1/purple.gif","img/card_backs/set2/pink.gif","img/card_backs/set2/gray.gif","img/card_backs/set2/blue.gif","img/card_backs/set2/orange.gif","""event"",""trial"",""time""
""fullscreenenter"",""1"",""4935""
","
","
","""event"",""trial"",""time""
""fullscreenenter"",""1"",""4935""
","
","","null","","null","","fixation","2021-04-12 14:52:12.054","","","","","",""
"card-selection-trial","97","367884","0.0-25.0-1.13","859","false","img/card_backs/set1/yellow.gif","img/card_backs/set1/red.gif","img/card_backs/set1/green.gif","img/card_backs/set1/purple.gif","img/card_backs/set2/pink.gif","img/card_backs/set2/gray.gif","img/card_backs/set2/blue.gif","img/card_backs/set2/orange.gif","""event"",""trial"",""time""
""fullscreenenter"",""1"",""4935""
","
","
","""event"",""trial"",""time""
""fullscreenenter"",""1"",""4935""
","
","","920.7050000040908","","","","real_trial","2021-04-12 14:52:14.986","img/card_backs/set1/purple.gif","3","110","1","",""
"casino-fixation","98","368389","0.0-25.0-0.14","859","false","img/card_backs/set1/yellow.gif","img/card_backs/set1/red.gif","img/card_backs/set1/green.gif","img/card_backs/set1/purple.gif","img/card_backs/set2/pink.gif","img/card_backs/set2/gray.gif","img/card_backs/set2/blue.gif","img/card_backs/set2/orange.gif","""event"",""trial"",""time""
""fullscreenenter"",""1"",""4935""
","
","
","""event"",""trial"",""time""
""fullscreenenter"",""1"",""4935""
","
","","null","","null","","fixation","2021-04-12 14:52:15.491","","","","","",""
"card-selection-trial","99","371495","0.0-25.0-1.14","859","false","img/card_backs/set1/yellow.gif","img/card_backs/set1/red.gif","img/card_backs/set1/green.gif","img/card_backs/set1/purple.gif","img/card_backs/set2/pink.gif","img/card_backs/set2/gray.gif","img/card_backs/set2/blue.gif","img/card_backs/set2/orange.gif","""event"",""trial"",""time""
""fullscreenenter"",""1"",""4935""
","
","
","""event"",""trial"",""time""
""fullscreenenter"",""1"",""4935""
","
","","1092.4450000020443","","","","real_trial","2021-04-12 14:52:18.597","img/card_backs/set1/purple.gif","0","100","1","",""
"casino-fixation","100","372000","0.0-25.0-0.15","859","false","img/card_backs/set1/yellow.gif","img/card_backs/set1/red.gif","img/card_backs/set1/green.gif","img/card_backs/set1/purple.gif","img/card_backs/set2/pink.gif","img/card_backs/set2/gray.gif","img/card_backs/set2/blue.gif","img/card_backs/set2/orange.gif","""event"",""trial"",""time""
""fullscreenenter"",""1"",""4935""
","
","
","""event"",""trial"",""time""
""fullscreenenter"",""1"",""4935""
","
","","null","","null","","fixation","2021-04-12 14:52:19.102","","","","","",""
"card-selection-trial","101","374967","0.0-25.0-1.15","859","false","img/card_backs/set1/yellow.gif","img/card_backs/set1/red.gif","img/card_backs/set1/green.gif","img/card_backs/set1/purple.gif","img/card_backs/set2/pink.gif","img/card_backs/set2/gray.gif","img/card_backs/set2/blue.gif","img/card_backs/set2/orange.gif","""event"",""trial"",""time""
""fullscreenenter"",""1"",""4935""
","
","
","""event"",""trial"",""time""
""fullscreenenter"",""1"",""4935""
","
","","954.2399999991176","","","","real_trial","2021-04-12 14:52:22.069","img/card_backs/set1/purple.gif","2","-70","1","",""
"casino-fixation","102","375472","0.0-25.0-0.16","859","false","img/card_backs/set1/yellow.gif","img/card_backs/set1/red.gif","img/card_backs/set1/green.gif","img/card_backs/set1/purple.gif","img/card_backs/set2/pink.gif","img/card_backs/set2/gray.gif","img/card_backs/set2/blue.gif","img/card_backs/set2/orange.gif","""event"",""trial"",""time""
""fullscreenenter"",""1"",""4935""
","
","
","""event"",""trial"",""time""
""fullscreenenter"",""1"",""4935""
","
","","null","","null","","fixation","2021-04-12 14:52:22.574","","","","","",""
"card-selection-trial","103","378381","0.0-25.0-1.16","859","false","img/card_backs/set1/yellow.gif","img/card_backs/set1/red.gif","img/card_backs/set1/green.gif","img/card_backs/set1/purple.gif","img/card_backs/set2/pink.gif","img/card_backs/set2/gray.gif","img/card_backs/set2/blue.gif","img/card_backs/set2/orange.gif","""event"",""trial"",""time""
""fullscreenenter"",""1"",""4935""
","
","
","""event"",""trial"",""time""
""fullscreenenter"",""1"",""4935""
","
","","900.0700000033248","","","","real_trial","2021-04-12 14:52:25.483","img/card_backs/set1/purple.gif","3","110","1","",""
"casino-fixation","104","378885","0.0-25.0-0.17","859","false","img/card_backs/set1/yellow.gif","img/card_backs/set1/red.gif","img/card_backs/set1/green.gif","img/card_backs/set1/purple.gif","img/card_backs/set2/pink.gif","img/card_backs/set2/gray.gif","img/card_backs/set2/blue.gif","img/card_backs/set2/orange.gif","""event"",""trial"",""time""
""fullscreenenter"",""1"",""4935""
","
","
","""event"",""trial"",""time""
""fullscreenenter"",""1"",""4935""
","
","","null","","null","","fixation","2021-04-12 14:52:25.987","","","","","",""
"card-selection-trial","105","381823","0.0-25.0-1.17","859","false","img/card_backs/set1/yellow.gif","img/card_backs/set1/red.gif","img/card_backs/set1/green.gif","img/card_backs/set1/purple.gif","img/card_backs/set2/pink.gif","img/card_backs/set2/gray.gif","img/card_backs/set2/blue.gif","img/card_backs/set2/orange.gif","""event"",""trial"",""time""
""fullscreenenter"",""1"",""4935""
","
","
","""event"",""trial"",""time""
""fullscreenenter"",""1"",""4935""
","
","","928.0050000015763","","","","real_trial","2021-04-12 14:52:28.925","img/card_backs/set1/purple.gif","3","-60","1","",""
"casino-fixation","106","382328","0.0-25.0-0.18","859","false","img/card_backs/set1/yellow.gif","img/card_backs/set1/red.gif","img/card_backs/set1/green.gif","img/card_backs/set1/purple.gif","img/card_backs/set2/pink.gif","img/card_backs/set2/gray.gif","img/card_backs/set2/blue.gif","img/card_backs/set2/orange.gif","""event"",""trial"",""time""
""fullscreenenter"",""1"",""4935""
","
","
","""event"",""trial"",""time""
""fullscreenenter"",""1"",""4935""
","
","","null","","null","","fixation","2021-04-12 14:52:29.430","","","","","",""
"card-selection-trial","107","385277","0.0-25.0-1.18","859","false","img/card_backs/set1/yellow.gif","img/card_backs/set1/red.gif","img/card_backs/set1/green.gif","img/card_backs/set1/purple.gif","img/card_backs/set2/pink.gif","img/card_backs/set2/gray.gif","img/card_backs/set2/blue.gif","img/card_backs/set2/orange.gif","""event"",""trial"",""time""
""fullscreenenter"",""1"",""4935""
","
","
","""event"",""trial"",""time""
""fullscreenenter"",""1"",""4935""
","
","","938.1700000012643","","","","real_trial","2021-04-12 14:52:32.379","img/card_backs/set1/purple.gif","0","120","1","",""
"casino-fixation","108","385782","0.0-25.0-0.19","859","false","img/card_backs/set1/yellow.gif","img/card_backs/set1/red.gif","img/card_backs/set1/green.gif","img/card_backs/set1/purple.gif","img/card_backs/set2/pink.gif","img/card_backs/set2/gray.gif","img/card_backs/set2/blue.gif","img/card_backs/set2/orange.gif","""event"",""trial"",""time""
""fullscreenenter"",""1"",""4935""
","
","
","""event"",""trial"",""time""
""fullscreenenter"",""1"",""4935""
","
","","null","","null","","fixation","2021-04-12 14:52:32.884","","","","","",""
"card-selection-trial","109","388331","0.0-25.0-1.19","859","false","img/card_backs/set1/yellow.gif","img/card_backs/set1/red.gif","img/card_backs/set1/green.gif","img/card_backs/set1/purple.gif","img/card_backs/set2/pink.gif","img/card_backs/set2/gray.gif","img/card_backs/set2/blue.gif","img/card_backs/set2/orange.gif","""event"",""trial"",""time""
""fullscreenenter"",""1"",""4935""
","
","
","""event"",""trial"",""time""
""fullscreenenter"",""1"",""4935""
","
","","539.8300000015297","","","","real_trial","2021-04-12 14:52:35.433","img/card_backs/set1/purple.gif","0","-60","1","",""
"casino-fixation","110","388836","0.0-25.0-0.20","859","false","img/card_backs/set1/yellow.gif","img/card_backs/set1/red.gif","img/card_backs/set1/green.gif","img/card_backs/set1/purple.gif","img/card_backs/set2/pink.gif","img/card_backs/set2/gray.gif","img/card_backs/set2/blue.gif","img/card_backs/set2/orange.gif","""event"",""trial"",""time""
""fullscreenenter"",""1"",""4935""
","
","
","""event"",""trial"",""time""
""fullscreenenter"",""1"",""4935""
","
","","null","","null","","fixation","2021-04-12 14:52:35.938","","","","","",""
"card-selection-trial","111","391529","0.0-25.0-1.20","859","false","img/card_backs/set1/yellow.gif","img/card_backs/set1/red.gif","img/card_backs/set1/green.gif","img/card_backs/set1/purple.gif","img/card_backs/set2/pink.gif","img/card_backs/set2/gray.gif","img/card_backs/set2/blue.gif","img/card_backs/set2/orange.gif","""event"",""trial"",""time""
""fullscreenenter"",""1"",""4935""
","
","
","""event"",""trial"",""time""
""fullscreenenter"",""1"",""4935""
","
","","680.4550000015297","","","","real_trial","2021-04-12 14:52:38.632","img/card_backs/set1/purple.gif","2","110","1","",""
"casino-fixation","112","392034","0.0-25.0-0.21","859","false","img/card_backs/set1/yellow.gif","img/card_backs/set1/red.gif","img/card_backs/set1/green.gif","img/card_backs/set1/purple.gif","img/card_backs/set2/pink.gif","img/card_backs/set2/gray.gif","img/card_backs/set2/blue.gif","img/card_backs/set2/orange.gif","""event"",""trial"",""time""
""fullscreenenter"",""1"",""4935""
","
","
","""event"",""trial"",""time""
""fullscreenenter"",""1"",""4935""
","
","","null","","null","","fixation","2021-04-12 14:52:39.136","","","","","",""
"card-selection-trial","113","394821","0.0-25.0-1.21","859","false","img/card_backs/set1/yellow.gif","img/card_backs/set1/red.gif","img/card_backs/set1/green.gif","img/card_backs/set1/purple.gif","img/card_backs/set2/pink.gif","img/card_backs/set2/gray.gif","img/card_backs/set2/blue.gif","img/card_backs/set2/orange.gif","""event"",""trial"",""time""
""fullscreenenter"",""1"",""4935""
","
","
","""event"",""trial"",""time""
""fullscreenenter"",""1"",""4935""
","
","","776.5849999996135","","","","real_trial","2021-04-12 14:52:41.923","img/card_backs/set1/purple.gif","1","-60","1","",""
"casino-fixation","114","395323","0.0-25.0-0.22","859","false","img/card_backs/set1/yellow.gif","img/card_backs/set1/red.gif","img/card_backs/set1/green.gif","img/card_backs/set1/purple.gif","img/card_backs/set2/pink.gif","img/card_backs/set2/gray.gif","img/card_backs/set2/blue.gif","img/card_backs/set2/orange.gif","""event"",""trial"",""time""
""fullscreenenter"",""1"",""4935""
","
","
","""event"",""trial"",""time""
""fullscreenenter"",""1"",""4935""
","
","","null","","null","","fixation","2021-04-12 14:52:42.425","","","","","",""
"card-selection-trial","115","397921","0.0-25.0-1.22","859","false","img/card_backs/set1/yellow.gif","img/card_backs/set1/red.gif","img/card_backs/set1/green.gif","img/card_backs/set1/purple.gif","img/card_backs/set2/pink.gif","img/card_backs/set2/gray.gif","img/card_backs/set2/blue.gif","img/card_backs/set2/orange.gif","""event"",""trial"",""time""
""fullscreenenter"",""1"",""4935""
","
","
","""event"",""trial"",""time""
""fullscreenenter"",""1"",""4935""
","
","","586.8150000023888","","","","real_trial","2021-04-12 14:52:45.023","img/card_backs/set1/purple.gif","3","100","1","",""
"casino-fixation","116","398423","0.0-25.0-0.23","859","false","img/card_backs/set1/yellow.gif","img/card_backs/set1/red.gif","img/card_backs/set1/green.gif","img/card_backs/set1/purple.gif","img/card_backs/set2/pink.gif","img/card_backs/set2/gray.gif","img/card_backs/set2/blue.gif","img/card_backs/set2/orange.gif","""event"",""trial"",""time""
""fullscreenenter"",""1"",""4935""
","
","
","""event"",""trial"",""time""
""fullscreenenter"",""1"",""4935""
","
","","null","","null","","fixation","2021-04-12 14:52:45.525","","","","","",""
"card-selection-trial","117","401811","0.0-25.0-1.23","859","false","img/card_backs/set1/yellow.gif","img/card_backs/set1/red.gif","img/card_backs/set1/green.gif","img/card_backs/set1/purple.gif","img/card_backs/set2/pink.gif","img/card_backs/set2/gray.gif","img/card_backs/set2/blue.gif","img/card_backs/set2/orange.gif","""event"",""trial"",""time""
""fullscreenenter"",""1"",""4935""
","
","
","""event"",""trial"",""time""
""fullscreenenter"",""1"",""4935""
","
","","1377.4799999955576","","","","real_trial","2021-04-12 14:52:48.913","img/card_backs/set1/purple.gif","1","120","1","",""
"casino-fixation","118","402316","0.0-25.0-0.24","859","false","img/card_backs/set1/yellow.gif","img/card_backs/set1/red.gif","img/card_backs/set1/green.gif","img/card_backs/set1/purple.gif","img/card_backs/set2/pink.gif","img/card_backs/set2/gray.gif","img/card_backs/set2/blue.gif","img/card_backs/set2/orange.gif","""event"",""trial"",""time""
""fullscreenenter"",""1"",""4935""
","
","
","""event"",""trial"",""time""
""fullscreenenter"",""1"",""4935""
","
","","null","","null","","fixation","2021-04-12 14:52:49.418","","","","","",""
"card-selection-trial","119","404975","0.0-25.0-1.24","859","false","img/card_backs/set1/yellow.gif","img/card_backs/set1/red.gif","img/card_backs/set1/green.gif","img/card_backs/set1/purple.gif","img/card_backs/set2/pink.gif","img/card_backs/set2/gray.gif","img/card_backs/set2/blue.gif","img/card_backs/set2/orange.gif","""event"",""trial"",""time""
""fullscreenenter"",""1"",""4935""
","
","
","""event"",""trial"",""time""
""fullscreenenter"",""1"",""4935""
","
","","646.6250000012224","","","","real_trial","2021-04-12 14:52:52.077","img/card_backs/set1/purple.gif","1","-60","1","",""
"casino-fixation","120","405480","0.0-25.0-0.25","859","false","img/card_backs/set1/yellow.gif","img/card_backs/set1/red.gif","img/card_backs/set1/green.gif","img/card_backs/set1/purple.gif","img/card_backs/set2/pink.gif","img/card_backs/set2/gray.gif","img/card_backs/set2/blue.gif","img/card_backs/set2/orange.gif","""event"",""trial"",""time""
""fullscreenenter"",""1"",""4935""
","
","
","""event"",""trial"",""time""
""fullscreenenter"",""1"",""4935""
","
","","null","","null","","fixation","2021-04-12 14:52:52.582","","","","","",""
"card-selection-trial","121","408644","0.0-25.0-1.25","859","false","img/card_backs/set1/yellow.gif","img/card_backs/set1/red.gif","img/card_backs/set1/green.gif","img/card_backs/set1/purple.gif","img/card_backs/set2/pink.gif","img/card_backs/set2/gray.gif","img/card_backs/set2/blue.gif","img/card_backs/set2/orange.gif","""event"",""trial"",""time""
""fullscreenenter"",""1"",""4935""
","
","
","""event"",""trial"",""time""
""fullscreenenter"",""1"",""4935""
","
","","1152.7549999955227","","","","real_trial","2021-04-12 14:52:55.746","img/card_backs/set1/purple.gif","2","-70","1","",""
"casino-fixation","122","409149","0.0-25.0-0.26","859","false","img/card_backs/set1/yellow.gif","img/card_backs/set1/red.gif","img/card_backs/set1/green.gif","img/card_backs/set1/purple.gif","img/card_backs/set2/pink.gif","img/card_backs/set2/gray.gif","img/card_backs/set2/blue.gif","img/card_backs/set2/orange.gif","""event"",""trial"",""time""
""fullscreenenter"",""1"",""4935""
","
","
","""event"",""trial"",""time""
""fullscreenenter"",""1"",""4935""
","
","","null","","null","","fixation","2021-04-12 14:52:56.251","","","","","",""
"card-selection-trial","123","411999","0.0-25.0-1.26","859","false","img/card_backs/set1/yellow.gif","img/card_backs/set1/red.gif","img/card_backs/set1/green.gif","img/card_backs/set1/purple.gif","img/card_backs/set2/pink.gif","img/card_backs/set2/gray.gif","img/card_backs/set2/blue.gif","img/card_backs/set2/orange.gif","""event"",""trial"",""time""
""fullscreenenter"",""1"",""4935""
","
","
","""event"",""trial"",""time""
""fullscreenenter"",""1"",""4935""
","
","","836.4650000003166","","","","real_trial","2021-04-12 14:52:59.101","img/card_backs/set1/purple.gif","2","100","1","",""
"casino-fixation","124","412504","0.0-25.0-0.27","859","false","img/card_backs/set1/yellow.gif","img/card_backs/set1/red.gif","img/card_backs/set1/green.gif","img/card_backs/set1/purple.gif","img/card_backs/set2/pink.gif","img/card_backs/set2/gray.gif","img/card_backs/set2/blue.gif","img/card_backs/set2/orange.gif","""event"",""trial"",""time""
""fullscreenenter"",""1"",""4935""
","
","
","""event"",""trial"",""time""
""fullscreenenter"",""1"",""4935""
","
","","null","","null","","fixation","2021-04-12 14:52:59.606","","","","","",""
"card-selection-trial","125","415252","0.0-25.0-1.27","859","false","img/card_backs/set1/yellow.gif","img/card_backs/set1/red.gif","img/card_backs/set1/green.gif","img/card_backs/set1/purple.gif","img/card_backs/set2/pink.gif","img/card_backs/set2/gray.gif","img/card_backs/set2/blue.gif","img/card_backs/set2/orange.gif","""event"",""trial"",""time""
""fullscreenenter"",""1"",""4935""
","
","
","""event"",""trial"",""time""
""fullscreenenter"",""1"",""4935""
","
","","736.9200000030105","","","","real_trial","2021-04-12 14:53:02.354","img/card_backs/set1/purple.gif","2","-70","1","",""
"casino-fixation","126","415755","0.0-25.0-0.28","859","false","img/card_backs/set1/yellow.gif","img/card_backs/set1/red.gif","img/card_backs/set1/green.gif","img/card_backs/set1/purple.gif","img/card_backs/set2/pink.gif","img/card_backs/set2/gray.gif","img/card_backs/set2/blue.gif","img/card_backs/set2/orange.gif","""event"",""trial"",""time""
""fullscreenenter"",""1"",""4935""
","
","
","""event"",""trial"",""time""
""fullscreenenter"",""1"",""4935""
","
","","null","","null","","fixation","2021-04-12 14:53:02.857","","","","","",""
"card-selection-trial","127","418687","0.0-25.0-1.28","859","false","img/card_backs/set1/yellow.gif","img/card_backs/set1/red.gif","img/card_backs/set1/green.gif","img/card_backs/set1/purple.gif","img/card_backs/set2/pink.gif","img/card_backs/set2/gray.gif","img/card_backs/set2/blue.gif","img/card_backs/set2/orange.gif","""event"",""trial"",""time""
""fullscreenenter"",""1"",""4935""
","
","
","""event"",""trial"",""time""
""fullscreenenter"",""1"",""4935""
","
","","917.4399999974412","","","","real_trial","2021-04-12 14:53:05.789","img/card_backs/set1/purple.gif","0","-50","1","",""
"casino-fixation","128","419192","0.0-25.0-0.29","859","false","img/card_backs/set1/yellow.gif","img/card_backs/set1/red.gif","img/card_backs/set1/green.gif","img/card_backs/set1/purple.gif","img/card_backs/set2/pink.gif","img/card_backs/set2/gray.gif","img/card_backs/set2/blue.gif","img/card_backs/set2/orange.gif","""event"",""trial"",""time""
""fullscreenenter"",""1"",""4935""
","
","
","""event"",""trial"",""time""
""fullscreenenter"",""1"",""4935""
","
","","null","","null","","fixation","2021-04-12 14:53:06.294","","","","","",""
"card-selection-trial","129","422931","0.0-25.0-1.29","859","false","img/card_backs/set1/yellow.gif","img/card_backs/set1/red.gif","img/card_backs/set1/green.gif","img/card_backs/set1/purple.gif","img/card_backs/set2/pink.gif","img/card_backs/set2/gray.gif","img/card_backs/set2/blue.gif","img/card_backs/set2/orange.gif","""event"",""trial"",""time""
""fullscreenenter"",""1"",""4935""
","
","
","""event"",""trial"",""time""
""fullscreenenter"",""1"",""4935""
","
","","1730.4500000027474","","","","real_trial","2021-04-12 14:53:10.033","img/card_backs/set1/yellow.gif","0","-250","1","",""
"casino-fixation","130","423436","0.0-25.0-0.30","859","false","img/card_backs/set1/yellow.gif","img/card_backs/set1/red.gif","img/card_backs/set1/green.gif","img/card_backs/set1/purple.gif","img/card_backs/set2/pink.gif","img/card_backs/set2/gray.gif","img/card_backs/set2/blue.gif","img/card_backs/set2/orange.gif","""event"",""trial"",""time""
""fullscreenenter"",""1"",""4935""
","
","
","""event"",""trial"",""time""
""fullscreenenter"",""1"",""4935""
","
","","null","","null","","fixation","2021-04-12 14:53:10.538","","","","","",""
"card-selection-trial","131","426182","0.0-25.0-1.30","859","false","img/card_backs/set1/yellow.gif","img/card_backs/set1/red.gif","img/card_backs/set1/green.gif","img/card_backs/set1/purple.gif","img/card_backs/set2/pink.gif","img/card_backs/set2/gray.gif","img/card_backs/set2/blue.gif","img/card_backs/set2/orange.gif","""event"",""trial"",""time""
""fullscreenenter"",""1"",""4935""
","
","
","""event"",""trial"",""time""
""fullscreenenter"",""1"",""4935""
","
","","732.9549999994924","","","","real_trial","2021-04-12 14:53:13.284","img/card_backs/set1/purple.gif","0","-70","1","",""
"casino-fixation","132","426686","0.0-25.0-0.31","859","false","img/card_backs/set1/yellow.gif","img/card_backs/set1/red.gif","img/card_backs/set1/green.gif","img/card_backs/set1/purple.gif","img/card_backs/set2/pink.gif","img/card_backs/set2/gray.gif","img/card_backs/set2/blue.gif","img/card_backs/set2/orange.gif","""event"",""trial"",""time""
""fullscreenenter"",""1"",""4935""
","
","
","""event"",""trial"",""time""
""fullscreenenter"",""1"",""4935""
","
","","null","","null","","fixation","2021-04-12 14:53:13.789","","","","","",""
"card-selection-trial","133","429502","0.0-25.0-1.31","859","false","img/card_backs/set1/yellow.gif","img/card_backs/set1/red.gif","img/card_backs/set1/green.gif","img/card_backs/set1/purple.gif","img/card_backs/set2/pink.gif","img/card_backs/set2/gray.gif","img/card_backs/set2/blue.gif","img/card_backs/set2/orange.gif","""event"",""trial"",""time""
""fullscreenenter"",""1"",""4935""
","
","
","""event"",""trial"",""time""
""fullscreenenter"",""1"",""4935""
","
","","804.9149999933434","","","","real_trial","2021-04-12 14:53:16.604","img/card_backs/set1/purple.gif","2","-50","1","",""
"casino-fixation","134","430007","0.0-25.0-0.32","859","false","img/card_backs/set1/yellow.gif","img/card_backs/set1/red.gif","img/card_backs/set1/green.gif","img/card_backs/set1/purple.gif","img/card_backs/set2/pink.gif","img/card_backs/set2/gray.gif","img/card_backs/set2/blue.gif","img/card_backs/set2/orange.gif","""event"",""trial"",""time""
""fullscreenenter"",""1"",""4935""
","
","
","""event"",""trial"",""time""
""fullscreenenter"",""1"",""4935""
","
","","null","","null","","fixation","2021-04-12 14:53:17.109","","","","","",""
"card-selection-trial","135","433183","0.0-25.0-1.32","859","false","img/card_backs/set1/yellow.gif","img/card_backs/set1/red.gif","img/card_backs/set1/green.gif","img/card_backs/set1/purple.gif","img/card_backs/set2/pink.gif","img/card_backs/set2/gray.gif","img/card_backs/set2/blue.gif","img/card_backs/set2/orange.gif","""event"",""trial"",""time""
""fullscreenenter"",""1"",""4935""
","
","
","""event"",""trial"",""time""
""fullscreenenter"",""1"",""4935""
","
","","1162.9699999975855","","","","real_trial","2021-04-12 14:53:20.285","img/card_backs/set1/purple.gif","3","120","1","",""
"casino-fixation","136","433688","0.0-25.0-0.33","859","false","img/card_backs/set1/yellow.gif","img/card_backs/set1/red.gif","img/card_backs/set1/green.gif","img/card_backs/set1/purple.gif","img/card_backs/set2/pink.gif","img/card_backs/set2/gray.gif","img/card_backs/set2/blue.gif","img/card_backs/set2/orange.gif","""event"",""trial"",""time""
""fullscreenenter"",""1"",""4935""
","
","
","""event"",""trial"",""time""
""fullscreenenter"",""1"",""4935""
","
","","null","","null","","fixation","2021-04-12 14:53:20.790","","","","","",""
"card-selection-trial","137","436763","0.0-25.0-1.33","859","false","img/card_backs/set1/yellow.gif","img/card_backs/set1/red.gif","img/card_backs/set1/green.gif","img/card_backs/set1/purple.gif","img/card_backs/set2/pink.gif","img/card_backs/set2/gray.gif","img/card_backs/set2/blue.gif","img/card_backs/set2/orange.gif","""event"",""trial"",""time""
""fullscreenenter"",""1"",""4935""
","
","
","""event"",""trial"",""time""
""fullscreenenter"",""1"",""4935""
","
","","1062.244999993709","","","","real_trial","2021-04-12 14:53:23.865","img/card_backs/set1/purple.gif","2","-60","1","",""
"casino-fixation","138","437268","0.0-25.0-0.34","859","false","img/card_backs/set1/yellow.gif","img/card_backs/set1/red.gif","img/card_backs/set1/green.gif","img/card_backs/set1/purple.gif","img/card_backs/set2/pink.gif","img/card_backs/set2/gray.gif","img/card_backs/set2/blue.gif","img/card_backs/set2/orange.gif","""event"",""trial"",""time""
""fullscreenenter"",""1"",""4935""
","
","
","""event"",""trial"",""time""
""fullscreenenter"",""1"",""4935""
","
","","null","","null","","fixation","2021-04-12 14:53:24.370","","","","","",""
"card-selection-trial","139","440132","0.0-25.0-1.34","859","false","img/card_backs/set1/yellow.gif","img/card_backs/set1/red.gif","img/card_backs/set1/green.gif","img/card_backs/set1/purple.gif","img/card_backs/set2/pink.gif","img/card_backs/set2/gray.gif","img/card_backs/set2/blue.gif","img/card_backs/set2/orange.gif","""event"",""trial"",""time""
""fullscreenenter"",""1"",""4935""
","
","
","""event"",""trial"",""time""
""fullscreenenter"",""1"",""4935""
","
","","855.4350000049453","","","","real_trial","2021-04-12 14:53:27.234","img/card_backs/set1/purple.gif","3","120","1","",""
"casino-fixation","140","440637","0.0-25.0-0.35","859","false","img/card_backs/set1/yellow.gif","img/card_backs/set1/red.gif","img/card_backs/set1/green.gif","img/card_backs/set1/purple.gif","img/card_backs/set2/pink.gif","img/card_backs/set2/gray.gif","img/card_backs/set2/blue.gif","img/card_backs/set2/orange.gif","""event"",""trial"",""time""
""fullscreenenter"",""1"",""4935""
","
","
","""event"",""trial"",""time""
""fullscreenenter"",""1"",""4935""
","
","","null","","null","","fixation","2021-04-12 14:53:27.739","","","","","",""
"card-selection-trial","141","443696","0.0-25.0-1.35","859","false","img/card_backs/set1/yellow.gif","img/card_backs/set1/red.gif","img/card_backs/set1/green.gif","img/card_backs/set1/purple.gif","img/card_backs/set2/pink.gif","img/card_backs/set2/gray.gif","img/card_backs/set2/blue.gif","img/card_backs/set2/orange.gif","""event"",""trial"",""time""
""fullscreenenter"",""1"",""4935""
","
","
","""event"",""trial"",""time""
""fullscreenenter"",""1"",""4935""
","
","","1049.9150000032387","","","","real_trial","2021-04-12 14:53:30.798","img/card_backs/set1/purple.gif","3","-70","1","",""
"casino-fixation","142","444201","0.0-25.0-0.36","859","false","img/card_backs/set1/yellow.gif","img/card_backs/set1/red.gif","img/card_backs/set1/green.gif","img/card_backs/set1/purple.gif","img/card_backs/set2/pink.gif","img/card_backs/set2/gray.gif","img/card_backs/set2/blue.gif","img/card_backs/set2/orange.gif","""event"",""trial"",""time""
""fullscreenenter"",""1"",""4935""
","
","
","""event"",""trial"",""time""
""fullscreenenter"",""1"",""4935""
","
","","null","","null","","fixation","2021-04-12 14:53:31.303","","","","","",""
"card-selection-trial","143","447289","0.0-25.0-1.36","859","false","img/card_backs/set1/yellow.gif","img/card_backs/set1/red.gif","img/card_backs/set1/green.gif","img/card_backs/set1/purple.gif","img/card_backs/set2/pink.gif","img/card_backs/set2/gray.gif","img/card_backs/set2/blue.gif","img/card_backs/set2/orange.gif","""event"",""trial"",""time""
""fullscreenenter"",""1"",""4935""
","
","
","""event"",""trial"",""time""
""fullscreenenter"",""1"",""4935""
","
","","1075.6299999993644","","","","real_trial","2021-04-12 14:53:34.391","img/card_backs/set1/red.gif","2","-250","1","",""
"casino-fixation","144","447795","0.0-25.0-0.37","859","false","img/card_backs/set1/yellow.gif","img/card_backs/set1/red.gif","img/card_backs/set1/green.gif","img/card_backs/set1/purple.gif","img/card_backs/set2/pink.gif","img/card_backs/set2/gray.gif","img/card_backs/set2/blue.gif","img/card_backs/set2/orange.gif","""event"",""trial"",""time""
""fullscreenenter"",""1"",""4935""
","
","
","""event"",""trial"",""time""
""fullscreenenter"",""1"",""4935""
","
","","null","","null","","fixation","2021-04-12 14:53:34.897","","","","","",""
"card-selection-trial","145","450954","0.0-25.0-1.37","859","false","img/card_backs/set1/yellow.gif","img/card_backs/set1/red.gif","img/card_backs/set1/green.gif","img/card_backs/set1/purple.gif","img/card_backs/set2/pink.gif","img/card_backs/set2/gray.gif","img/card_backs/set2/blue.gif","img/card_backs/set2/orange.gif","""event"",""trial"",""time""
""fullscreenenter"",""1"",""4935""
","
","
","""event"",""trial"",""time""
""fullscreenenter"",""1"",""4935""
","
","","1150.340000000142","","","","real_trial","2021-04-12 14:53:38.056","img/card_backs/set1/purple.gif","0","-60","1","",""
"casino-fixation","146","451457","0.0-25.0-0.38","859","false","img/card_backs/set1/yellow.gif","img/card_backs/set1/red.gif","img/card_backs/set1/green.gif","img/card_backs/set1/purple.gif","img/card_backs/set2/pink.gif","img/card_backs/set2/gray.gif","img/card_backs/set2/blue.gif","img/card_backs/set2/orange.gif","""event"",""trial"",""time""
""fullscreenenter"",""1"",""4935""
","
","
","""event"",""trial"",""time""
""fullscreenenter"",""1"",""4935""
","
","","null","","null","","fixation","2021-04-12 14:53:38.559","","","","","",""
"card-selection-trial","147","454672","0.0-25.0-1.38","859","false","img/card_backs/set1/yellow.gif","img/card_backs/set1/red.gif","img/card_backs/set1/green.gif","img/card_backs/set1/purple.gif","img/card_backs/set2/pink.gif","img/card_backs/set2/gray.gif","img/card_backs/set2/blue.gif","img/card_backs/set2/orange.gif","""event"",""trial"",""time""
""fullscreenenter"",""1"",""4935""
","
","
","""event"",""trial"",""time""
""fullscreenenter"",""1"",""4935""
","
","","1202.5500000017928","","","","real_trial","2021-04-12 14:53:41.774","img/card_backs/set1/red.gif","1","-250","1","",""
"casino-fixation","148","455175","0.0-25.0-0.39","859","false","img/card_backs/set1/yellow.gif","img/card_backs/set1/red.gif","img/card_backs/set1/green.gif","img/card_backs/set1/purple.gif","img/card_backs/set2/pink.gif","img/card_backs/set2/gray.gif","img/card_backs/set2/blue.gif","img/card_backs/set2/orange.gif","""event"",""trial"",""time""
""fullscreenenter"",""1"",""4935""
","
","
","""event"",""trial"",""time""
""fullscreenenter"",""1"",""4935""
","
","","null","","null","","fixation","2021-04-12 14:53:42.277","","","","","",""
"card-selection-trial","149","457788","0.0-25.0-1.39","859","false","img/card_backs/set1/yellow.gif","img/card_backs/set1/red.gif","img/card_backs/set1/green.gif","img/card_backs/set1/purple.gif","img/card_backs/set2/pink.gif","img/card_backs/set2/gray.gif","img/card_backs/set2/blue.gif","img/card_backs/set2/orange.gif","""event"",""trial"",""time""
""fullscreenenter"",""1"",""4935""
","
","
","""event"",""trial"",""time""
""fullscreenenter"",""1"",""4935""
","
","","599.4199999986449","","","","real_trial","2021-04-12 14:53:44.890","img/card_backs/set1/purple.gif","0","-50","1","",""
"casino-fixation","150","458291","0.0-25.0-0.40","859","false","img/card_backs/set1/yellow.gif","img/card_backs/set1/red.gif","img/card_backs/set1/green.gif","img/card_backs/set1/purple.gif","img/card_backs/set2/pink.gif","img/card_backs/set2/gray.gif","img/card_backs/set2/blue.gif","img/card_backs/set2/orange.gif","""event"",""trial"",""time""
""fullscreenenter"",""1"",""4935""
","
","
","""event"",""trial"",""time""
""fullscreenenter"",""1"",""4935""
","
","","null","","null","","fixation","2021-04-12 14:53:45.393","","","","","",""
"card-selection-trial","151","461832","0.0-25.0-1.40","859","false","img/card_backs/set1/yellow.gif","img/card_backs/set1/red.gif","img/card_backs/set1/green.gif","img/card_backs/set1/purple.gif","img/card_backs/set2/pink.gif","img/card_backs/set2/gray.gif","img/card_backs/set2/blue.gif","img/card_backs/set2/orange.gif","""event"",""trial"",""time""
""fullscreenenter"",""1"",""4935""
","
","
","""event"",""trial"",""time""
""fullscreenenter"",""1"",""4935""
","
","","1527.9149999987567","","","","real_trial","2021-04-12 14:53:48.934","img/card_backs/set1/purple.gif","0","-50","1","",""
"casino-fixation","152","462338","0.0-25.0-0.41","859","false","img/card_backs/set1/yellow.gif","img/card_backs/set1/red.gif","img/card_backs/set1/green.gif","img/card_backs/set1/purple.gif","img/card_backs/set2/pink.gif","img/card_backs/set2/gray.gif","img/card_backs/set2/blue.gif","img/card_backs/set2/orange.gif","""event"",""trial"",""time""
""fullscreenenter"",""1"",""4935""
","
","
","""event"",""trial"",""time""
""fullscreenenter"",""1"",""4935""
","
","","null","","null","","fixation","2021-04-12 14:53:49.440","","","","","",""
"card-selection-trial","153","465606","0.0-25.0-1.41","859","false","img/card_backs/set1/yellow.gif","img/card_backs/set1/red.gif","img/card_backs/set1/green.gif","img/card_backs/set1/purple.gif","img/card_backs/set2/pink.gif","img/card_backs/set2/gray.gif","img/card_backs/set2/blue.gif","img/card_backs/set2/orange.gif","""event"",""trial"",""time""
""fullscreenenter"",""1"",""4935""
","
","
","""event"",""trial"",""time""
""fullscreenenter"",""1"",""4935""
","
","","1258.8600000017323","","","","real_trial","2021-04-12 14:53:52.708","img/card_backs/set1/purple.gif","1","100","1","",""
"casino-fixation","154","466111","0.0-25.0-0.42","859","false","img/card_backs/set1/yellow.gif","img/card_backs/set1/red.gif","img/card_backs/set1/green.gif","img/card_backs/set1/purple.gif","img/card_backs/set2/pink.gif","img/card_backs/set2/gray.gif","img/card_backs/set2/blue.gif","img/card_backs/set2/orange.gif","""event"",""trial"",""time""
""fullscreenenter"",""1"",""4935""
","
","
","""event"",""trial"",""time""
""fullscreenenter"",""1"",""4935""
","
","","null","","null","","fixation","2021-04-12 14:53:53.213","","","","","",""
"card-selection-trial","155","468706","0.0-25.0-1.42","859","false","img/card_backs/set1/yellow.gif","img/card_backs/set1/red.gif","img/card_backs/set1/green.gif","img/card_backs/set1/purple.gif","img/card_backs/set2/pink.gif","img/card_backs/set2/gray.gif","img/card_backs/set2/blue.gif","img/card_backs/set2/orange.gif","""event"",""trial"",""time""
""fullscreenenter"",""1"",""4935""
","
","
","""event"",""trial"",""time""
""fullscreenenter"",""1"",""4935""
","
","","583.3799999963958","","","","real_trial","2021-04-12 14:53:55.808","img/card_backs/set1/purple.gif","3","-50","1","",""
"casino-fixation","156","469211","0.0-25.0-0.43","859","false","img/card_backs/set1/yellow.gif","img/card_backs/set1/red.gif","img/card_backs/set1/green.gif","img/card_backs/set1/purple.gif","img/card_backs/set2/pink.gif","img/card_backs/set2/gray.gif","img/card_backs/set2/blue.gif","img/card_backs/set2/orange.gif","""event"",""trial"",""time""
""fullscreenenter"",""1"",""4935""
","
","
","""event"",""trial"",""time""
""fullscreenenter"",""1"",""4935""
","
","","null","","null","","fixation","2021-04-12 14:53:56.313","","","","","",""
"card-selection-trial","157","471856","0.0-25.0-1.43","859","false","img/card_backs/set1/yellow.gif","img/card_backs/set1/red.gif","img/card_backs/set1/green.gif","img/card_backs/set1/purple.gif","img/card_backs/set2/pink.gif","img/card_backs/set2/gray.gif","img/card_backs/set2/blue.gif","img/card_backs/set2/orange.gif","""event"",""trial"",""time""
""fullscreenenter"",""1"",""4935""
","
","
","""event"",""trial"",""time""
""fullscreenenter"",""1"",""4935""
","
","","635.2650000044378","","","","real_trial","2021-04-12 14:53:58.958","img/card_backs/set1/purple.gif","0","110","1","",""
"casino-fixation","158","472361","0.0-25.0-0.44","859","false","img/card_backs/set1/yellow.gif","img/card_backs/set1/red.gif","img/card_backs/set1/green.gif","img/card_backs/set1/purple.gif","img/card_backs/set2/pink.gif","img/card_backs/set2/gray.gif","img/card_backs/set2/blue.gif","img/card_backs/set2/orange.gif","""event"",""trial"",""time""
""fullscreenenter"",""1"",""4935""
","
","
","""event"",""trial"",""time""
""fullscreenenter"",""1"",""4935""
","
","","null","","null","","fixation","2021-04-12 14:53:59.463","","","","","",""
"card-selection-trial","159","474935","0.0-25.0-1.44","859","false","img/card_backs/set1/yellow.gif","img/card_backs/set1/red.gif","img/card_backs/set1/green.gif","img/card_backs/set1/purple.gif","img/card_backs/set2/pink.gif","img/card_backs/set2/gray.gif","img/card_backs/set2/blue.gif","img/card_backs/set2/orange.gif","""event"",""trial"",""time""
""fullscreenenter"",""1"",""4935""
","
","
","""event"",""trial"",""time""
""fullscreenenter"",""1"",""4935""
","
","","565.2599999957602","","","","real_trial","2021-04-12 14:54:02.037","img/card_backs/set1/purple.gif","0","100","1","",""
"casino-fixation","160","475440","0.0-25.0-0.45","859","false","img/card_backs/set1/yellow.gif","img/card_backs/set1/red.gif","img/card_backs/set1/green.gif","img/card_backs/set1/purple.gif","img/card_backs/set2/pink.gif","img/card_backs/set2/gray.gif","img/card_backs/set2/blue.gif","img/card_backs/set2/orange.gif","""event"",""trial"",""time""
""fullscreenenter"",""1"",""4935""
","
","
","""event"",""trial"",""time""
""fullscreenenter"",""1"",""4935""
","
","","null","","null","","fixation","2021-04-12 14:54:02.542","","","","","",""
"card-selection-trial","161","477878","0.0-25.0-1.45","859","false","img/card_backs/set1/yellow.gif","img/card_backs/set1/red.gif","img/card_backs/set1/green.gif","img/card_backs/set1/purple.gif","img/card_backs/set2/pink.gif","img/card_backs/set2/gray.gif","img/card_backs/set2/blue.gif","img/card_backs/set2/orange.gif","""event"",""trial"",""time""
""fullscreenenter"",""1"",""4935""
","
","
","""event"",""trial"",""time""
""fullscreenenter"",""1"",""4935""
","
","","425.4349999973783","","","","real_trial","2021-04-12 14:54:04.980","img/card_backs/set1/purple.gif","3","100","1","",""
"casino-fixation","162","478383","0.0-25.0-0.46","859","false","img/card_backs/set1/yellow.gif","img/card_backs/set1/red.gif","img/card_backs/set1/green.gif","img/card_backs/set1/purple.gif","img/card_backs/set2/pink.gif","img/card_backs/set2/gray.gif","img/card_backs/set2/blue.gif","img/card_backs/set2/orange.gif","""event"",""trial"",""time""
""fullscreenenter"",""1"",""4935""
","
","
","""event"",""trial"",""time""
""fullscreenenter"",""1"",""4935""
","
","","null","","null","","fixation","2021-04-12 14:54:05.485","","","","","",""
"card-selection-trial","163","480827","0.0-25.0-1.46","859","false","img/card_backs/set1/yellow.gif","img/card_backs/set1/red.gif","img/card_backs/set1/green.gif","img/card_backs/set1/purple.gif","img/card_backs/set2/pink.gif","img/card_backs/set2/gray.gif","img/card_backs/set2/blue.gif","img/card_backs/set2/orange.gif","""event"",""trial"",""time""
""fullscreenenter"",""1"",""4935""
","
","
","""event"",""trial"",""time""
""fullscreenenter"",""1"",""4935""
","
","","434.47500000183936","","","","real_trial","2021-04-12 14:54:07.929","img/card_backs/set1/purple.gif","0","-70","1","",""
"casino-fixation","164","481332","0.0-25.0-0.47","859","false","img/card_backs/set1/yellow.gif","img/card_backs/set1/red.gif","img/card_backs/set1/green.gif","img/card_backs/set1/purple.gif","img/card_backs/set2/pink.gif","img/card_backs/set2/gray.gif","img/card_backs/set2/blue.gif","img/card_backs/set2/orange.gif","""event"",""trial"",""time""
""fullscreenenter"",""1"",""4935""
","
","
","""event"",""trial"",""time""
""fullscreenenter"",""1"",""4935""
","
","","null","","null","","fixation","2021-04-12 14:54:08.434","","","","","",""
"card-selection-trial","165","483840","0.0-25.0-1.47","859","false","img/card_backs/set1/yellow.gif","img/card_backs/set1/red.gif","img/card_backs/set1/green.gif","img/card_backs/set1/purple.gif","img/card_backs/set2/pink.gif","img/card_backs/set2/gray.gif","img/card_backs/set2/blue.gif","img/card_backs/set2/orange.gif","""event"",""trial"",""time""
""fullscreenenter"",""1"",""4935""
","
","
","""event"",""trial"",""time""
""fullscreenenter"",""1"",""4935""
","
","","498.29999999928987","","","","real_trial","2021-04-12 14:54:10.942","img/card_backs/set1/purple.gif","2","-70","1","",""
"casino-fixation","166","484345","0.0-25.0-0.48","859","false","img/card_backs/set1/yellow.gif","img/card_backs/set1/red.gif","img/card_backs/set1/green.gif","img/card_backs/set1/purple.gif","img/card_backs/set2/pink.gif","img/card_backs/set2/gray.gif","img/card_backs/set2/blue.gif","img/card_backs/set2/orange.gif","""event"",""trial"",""time""
""fullscreenenter"",""1"",""4935""
","
","
","""event"",""trial"",""time""
""fullscreenenter"",""1"",""4935""
","
","","null","","null","","fixation","2021-04-12 14:54:11.447","","","","","",""
