"trial_type","trial_index","time_elapsed","internal_node_id","sub_id","risk_good_first","block1_A","block1_B","block1_C","block1_D","block2_A","block2_B","block2_C","block2_D","interactions","blur_events","focus_events","fullscreenenter_events","fullscreenexit_events","success","rt","stimulus","key_press","button_pressed","task_part","timestamp","card_choice","choice_position","points_earned","block","correct","response"
"pavlovia","0","4","0.0-0.0","117","false","img/card_backs/set1/yellow.gif","img/card_backs/set1/red.gif","img/card_backs/set1/green.gif","img/card_backs/set1/purple.gif","img/card_backs/set2/pink.gif","img/card_backs/set2/gray.gif","img/card_backs/set2/orange.gif","img/card_backs/set2/blue.gif","""event"",""trial"",""time""
""fullscreenenter"",""1"",""2307""
","
","
","""event"",""trial"",""time""
""fullscreenenter"",""1"",""2307""
","
","","","","","","","","","","","","",""
"fullscreen","1","3295","0.0-1.0","117","false","img/card_backs/set1/yellow.gif","img/card_backs/set1/red.gif","img/card_backs/set1/green.gif","img/card_backs/set1/purple.gif","img/card_backs/set2/pink.gif","img/card_backs/set2/gray.gif","img/card_backs/set2/orange.gif","img/card_backs/set2/blue.gif","""event"",""trial"",""time""
""fullscreenenter"",""1"",""2307""
","
","
","""event"",""trial"",""time""
""fullscreenenter"",""1"",""2307""
","
","true","","","","","","","","","","","",""
"audio-keyboard-response","2","4732","0.0-2.0","117","false","img/card_backs/set1/yellow.gif","img/card_backs/set1/red.gif","img/card_backs/set1/green.gif","img/card_backs/set1/purple.gif","img/card_backs/set2/pink.gif","img/card_backs/set2/gray.gif","img/card_backs/set2/orange.gif","img/card_backs/set2/blue.gif","""event"",""trial"",""time""
""fullscreenenter"",""1"",""2307""
","
","
","""event"",""trial"",""time""
""fullscreenenter"",""1"",""2307""
","
","","1029","audio/beep_loop.wav","32","","","","","","","","",""
"audio-button-response","3","6612","0.0-3.0","117","false","img/card_backs/set1/yellow.gif","img/card_backs/set1/red.gif","img/card_backs/set1/green.gif","img/card_backs/set1/purple.gif","img/card_backs/set2/pink.gif","img/card_backs/set2/gray.gif","img/card_backs/set2/orange.gif","img/card_backs/set2/blue.gif","""event"",""trial"",""time""
""fullscreenenter"",""1"",""2307""
","
","
","""event"",""trial"",""time""
""fullscreenenter"",""1"",""2307""
","
","","NaN","audio/turtle.mp3","","3","","","","","","","",""
"audio-button-response","4","8964","0.0-4.0","117","false","img/card_backs/set1/yellow.gif","img/card_backs/set1/red.gif","img/card_backs/set1/green.gif","img/card_backs/set1/purple.gif","img/card_backs/set2/pink.gif","img/card_backs/set2/gray.gif","img/card_backs/set2/orange.gif","img/card_backs/set2/blue.gif","""event"",""trial"",""time""
""fullscreenenter"",""1"",""2307""
","
","
","""event"",""trial"",""time""
""fullscreenenter"",""1"",""2307""
","
","","NaN","audio/shark.mp3","","2","","","","","","","",""
"fullscreen","5","11973","0.0-5.0","117","false","img/card_backs/set1/yellow.gif","img/card_backs/set1/red.gif","img/card_backs/set1/green.gif","img/card_backs/set1/purple.gif","img/card_backs/set2/pink.gif","img/card_backs/set2/gray.gif","img/card_backs/set2/orange.gif","img/card_backs/set2/blue.gif","""event"",""trial"",""time""
""fullscreenenter"",""1"",""2307""
","
","
","""event"",""trial"",""time""
""fullscreenenter"",""1"",""2307""
","
","true","","","","","","","","","","","",""
"casino-keyboard-response","6","15117","0.0-6.0-0.0","117","false","img/card_backs/set1/yellow.gif","img/card_backs/set1/red.gif","img/card_backs/set1/green.gif","img/card_backs/set1/purple.gif","img/card_backs/set2/pink.gif","img/card_backs/set2/gray.gif","img/card_backs/set2/orange.gif","img/card_backs/set2/blue.gif","""event"",""trial"",""time""
""fullscreenenter"",""1"",""2307""
","
","
","""event"",""trial"",""time""
""fullscreenenter"",""1"",""2307""
","
","","3138.9000000953674","Welcome to the casino!","71","","instructions","2021-07-27 21:54:24.105","","","","","",""
"casino-keyboard-response","7","24433","0.0-6.0-0.1","117","false","img/card_backs/set1/yellow.gif","img/card_backs/set1/red.gif","img/card_backs/set1/green.gif","img/card_backs/set1/purple.gif","img/card_backs/set2/pink.gif","img/card_backs/set2/gray.gif","img/card_backs/set2/orange.gif","img/card_backs/set2/blue.gif","""event"",""trial"",""time""
""fullscreenenter"",""1"",""2307""
","
","
","""event"",""trial"",""time""
""fullscreenenter"",""1"",""2307""
","
","","9313.5","Today you will be playing a game to earn tokens. </br> At the end of the experiment, you will be paid a bonus based on how many tokens you win. ","69","","instructions","2021-07-27 21:54:33.421","","","","","",""
"casino-keyboard-response","8","31876","0.0-6.0-0.2","117","false","img/card_backs/set1/yellow.gif","img/card_backs/set1/red.gif","img/card_backs/set1/green.gif","img/card_backs/set1/purple.gif","img/card_backs/set2/pink.gif","img/card_backs/set2/gray.gif","img/card_backs/set2/orange.gif","img/card_backs/set2/blue.gif","""event"",""trial"",""time""
""fullscreenenter"",""1"",""2307""
","
","
","""event"",""trial"",""time""
""fullscreenenter"",""1"",""2307""
","
","","7441","On every turn, you will be shown four different decks of cards. </br> You need to select a card from one of the four decks.  ","75","","instructions","2021-07-27 21:54:40.864","","","","","",""
"casino-keyboard-response","9","36385","0.0-6.0-0.3","117","false","img/card_backs/set1/yellow.gif","img/card_backs/set1/red.gif","img/card_backs/set1/green.gif","img/card_backs/set1/purple.gif","img/card_backs/set2/pink.gif","img/card_backs/set2/gray.gif","img/card_backs/set2/orange.gif","img/card_backs/set2/blue.gif","""event"",""trial"",""time""
""fullscreenenter"",""1"",""2307""
","
","
","""event"",""trial"",""time""
""fullscreenenter"",""1"",""2307""
","
","","4506.899999856949","On the next screen, you will see what the decks will look like. ","66","","instructions","2021-07-27 21:54:45.373","","","","","",""
"card-selection-trial","10","40393","0.0-7.0-0.0","117","false","img/card_backs/set1/yellow.gif","img/card_backs/set1/red.gif","img/card_backs/set1/green.gif","img/card_backs/set1/purple.gif","img/card_backs/set2/pink.gif","img/card_backs/set2/gray.gif","img/card_backs/set2/orange.gif","img/card_backs/set2/blue.gif","""event"",""trial"",""time""
""fullscreenenter"",""1"",""2307""
","
","
","""event"",""trial"",""time""
""fullscreenenter"",""1"",""2307""
","
","","null","","","","practice","2021-07-27 21:54:49.381","null","null","null","0","",""
"casino-keyboard-response","11","48010","0.0-8.0-0.0","117","false","img/card_backs/set1/yellow.gif","img/card_backs/set1/red.gif","img/card_backs/set1/green.gif","img/card_backs/set1/purple.gif","img/card_backs/set2/pink.gif","img/card_backs/set2/gray.gif","img/card_backs/set2/orange.gif","img/card_backs/set2/blue.gif","""event"",""trial"",""time""
""fullscreenenter"",""1"",""2307""
","
","
","""event"",""trial"",""time""
""fullscreenenter"",""1"",""2307""
","
","","7614.100000143051","You should pick a card from a deck using the '2', '4', '6', and '8' keys at the top of the keyboard.","85","","instructions","2021-07-27 21:54:56.998","","","","","",""
"casino-keyboard-response","12","53340","0.0-8.0-0.1","117","false","img/card_backs/set1/yellow.gif","img/card_backs/set1/red.gif","img/card_backs/set1/green.gif","img/card_backs/set1/purple.gif","img/card_backs/set2/pink.gif","img/card_backs/set2/gray.gif","img/card_backs/set2/orange.gif","img/card_backs/set2/blue.gif","""event"",""trial"",""time""
""fullscreenenter"",""1"",""2307""
","
","
","""event"",""trial"",""time""
""fullscreenenter"",""1"",""2307""
","
","","5328.099999904633","Once you select a card, it will turn over and you will see how many tokens you earned.","83","","instructions","2021-07-27 21:55:02.328","","","","","",""
"casino-keyboard-response","13","58844","0.0-8.0-0.2","117","false","img/card_backs/set1/yellow.gif","img/card_backs/set1/red.gif","img/card_backs/set1/green.gif","img/card_backs/set1/purple.gif","img/card_backs/set2/pink.gif","img/card_backs/set2/gray.gif","img/card_backs/set2/orange.gif","img/card_backs/set2/blue.gif","""event"",""trial"",""time""
""fullscreenenter"",""1"",""2307""
","
","
","""event"",""trial"",""time""
""fullscreenenter"",""1"",""2307""
","
","","5502.5","Let's try practicing that! </br> First, try to put your fingers over the '2', '4', '6', and '8' keys. </br>  You can use whatever fingers are most comfortable for you. Try to find a comfortable position now. ","50","","instructions","2021-07-27 21:55:07.832","","","","","",""
"casino-keyboard-response","14","60128","0.0-8.0-0.3","117","false","img/card_backs/set1/yellow.gif","img/card_backs/set1/red.gif","img/card_backs/set1/green.gif","img/card_backs/set1/purple.gif","img/card_backs/set2/pink.gif","img/card_backs/set2/gray.gif","img/card_backs/set2/orange.gif","img/card_backs/set2/blue.gif","""event"",""trial"",""time""
""fullscreenenter"",""1"",""2307""
","
","
","""event"",""trial"",""time""
""fullscreenenter"",""1"",""2307""
","
","","1282.3999998569489","Okay ready? </br> On the next screen, press '2' to select the left deck. ","50","","instructions","2021-07-27 21:55:09.116","","","","","",""
"card-selection-trial","15","63171","0.0-9.0-0.0","117","false","img/card_backs/set1/yellow.gif","img/card_backs/set1/red.gif","img/card_backs/set1/green.gif","img/card_backs/set1/purple.gif","img/card_backs/set2/pink.gif","img/card_backs/set2/gray.gif","img/card_backs/set2/orange.gif","img/card_backs/set2/blue.gif","""event"",""trial"",""time""
""fullscreenenter"",""1"",""2307""
","
","
","""event"",""trial"",""time""
""fullscreenenter"",""1"",""2307""
","
","","1031.3999998569489","","","","practice_card_selection","2021-07-27 21:55:12.159","img/practice_cards/backs/dark_blue.gif","0","200","","",""
"casino-keyboard-response","16","66165","0.0-10.0-0.0","117","false","img/card_backs/set1/yellow.gif","img/card_backs/set1/red.gif","img/card_backs/set1/green.gif","img/card_backs/set1/purple.gif","img/card_backs/set2/pink.gif","img/card_backs/set2/gray.gif","img/card_backs/set2/orange.gif","img/card_backs/set2/blue.gif","""event"",""trial"",""time""
""fullscreenenter"",""1"",""2307""
","
","
","""event"",""trial"",""time""
""fullscreenenter"",""1"",""2307""
","
","","2992","Great! Now on the next screen, try pressing '6' to select the third deck.","54","","instructions","2021-07-27 21:55:15.153","","","","","",""
"card-selection-trial","17","68752","0.0-11.0-0.0","117","false","img/card_backs/set1/yellow.gif","img/card_backs/set1/red.gif","img/card_backs/set1/green.gif","img/card_backs/set1/purple.gif","img/card_backs/set2/pink.gif","img/card_backs/set2/gray.gif","img/card_backs/set2/orange.gif","img/card_backs/set2/blue.gif","""event"",""trial"",""time""
""fullscreenenter"",""1"",""2307""
","
","
","""event"",""trial"",""time""
""fullscreenenter"",""1"",""2307""
","
","","579.8999998569489","","","","practice_card_selection","2021-07-27 21:55:17.740","img/practice_cards/backs/dark_green.gif","2","200","","",""
"casino-keyboard-response","18","73292","0.0-12.0-0.0","117","false","img/card_backs/set1/yellow.gif","img/card_backs/set1/red.gif","img/card_backs/set1/green.gif","img/card_backs/set1/purple.gif","img/card_backs/set2/pink.gif","img/card_backs/set2/gray.gif","img/card_backs/set2/orange.gif","img/card_backs/set2/blue.gif","""event"",""trial"",""time""
""fullscreenenter"",""1"",""2307""
","
","
","""event"",""trial"",""time""
""fullscreenenter"",""1"",""2307""
","
","","4537.799999952316","Now on the next screen, try pressing '4' to select the second deck.","52","","instructions","2021-07-27 21:55:22.280","","","","","",""
"card-selection-trial","19","75906","0.0-13.0-0.0","117","false","img/card_backs/set1/yellow.gif","img/card_backs/set1/red.gif","img/card_backs/set1/green.gif","img/card_backs/set1/purple.gif","img/card_backs/set2/pink.gif","img/card_backs/set2/gray.gif","img/card_backs/set2/orange.gif","img/card_backs/set2/blue.gif","""event"",""trial"",""time""
""fullscreenenter"",""1"",""2307""
","
","
","""event"",""trial"",""time""
""fullscreenenter"",""1"",""2307""
","
","","608.4000000953674","","","","practice_card_selection","2021-07-27 21:55:24.895","img/practice_cards/backs/dark_blue.gif","1","200","","",""
"casino-keyboard-response","20","76926","0.0-14.0-0.0","117","false","img/card_backs/set1/yellow.gif","img/card_backs/set1/red.gif","img/card_backs/set1/green.gif","img/card_backs/set1/purple.gif","img/card_backs/set2/pink.gif","img/card_backs/set2/gray.gif","img/card_backs/set2/orange.gif","img/card_backs/set2/blue.gif","""event"",""trial"",""time""
""fullscreenenter"",""1"",""2307""
","
","
","""event"",""trial"",""time""
""fullscreenenter"",""1"",""2307""
","
","","1018.2000000476837","Finally, try pressing '8' to select the deck all the way on the right.","56","","instructions","2021-07-27 21:55:25.914","","","","","",""
"card-selection-trial","21","79511","0.0-15.0-0.0","117","false","img/card_backs/set1/yellow.gif","img/card_backs/set1/red.gif","img/card_backs/set1/green.gif","img/card_backs/set1/purple.gif","img/card_backs/set2/pink.gif","img/card_backs/set2/gray.gif","img/card_backs/set2/orange.gif","img/card_backs/set2/blue.gif","""event"",""trial"",""time""
""fullscreenenter"",""1"",""2307""
","
","
","""event"",""trial"",""time""
""fullscreenenter"",""1"",""2307""
","
","","579.8000001907349","","","","practice_card_selection","2021-07-27 21:55:28.499","img/practice_cards/backs/black.gif","3","-100","","",""
"casino-keyboard-response","22","82738","0.0-16.0-0.0","117","false","img/card_backs/set1/yellow.gif","img/card_backs/set1/red.gif","img/card_backs/set1/green.gif","img/card_backs/set1/purple.gif","img/card_backs/set2/pink.gif","img/card_backs/set2/gray.gif","img/card_backs/set2/orange.gif","img/card_backs/set2/blue.gif","""event"",""trial"",""time""
""fullscreenenter"",""1"",""2307""
","
","
","""event"",""trial"",""time""
""fullscreenenter"",""1"",""2307""
","
","","3224.899999856949","Great! It seems like you are getting the hang of this.","80","","instructions","2021-07-27 21:55:31.726","","","","","",""
"casino-keyboard-response","23","90028","0.0-16.0-0.1","117","false","img/card_backs/set1/yellow.gif","img/card_backs/set1/red.gif","img/card_backs/set1/green.gif","img/card_backs/set1/purple.gif","img/card_backs/set2/pink.gif","img/card_backs/set2/gray.gif","img/card_backs/set2/orange.gif","img/card_backs/set2/blue.gif","""event"",""trial"",""time""
""fullscreenenter"",""1"",""2307""
","
","
","""event"",""trial"",""time""
""fullscreenenter"",""1"",""2307""
","
","","7287.399999856949","You may have noticed that some cards will cause you to <b> win </b> tokens while other cards will cause you to <b> lose </b>  tokens.","70","","instructions","2021-07-27 21:55:39.016","","","","","",""
"casino-keyboard-response","24","99571","0.0-16.0-0.2","117","false","img/card_backs/set1/yellow.gif","img/card_backs/set1/red.gif","img/card_backs/set1/green.gif","img/card_backs/set1/purple.gif","img/card_backs/set2/pink.gif","img/card_backs/set2/gray.gif","img/card_backs/set2/orange.gif","img/card_backs/set2/blue.gif","""event"",""trial"",""time""
""fullscreenenter"",""1"",""2307""
","
","
","""event"",""trial"",""time""
""fullscreenenter"",""1"",""2307""
","
","","9538.300000190735","Each deck has a mix of cards that will cause you to win and lose tokens. </br> However, the cards in each colored deck are different.","73","","instructions","2021-07-27 21:55:48.559","","","","","",""
"casino-keyboard-response","25","108043","0.0-16.0-0.3","117","false","img/card_backs/set1/yellow.gif","img/card_backs/set1/red.gif","img/card_backs/set1/green.gif","img/card_backs/set1/purple.gif","img/card_backs/set2/pink.gif","img/card_backs/set2/gray.gif","img/card_backs/set2/orange.gif","img/card_backs/set2/blue.gif","""event"",""trial"",""time""
""fullscreenenter"",""1"",""2307""
","
","
","""event"",""trial"",""time""
""fullscreenenter"",""1"",""2307""
","
","","8470.100000143051","Some colored decks are luckier than others. </br> If you choose the lucky decks, you will earn more tokens than if you choose the unlucky decks.","69","","instructions","2021-07-27 21:55:57.031","","","","","",""
"casino-keyboard-response","26","115223","0.0-16.0-0.4","117","false","img/card_backs/set1/yellow.gif","img/card_backs/set1/red.gif","img/card_backs/set1/green.gif","img/card_backs/set1/purple.gif","img/card_backs/set2/pink.gif","img/card_backs/set2/gray.gif","img/card_backs/set2/orange.gif","img/card_backs/set2/blue.gif","""event"",""trial"",""time""
""fullscreenenter"",""1"",""2307""
","
","
","""event"",""trial"",""time""
""fullscreenenter"",""1"",""2307""
","
","","7179.399999856949","You should try to figure out which decks are lucky. </br> Then, try to choose the lucky decks so you can win the most tokens.","87","","instructions","2021-07-27 21:56:04.212","","","","","",""
"casino-keyboard-response","27","126659","0.0-16.0-0.5","117","false","img/card_backs/set1/yellow.gif","img/card_backs/set1/red.gif","img/card_backs/set1/green.gif","img/card_backs/set1/purple.gif","img/card_backs/set2/pink.gif","img/card_backs/set2/gray.gif","img/card_backs/set2/orange.gif","img/card_backs/set2/blue.gif","""event"",""trial"",""time""
""fullscreenenter"",""1"",""2307""
","
","
","""event"",""trial"",""time""
""fullscreenenter"",""1"",""2307""
","
","","11433.599999904633","To make it trickier, the casino dealer will switch the locations of the decks on every turn. </br> The color of the deck determines how lucky it is. The location does not matter.","88","","instructions","2021-07-27 21:56:15.648","","","","","",""
"casino-keyboard-response","28","135938","0.0-16.0-0.6","117","false","img/card_backs/set1/yellow.gif","img/card_backs/set1/red.gif","img/card_backs/set1/green.gif","img/card_backs/set1/purple.gif","img/card_backs/set2/pink.gif","img/card_backs/set2/gray.gif","img/card_backs/set2/orange.gif","img/card_backs/set2/blue.gif","""event"",""trial"",""time""
""fullscreenenter"",""1"",""2307""
","
","
","""event"",""trial"",""time""
""fullscreenenter"",""1"",""2307""
","
","","9276.299999952316","The mix of cards in each colored deck will stay the same throughout the game. </br> That means that a deck that is lucky early on will stay lucky.","79","","instructions","2021-07-27 21:56:24.926","","","","","",""
"casino-keyboard-response","29","144569","0.0-16.0-0.7","117","false","img/card_backs/set1/yellow.gif","img/card_backs/set1/red.gif","img/card_backs/set1/green.gif","img/card_backs/set1/purple.gif","img/card_backs/set2/pink.gif","img/card_backs/set2/gray.gif","img/card_backs/set2/orange.gif","img/card_backs/set2/blue.gif","""event"",""trial"",""time""
""fullscreenenter"",""1"",""2307""
","
","
","""event"",""trial"",""time""
""fullscreenenter"",""1"",""2307""
","
","","8628.799999952316","Remember though, all the decks have a <b> mix </b> of both <b> good </b> and <b> bad </b> cards so it may take a couple of turns to figure out if a deck is lucky.","69","","instructions","2021-07-27 21:56:33.557","","","","","",""
"casino-keyboard-response","30","152605","0.0-16.0-0.8","117","false","img/card_backs/set1/yellow.gif","img/card_backs/set1/red.gif","img/card_backs/set1/green.gif","img/card_backs/set1/purple.gif","img/card_backs/set2/pink.gif","img/card_backs/set2/gray.gif","img/card_backs/set2/orange.gif","img/card_backs/set2/blue.gif","""event"",""trial"",""time""
""fullscreenenter"",""1"",""2307""
","
","
","""event"",""trial"",""time""
""fullscreenenter"",""1"",""2307""
","
","","8033.700000047684","At the end of the game, you will be paid bonus money based on how many tokens you win. </br> If you win more tokens, you will earn more money!","72","","instructions","2021-07-27 21:56:41.593","","","","","",""
"casino-keyboard-response","31","163008","0.0-16.0-0.9","117","false","img/card_backs/set1/yellow.gif","img/card_backs/set1/red.gif","img/card_backs/set1/green.gif","img/card_backs/set1/purple.gif","img/card_backs/set2/pink.gif","img/card_backs/set2/gray.gif","img/card_backs/set2/orange.gif","img/card_backs/set2/blue.gif","""event"",""trial"",""time""
""fullscreenenter"",""1"",""2307""
","
","
","""event"",""trial"",""time""
""fullscreenenter"",""1"",""2307""
","
","","10401.5","You will never <b> lose </b> money. </br> If you end up with fewer than 0 tokens, you will earn $0 of bonus money, but you will still be paid for playing the game.","83","","instructions","2021-07-27 21:56:51.996","","","","","",""
"casino-keyboard-response","32","166817","0.0-16.0-0.10","117","false","img/card_backs/set1/yellow.gif","img/card_backs/set1/red.gif","img/card_backs/set1/green.gif","img/card_backs/set1/purple.gif","img/card_backs/set2/pink.gif","img/card_backs/set2/gray.gif","img/card_backs/set2/orange.gif","img/card_backs/set2/blue.gif","""event"",""trial"",""time""
""fullscreenenter"",""1"",""2307""
","
","
","""event"",""trial"",""time""
""fullscreenenter"",""1"",""2307""
","
","","3807.5","You will have 10 seconds to make each choice.","82","","instructions","2021-07-27 21:56:55.805","","","","","",""
"casino-keyboard-response","33","175035","0.0-16.0-0.11","117","false","img/card_backs/set1/yellow.gif","img/card_backs/set1/red.gif","img/card_backs/set1/green.gif","img/card_backs/set1/purple.gif","img/card_backs/set2/pink.gif","img/card_backs/set2/gray.gif","img/card_backs/set2/orange.gif","img/card_backs/set2/blue.gif","""event"",""trial"",""time""
""fullscreenenter"",""1"",""2307""
","
","
","""event"",""trial"",""time""
""fullscreenenter"",""1"",""2307""
","
","","8215.399999856949","Before you play the game for real, you will play with practice decks. </br> The tokens you earn during practice won't count toward your total.","86","","instructions","2021-07-27 21:57:04.023","","","","","",""
"casino-keyboard-response","34","178144","0.0-16.0-0.12","117","false","img/card_backs/set1/yellow.gif","img/card_backs/set1/red.gif","img/card_backs/set1/green.gif","img/card_backs/set1/purple.gif","img/card_backs/set2/pink.gif","img/card_backs/set2/gray.gif","img/card_backs/set2/orange.gif","img/card_backs/set2/blue.gif","""event"",""trial"",""time""
""fullscreenenter"",""1"",""2307""
","
","
","""event"",""trial"",""time""
""fullscreenenter"",""1"",""2307""
","
","","3107","Ready? Remember, use the '2', '4', '6', and '8' keys to select the decks. </br> Put your fingers on those keys now and then press '2' to begin.","50","","instructions","2021-07-27 21:57:07.132","","","","","",""
"casino-fixation","35","178647","0.0-17.0-0.0","117","false","img/card_backs/set1/yellow.gif","img/card_backs/set1/red.gif","img/card_backs/set1/green.gif","img/card_backs/set1/purple.gif","img/card_backs/set2/pink.gif","img/card_backs/set2/gray.gif","img/card_backs/set2/orange.gif","img/card_backs/set2/blue.gif","""event"",""trial"",""time""
""fullscreenenter"",""1"",""2307""
","
","
","""event"",""trial"",""time""
""fullscreenenter"",""1"",""2307""
","
","","null","","null","","fixation","2021-07-27 21:57:07.635","","","","","",""
"card-selection-trial","36","181700","0.0-17.0-1.0","117","false","img/card_backs/set1/yellow.gif","img/card_backs/set1/red.gif","img/card_backs/set1/green.gif","img/card_backs/set1/purple.gif","img/card_backs/set2/pink.gif","img/card_backs/set2/gray.gif","img/card_backs/set2/orange.gif","img/card_backs/set2/blue.gif","""event"",""trial"",""time""
""fullscreenenter"",""1"",""2307""
","
","
","""event"",""trial"",""time""
""fullscreenenter"",""1"",""2307""
","
","","1042","","","","practice","2021-07-27 21:57:10.688","img/practice_cards/backs/dark_blue.gif","0","-200","0","",""
"casino-fixation","37","182203","0.0-17.0-0.1","117","false","img/card_backs/set1/yellow.gif","img/card_backs/set1/red.gif","img/card_backs/set1/green.gif","img/card_backs/set1/purple.gif","img/card_backs/set2/pink.gif","img/card_backs/set2/gray.gif","img/card_backs/set2/orange.gif","img/card_backs/set2/blue.gif","""event"",""trial"",""time""
""fullscreenenter"",""1"",""2307""
","
","
","""event"",""trial"",""time""
""fullscreenenter"",""1"",""2307""
","
","","null","","null","","fixation","2021-07-27 21:57:11.191","","","","","",""
"card-selection-trial","38","184779","0.0-17.0-1.1","117","false","img/card_backs/set1/yellow.gif","img/card_backs/set1/red.gif","img/card_backs/set1/green.gif","img/card_backs/set1/purple.gif","img/card_backs/set2/pink.gif","img/card_backs/set2/gray.gif","img/card_backs/set2/orange.gif","img/card_backs/set2/blue.gif","""event"",""trial"",""time""
""fullscreenenter"",""1"",""2307""
","
","
","""event"",""trial"",""time""
""fullscreenenter"",""1"",""2307""
","
","","565.7000000476837","","","","practice","2021-07-27 21:57:13.767","img/practice_cards/backs/dark_blue.gif","0","200","0","",""
"casino-fixation","39","185280","0.0-17.0-0.2","117","false","img/card_backs/set1/yellow.gif","img/card_backs/set1/red.gif","img/card_backs/set1/green.gif","img/card_backs/set1/purple.gif","img/card_backs/set2/pink.gif","img/card_backs/set2/gray.gif","img/card_backs/set2/orange.gif","img/card_backs/set2/blue.gif","""event"",""trial"",""time""
""fullscreenenter"",""1"",""2307""
","
","
","""event"",""trial"",""time""
""fullscreenenter"",""1"",""2307""
","
","","null","","null","","fixation","2021-07-27 21:57:14.268","","","","","",""
"card-selection-trial","40","187857","0.0-17.0-1.2","117","false","img/card_backs/set1/yellow.gif","img/card_backs/set1/red.gif","img/card_backs/set1/green.gif","img/card_backs/set1/purple.gif","img/card_backs/set2/pink.gif","img/card_backs/set2/gray.gif","img/card_backs/set2/orange.gif","img/card_backs/set2/blue.gif","""event"",""trial"",""time""
""fullscreenenter"",""1"",""2307""
","
","
","""event"",""trial"",""time""
""fullscreenenter"",""1"",""2307""
","
","","564.4000000953674","","","","practice","2021-07-27 21:57:16.845","img/practice_cards/backs/dark_blue.gif","0","200","0","",""
"casino-fixation","41","188363","0.0-17.0-0.3","117","false","img/card_backs/set1/yellow.gif","img/card_backs/set1/red.gif","img/card_backs/set1/green.gif","img/card_backs/set1/purple.gif","img/card_backs/set2/pink.gif","img/card_backs/set2/gray.gif","img/card_backs/set2/orange.gif","img/card_backs/set2/blue.gif","""event"",""trial"",""time""
""fullscreenenter"",""1"",""2307""
","
","
","""event"",""trial"",""time""
""fullscreenenter"",""1"",""2307""
","
","","null","","null","","fixation","2021-07-27 21:57:17.351","","","","","",""
"card-selection-trial","42","191403","0.0-17.0-1.3","117","false","img/card_backs/set1/yellow.gif","img/card_backs/set1/red.gif","img/card_backs/set1/green.gif","img/card_backs/set1/purple.gif","img/card_backs/set2/pink.gif","img/card_backs/set2/gray.gif","img/card_backs/set2/orange.gif","img/card_backs/set2/blue.gif","""event"",""trial"",""time""
""fullscreenenter"",""1"",""2307""
","
","
","""event"",""trial"",""time""
""fullscreenenter"",""1"",""2307""
","
","","1032.3000001907349","","","","practice","2021-07-27 21:57:20.391","img/practice_cards/backs/dark_blue.gif","1","-200","0","",""
"casino-fixation","43","191910","0.0-17.0-0.4","117","false","img/card_backs/set1/yellow.gif","img/card_backs/set1/red.gif","img/card_backs/set1/green.gif","img/card_backs/set1/purple.gif","img/card_backs/set2/pink.gif","img/card_backs/set2/gray.gif","img/card_backs/set2/orange.gif","img/card_backs/set2/blue.gif","""event"",""trial"",""time""
""fullscreenenter"",""1"",""2307""
","
","
","""event"",""trial"",""time""
""fullscreenenter"",""1"",""2307""
","
","","null","","null","","fixation","2021-07-27 21:57:20.898","","","","","",""
"card-selection-trial","44","194331","0.0-17.0-1.4","117","false","img/card_backs/set1/yellow.gif","img/card_backs/set1/red.gif","img/card_backs/set1/green.gif","img/card_backs/set1/purple.gif","img/card_backs/set2/pink.gif","img/card_backs/set2/gray.gif","img/card_backs/set2/orange.gif","img/card_backs/set2/blue.gif","""event"",""trial"",""time""
""fullscreenenter"",""1"",""2307""
","
","
","""event"",""trial"",""time""
""fullscreenenter"",""1"",""2307""
","
","","414.10000014305115","","","","practice","2021-07-27 21:57:23.319","img/practice_cards/backs/dark_green.gif","0","-200","0","",""
"casino-fixation","45","194833","0.0-17.0-0.5","117","false","img/card_backs/set1/yellow.gif","img/card_backs/set1/red.gif","img/card_backs/set1/green.gif","img/card_backs/set1/purple.gif","img/card_backs/set2/pink.gif","img/card_backs/set2/gray.gif","img/card_backs/set2/orange.gif","img/card_backs/set2/blue.gif","""event"",""trial"",""time""
""fullscreenenter"",""1"",""2307""
","
","
","""event"",""trial"",""time""
""fullscreenenter"",""1"",""2307""
","
","","null","","null","","fixation","2021-07-27 21:57:23.821","","","","","",""
"card-selection-trial","46","197147","0.0-17.0-1.5","117","false","img/card_backs/set1/yellow.gif","img/card_backs/set1/red.gif","img/card_backs/set1/green.gif","img/card_backs/set1/purple.gif","img/card_backs/set2/pink.gif","img/card_backs/set2/gray.gif","img/card_backs/set2/orange.gif","img/card_backs/set2/blue.gif","""event"",""trial"",""time""
""fullscreenenter"",""1"",""2307""
","
","
","""event"",""trial"",""time""
""fullscreenenter"",""1"",""2307""
","
","","306.2000000476837","","","","practice","2021-07-27 21:57:26.136","img/practice_cards/backs/dark_blue.gif","0","200","0","",""
"casino-fixation","47","197651","0.0-17.0-0.6","117","false","img/card_backs/set1/yellow.gif","img/card_backs/set1/red.gif","img/card_backs/set1/green.gif","img/card_backs/set1/purple.gif","img/card_backs/set2/pink.gif","img/card_backs/set2/gray.gif","img/card_backs/set2/orange.gif","img/card_backs/set2/blue.gif","""event"",""trial"",""time""
""fullscreenenter"",""1"",""2307""
","
","
","""event"",""trial"",""time""
""fullscreenenter"",""1"",""2307""
","
","","null","","null","","fixation","2021-07-27 21:57:26.640","","","","","",""
"card-selection-trial","48","200877","0.0-17.0-1.6","117","false","img/card_backs/set1/yellow.gif","img/card_backs/set1/red.gif","img/card_backs/set1/green.gif","img/card_backs/set1/purple.gif","img/card_backs/set2/pink.gif","img/card_backs/set2/gray.gif","img/card_backs/set2/orange.gif","img/card_backs/set2/blue.gif","""event"",""trial"",""time""
""fullscreenenter"",""1"",""2307""
","
","
","""event"",""trial"",""time""
""fullscreenenter"",""1"",""2307""
","
","","1213.1000001430511","","","","practice","2021-07-27 21:57:29.865","img/practice_cards/backs/dark_green.gif","2","-200","0","",""
"casino-fixation","49","201382","0.0-17.0-0.7","117","false","img/card_backs/set1/yellow.gif","img/card_backs/set1/red.gif","img/card_backs/set1/green.gif","img/card_backs/set1/purple.gif","img/card_backs/set2/pink.gif","img/card_backs/set2/gray.gif","img/card_backs/set2/orange.gif","img/card_backs/set2/blue.gif","""event"",""trial"",""time""
""fullscreenenter"",""1"",""2307""
","
","
","""event"",""trial"",""time""
""fullscreenenter"",""1"",""2307""
","
","","null","","null","","fixation","2021-07-27 21:57:30.370","","","","","",""
"card-selection-trial","50","204515","0.0-17.0-1.7","117","false","img/card_backs/set1/yellow.gif","img/card_backs/set1/red.gif","img/card_backs/set1/green.gif","img/card_backs/set1/purple.gif","img/card_backs/set2/pink.gif","img/card_backs/set2/gray.gif","img/card_backs/set2/orange.gif","img/card_backs/set2/blue.gif","""event"",""trial"",""time""
""fullscreenenter"",""1"",""2307""
","
","
","""event"",""trial"",""time""
""fullscreenenter"",""1"",""2307""
","
","","1121.5999999046326","","","","practice","2021-07-27 21:57:33.503","img/practice_cards/backs/dark_blue.gif","1","-200","0","",""
"casino-fixation","51","205019","0.0-17.0-0.8","117","false","img/card_backs/set1/yellow.gif","img/card_backs/set1/red.gif","img/card_backs/set1/green.gif","img/card_backs/set1/purple.gif","img/card_backs/set2/pink.gif","img/card_backs/set2/gray.gif","img/card_backs/set2/orange.gif","img/card_backs/set2/blue.gif","""event"",""trial"",""time""
""fullscreenenter"",""1"",""2307""
","
","
","""event"",""trial"",""time""
""fullscreenenter"",""1"",""2307""
","
","","null","","null","","fixation","2021-07-27 21:57:34.007","","","","","",""
"card-selection-trial","52","208696","0.0-17.0-1.8","117","false","img/card_backs/set1/yellow.gif","img/card_backs/set1/red.gif","img/card_backs/set1/green.gif","img/card_backs/set1/purple.gif","img/card_backs/set2/pink.gif","img/card_backs/set2/gray.gif","img/card_backs/set2/orange.gif","img/card_backs/set2/blue.gif","""event"",""trial"",""time""
""fullscreenenter"",""1"",""2307""
","
","
","""event"",""trial"",""time""
""fullscreenenter"",""1"",""2307""
","
","","1666.2999999523163","","","","practice","2021-07-27 21:57:37.684","img/practice_cards/backs/black.gif","1","-100","0","",""
"casino-fixation","53","209202","0.0-17.0-0.9","117","false","img/card_backs/set1/yellow.gif","img/card_backs/set1/red.gif","img/card_backs/set1/green.gif","img/card_backs/set1/purple.gif","img/card_backs/set2/pink.gif","img/card_backs/set2/gray.gif","img/card_backs/set2/orange.gif","img/card_backs/set2/blue.gif","""event"",""trial"",""time""
""fullscreenenter"",""1"",""2307""
","
","
","""event"",""trial"",""time""
""fullscreenenter"",""1"",""2307""
","
","","null","","null","","fixation","2021-07-27 21:57:38.190","","","","","",""
"card-selection-trial","54","211663","0.0-17.0-1.9","117","false","img/card_backs/set1/yellow.gif","img/card_backs/set1/red.gif","img/card_backs/set1/green.gif","img/card_backs/set1/purple.gif","img/card_backs/set2/pink.gif","img/card_backs/set2/gray.gif","img/card_backs/set2/orange.gif","img/card_backs/set2/blue.gif","""event"",""trial"",""time""
""fullscreenenter"",""1"",""2307""
","
","
","""event"",""trial"",""time""
""fullscreenenter"",""1"",""2307""
","
","","451.59999990463257","","","","practice","2021-07-27 21:57:40.651","img/practice_cards/backs/black.gif","1","-100","0","",""
"casino-keyboard-response","55","214310","0.0-18.0","117","false","img/card_backs/set1/yellow.gif","img/card_backs/set1/red.gif","img/card_backs/set1/green.gif","img/card_backs/set1/purple.gif","img/card_backs/set2/pink.gif","img/card_backs/set2/gray.gif","img/card_backs/set2/orange.gif","img/card_backs/set2/blue.gif","""event"",""trial"",""time""
""fullscreenenter"",""1"",""2307""
","
","
","""event"",""trial"",""time""
""fullscreenenter"",""1"",""2307""
","
","","2645.7000000476837","You earned -600 tokens during the practice round!","82","","","2021-07-27 21:57:43.299","","","","","",""
"casino-keyboard-response","56","218593","0.0-19.0-0.0","117","false","img/card_backs/set1/yellow.gif","img/card_backs/set1/red.gif","img/card_backs/set1/green.gif","img/card_backs/set1/purple.gif","img/card_backs/set2/pink.gif","img/card_backs/set2/gray.gif","img/card_backs/set2/orange.gif","img/card_backs/set2/blue.gif","""event"",""trial"",""time""
""fullscreenenter"",""1"",""2307""
","
","
","""event"",""trial"",""time""
""fullscreenenter"",""1"",""2307""
","
","","4281.200000047684","Nice job! You are almost ready to play the real game.","86","","instructions","2021-07-27 21:57:47.581","","","","","",""
"casino-keyboard-response","57","224946","0.0-19.0-0.1","117","false","img/card_backs/set1/yellow.gif","img/card_backs/set1/red.gif","img/card_backs/set1/green.gif","img/card_backs/set1/purple.gif","img/card_backs/set2/pink.gif","img/card_backs/set2/gray.gif","img/card_backs/set2/orange.gif","img/card_backs/set2/blue.gif","""event"",""trial"",""time""
""fullscreenenter"",""1"",""2307""
","
","
","""event"",""trial"",""time""
""fullscreenenter"",""1"",""2307""
","
","","6350.099999904633","You will play two rounds of the real game. In each round, you will pick 100 cards in total.","73","","instructions","2021-07-27 21:57:53.934","","","","","",""
"casino-keyboard-response","58","228960","0.0-19.0-0.2","117","false","img/card_backs/set1/yellow.gif","img/card_backs/set1/red.gif","img/card_backs/set1/green.gif","img/card_backs/set1/purple.gif","img/card_backs/set2/pink.gif","img/card_backs/set2/gray.gif","img/card_backs/set2/orange.gif","img/card_backs/set2/blue.gif","""event"",""trial"",""time""
""fullscreenenter"",""1"",""2307""
","
","
","""event"",""trial"",""time""
""fullscreenenter"",""1"",""2307""
","
","","4012.5","We are now going to ask you some questions about how the game works.","66","","instructions","2021-07-27 21:57:57.948","","","","","",""
"casino-keyboard-response","59","234891","0.0-19.0-0.3","117","false","img/card_backs/set1/yellow.gif","img/card_backs/set1/red.gif","img/card_backs/set1/green.gif","img/card_backs/set1/purple.gif","img/card_backs/set2/pink.gif","img/card_backs/set2/gray.gif","img/card_backs/set2/orange.gif","img/card_backs/set2/blue.gif","""event"",""trial"",""time""
""fullscreenenter"",""1"",""2307""
","
","
","""event"",""trial"",""time""
""fullscreenenter"",""1"",""2307""
","
","","5928.900000095367","Answer carefully. You will not be able to begin the game until you answer them correctly.","67","","instructions","2021-07-27 21:58:03.879","","","","","",""
"casino-comp_q","60","240241","0.0-20.0-0.0","117","false","img/card_backs/set1/yellow.gif","img/card_backs/set1/red.gif","img/card_backs/set1/green.gif","img/card_backs/set1/purple.gif","img/card_backs/set2/pink.gif","img/card_backs/set2/gray.gif","img/card_backs/set2/orange.gif","img/card_backs/set2/blue.gif","""event"",""trial"",""time""
""fullscreenenter"",""1"",""2307""
","
","
","""event"",""trial"",""time""
""fullscreenenter"",""1"",""2307""
","
","","5347.399999856949","True or False: All the decks have some cards that cause you to win tokens and some cards that cause you to lose tokens.","84","","","2021-07-27 21:58:09.230","","","","","",""
"casino-keyboard-response","61","242912","0.0-20.0-1.0","117","false","img/card_backs/set1/yellow.gif","img/card_backs/set1/red.gif","img/card_backs/set1/green.gif","img/card_backs/set1/purple.gif","img/card_backs/set2/pink.gif","img/card_backs/set2/gray.gif","img/card_backs/set2/orange.gif","img/card_backs/set2/blue.gif","""event"",""trial"",""time""
""fullscreenenter"",""1"",""2307""
","
","
","""event"",""trial"",""time""
""fullscreenenter"",""1"",""2307""
","
","","2668.100000143051","True is correct! All the decks have a mix of winning and losing cards.","77","","","2021-07-27 21:58:11.901","","","","","true",""
"casino-comp_q","62","245465","0.0-21.0-0.0","117","false","img/card_backs/set1/yellow.gif","img/card_backs/set1/red.gif","img/card_backs/set1/green.gif","img/card_backs/set1/purple.gif","img/card_backs/set2/pink.gif","img/card_backs/set2/gray.gif","img/card_backs/set2/orange.gif","img/card_backs/set2/blue.gif","""event"",""trial"",""time""
""fullscreenenter"",""1"",""2307""
","
","
","""event"",""trial"",""time""
""fullscreenenter"",""1"",""2307""
","
","","2550.7000000476837","True or False: You will have as much time as you want to make your response.","70","","","2021-07-27 21:58:14.453","","","","","",""
"casino-keyboard-response","63","248161","0.0-21.0-1.0","117","false","img/card_backs/set1/yellow.gif","img/card_backs/set1/red.gif","img/card_backs/set1/green.gif","img/card_backs/set1/purple.gif","img/card_backs/set2/pink.gif","img/card_backs/set2/gray.gif","img/card_backs/set2/orange.gif","img/card_backs/set2/blue.gif","""event"",""trial"",""time""
""fullscreenenter"",""1"",""2307""
","
","
","""event"",""trial"",""time""
""fullscreenenter"",""1"",""2307""
","
","","2693.4000000953674","False is correct! You will only have 10 seconds to make each choice.","75","","","2021-07-27 21:58:17.149","","","","","true",""
"casino-comp_q","64","250996","0.0-22.0-0.0","117","false","img/card_backs/set1/yellow.gif","img/card_backs/set1/red.gif","img/card_backs/set1/green.gif","img/card_backs/set1/purple.gif","img/card_backs/set2/pink.gif","img/card_backs/set2/gray.gif","img/card_backs/set2/orange.gif","img/card_backs/set2/blue.gif","""event"",""trial"",""time""
""fullscreenenter"",""1"",""2307""
","
","
","""event"",""trial"",""time""
""fullscreenenter"",""1"",""2307""
","
","","2831.7000000476837","True or False: The location of the deck determines how lucky it is.","70","","","2021-07-27 21:58:19.984","","","","","",""
"casino-keyboard-response","65","253386","0.0-22.0-1.0","117","false","img/card_backs/set1/yellow.gif","img/card_backs/set1/red.gif","img/card_backs/set1/green.gif","img/card_backs/set1/purple.gif","img/card_backs/set2/pink.gif","img/card_backs/set2/gray.gif","img/card_backs/set2/orange.gif","img/card_backs/set2/blue.gif","""event"",""trial"",""time""
""fullscreenenter"",""1"",""2307""
","
","
","""event"",""trial"",""time""
""fullscreenenter"",""1"",""2307""
","
","","2388.0999999046326","False is correct! The <i>color</i>  of the deck determines how lucky or unlucky it is.","68","","","2021-07-27 21:58:22.374","","","","","true",""
"casino-keyboard-response","66","258081","0.0-23.0-0.0","117","false","img/card_backs/set1/yellow.gif","img/card_backs/set1/red.gif","img/card_backs/set1/green.gif","img/card_backs/set1/purple.gif","img/card_backs/set2/pink.gif","img/card_backs/set2/gray.gif","img/card_backs/set2/orange.gif","img/card_backs/set2/blue.gif","""event"",""trial"",""time""
""fullscreenenter"",""1"",""2307""
","
","
","""event"",""trial"",""time""
""fullscreenenter"",""1"",""2307""
","
","","4692.300000190735","Great job! Now it's time to start the real game.","82","","instructions","2021-07-27 21:58:27.069","","","","","",""
"casino-keyboard-response","67","263005","0.0-23.0-0.1","117","false","img/card_backs/set1/yellow.gif","img/card_backs/set1/red.gif","img/card_backs/set1/green.gif","img/card_backs/set1/purple.gif","img/card_backs/set2/pink.gif","img/card_backs/set2/gray.gif","img/card_backs/set2/orange.gif","img/card_backs/set2/blue.gif","""event"",""trial"",""time""
""fullscreenenter"",""1"",""2307""
","
","
","""event"",""trial"",""time""
""fullscreenenter"",""1"",""2307""
","
","","4922.5","Before we start, we're going to head into a new room of the casino.","86","","instructions","2021-07-27 21:58:31.993","","","","","",""
"casino-keyboard-response","68","269500","0.0-24.0-0.0","117","false","img/card_backs/set1/yellow.gif","img/card_backs/set1/red.gif","img/card_backs/set1/green.gif","img/card_backs/set1/purple.gif","img/card_backs/set2/pink.gif","img/card_backs/set2/gray.gif","img/card_backs/set2/orange.gif","img/card_backs/set2/blue.gif","""event"",""trial"",""time""
""fullscreenenter"",""1"",""2307""
","
","
","""event"",""trial"",""time""
""fullscreenenter"",""1"",""2307""
","
","","6492.299999952316","Here we are! The real game will use different cards, but the rules will be the same.","71","","instructions","2021-07-27 21:58:38.488","","","","","",""
"casino-keyboard-response","69","271432","0.0-24.0-0.1","117","false","img/card_backs/set1/yellow.gif","img/card_backs/set1/red.gif","img/card_backs/set1/green.gif","img/card_backs/set1/purple.gif","img/card_backs/set2/pink.gif","img/card_backs/set2/gray.gif","img/card_backs/set2/orange.gif","img/card_backs/set2/blue.gif","""event"",""trial"",""time""
""fullscreenenter"",""1"",""2307""
","
","
","""event"",""trial"",""time""
""fullscreenenter"",""1"",""2307""
","
","","1929.7000000476837","Ready? Put your fingers over the '2', '4', 6', and '8' keys so you are ready to play the game. </br> Then press 2 to start.","50","","instructions","2021-07-27 21:58:40.420","","","","","",""
"casino-fixation","70","271933","0.0-25.0-0.0","117","false","img/card_backs/set1/yellow.gif","img/card_backs/set1/red.gif","img/card_backs/set1/green.gif","img/card_backs/set1/purple.gif","img/card_backs/set2/pink.gif","img/card_backs/set2/gray.gif","img/card_backs/set2/orange.gif","img/card_backs/set2/blue.gif","""event"",""trial"",""time""
""fullscreenenter"",""1"",""2307""
","
","
","""event"",""trial"",""time""
""fullscreenenter"",""1"",""2307""
","
","","null","","null","","fixation","2021-07-27 21:58:40.921","","","","","",""
"card-selection-trial","71","275171","0.0-25.0-1.0","117","false","img/card_backs/set1/yellow.gif","img/card_backs/set1/red.gif","img/card_backs/set1/green.gif","img/card_backs/set1/purple.gif","img/card_backs/set2/pink.gif","img/card_backs/set2/gray.gif","img/card_backs/set2/orange.gif","img/card_backs/set2/blue.gif","""event"",""trial"",""time""
""fullscreenenter"",""1"",""2307""
","
","
","""event"",""trial"",""time""
""fullscreenenter"",""1"",""2307""
","
","","1226.9000000953674","","","","real_trial","2021-07-27 21:58:44.159","img/card_backs/set1/green.gif","1","120","1","",""
"casino-fixation","72","275672","0.0-25.0-0.1","117","false","img/card_backs/set1/yellow.gif","img/card_backs/set1/red.gif","img/card_backs/set1/green.gif","img/card_backs/set1/purple.gif","img/card_backs/set2/pink.gif","img/card_backs/set2/gray.gif","img/card_backs/set2/orange.gif","img/card_backs/set2/blue.gif","""event"",""trial"",""time""
""fullscreenenter"",""1"",""2307""
","
","
","""event"",""trial"",""time""
""fullscreenenter"",""1"",""2307""
","
","","null","","null","","fixation","2021-07-27 21:58:44.660","","","","","",""
"card-selection-trial","73","278270","0.0-25.0-1.1","117","false","img/card_backs/set1/yellow.gif","img/card_backs/set1/red.gif","img/card_backs/set1/green.gif","img/card_backs/set1/purple.gif","img/card_backs/set2/pink.gif","img/card_backs/set2/gray.gif","img/card_backs/set2/orange.gif","img/card_backs/set2/blue.gif","""event"",""trial"",""time""
""fullscreenenter"",""1"",""2307""
","
","
","""event"",""trial"",""time""
""fullscreenenter"",""1"",""2307""
","
","","587.7999999523163","","","","real_trial","2021-07-27 21:58:47.258","img/card_backs/set1/green.gif","0","-50","1","",""
"casino-fixation","74","278774","0.0-25.0-0.2","117","false","img/card_backs/set1/yellow.gif","img/card_backs/set1/red.gif","img/card_backs/set1/green.gif","img/card_backs/set1/purple.gif","img/card_backs/set2/pink.gif","img/card_backs/set2/gray.gif","img/card_backs/set2/orange.gif","img/card_backs/set2/blue.gif","""event"",""trial"",""time""
""fullscreenenter"",""1"",""2307""
","
","
","""event"",""trial"",""time""
""fullscreenenter"",""1"",""2307""
","
","","null","","null","","fixation","2021-07-27 21:58:47.762","","","","","",""
"card-selection-trial","75","281779","0.0-25.0-1.2","117","false","img/card_backs/set1/yellow.gif","img/card_backs/set1/red.gif","img/card_backs/set1/green.gif","img/card_backs/set1/purple.gif","img/card_backs/set2/pink.gif","img/card_backs/set2/gray.gif","img/card_backs/set2/orange.gif","img/card_backs/set2/blue.gif","""event"",""trial"",""time""
""fullscreenenter"",""1"",""2307""
","
","
","""event"",""trial"",""time""
""fullscreenenter"",""1"",""2307""
","
","","997.5","","","","real_trial","2021-07-27 21:58:50.767","img/card_backs/set1/green.gif","3","-50","1","",""
"casino-fixation","76","282286","0.0-25.0-0.3","117","false","img/card_backs/set1/yellow.gif","img/card_backs/set1/red.gif","img/card_backs/set1/green.gif","img/card_backs/set1/purple.gif","img/card_backs/set2/pink.gif","img/card_backs/set2/gray.gif","img/card_backs/set2/orange.gif","img/card_backs/set2/blue.gif","""event"",""trial"",""time""
""fullscreenenter"",""1"",""2307""
","
","
","""event"",""trial"",""time""
""fullscreenenter"",""1"",""2307""
","
","","null","","null","","fixation","2021-07-27 21:58:51.274","","","","","",""
"card-selection-trial","77","285132","0.0-25.0-1.3","117","false","img/card_backs/set1/yellow.gif","img/card_backs/set1/red.gif","img/card_backs/set1/green.gif","img/card_backs/set1/purple.gif","img/card_backs/set2/pink.gif","img/card_backs/set2/gray.gif","img/card_backs/set2/orange.gif","img/card_backs/set2/blue.gif","""event"",""trial"",""time""
""fullscreenenter"",""1"",""2307""
","
","
","""event"",""trial"",""time""
""fullscreenenter"",""1"",""2307""
","
","","837.7000000476837","","","","real_trial","2021-07-27 21:58:54.121","img/card_backs/set1/purple.gif","2","110","1","",""
"casino-fixation","78","285638","0.0-25.0-0.4","117","false","img/card_backs/set1/yellow.gif","img/card_backs/set1/red.gif","img/card_backs/set1/green.gif","img/card_backs/set1/purple.gif","img/card_backs/set2/pink.gif","img/card_backs/set2/gray.gif","img/card_backs/set2/orange.gif","img/card_backs/set2/blue.gif","""event"",""trial"",""time""
""fullscreenenter"",""1"",""2307""
","
","
","""event"",""trial"",""time""
""fullscreenenter"",""1"",""2307""
","
","","null","","null","","fixation","2021-07-27 21:58:54.626","","","","","",""
"card-selection-trial","79","288201","0.0-25.0-1.4","117","false","img/card_backs/set1/yellow.gif","img/card_backs/set1/red.gif","img/card_backs/set1/green.gif","img/card_backs/set1/purple.gif","img/card_backs/set2/pink.gif","img/card_backs/set2/gray.gif","img/card_backs/set2/orange.gif","img/card_backs/set2/blue.gif","""event"",""trial"",""time""
""fullscreenenter"",""1"",""2307""
","
","
","""event"",""trial"",""time""
""fullscreenenter"",""1"",""2307""
","
","","554.5","","","","real_trial","2021-07-27 21:58:57.189","img/card_backs/set1/purple.gif","2","-70","1","",""
"casino-fixation","80","288702","0.0-25.0-0.5","117","false","img/card_backs/set1/yellow.gif","img/card_backs/set1/red.gif","img/card_backs/set1/green.gif","img/card_backs/set1/purple.gif","img/card_backs/set2/pink.gif","img/card_backs/set2/gray.gif","img/card_backs/set2/orange.gif","img/card_backs/set2/blue.gif","""event"",""trial"",""time""
""fullscreenenter"",""1"",""2307""
","
","
","""event"",""trial"",""time""
""fullscreenenter"",""1"",""2307""
","
","","null","","null","","fixation","2021-07-27 21:58:57.690","","","","","",""
"card-selection-trial","81","291299","0.0-25.0-1.5","117","false","img/card_backs/set1/yellow.gif","img/card_backs/set1/red.gif","img/card_backs/set1/green.gif","img/card_backs/set1/purple.gif","img/card_backs/set2/pink.gif","img/card_backs/set2/gray.gif","img/card_backs/set2/orange.gif","img/card_backs/set2/blue.gif","""event"",""trial"",""time""
""fullscreenenter"",""1"",""2307""
","
","
","""event"",""trial"",""time""
""fullscreenenter"",""1"",""2307""
","
","","588.2000000476837","","","","real_trial","2021-07-27 21:59:00.287","img/card_backs/set1/purple.gif","0","100","1","",""
"casino-fixation","82","291803","0.0-25.0-0.6","117","false","img/card_backs/set1/yellow.gif","img/card_backs/set1/red.gif","img/card_backs/set1/green.gif","img/card_backs/set1/purple.gif","img/card_backs/set2/pink.gif","img/card_backs/set2/gray.gif","img/card_backs/set2/orange.gif","img/card_backs/set2/blue.gif","""event"",""trial"",""time""
""fullscreenenter"",""1"",""2307""
","
","
","""event"",""trial"",""time""
""fullscreenenter"",""1"",""2307""
","
","","null","","null","","fixation","2021-07-27 21:59:00.791","","","","","",""
"card-selection-trial","83","294297","0.0-25.0-1.6","117","false","img/card_backs/set1/yellow.gif","img/card_backs/set1/red.gif","img/card_backs/set1/green.gif","img/card_backs/set1/purple.gif","img/card_backs/set2/pink.gif","img/card_backs/set2/gray.gif","img/card_backs/set2/orange.gif","img/card_backs/set2/blue.gif","""event"",""trial"",""time""
""fullscreenenter"",""1"",""2307""
","
","
","""event"",""trial"",""time""
""fullscreenenter"",""1"",""2307""
","
","","483","","","","real_trial","2021-07-27 21:59:03.285","img/card_backs/set1/purple.gif","3","110","1","",""
"casino-fixation","84","294802","0.0-25.0-0.7","117","false","img/card_backs/set1/yellow.gif","img/card_backs/set1/red.gif","img/card_backs/set1/green.gif","img/card_backs/set1/purple.gif","img/card_backs/set2/pink.gif","img/card_backs/set2/gray.gif","img/card_backs/set2/orange.gif","img/card_backs/set2/blue.gif","""event"",""trial"",""time""
""fullscreenenter"",""1"",""2307""
","
","
","""event"",""trial"",""time""
""fullscreenenter"",""1"",""2307""
","
","","null","","null","","fixation","2021-07-27 21:59:03.790","","","","","",""
"card-selection-trial","85","297278","0.0-25.0-1.7","117","false","img/card_backs/set1/yellow.gif","img/card_backs/set1/red.gif","img/card_backs/set1/green.gif","img/card_backs/set1/purple.gif","img/card_backs/set2/pink.gif","img/card_backs/set2/gray.gif","img/card_backs/set2/orange.gif","img/card_backs/set2/blue.gif","""event"",""trial"",""time""
""fullscreenenter"",""1"",""2307""
","
","
","""event"",""trial"",""time""
""fullscreenenter"",""1"",""2307""
","
","","466.7000000476837","","","","real_trial","2021-07-27 21:59:06.266","img/card_backs/set1/purple.gif","0","-60","1","",""
"casino-fixation","86","297783","0.0-25.0-0.8","117","false","img/card_backs/set1/yellow.gif","img/card_backs/set1/red.gif","img/card_backs/set1/green.gif","img/card_backs/set1/purple.gif","img/card_backs/set2/pink.gif","img/card_backs/set2/gray.gif","img/card_backs/set2/orange.gif","img/card_backs/set2/blue.gif","""event"",""trial"",""time""
""fullscreenenter"",""1"",""2307""
","
","
","""event"",""trial"",""time""
""fullscreenenter"",""1"",""2307""
","
","","null","","null","","fixation","2021-07-27 21:59:06.771","","","","","",""
"card-selection-trial","87","301396","0.0-25.0-1.8","117","false","img/card_backs/set1/yellow.gif","img/card_backs/set1/red.gif","img/card_backs/set1/green.gif","img/card_backs/set1/purple.gif","img/card_backs/set2/pink.gif","img/card_backs/set2/gray.gif","img/card_backs/set2/orange.gif","img/card_backs/set2/blue.gif","""event"",""trial"",""time""
""fullscreenenter"",""1"",""2307""
","
","
","""event"",""trial"",""time""
""fullscreenenter"",""1"",""2307""
","
","","1603.5","","","","real_trial","2021-07-27 21:59:10.384","img/card_backs/set1/red.gif","0","-230","1","",""
"casino-fixation","88","301899","0.0-25.0-0.9","117","false","img/card_backs/set1/yellow.gif","img/card_backs/set1/red.gif","img/card_backs/set1/green.gif","img/card_backs/set1/purple.gif","img/card_backs/set2/pink.gif","img/card_backs/set2/gray.gif","img/card_backs/set2/orange.gif","img/card_backs/set2/blue.gif","""event"",""trial"",""time""
""fullscreenenter"",""1"",""2307""
","
","
","""event"",""trial"",""time""
""fullscreenenter"",""1"",""2307""
","
","","null","","null","","fixation","2021-07-27 21:59:10.887","","","","","",""
"card-selection-trial","89","304783","0.0-25.0-1.9","117","false","img/card_backs/set1/yellow.gif","img/card_backs/set1/red.gif","img/card_backs/set1/green.gif","img/card_backs/set1/purple.gif","img/card_backs/set2/pink.gif","img/card_backs/set2/gray.gif","img/card_backs/set2/orange.gif","img/card_backs/set2/blue.gif","""event"",""trial"",""time""
""fullscreenenter"",""1"",""2307""
","
","
","""event"",""trial"",""time""
""fullscreenenter"",""1"",""2307""
","
","","879","","","","real_trial","2021-07-27 21:59:13.771","img/card_backs/set1/purple.gif","0","-60","1","",""
"casino-fixation","90","305285","0.0-25.0-0.10","117","false","img/card_backs/set1/yellow.gif","img/card_backs/set1/red.gif","img/card_backs/set1/green.gif","img/card_backs/set1/purple.gif","img/card_backs/set2/pink.gif","img/card_backs/set2/gray.gif","img/card_backs/set2/orange.gif","img/card_backs/set2/blue.gif","""event"",""trial"",""time""
""fullscreenenter"",""1"",""2307""
","
","
","""event"",""trial"",""time""
""fullscreenenter"",""1"",""2307""
","
","","null","","null","","fixation","2021-07-27 21:59:14.273","","","","","",""
"card-selection-trial","91","308138","0.0-25.0-1.10","117","false","img/card_backs/set1/yellow.gif","img/card_backs/set1/red.gif","img/card_backs/set1/green.gif","img/card_backs/set1/purple.gif","img/card_backs/set2/pink.gif","img/card_backs/set2/gray.gif","img/card_backs/set2/orange.gif","img/card_backs/set2/blue.gif","""event"",""trial"",""time""
""fullscreenenter"",""1"",""2307""
","
","
","""event"",""trial"",""time""
""fullscreenenter"",""1"",""2307""
","
","","845.7000000476837","","","","real_trial","2021-07-27 21:59:17.126","img/card_backs/set1/yellow.gif","2","-250","1","",""
"casino-fixation","92","308644","0.0-25.0-0.11","117","false","img/card_backs/set1/yellow.gif","img/card_backs/set1/red.gif","img/card_backs/set1/green.gif","img/card_backs/set1/purple.gif","img/card_backs/set2/pink.gif","img/card_backs/set2/gray.gif","img/card_backs/set2/orange.gif","img/card_backs/set2/blue.gif","""event"",""trial"",""time""
""fullscreenenter"",""1"",""2307""
","
","
","""event"",""trial"",""time""
""fullscreenenter"",""1"",""2307""
","
","","null","","null","","fixation","2021-07-27 21:59:17.632","","","","","",""
"card-selection-trial","93","311156","0.0-25.0-1.11","117","false","img/card_backs/set1/yellow.gif","img/card_backs/set1/red.gif","img/card_backs/set1/green.gif","img/card_backs/set1/purple.gif","img/card_backs/set2/pink.gif","img/card_backs/set2/gray.gif","img/card_backs/set2/orange.gif","img/card_backs/set2/blue.gif","""event"",""trial"",""time""
""fullscreenenter"",""1"",""2307""
","
","
","""event"",""trial"",""time""
""fullscreenenter"",""1"",""2307""
","
","","503.2000000476837","","","","real_trial","2021-07-27 21:59:20.144","img/card_backs/set1/green.gif","0","110","1","",""
"casino-fixation","94","311658","0.0-25.0-0.12","117","false","img/card_backs/set1/yellow.gif","img/card_backs/set1/red.gif","img/card_backs/set1/green.gif","img/card_backs/set1/purple.gif","img/card_backs/set2/pink.gif","img/card_backs/set2/gray.gif","img/card_backs/set2/orange.gif","img/card_backs/set2/blue.gif","""event"",""trial"",""time""
""fullscreenenter"",""1"",""2307""
","
","
","""event"",""trial"",""time""
""fullscreenenter"",""1"",""2307""
","
","","null","","null","","fixation","2021-07-27 21:59:20.646","","","","","",""
"card-selection-trial","95","314148","0.0-25.0-1.12","117","false","img/card_backs/set1/yellow.gif","img/card_backs/set1/red.gif","img/card_backs/set1/green.gif","img/card_backs/set1/purple.gif","img/card_backs/set2/pink.gif","img/card_backs/set2/gray.gif","img/card_backs/set2/orange.gif","img/card_backs/set2/blue.gif","""event"",""trial"",""time""
""fullscreenenter"",""1"",""2307""
","
","
","""event"",""trial"",""time""
""fullscreenenter"",""1"",""2307""
","
","","483.90000009536743","","","","real_trial","2021-07-27 21:59:23.136","img/card_backs/set1/green.gif","3","110","1","",""
"casino-fixation","96","314650","0.0-25.0-0.13","117","false","img/card_backs/set1/yellow.gif","img/card_backs/set1/red.gif","img/card_backs/set1/green.gif","img/card_backs/set1/purple.gif","img/card_backs/set2/pink.gif","img/card_backs/set2/gray.gif","img/card_backs/set2/orange.gif","img/card_backs/set2/blue.gif","""event"",""trial"",""time""
""fullscreenenter"",""1"",""2307""
","
","
","""event"",""trial"",""time""
""fullscreenenter"",""1"",""2307""
","
","","null","","null","","fixation","2021-07-27 21:59:23.638","","","","","",""
"card-selection-trial","97","317104","0.0-25.0-1.13","117","false","img/card_backs/set1/yellow.gif","img/card_backs/set1/red.gif","img/card_backs/set1/green.gif","img/card_backs/set1/purple.gif","img/card_backs/set2/pink.gif","img/card_backs/set2/gray.gif","img/card_backs/set2/orange.gif","img/card_backs/set2/blue.gif","""event"",""trial"",""time""
""fullscreenenter"",""1"",""2307""
","
","
","""event"",""trial"",""time""
""fullscreenenter"",""1"",""2307""
","
","","444.7000000476837","","","","real_trial","2021-07-27 21:59:26.092","img/card_backs/set1/green.gif","3","-70","1","",""
"casino-fixation","98","317610","0.0-25.0-0.14","117","false","img/card_backs/set1/yellow.gif","img/card_backs/set1/red.gif","img/card_backs/set1/green.gif","img/card_backs/set1/purple.gif","img/card_backs/set2/pink.gif","img/card_backs/set2/gray.gif","img/card_backs/set2/orange.gif","img/card_backs/set2/blue.gif","""event"",""trial"",""time""
""fullscreenenter"",""1"",""2307""
","
","
","""event"",""trial"",""time""
""fullscreenenter"",""1"",""2307""
","
","","null","","null","","fixation","2021-07-27 21:59:26.598","","","","","",""
"card-selection-trial","99","320064","0.0-25.0-1.14","117","false","img/card_backs/set1/yellow.gif","img/card_backs/set1/red.gif","img/card_backs/set1/green.gif","img/card_backs/set1/purple.gif","img/card_backs/set2/pink.gif","img/card_backs/set2/gray.gif","img/card_backs/set2/orange.gif","img/card_backs/set2/blue.gif","""event"",""trial"",""time""
""fullscreenenter"",""1"",""2307""
","
","
","""event"",""trial"",""time""
""fullscreenenter"",""1"",""2307""
","
","","445","","","","real_trial","2021-07-27 21:59:29.052","img/card_backs/set1/green.gif","0","120","1","",""
"casino-fixation","100","320565","0.0-25.0-0.15","117","false","img/card_backs/set1/yellow.gif","img/card_backs/set1/red.gif","img/card_backs/set1/green.gif","img/card_backs/set1/purple.gif","img/card_backs/set2/pink.gif","img/card_backs/set2/gray.gif","img/card_backs/set2/orange.gif","img/card_backs/set2/blue.gif","""event"",""trial"",""time""
""fullscreenenter"",""1"",""2307""
","
","
","""event"",""trial"",""time""
""fullscreenenter"",""1"",""2307""
","
","","null","","null","","fixation","2021-07-27 21:59:29.553","","","","","",""
"card-selection-trial","101","323168","0.0-25.0-1.15","117","false","img/card_backs/set1/yellow.gif","img/card_backs/set1/red.gif","img/card_backs/set1/green.gif","img/card_backs/set1/purple.gif","img/card_backs/set2/pink.gif","img/card_backs/set2/gray.gif","img/card_backs/set2/orange.gif","img/card_backs/set2/blue.gif","""event"",""trial"",""time""
""fullscreenenter"",""1"",""2307""
","
","
","""event"",""trial"",""time""
""fullscreenenter"",""1"",""2307""
","
","","595.8999998569489","","","","real_trial","2021-07-27 21:59:32.156","img/card_backs/set1/green.gif","3","100","1","",""
"casino-fixation","102","323673","0.0-25.0-0.16","117","false","img/card_backs/set1/yellow.gif","img/card_backs/set1/red.gif","img/card_backs/set1/green.gif","img/card_backs/set1/purple.gif","img/card_backs/set2/pink.gif","img/card_backs/set2/gray.gif","img/card_backs/set2/orange.gif","img/card_backs/set2/blue.gif","""event"",""trial"",""time""
""fullscreenenter"",""1"",""2307""
","
","
","""event"",""trial"",""time""
""fullscreenenter"",""1"",""2307""
","
","","null","","null","","fixation","2021-07-27 21:59:32.661","","","","","",""
"card-selection-trial","103","327027","0.0-25.0-1.16","117","false","img/card_backs/set1/yellow.gif","img/card_backs/set1/red.gif","img/card_backs/set1/green.gif","img/card_backs/set1/purple.gif","img/card_backs/set2/pink.gif","img/card_backs/set2/gray.gif","img/card_backs/set2/orange.gif","img/card_backs/set2/blue.gif","""event"",""trial"",""time""
""fullscreenenter"",""1"",""2307""
","
","
","""event"",""trial"",""time""
""fullscreenenter"",""1"",""2307""
","
","","1345.5999999046326","","","","real_trial","2021-07-27 21:59:36.015","img/card_backs/set1/green.gif","1","110","1","",""
"casino-fixation","104","327541","0.0-25.0-0.17","117","false","img/card_backs/set1/yellow.gif","img/card_backs/set1/red.gif","img/card_backs/set1/green.gif","img/card_backs/set1/purple.gif","img/card_backs/set2/pink.gif","img/card_backs/set2/gray.gif","img/card_backs/set2/orange.gif","img/card_backs/set2/blue.gif","""event"",""trial"",""time""
""fullscreenenter"",""1"",""2307""
","
","
","""event"",""trial"",""time""
""fullscreenenter"",""1"",""2307""
","
","","null","","null","","fixation","2021-07-27 21:59:36.529","","","","","",""
"card-selection-trial","105","329952","0.0-25.0-1.17","117","false","img/card_backs/set1/yellow.gif","img/card_backs/set1/red.gif","img/card_backs/set1/green.gif","img/card_backs/set1/purple.gif","img/card_backs/set2/pink.gif","img/card_backs/set2/gray.gif","img/card_backs/set2/orange.gif","img/card_backs/set2/blue.gif","""event"",""trial"",""time""
""fullscreenenter"",""1"",""2307""
","
","
","""event"",""trial"",""time""
""fullscreenenter"",""1"",""2307""
","
","","402.40000009536743","","","","real_trial","2021-07-27 21:59:38.940","img/card_backs/set1/green.gif","3","110","1","",""
"casino-fixation","106","330454","0.0-25.0-0.18","117","false","img/card_backs/set1/yellow.gif","img/card_backs/set1/red.gif","img/card_backs/set1/green.gif","img/card_backs/set1/purple.gif","img/card_backs/set2/pink.gif","img/card_backs/set2/gray.gif","img/card_backs/set2/orange.gif","img/card_backs/set2/blue.gif","""event"",""trial"",""time""
""fullscreenenter"",""1"",""2307""
","
","
","""event"",""trial"",""time""
""fullscreenenter"",""1"",""2307""
","
","","null","","null","","fixation","2021-07-27 21:59:39.442","","","","","",""
"card-selection-trial","107","332834","0.0-25.0-1.18","117","false","img/card_backs/set1/yellow.gif","img/card_backs/set1/red.gif","img/card_backs/set1/green.gif","img/card_backs/set1/purple.gif","img/card_backs/set2/pink.gif","img/card_backs/set2/gray.gif","img/card_backs/set2/orange.gif","img/card_backs/set2/blue.gif","""event"",""trial"",""time""
""fullscreenenter"",""1"",""2307""
","
","
","""event"",""trial"",""time""
""fullscreenenter"",""1"",""2307""
","
","","371.59999990463257","","","","real_trial","2021-07-27 21:59:41.822","img/card_backs/set1/green.gif","1","110","1","",""
"casino-fixation","108","333339","0.0-25.0-0.19","117","false","img/card_backs/set1/yellow.gif","img/card_backs/set1/red.gif","img/card_backs/set1/green.gif","img/card_backs/set1/purple.gif","img/card_backs/set2/pink.gif","img/card_backs/set2/gray.gif","img/card_backs/set2/orange.gif","img/card_backs/set2/blue.gif","""event"",""trial"",""time""
""fullscreenenter"",""1"",""2307""
","
","
","""event"",""trial"",""time""
""fullscreenenter"",""1"",""2307""
","
","","null","","null","","fixation","2021-07-27 21:59:42.327","","","","","",""
"card-selection-trial","109","335856","0.0-25.0-1.19","117","false","img/card_backs/set1/yellow.gif","img/card_backs/set1/red.gif","img/card_backs/set1/green.gif","img/card_backs/set1/purple.gif","img/card_backs/set2/pink.gif","img/card_backs/set2/gray.gif","img/card_backs/set2/orange.gif","img/card_backs/set2/blue.gif","""event"",""trial"",""time""
""fullscreenenter"",""1"",""2307""
","
","
","""event"",""trial"",""time""
""fullscreenenter"",""1"",""2307""
","
","","506.7999999523163","","","","real_trial","2021-07-27 21:59:44.844","img/card_backs/set1/green.gif","0","120","1","",""
"casino-fixation","110","336358","0.0-25.0-0.20","117","false","img/card_backs/set1/yellow.gif","img/card_backs/set1/red.gif","img/card_backs/set1/green.gif","img/card_backs/set1/purple.gif","img/card_backs/set2/pink.gif","img/card_backs/set2/gray.gif","img/card_backs/set2/orange.gif","img/card_backs/set2/blue.gif","""event"",""trial"",""time""
""fullscreenenter"",""1"",""2307""
","
","
","""event"",""trial"",""time""
""fullscreenenter"",""1"",""2307""
","
","","null","","null","","fixation","2021-07-27 21:59:45.346","","","","","",""
"card-selection-trial","111","338770","0.0-25.0-1.20","117","false","img/card_backs/set1/yellow.gif","img/card_backs/set1/red.gif","img/card_backs/set1/green.gif","img/card_backs/set1/purple.gif","img/card_backs/set2/pink.gif","img/card_backs/set2/gray.gif","img/card_backs/set2/orange.gif","img/card_backs/set2/blue.gif","""event"",""trial"",""time""
""fullscreenenter"",""1"",""2307""
","
","
","""event"",""trial"",""time""
""fullscreenenter"",""1"",""2307""
","
","","401.30000019073486","","","","real_trial","2021-07-27 21:59:47.758","img/card_backs/set1/green.gif","0","-60","1","",""
"casino-fixation","112","339275","0.0-25.0-0.21","117","false","img/card_backs/set1/yellow.gif","img/card_backs/set1/red.gif","img/card_backs/set1/green.gif","img/card_backs/set1/purple.gif","img/card_backs/set2/pink.gif","img/card_backs/set2/gray.gif","img/card_backs/set2/orange.gif","img/card_backs/set2/blue.gif","""event"",""trial"",""time""
""fullscreenenter"",""1"",""2307""
","
","
","""event"",""trial"",""time""
""fullscreenenter"",""1"",""2307""
","
","","null","","null","","fixation","2021-07-27 21:59:48.263","","","","","",""
"card-selection-trial","113","342363","0.0-25.0-1.21","117","false","img/card_backs/set1/yellow.gif","img/card_backs/set1/red.gif","img/card_backs/set1/green.gif","img/card_backs/set1/purple.gif","img/card_backs/set2/pink.gif","img/card_backs/set2/gray.gif","img/card_backs/set2/orange.gif","img/card_backs/set2/blue.gif","""event"",""trial"",""time""
""fullscreenenter"",""1"",""2307""
","
","
","""event"",""trial"",""time""
""fullscreenenter"",""1"",""2307""
","
","","1079.5","","","","real_trial","2021-07-27 21:59:51.351","img/card_backs/set1/green.gif","2","-70","1","",""
"casino-fixation","114","342869","0.0-25.0-0.22","117","false","img/card_backs/set1/yellow.gif","img/card_backs/set1/red.gif","img/card_backs/set1/green.gif","img/card_backs/set1/purple.gif","img/card_backs/set2/pink.gif","img/card_backs/set2/gray.gif","img/card_backs/set2/orange.gif","img/card_backs/set2/blue.gif","""event"",""trial"",""time""
""fullscreenenter"",""1"",""2307""
","
","
","""event"",""trial"",""time""
""fullscreenenter"",""1"",""2307""
","
","","null","","null","","fixation","2021-07-27 21:59:51.857","","","","","",""
"card-selection-trial","115","345974","0.0-25.0-1.22","117","false","img/card_backs/set1/yellow.gif","img/card_backs/set1/red.gif","img/card_backs/set1/green.gif","img/card_backs/set1/purple.gif","img/card_backs/set2/pink.gif","img/card_backs/set2/gray.gif","img/card_backs/set2/orange.gif","img/card_backs/set2/blue.gif","""event"",""trial"",""time""
""fullscreenenter"",""1"",""2307""
","
","
","""event"",""trial"",""time""
""fullscreenenter"",""1"",""2307""
","
","","1096.5","","","","real_trial","2021-07-27 21:59:54.962","img/card_backs/set1/yellow.gif","0","190","1","",""
"casino-fixation","116","346480","0.0-25.0-0.23","117","false","img/card_backs/set1/yellow.gif","img/card_backs/set1/red.gif","img/card_backs/set1/green.gif","img/card_backs/set1/purple.gif","img/card_backs/set2/pink.gif","img/card_backs/set2/gray.gif","img/card_backs/set2/orange.gif","img/card_backs/set2/blue.gif","""event"",""trial"",""time""
""fullscreenenter"",""1"",""2307""
","
","
","""event"",""trial"",""time""
""fullscreenenter"",""1"",""2307""
","
","","null","","null","","fixation","2021-07-27 21:59:55.468","","","","","",""
"card-selection-trial","117","350001","0.0-25.0-1.23","117","false","img/card_backs/set1/yellow.gif","img/card_backs/set1/red.gif","img/card_backs/set1/green.gif","img/card_backs/set1/purple.gif","img/card_backs/set2/pink.gif","img/card_backs/set2/gray.gif","img/card_backs/set2/orange.gif","img/card_backs/set2/blue.gif","""event"",""trial"",""time""
""fullscreenenter"",""1"",""2307""
","
","
","""event"",""trial"",""time""
""fullscreenenter"",""1"",""2307""
","
","","1511","","","","real_trial","2021-07-27 21:59:58.989","img/card_backs/set1/yellow.gif","3","200","1","",""
"casino-fixation","118","350507","0.0-25.0-0.24","117","false","img/card_backs/set1/yellow.gif","img/card_backs/set1/red.gif","img/card_backs/set1/green.gif","img/card_backs/set1/purple.gif","img/card_backs/set2/pink.gif","img/card_backs/set2/gray.gif","img/card_backs/set2/orange.gif","img/card_backs/set2/blue.gif","""event"",""trial"",""time""
""fullscreenenter"",""1"",""2307""
","
","
","""event"",""trial"",""time""
""fullscreenenter"",""1"",""2307""
","
","","null","","null","","fixation","2021-07-27 21:59:59.495","","","","","",""
"card-selection-trial","119","353552","0.0-25.0-1.24","117","false","img/card_backs/set1/yellow.gif","img/card_backs/set1/red.gif","img/card_backs/set1/green.gif","img/card_backs/set1/purple.gif","img/card_backs/set2/pink.gif","img/card_backs/set2/gray.gif","img/card_backs/set2/orange.gif","img/card_backs/set2/blue.gif","""event"",""trial"",""time""
""fullscreenenter"",""1"",""2307""
","
","
","""event"",""trial"",""time""
""fullscreenenter"",""1"",""2307""
","
","","1035.9000000953674","","","","real_trial","2021-07-27 22:00:02.540","img/card_backs/set1/yellow.gif","3","-240","1","",""
"casino-fixation","120","354055","0.0-25.0-0.25","117","false","img/card_backs/set1/yellow.gif","img/card_backs/set1/red.gif","img/card_backs/set1/green.gif","img/card_backs/set1/purple.gif","img/card_backs/set2/pink.gif","img/card_backs/set2/gray.gif","img/card_backs/set2/orange.gif","img/card_backs/set2/blue.gif","""event"",""trial"",""time""
""fullscreenenter"",""1"",""2307""
","
","
","""event"",""trial"",""time""
""fullscreenenter"",""1"",""2307""
","
","","null","","null","","fixation","2021-07-27 22:00:03.043","","","","","",""
"card-selection-trial","121","356841","0.0-25.0-1.25","117","false","img/card_backs/set1/yellow.gif","img/card_backs/set1/red.gif","img/card_backs/set1/green.gif","img/card_backs/set1/purple.gif","img/card_backs/set2/pink.gif","img/card_backs/set2/gray.gif","img/card_backs/set2/orange.gif","img/card_backs/set2/blue.gif","""event"",""trial"",""time""
""fullscreenenter"",""1"",""2307""
","
","
","""event"",""trial"",""time""
""fullscreenenter"",""1"",""2307""
","
","","775.7000000476837","","","","real_trial","2021-07-27 22:00:05.829","img/card_backs/set1/green.gif","0","110","1","",""
"casino-fixation","122","357345","0.0-25.0-0.26","117","false","img/card_backs/set1/yellow.gif","img/card_backs/set1/red.gif","img/card_backs/set1/green.gif","img/card_backs/set1/purple.gif","img/card_backs/set2/pink.gif","img/card_backs/set2/gray.gif","img/card_backs/set2/orange.gif","img/card_backs/set2/blue.gif","""event"",""trial"",""time""
""fullscreenenter"",""1"",""2307""
","
","
","""event"",""trial"",""time""
""fullscreenenter"",""1"",""2307""
","
","","null","","null","","fixation","2021-07-27 22:00:06.333","","","","","",""
"card-selection-trial","123","360317","0.0-25.0-1.26","117","false","img/card_backs/set1/yellow.gif","img/card_backs/set1/red.gif","img/card_backs/set1/green.gif","img/card_backs/set1/purple.gif","img/card_backs/set2/pink.gif","img/card_backs/set2/gray.gif","img/card_backs/set2/orange.gif","img/card_backs/set2/blue.gif","""event"",""trial"",""time""
""fullscreenenter"",""1"",""2307""
","
","
","""event"",""trial"",""time""
""fullscreenenter"",""1"",""2307""
","
","","963.8999998569489","","","","real_trial","2021-07-27 22:00:09.305","img/card_backs/set1/green.gif","3","-70","1","",""
"casino-fixation","124","360822","0.0-25.0-0.27","117","false","img/card_backs/set1/yellow.gif","img/card_backs/set1/red.gif","img/card_backs/set1/green.gif","img/card_backs/set1/purple.gif","img/card_backs/set2/pink.gif","img/card_backs/set2/gray.gif","img/card_backs/set2/orange.gif","img/card_backs/set2/blue.gif","""event"",""trial"",""time""
""fullscreenenter"",""1"",""2307""
","
","
","""event"",""trial"",""time""
""fullscreenenter"",""1"",""2307""
","
","","null","","null","","fixation","2021-07-27 22:00:09.810","","","","","",""
"card-selection-trial","125","363750","0.0-25.0-1.27","117","false","img/card_backs/set1/yellow.gif","img/card_backs/set1/red.gif","img/card_backs/set1/green.gif","img/card_backs/set1/purple.gif","img/card_backs/set2/pink.gif","img/card_backs/set2/gray.gif","img/card_backs/set2/orange.gif","img/card_backs/set2/blue.gif","""event"",""trial"",""time""
""fullscreenenter"",""1"",""2307""
","
","
","""event"",""trial"",""time""
""fullscreenenter"",""1"",""2307""
","
","","918.2000000476837","","","","real_trial","2021-07-27 22:00:12.738","img/card_backs/set1/green.gif","3","110","1","",""
"casino-fixation","126","364257","0.0-25.0-0.28","117","false","img/card_backs/set1/yellow.gif","img/card_backs/set1/red.gif","img/card_backs/set1/green.gif","img/card_backs/set1/purple.gif","img/card_backs/set2/pink.gif","img/card_backs/set2/gray.gif","img/card_backs/set2/orange.gif","img/card_backs/set2/blue.gif","""event"",""trial"",""time""
""fullscreenenter"",""1"",""2307""
","
","
","""event"",""trial"",""time""
""fullscreenenter"",""1"",""2307""
","
","","null","","null","","fixation","2021-07-27 22:00:13.245","","","","","",""
"card-selection-trial","127","367238","0.0-25.0-1.28","117","false","img/card_backs/set1/yellow.gif","img/card_backs/set1/red.gif","img/card_backs/set1/green.gif","img/card_backs/set1/purple.gif","img/card_backs/set2/pink.gif","img/card_backs/set2/gray.gif","img/card_backs/set2/orange.gif","img/card_backs/set2/blue.gif","""event"",""trial"",""time""
""fullscreenenter"",""1"",""2307""
","
","
","""event"",""trial"",""time""
""fullscreenenter"",""1"",""2307""
","
","","971.2999999523163","","","","real_trial","2021-07-27 22:00:16.226","img/card_backs/set1/green.gif","2","110","1","",""
"casino-fixation","128","367741","0.0-25.0-0.29","117","false","img/card_backs/set1/yellow.gif","img/card_backs/set1/red.gif","img/card_backs/set1/green.gif","img/card_backs/set1/purple.gif","img/card_backs/set2/pink.gif","img/card_backs/set2/gray.gif","img/card_backs/set2/orange.gif","img/card_backs/set2/blue.gif","""event"",""trial"",""time""
""fullscreenenter"",""1"",""2307""
","
","
","""event"",""trial"",""time""
""fullscreenenter"",""1"",""2307""
","
","","null","","null","","fixation","2021-07-27 22:00:16.729","","","","","",""
"card-selection-trial","129","370795","0.0-25.0-1.29","117","false","img/card_backs/set1/yellow.gif","img/card_backs/set1/red.gif","img/card_backs/set1/green.gif","img/card_backs/set1/purple.gif","img/card_backs/set2/pink.gif","img/card_backs/set2/gray.gif","img/card_backs/set2/orange.gif","img/card_backs/set2/blue.gif","""event"",""trial"",""time""
""fullscreenenter"",""1"",""2307""
","
","
","""event"",""trial"",""time""
""fullscreenenter"",""1"",""2307""
","
","","1045.2000000476837","","","","real_trial","2021-07-27 22:00:19.783","img/card_backs/set1/green.gif","1","-60","1","",""
"casino-fixation","130","371297","0.0-25.0-0.30","117","false","img/card_backs/set1/yellow.gif","img/card_backs/set1/red.gif","img/card_backs/set1/green.gif","img/card_backs/set1/purple.gif","img/card_backs/set2/pink.gif","img/card_backs/set2/gray.gif","img/card_backs/set2/orange.gif","img/card_backs/set2/blue.gif","""event"",""trial"",""time""
""fullscreenenter"",""1"",""2307""
","
","
","""event"",""trial"",""time""
""fullscreenenter"",""1"",""2307""
","
","","null","","null","","fixation","2021-07-27 22:00:20.285","","","","","",""
"card-selection-trial","131","374398","0.0-25.0-1.30","117","false","img/card_backs/set1/yellow.gif","img/card_backs/set1/red.gif","img/card_backs/set1/green.gif","img/card_backs/set1/purple.gif","img/card_backs/set2/pink.gif","img/card_backs/set2/gray.gif","img/card_backs/set2/orange.gif","img/card_backs/set2/blue.gif","""event"",""trial"",""time""
""fullscreenenter"",""1"",""2307""
","
","
","""event"",""trial"",""time""
""fullscreenenter"",""1"",""2307""
","
","","1091.4000000953674","","","","real_trial","2021-07-27 22:00:23.386","img/card_backs/set1/yellow.gif","1","180","1","",""
"casino-fixation","132","374902","0.0-25.0-0.31","117","false","img/card_backs/set1/yellow.gif","img/card_backs/set1/red.gif","img/card_backs/set1/green.gif","img/card_backs/set1/purple.gif","img/card_backs/set2/pink.gif","img/card_backs/set2/gray.gif","img/card_backs/set2/orange.gif","img/card_backs/set2/blue.gif","""event"",""trial"",""time""
""fullscreenenter"",""1"",""2307""
","
","
","""event"",""trial"",""time""
""fullscreenenter"",""1"",""2307""
","
","","null","","null","","fixation","2021-07-27 22:00:23.891","","","","","",""
"card-selection-trial","133","377986","0.0-25.0-1.31","117","false","img/card_backs/set1/yellow.gif","img/card_backs/set1/red.gif","img/card_backs/set1/green.gif","img/card_backs/set1/purple.gif","img/card_backs/set2/pink.gif","img/card_backs/set2/gray.gif","img/card_backs/set2/orange.gif","img/card_backs/set2/blue.gif","""event"",""trial"",""time""
""fullscreenenter"",""1"",""2307""
","
","
","""event"",""trial"",""time""
""fullscreenenter"",""1"",""2307""
","
","","1076.1000001430511","","","","real_trial","2021-07-27 22:00:26.974","img/card_backs/set1/yellow.gif","1","-240","1","",""
"casino-fixation","134","378492","0.0-25.0-0.32","117","false","img/card_backs/set1/yellow.gif","img/card_backs/set1/red.gif","img/card_backs/set1/green.gif","img/card_backs/set1/purple.gif","img/card_backs/set2/pink.gif","img/card_backs/set2/gray.gif","img/card_backs/set2/orange.gif","img/card_backs/set2/blue.gif","""event"",""trial"",""time""
""fullscreenenter"",""1"",""2307""
","
","
","""event"",""trial"",""time""
""fullscreenenter"",""1"",""2307""
","
","","null","","null","","fixation","2021-07-27 22:00:27.480","","","","","",""
"card-selection-trial","135","381447","0.0-25.0-1.32","117","false","img/card_backs/set1/yellow.gif","img/card_backs/set1/red.gif","img/card_backs/set1/green.gif","img/card_backs/set1/purple.gif","img/card_backs/set2/pink.gif","img/card_backs/set2/gray.gif","img/card_backs/set2/orange.gif","img/card_backs/set2/blue.gif","""event"",""trial"",""time""
""fullscreenenter"",""1"",""2307""
","
","
","""event"",""trial"",""time""
""fullscreenenter"",""1"",""2307""
","
","","945.0999999046326","","","","real_trial","2021-07-27 22:00:30.435","img/card_backs/set1/green.gif","3","-60","1","",""
"casino-fixation","136","381953","0.0-25.0-0.33","117","false","img/card_backs/set1/yellow.gif","img/card_backs/set1/red.gif","img/card_backs/set1/green.gif","img/card_backs/set1/purple.gif","img/card_backs/set2/pink.gif","img/card_backs/set2/gray.gif","img/card_backs/set2/orange.gif","img/card_backs/set2/blue.gif","""event"",""trial"",""time""
""fullscreenenter"",""1"",""2307""
","
","
","""event"",""trial"",""time""
""fullscreenenter"",""1"",""2307""
","
","","null","","null","","fixation","2021-07-27 22:00:30.941","","","","","",""
"card-selection-trial","137","384903","0.0-25.0-1.33","117","false","img/card_backs/set1/yellow.gif","img/card_backs/set1/red.gif","img/card_backs/set1/green.gif","img/card_backs/set1/purple.gif","img/card_backs/set2/pink.gif","img/card_backs/set2/gray.gif","img/card_backs/set2/orange.gif","img/card_backs/set2/blue.gif","""event"",""trial"",""time""
""fullscreenenter"",""1"",""2307""
","
","
","""event"",""trial"",""time""
""fullscreenenter"",""1"",""2307""
","
","","939.7999999523163","","","","real_trial","2021-07-27 22:00:33.891","img/card_backs/set1/green.gif","1","-50","1","",""
"casino-fixation","138","385406","0.0-25.0-0.34","117","false","img/card_backs/set1/yellow.gif","img/card_backs/set1/red.gif","img/card_backs/set1/green.gif","img/card_backs/set1/purple.gif","img/card_backs/set2/pink.gif","img/card_backs/set2/gray.gif","img/card_backs/set2/orange.gif","img/card_backs/set2/blue.gif","""event"",""trial"",""time""
""fullscreenenter"",""1"",""2307""
","
","
","""event"",""trial"",""time""
""fullscreenenter"",""1"",""2307""
","
","","null","","null","","fixation","2021-07-27 22:00:34.394","","","","","",""
"card-selection-trial","139","388497","0.0-25.0-1.34","117","false","img/card_backs/set1/yellow.gif","img/card_backs/set1/red.gif","img/card_backs/set1/green.gif","img/card_backs/set1/purple.gif","img/card_backs/set2/pink.gif","img/card_backs/set2/gray.gif","img/card_backs/set2/orange.gif","img/card_backs/set2/blue.gif","""event"",""trial"",""time""
""fullscreenenter"",""1"",""2307""
","
","
","""event"",""trial"",""time""
""fullscreenenter"",""1"",""2307""
","
","","1084.7000000476837","","","","real_trial","2021-07-27 22:00:37.486","img/card_backs/set1/red.gif","2","-240","1","",""
"casino-fixation","140","388999","0.0-25.0-0.35","117","false","img/card_backs/set1/yellow.gif","img/card_backs/set1/red.gif","img/card_backs/set1/green.gif","img/card_backs/set1/purple.gif","img/card_backs/set2/pink.gif","img/card_backs/set2/gray.gif","img/card_backs/set2/orange.gif","img/card_backs/set2/blue.gif","""event"",""trial"",""time""
""fullscreenenter"",""1"",""2307""
","
","
","""event"",""trial"",""time""
""fullscreenenter"",""1"",""2307""
","
","","null","","null","","fixation","2021-07-27 22:00:37.987","","","","","",""
"card-selection-trial","141","392199","0.0-25.0-1.35","117","false","img/card_backs/set1/yellow.gif","img/card_backs/set1/red.gif","img/card_backs/set1/green.gif","img/card_backs/set1/purple.gif","img/card_backs/set2/pink.gif","img/card_backs/set2/gray.gif","img/card_backs/set2/orange.gif","img/card_backs/set2/blue.gif","""event"",""trial"",""time""
""fullscreenenter"",""1"",""2307""
","
","
","""event"",""trial"",""time""
""fullscreenenter"",""1"",""2307""
","
","","1192.5","","","","real_trial","2021-07-27 22:00:41.187","img/card_backs/set1/green.gif","0","110","1","",""
"casino-fixation","142","392706","0.0-25.0-0.36","117","false","img/card_backs/set1/yellow.gif","img/card_backs/set1/red.gif","img/card_backs/set1/green.gif","img/card_backs/set1/purple.gif","img/card_backs/set2/pink.gif","img/card_backs/set2/gray.gif","img/card_backs/set2/orange.gif","img/card_backs/set2/blue.gif","""event"",""trial"",""time""
""fullscreenenter"",""1"",""2307""
","
","
","""event"",""trial"",""time""
""fullscreenenter"",""1"",""2307""
","
","","null","","null","","fixation","2021-07-27 22:00:41.694","","","","","",""
"card-selection-trial","143","396716","0.0-25.0-1.36","117","false","img/card_backs/set1/yellow.gif","img/card_backs/set1/red.gif","img/card_backs/set1/green.gif","img/card_backs/set1/purple.gif","img/card_backs/set2/pink.gif","img/card_backs/set2/gray.gif","img/card_backs/set2/orange.gif","img/card_backs/set2/blue.gif","""event"",""trial"",""time""
""fullscreenenter"",""1"",""2307""
","
","
","""event"",""trial"",""time""
""fullscreenenter"",""1"",""2307""
","
","","2003","","","","real_trial","2021-07-27 22:00:45.704","img/card_backs/set1/green.gif","3","-60","1","",""
"casino-fixation","144","397222","0.0-25.0-0.37","117","false","img/card_backs/set1/yellow.gif","img/card_backs/set1/red.gif","img/card_backs/set1/green.gif","img/card_backs/set1/purple.gif","img/card_backs/set2/pink.gif","img/card_backs/set2/gray.gif","img/card_backs/set2/orange.gif","img/card_backs/set2/blue.gif","""event"",""trial"",""time""
""fullscreenenter"",""1"",""2307""
","
","
","""event"",""trial"",""time""
""fullscreenenter"",""1"",""2307""
","
","","null","","null","","fixation","2021-07-27 22:00:46.210","","","","","",""
"card-selection-trial","145","400429","0.0-25.0-1.37","117","false","img/card_backs/set1/yellow.gif","img/card_backs/set1/red.gif","img/card_backs/set1/green.gif","img/card_backs/set1/purple.gif","img/card_backs/set2/pink.gif","img/card_backs/set2/gray.gif","img/card_backs/set2/orange.gif","img/card_backs/set2/blue.gif","""event"",""trial"",""time""
""fullscreenenter"",""1"",""2307""
","
","
","""event"",""trial"",""time""
""fullscreenenter"",""1"",""2307""
","
","","1197.5999999046326","","","","real_trial","2021-07-27 22:00:49.417","img/card_backs/set1/yellow.gif","0","-230","1","",""
"casino-fixation","146","400935","0.0-25.0-0.38","117","false","img/card_backs/set1/yellow.gif","img/card_backs/set1/red.gif","img/card_backs/set1/green.gif","img/card_backs/set1/purple.gif","img/card_backs/set2/pink.gif","img/card_backs/set2/gray.gif","img/card_backs/set2/orange.gif","img/card_backs/set2/blue.gif","""event"",""trial"",""time""
""fullscreenenter"",""1"",""2307""
","
","
","""event"",""trial"",""time""
""fullscreenenter"",""1"",""2307""
","
","","null","","null","","fixation","2021-07-27 22:00:49.923","","","","","",""
"card-selection-trial","147","403773","0.0-25.0-1.38","117","false","img/card_backs/set1/yellow.gif","img/card_backs/set1/red.gif","img/card_backs/set1/green.gif","img/card_backs/set1/purple.gif","img/card_backs/set2/pink.gif","img/card_backs/set2/gray.gif","img/card_backs/set2/orange.gif","img/card_backs/set2/blue.gif","""event"",""trial"",""time""
""fullscreenenter"",""1"",""2307""
","
","
","""event"",""trial"",""time""
""fullscreenenter"",""1"",""2307""
","
","","827.8999998569489","","","","real_trial","2021-07-27 22:00:52.761","img/card_backs/set1/green.gif","3","100","1","",""
"casino-fixation","148","404279","0.0-25.0-0.39","117","false","img/card_backs/set1/yellow.gif","img/card_backs/set1/red.gif","img/card_backs/set1/green.gif","img/card_backs/set1/purple.gif","img/card_backs/set2/pink.gif","img/card_backs/set2/gray.gif","img/card_backs/set2/orange.gif","img/card_backs/set2/blue.gif","""event"",""trial"",""time""
""fullscreenenter"",""1"",""2307""
","
","
","""event"",""trial"",""time""
""fullscreenenter"",""1"",""2307""
","
","","null","","null","","fixation","2021-07-27 22:00:53.267","","","","","",""
"card-selection-trial","149","407293","0.0-25.0-1.39","117","false","img/card_backs/set1/yellow.gif","img/card_backs/set1/red.gif","img/card_backs/set1/green.gif","img/card_backs/set1/purple.gif","img/card_backs/set2/pink.gif","img/card_backs/set2/gray.gif","img/card_backs/set2/orange.gif","img/card_backs/set2/blue.gif","""event"",""trial"",""time""
""fullscreenenter"",""1"",""2307""
","
","
","""event"",""trial"",""time""
""fullscreenenter"",""1"",""2307""
","
","","1004.4000000953674","","","","real_trial","2021-07-27 22:00:56.281","img/card_backs/set1/green.gif","3","100","1","",""
"casino-fixation","150","407794","0.0-25.0-0.40","117","false","img/card_backs/set1/yellow.gif","img/card_backs/set1/red.gif","img/card_backs/set1/green.gif","img/card_backs/set1/purple.gif","img/card_backs/set2/pink.gif","img/card_backs/set2/gray.gif","img/card_backs/set2/orange.gif","img/card_backs/set2/blue.gif","""event"",""trial"",""time""
""fullscreenenter"",""1"",""2307""
","
","
","""event"",""trial"",""time""
""fullscreenenter"",""1"",""2307""
","
","","null","","null","","fixation","2021-07-27 22:00:56.782","","","","","",""
"card-selection-trial","151","410599","0.0-25.0-1.40","117","false","img/card_backs/set1/yellow.gif","img/card_backs/set1/red.gif","img/card_backs/set1/green.gif","img/card_backs/set1/purple.gif","img/card_backs/set2/pink.gif","img/card_backs/set2/gray.gif","img/card_backs/set2/orange.gif","img/card_backs/set2/blue.gif","""event"",""trial"",""time""
""fullscreenenter"",""1"",""2307""
","
","
","""event"",""trial"",""time""
""fullscreenenter"",""1"",""2307""
","
","","797.4000000953674","","","","real_trial","2021-07-27 22:00:59.587","img/card_backs/set1/green.gif","1","110","1","",""
"casino-fixation","152","411100","0.0-25.0-0.41","117","false","img/card_backs/set1/yellow.gif","img/card_backs/set1/red.gif","img/card_backs/set1/green.gif","img/card_backs/set1/purple.gif","img/card_backs/set2/pink.gif","img/card_backs/set2/gray.gif","img/card_backs/set2/orange.gif","img/card_backs/set2/blue.gif","""event"",""trial"",""time""
""fullscreenenter"",""1"",""2307""
","
","
","""event"",""trial"",""time""
""fullscreenenter"",""1"",""2307""
","
","","null","","null","","fixation","2021-07-27 22:01:00.089","","","","","",""
"card-selection-trial","153","414029","0.0-25.0-1.41","117","false","img/card_backs/set1/yellow.gif","img/card_backs/set1/red.gif","img/card_backs/set1/green.gif","img/card_backs/set1/purple.gif","img/card_backs/set2/pink.gif","img/card_backs/set2/gray.gif","img/card_backs/set2/orange.gif","img/card_backs/set2/blue.gif","""event"",""trial"",""time""
""fullscreenenter"",""1"",""2307""
","
","
","""event"",""trial"",""time""
""fullscreenenter"",""1"",""2307""
","
","","920.2000000476837","","","","real_trial","2021-07-27 22:01:03.017","img/card_backs/set1/green.gif","0","100","1","",""
"casino-fixation","154","414535","0.0-25.0-0.42","117","false","img/card_backs/set1/yellow.gif","img/card_backs/set1/red.gif","img/card_backs/set1/green.gif","img/card_backs/set1/purple.gif","img/card_backs/set2/pink.gif","img/card_backs/set2/gray.gif","img/card_backs/set2/orange.gif","img/card_backs/set2/blue.gif","""event"",""trial"",""time""
""fullscreenenter"",""1"",""2307""
","
","
","""event"",""trial"",""time""
""fullscreenenter"",""1"",""2307""
","
","","null","","null","","fixation","2021-07-27 22:01:03.523","","","","","",""
"card-selection-trial","155","417762","0.0-25.0-1.42","117","false","img/card_backs/set1/yellow.gif","img/card_backs/set1/red.gif","img/card_backs/set1/green.gif","img/card_backs/set1/purple.gif","img/card_backs/set2/pink.gif","img/card_backs/set2/gray.gif","img/card_backs/set2/orange.gif","img/card_backs/set2/blue.gif","""event"",""trial"",""time""
""fullscreenenter"",""1"",""2307""
","
","
","""event"",""trial"",""time""
""fullscreenenter"",""1"",""2307""
","
","","1218.7999999523163","","","","real_trial","2021-07-27 22:01:06.750","img/card_backs/set1/green.gif","2","-60","1","",""
"casino-fixation","156","418264","0.0-25.0-0.43","117","false","img/card_backs/set1/yellow.gif","img/card_backs/set1/red.gif","img/card_backs/set1/green.gif","img/card_backs/set1/purple.gif","img/card_backs/set2/pink.gif","img/card_backs/set2/gray.gif","img/card_backs/set2/orange.gif","img/card_backs/set2/blue.gif","""event"",""trial"",""time""
""fullscreenenter"",""1"",""2307""
","
","
","""event"",""trial"",""time""
""fullscreenenter"",""1"",""2307""
","
","","null","","null","","fixation","2021-07-27 22:01:07.252","","","","","",""
"card-selection-trial","157","421218","0.0-25.0-1.43","117","false","img/card_backs/set1/yellow.gif","img/card_backs/set1/red.gif","img/card_backs/set1/green.gif","img/card_backs/set1/purple.gif","img/card_backs/set2/pink.gif","img/card_backs/set2/gray.gif","img/card_backs/set2/orange.gif","img/card_backs/set2/blue.gif","""event"",""trial"",""time""
""fullscreenenter"",""1"",""2307""
","
","
","""event"",""trial"",""time""
""fullscreenenter"",""1"",""2307""
","
","","944.7999999523163","","","","real_trial","2021-07-27 22:01:10.206","img/card_backs/set1/green.gif","3","-70","1","",""
"casino-fixation","158","421723","0.0-25.0-0.44","117","false","img/card_backs/set1/yellow.gif","img/card_backs/set1/red.gif","img/card_backs/set1/green.gif","img/card_backs/set1/purple.gif","img/card_backs/set2/pink.gif","img/card_backs/set2/gray.gif","img/card_backs/set2/orange.gif","img/card_backs/set2/blue.gif","""event"",""trial"",""time""
""fullscreenenter"",""1"",""2307""
","
","
","""event"",""trial"",""time""
""fullscreenenter"",""1"",""2307""
","
","","null","","null","","fixation","2021-07-27 22:01:10.711","","","","","",""
"card-selection-trial","159","425038","0.0-25.0-1.44","117","false","img/card_backs/set1/yellow.gif","img/card_backs/set1/red.gif","img/card_backs/set1/green.gif","img/card_backs/set1/purple.gif","img/card_backs/set2/pink.gif","img/card_backs/set2/gray.gif","img/card_backs/set2/orange.gif","img/card_backs/set2/blue.gif","""event"",""trial"",""time""
""fullscreenenter"",""1"",""2307""
","
","
","""event"",""trial"",""time""
""fullscreenenter"",""1"",""2307""
","
","","1303.9000000953674","","","","real_trial","2021-07-27 22:01:14.026","img/card_backs/set1/green.gif","3","-50","1","",""
"casino-fixation","160","425539","0.0-25.0-0.45","117","false","img/card_backs/set1/yellow.gif","img/card_backs/set1/red.gif","img/card_backs/set1/green.gif","img/card_backs/set1/purple.gif","img/card_backs/set2/pink.gif","img/card_backs/set2/gray.gif","img/card_backs/set2/orange.gif","img/card_backs/set2/blue.gif","""event"",""trial"",""time""
""fullscreenenter"",""1"",""2307""
","
","
","""event"",""trial"",""time""
""fullscreenenter"",""1"",""2307""
","
","","null","","null","","fixation","2021-07-27 22:01:14.527","","","","","",""
"card-selection-trial","161","428334","0.0-25.0-1.45","117","false","img/card_backs/set1/yellow.gif","img/card_backs/set1/red.gif","img/card_backs/set1/green.gif","img/card_backs/set1/purple.gif","img/card_backs/set2/pink.gif","img/card_backs/set2/gray.gif","img/card_backs/set2/orange.gif","img/card_backs/set2/blue.gif","""event"",""trial"",""time""
""fullscreenenter"",""1"",""2307""
","
","
","""event"",""trial"",""time""
""fullscreenenter"",""1"",""2307""
","
","","786.5999999046326","","","","real_trial","2021-07-27 22:01:17.322","img/card_backs/set1/red.gif","1","190","1","",""
"casino-fixation","162","428837","0.0-25.0-0.46","117","false","img/card_backs/set1/yellow.gif","img/card_backs/set1/red.gif","img/card_backs/set1/green.gif","img/card_backs/set1/purple.gif","img/card_backs/set2/pink.gif","img/card_backs/set2/gray.gif","img/card_backs/set2/orange.gif","img/card_backs/set2/blue.gif","""event"",""trial"",""time""
""fullscreenenter"",""1"",""2307""
","
","
","""event"",""trial"",""time""
""fullscreenenter"",""1"",""2307""
","
","","null","","null","","fixation","2021-07-27 22:01:17.825","","","","","",""
"card-selection-trial","163","431774","0.0-25.0-1.46","117","false","img/card_backs/set1/yellow.gif","img/card_backs/set1/red.gif","img/card_backs/set1/green.gif","img/card_backs/set1/purple.gif","img/card_backs/set2/pink.gif","img/card_backs/set2/gray.gif","img/card_backs/set2/orange.gif","img/card_backs/set2/blue.gif","""event"",""trial"",""time""
""fullscreenenter"",""1"",""2307""
","
","
","""event"",""trial"",""time""
""fullscreenenter"",""1"",""2307""
","
","","925","","","","real_trial","2021-07-27 22:01:20.762","img/card_backs/set1/red.gif","0","-230","1","",""
"casino-fixation","164","432280","0.0-25.0-0.47","117","false","img/card_backs/set1/yellow.gif","img/card_backs/set1/red.gif","img/card_backs/set1/green.gif","img/card_backs/set1/purple.gif","img/card_backs/set2/pink.gif","img/card_backs/set2/gray.gif","img/card_backs/set2/orange.gif","img/card_backs/set2/blue.gif","""event"",""trial"",""time""
""fullscreenenter"",""1"",""2307""
","
","
","""event"",""trial"",""time""
""fullscreenenter"",""1"",""2307""
","
","","null","","null","","fixation","2021-07-27 22:01:21.268","","","","","",""
"card-selection-trial","165","435347","0.0-25.0-1.47","117","false","img/card_backs/set1/yellow.gif","img/card_backs/set1/red.gif","img/card_backs/set1/green.gif","img/card_backs/set1/purple.gif","img/card_backs/set2/pink.gif","img/card_backs/set2/gray.gif","img/card_backs/set2/orange.gif","img/card_backs/set2/blue.gif","""event"",""trial"",""time""
""fullscreenenter"",""1"",""2307""
","
","
","""event"",""trial"",""time""
""fullscreenenter"",""1"",""2307""
","
","","1060.8000001907349","","","","real_trial","2021-07-27 22:01:24.335","img/card_backs/set1/green.gif","0","120","1","",""
"casino-fixation","166","435849","0.0-25.0-0.48","117","false","img/card_backs/set1/yellow.gif","img/card_backs/set1/red.gif","img/card_backs/set1/green.gif","img/card_backs/set1/purple.gif","img/card_backs/set2/pink.gif","img/card_backs/set2/gray.gif","img/card_backs/set2/orange.gif","img/card_backs/set2/blue.gif","""event"",""trial"",""time""
""fullscreenenter"",""1"",""2307""
","
","
","""event"",""trial"",""time""
""fullscreenenter"",""1"",""2307""
","
","","null","","null","","fixation","2021-07-27 22:01:24.837","","","","","",""
"card-selection-trial","167","438713","0.0-25.0-1.48","117","false","img/card_backs/set1/yellow.gif","img/card_backs/set1/red.gif","img/card_backs/set1/green.gif","img/card_backs/set1/purple.gif","img/card_backs/set2/pink.gif","img/card_backs/set2/gray.gif","img/card_backs/set2/orange.gif","img/card_backs/set2/blue.gif","""event"",""trial"",""time""
""fullscreenenter"",""1"",""2307""
","
","
","""event"",""trial"",""time""
""fullscreenenter"",""1"",""2307""
","
