"trial_type","trial_index","time_elapsed","internal_node_id","sub_id","risk_good_first","block1_A","block1_B","block1_C","block1_D","block2_A","block2_B","block2_C","block2_D","interactions","blur_events","focus_events","fullscreenenter_events","fullscreenexit_events","success","rt","stimulus","key_press","button_pressed","task_part","timestamp","card_choice","choice_position","points_earned","block","correct","response"
"pavlovia","0","3","0.0-0.0","594","true","img/card_backs/set1/red.gif","img/card_backs/set1/purple.gif","img/card_backs/set1/green.gif","img/card_backs/set1/yellow.gif","img/card_backs/set2/blue.gif","img/card_backs/set2/gray.gif","img/card_backs/set2/orange.gif","img/card_backs/set2/pink.gif","""event"",""trial"",""time""
""fullscreenenter"",""1"",""2293""
","
","
","""event"",""trial"",""time""
""fullscreenenter"",""1"",""2293""
","
","","","","","","","","","","","","",""
"fullscreen","1","3280","0.0-1.0","594","true","img/card_backs/set1/red.gif","img/card_backs/set1/purple.gif","img/card_backs/set1/green.gif","img/card_backs/set1/yellow.gif","img/card_backs/set2/blue.gif","img/card_backs/set2/gray.gif","img/card_backs/set2/orange.gif","img/card_backs/set2/pink.gif","""event"",""trial"",""time""
""fullscreenenter"",""1"",""2293""
","
","
","""event"",""trial"",""time""
""fullscreenenter"",""1"",""2293""
","
","true","","","","","","","","","","","",""
"audio-keyboard-response","2","4975","0.0-2.0","594","true","img/card_backs/set1/red.gif","img/card_backs/set1/purple.gif","img/card_backs/set1/green.gif","img/card_backs/set1/yellow.gif","img/card_backs/set2/blue.gif","img/card_backs/set2/gray.gif","img/card_backs/set2/orange.gif","img/card_backs/set2/pink.gif","""event"",""trial"",""time""
""fullscreenenter"",""1"",""2293""
","
","
","""event"",""trial"",""time""
""fullscreenenter"",""1"",""2293""
","
","","1544","audio/beep_loop.wav","32","","","","","","","","",""
"audio-button-response","3","7524","0.0-3.0","594","true","img/card_backs/set1/red.gif","img/card_backs/set1/purple.gif","img/card_backs/set1/green.gif","img/card_backs/set1/yellow.gif","img/card_backs/set2/blue.gif","img/card_backs/set2/gray.gif","img/card_backs/set2/orange.gif","img/card_backs/set2/pink.gif","""event"",""trial"",""time""
""fullscreenenter"",""1"",""2293""
","
","
","""event"",""trial"",""time""
""fullscreenenter"",""1"",""2293""
","
","","NaN","audio/turtle.mp3","","3","","","","","","","",""
"audio-button-response","4","9727","0.0-4.0","594","true","img/card_backs/set1/red.gif","img/card_backs/set1/purple.gif","img/card_backs/set1/green.gif","img/card_backs/set1/yellow.gif","img/card_backs/set2/blue.gif","img/card_backs/set2/gray.gif","img/card_backs/set2/orange.gif","img/card_backs/set2/pink.gif","""event"",""trial"",""time""
""fullscreenenter"",""1"",""2293""
","
","
","""event"",""trial"",""time""
""fullscreenenter"",""1"",""2293""
","
","","NaN","audio/shark.mp3","","2","","","","","","","",""
"fullscreen","5","12557","0.0-5.0","594","true","img/card_backs/set1/red.gif","img/card_backs/set1/purple.gif","img/card_backs/set1/green.gif","img/card_backs/set1/yellow.gif","img/card_backs/set2/blue.gif","img/card_backs/set2/gray.gif","img/card_backs/set2/orange.gif","img/card_backs/set2/pink.gif","""event"",""trial"",""time""
""fullscreenenter"",""1"",""2293""
","
","
","""event"",""trial"",""time""
""fullscreenenter"",""1"",""2293""
","
","true","","","","","","","","","","","",""
"casino-keyboard-response","6","16095","0.0-6.0-0.0","594","true","img/card_backs/set1/red.gif","img/card_backs/set1/purple.gif","img/card_backs/set1/green.gif","img/card_backs/set1/yellow.gif","img/card_backs/set2/blue.gif","img/card_backs/set2/gray.gif","img/card_backs/set2/orange.gif","img/card_backs/set2/pink.gif","""event"",""trial"",""time""
""fullscreenenter"",""1"",""2293""
","
","
","""event"",""trial"",""time""
""fullscreenenter"",""1"",""2293""
","
","","3533.0850000027567","Welcome to the casino!","71","","instructions","2021-06-08 21:23:12.607","","","","","",""
"casino-keyboard-response","7","25879","0.0-6.0-0.1","594","true","img/card_backs/set1/red.gif","img/card_backs/set1/purple.gif","img/card_backs/set1/green.gif","img/card_backs/set1/yellow.gif","img/card_backs/set2/blue.gif","img/card_backs/set2/gray.gif","img/card_backs/set2/orange.gif","img/card_backs/set2/pink.gif","""event"",""trial"",""time""
""fullscreenenter"",""1"",""2293""
","
","
","""event"",""trial"",""time""
""fullscreenenter"",""1"",""2293""
","
","","9782.695000001695","Today you will be playing a game to earn tokens. </br> At the end of the experiment, you will be paid a bonus based on how many tokens you win. ","69","","instructions","2021-06-08 21:23:22.391","","","","","",""
"casino-keyboard-response","8","35100","0.0-6.0-0.2","594","true","img/card_backs/set1/red.gif","img/card_backs/set1/purple.gif","img/card_backs/set1/green.gif","img/card_backs/set1/yellow.gif","img/card_backs/set2/blue.gif","img/card_backs/set2/gray.gif","img/card_backs/set2/orange.gif","img/card_backs/set2/pink.gif","""event"",""trial"",""time""
""fullscreenenter"",""1"",""2293""
","
","
","""event"",""trial"",""time""
""fullscreenenter"",""1"",""2293""
","
","","9217.83000000869","On every turn, you will be shown four different decks of cards. </br> You need to select a card from one of the four decks.  ","75","","instructions","2021-06-08 21:23:31.612","","","","","",""
"casino-keyboard-response","9","39949","0.0-6.0-0.3","594","true","img/card_backs/set1/red.gif","img/card_backs/set1/purple.gif","img/card_backs/set1/green.gif","img/card_backs/set1/yellow.gif","img/card_backs/set2/blue.gif","img/card_backs/set2/gray.gif","img/card_backs/set2/orange.gif","img/card_backs/set2/pink.gif","""event"",""trial"",""time""
""fullscreenenter"",""1"",""2293""
","
","
","""event"",""trial"",""time""
""fullscreenenter"",""1"",""2293""
","
","","4846.745000017108","On the next screen, you will see what the decks will look like. ","66","","instructions","2021-06-08 21:23:36.461","","","","","",""
"card-selection-trial","10","43958","0.0-7.0-0.0","594","true","img/card_backs/set1/red.gif","img/card_backs/set1/purple.gif","img/card_backs/set1/green.gif","img/card_backs/set1/yellow.gif","img/card_backs/set2/blue.gif","img/card_backs/set2/gray.gif","img/card_backs/set2/orange.gif","img/card_backs/set2/pink.gif","""event"",""trial"",""time""
""fullscreenenter"",""1"",""2293""
","
","
","""event"",""trial"",""time""
""fullscreenenter"",""1"",""2293""
","
","","null","","","","practice","2021-06-08 21:23:40.470","null","null","null","0","",""
"casino-keyboard-response","11","54863","0.0-8.0-0.0","594","true","img/card_backs/set1/red.gif","img/card_backs/set1/purple.gif","img/card_backs/set1/green.gif","img/card_backs/set1/yellow.gif","img/card_backs/set2/blue.gif","img/card_backs/set2/gray.gif","img/card_backs/set2/orange.gif","img/card_backs/set2/pink.gif","""event"",""trial"",""time""
""fullscreenenter"",""1"",""2293""
","
","
","""event"",""trial"",""time""
""fullscreenenter"",""1"",""2293""
","
","","10903.309999994235","You should pick a card from a deck using the '2', '4', '6', and '8' keys at the top of the keyboard.","85","","instructions","2021-06-08 21:23:51.375","","","","","",""
"casino-keyboard-response","12","64666","0.0-8.0-0.1","594","true","img/card_backs/set1/red.gif","img/card_backs/set1/purple.gif","img/card_backs/set1/green.gif","img/card_backs/set1/yellow.gif","img/card_backs/set2/blue.gif","img/card_backs/set2/gray.gif","img/card_backs/set2/orange.gif","img/card_backs/set2/pink.gif","""event"",""trial"",""time""
""fullscreenenter"",""1"",""2293""
","
","
","""event"",""trial"",""time""
""fullscreenenter"",""1"",""2293""
","
","","9801.650000008522","Once you select a card, it will turn over and you will see how many tokens you earned.","83","","instructions","2021-06-08 21:24:01.178","","","","","",""
"casino-keyboard-response","13","78667","0.0-8.0-0.2","594","true","img/card_backs/set1/red.gif","img/card_backs/set1/purple.gif","img/card_backs/set1/green.gif","img/card_backs/set1/yellow.gif","img/card_backs/set2/blue.gif","img/card_backs/set2/gray.gif","img/card_backs/set2/orange.gif","img/card_backs/set2/pink.gif","""event"",""trial"",""time""
""fullscreenenter"",""1"",""2293""
","
","
","""event"",""trial"",""time""
""fullscreenenter"",""1"",""2293""
","
","","13998.445000004722","Let's try practicing that! </br> First, try to put your fingers over the '2', '4', '6', and '8' keys. </br>  You can use whatever fingers are most comfortable for you. Try to find a comfortable position now. ","50","","instructions","2021-06-08 21:24:15.179","","","","","",""
"casino-keyboard-response","14","84938","0.0-8.0-0.3","594","true","img/card_backs/set1/red.gif","img/card_backs/set1/purple.gif","img/card_backs/set1/green.gif","img/card_backs/set1/yellow.gif","img/card_backs/set2/blue.gif","img/card_backs/set2/gray.gif","img/card_backs/set2/orange.gif","img/card_backs/set2/pink.gif","""event"",""trial"",""time""
""fullscreenenter"",""1"",""2293""
","
","
","""event"",""trial"",""time""
""fullscreenenter"",""1"",""2293""
","
","","6269.349999987753","Okay ready? </br> On the next screen, press '2' to select the left deck. ","50","","instructions","2021-06-08 21:24:21.450","","","","","",""
"card-selection-trial","15","88235","0.0-9.0-0.0","594","true","img/card_backs/set1/red.gif","img/card_backs/set1/purple.gif","img/card_backs/set1/green.gif","img/card_backs/set1/yellow.gif","img/card_backs/set2/blue.gif","img/card_backs/set2/gray.gif","img/card_backs/set2/orange.gif","img/card_backs/set2/pink.gif","""event"",""trial"",""time""
""fullscreenenter"",""1"",""2293""
","
","
","""event"",""trial"",""time""
""fullscreenenter"",""1"",""2293""
","
","","1275.7500000006985","","","","practice_card_selection","2021-06-08 21:24:24.747","img/practice_cards/backs/black.gif","0","-100","","",""
"casino-keyboard-response","16","94115","0.0-10.0-0.0","594","true","img/card_backs/set1/red.gif","img/card_backs/set1/purple.gif","img/card_backs/set1/green.gif","img/card_backs/set1/yellow.gif","img/card_backs/set2/blue.gif","img/card_backs/set2/gray.gif","img/card_backs/set2/orange.gif","img/card_backs/set2/pink.gif","""event"",""trial"",""time""
""fullscreenenter"",""1"",""2293""
","
","
","""event"",""trial"",""time""
""fullscreenenter"",""1"",""2293""
","
","","5878.470000025118","Great! Now on the next screen, try pressing '6' to select the third deck.","54","","instructions","2021-06-08 21:24:30.627","","","","","",""
"card-selection-trial","17","96825","0.0-11.0-0.0","594","true","img/card_backs/set1/red.gif","img/card_backs/set1/purple.gif","img/card_backs/set1/green.gif","img/card_backs/set1/yellow.gif","img/card_backs/set2/blue.gif","img/card_backs/set2/gray.gif","img/card_backs/set2/orange.gif","img/card_backs/set2/pink.gif","""event"",""trial"",""time""
""fullscreenenter"",""1"",""2293""
","
","
","""event"",""trial"",""time""
""fullscreenenter"",""1"",""2293""
","
","","701.1050000146497","","","","practice_card_selection","2021-06-08 21:24:33.337","img/practice_cards/backs/dark_green.gif","2","-200","","",""
"casino-keyboard-response","18","105603","0.0-12.0-0.0","594","true","img/card_backs/set1/red.gif","img/card_backs/set1/purple.gif","img/card_backs/set1/green.gif","img/card_backs/set1/yellow.gif","img/card_backs/set2/blue.gif","img/card_backs/set2/gray.gif","img/card_backs/set2/orange.gif","img/card_backs/set2/pink.gif","""event"",""trial"",""time""
""fullscreenenter"",""1"",""2293""
","
","
","""event"",""trial"",""time""
""fullscreenenter"",""1"",""2293""
","
","","8776.125000003958","Now on the next screen, try pressing '4' to select the second deck.","52","","instructions","2021-06-08 21:24:42.115","","","","","",""
"card-selection-trial","19","108423","0.0-13.0-0.0","594","true","img/card_backs/set1/red.gif","img/card_backs/set1/purple.gif","img/card_backs/set1/green.gif","img/card_backs/set1/yellow.gif","img/card_backs/set2/blue.gif","img/card_backs/set2/gray.gif","img/card_backs/set2/orange.gif","img/card_backs/set2/pink.gif","""event"",""trial"",""time""
""fullscreenenter"",""1"",""2293""
","
","
","""event"",""trial"",""time""
""fullscreenenter"",""1"",""2293""
","
","","808.4949999756645","","","","practice_card_selection","2021-06-08 21:24:44.935","img/practice_cards/backs/black.gif","1","-100","","",""
"casino-keyboard-response","20","113085","0.0-14.0-0.0","594","true","img/card_backs/set1/red.gif","img/card_backs/set1/purple.gif","img/card_backs/set1/green.gif","img/card_backs/set1/yellow.gif","img/card_backs/set2/blue.gif","img/card_backs/set2/gray.gif","img/card_backs/set2/orange.gif","img/card_backs/set2/pink.gif","""event"",""trial"",""time""
""fullscreenenter"",""1"",""2293""
","
","
","""event"",""trial"",""time""
""fullscreenenter"",""1"",""2293""
","
","","4660.179999977117","Finally, try pressing '8' to select the deck all the way on the right.","56","","instructions","2021-06-08 21:24:49.597","","","","","",""
"card-selection-trial","21","115699","0.0-15.0-0.0","594","true","img/card_backs/set1/red.gif","img/card_backs/set1/purple.gif","img/card_backs/set1/green.gif","img/card_backs/set1/yellow.gif","img/card_backs/set2/blue.gif","img/card_backs/set2/gray.gif","img/card_backs/set2/orange.gif","img/card_backs/set2/pink.gif","""event"",""trial"",""time""
""fullscreenenter"",""1"",""2293""
","
","
","""event"",""trial"",""time""
""fullscreenenter"",""1"",""2293""
","
","","606.4149999874644","","","","practice_card_selection","2021-06-08 21:24:52.211","img/practice_cards/backs/dark_blue.gif","3","200","","",""
"casino-keyboard-response","22","120002","0.0-16.0-0.0","594","true","img/card_backs/set1/red.gif","img/card_backs/set1/purple.gif","img/card_backs/set1/green.gif","img/card_backs/set1/yellow.gif","img/card_backs/set2/blue.gif","img/card_backs/set2/gray.gif","img/card_backs/set2/orange.gif","img/card_backs/set2/pink.gif","""event"",""trial"",""time""
""fullscreenenter"",""1"",""2293""
","
","
","""event"",""trial"",""time""
""fullscreenenter"",""1"",""2293""
","
","","4300.549999985378","Great! It seems like you are getting the hang of this.","80","","instructions","2021-06-08 21:24:56.514","","","","","",""
"casino-keyboard-response","23","127659","0.0-16.0-0.1","594","true","img/card_backs/set1/red.gif","img/card_backs/set1/purple.gif","img/card_backs/set1/green.gif","img/card_backs/set1/yellow.gif","img/card_backs/set2/blue.gif","img/card_backs/set2/gray.gif","img/card_backs/set2/orange.gif","img/card_backs/set2/pink.gif","""event"",""trial"",""time""
""fullscreenenter"",""1"",""2293""
","
","
","""event"",""trial"",""time""
""fullscreenenter"",""1"",""2293""
","
","","7654.340000008233","You may have noticed that some cards will cause you to <b> win </b> tokens while other cards will cause you to <b> lose </b>  tokens.","70","","instructions","2021-06-08 21:25:04.171","","","","","",""
"casino-keyboard-response","24","136270","0.0-16.0-0.2","594","true","img/card_backs/set1/red.gif","img/card_backs/set1/purple.gif","img/card_backs/set1/green.gif","img/card_backs/set1/yellow.gif","img/card_backs/set2/blue.gif","img/card_backs/set2/gray.gif","img/card_backs/set2/orange.gif","img/card_backs/set2/pink.gif","""event"",""trial"",""time""
""fullscreenenter"",""1"",""2293""
","
","
","""event"",""trial"",""time""
""fullscreenenter"",""1"",""2293""
","
","","8610.034999990603","Each deck has a mix of cards that will cause you to win and lose tokens. </br> However, the cards in each colored deck are different.","73","","instructions","2021-06-08 21:25:12.782","","","","","",""
"casino-keyboard-response","25","144984","0.0-16.0-0.3","594","true","img/card_backs/set1/red.gif","img/card_backs/set1/purple.gif","img/card_backs/set1/green.gif","img/card_backs/set1/yellow.gif","img/card_backs/set2/blue.gif","img/card_backs/set2/gray.gif","img/card_backs/set2/orange.gif","img/card_backs/set2/pink.gif","""event"",""trial"",""time""
""fullscreenenter"",""1"",""2293""
","
","
","""event"",""trial"",""time""
""fullscreenenter"",""1"",""2293""
","
","","8712.239999993471","Some colored decks are luckier than others. </br> If you choose the lucky decks, you will earn more tokens than if you choose the unlucky decks.","69","","instructions","2021-06-08 21:25:21.497","","","","","",""
"casino-keyboard-response","26","152625","0.0-16.0-0.4","594","true","img/card_backs/set1/red.gif","img/card_backs/set1/purple.gif","img/card_backs/set1/green.gif","img/card_backs/set1/yellow.gif","img/card_backs/set2/blue.gif","img/card_backs/set2/gray.gif","img/card_backs/set2/orange.gif","img/card_backs/set2/pink.gif","""event"",""trial"",""time""
""fullscreenenter"",""1"",""2293""
","
","
","""event"",""trial"",""time""
""fullscreenenter"",""1"",""2293""
","
","","7638.18499998888","You should try to figure out which decks are lucky. </br> Then, try to choose the lucky decks so you can win the most tokens.","87","","instructions","2021-06-08 21:25:29.137","","","","","",""
"casino-keyboard-response","27","165660","0.0-16.0-0.5","594","true","img/card_backs/set1/red.gif","img/card_backs/set1/purple.gif","img/card_backs/set1/green.gif","img/card_backs/set1/yellow.gif","img/card_backs/set2/blue.gif","img/card_backs/set2/gray.gif","img/card_backs/set2/orange.gif","img/card_backs/set2/pink.gif","""event"",""trial"",""time""
""fullscreenenter"",""1"",""2293""
","
","
","""event"",""trial"",""time""
""fullscreenenter"",""1"",""2293""
","
","","13033.059999987017","To make it trickier, the casino dealer will switch the locations of the decks on every turn. </br> The color of the deck determines how lucky it is. The location does not matter.","88","","instructions","2021-06-08 21:25:42.172","","","","","",""
"casino-keyboard-response","28","175270","0.0-16.0-0.6","594","true","img/card_backs/set1/red.gif","img/card_backs/set1/purple.gif","img/card_backs/set1/green.gif","img/card_backs/set1/yellow.gif","img/card_backs/set2/blue.gif","img/card_backs/set2/gray.gif","img/card_backs/set2/orange.gif","img/card_backs/set2/pink.gif","""event"",""trial"",""time""
""fullscreenenter"",""1"",""2293""
","
","
","""event"",""trial"",""time""
""fullscreenenter"",""1"",""2293""
","
","","9608.795000007376","The mix of cards in each colored deck will stay the same throughout the game. </br> That means that a deck that is lucky early on will stay lucky.","79","","instructions","2021-06-08 21:25:51.783","","","","","",""
"casino-keyboard-response","29","183550","0.0-16.0-0.7","594","true","img/card_backs/set1/red.gif","img/card_backs/set1/purple.gif","img/card_backs/set1/green.gif","img/card_backs/set1/yellow.gif","img/card_backs/set2/blue.gif","img/card_backs/set2/gray.gif","img/card_backs/set2/orange.gif","img/card_backs/set2/pink.gif","""event"",""trial"",""time""
""fullscreenenter"",""1"",""2293""
","
","
","""event"",""trial"",""time""
""fullscreenenter"",""1"",""2293""
","
","","8276.909999985946","Remember though, all the decks have a <b> mix </b> of both <b> good </b> and <b> bad </b> cards so it may take a couple of turns to figure out if a deck is lucky.","69","","instructions","2021-06-08 21:26:00.062","","","","","",""
"casino-keyboard-response","30","191923","0.0-16.0-0.8","594","true","img/card_backs/set1/red.gif","img/card_backs/set1/purple.gif","img/card_backs/set1/green.gif","img/card_backs/set1/yellow.gif","img/card_backs/set2/blue.gif","img/card_backs/set2/gray.gif","img/card_backs/set2/orange.gif","img/card_backs/set2/pink.gif","""event"",""trial"",""time""
""fullscreenenter"",""1"",""2293""
","
","
","""event"",""trial"",""time""
""fullscreenenter"",""1"",""2293""
","
","","8371.000000013737","At the end of the game, you will be paid bonus money based on how many tokens you win. </br> If you win more tokens, you will earn more money!","72","","instructions","2021-06-08 21:26:08.435","","","","","",""
"casino-keyboard-response","31","202529","0.0-16.0-0.9","594","true","img/card_backs/set1/red.gif","img/card_backs/set1/purple.gif","img/card_backs/set1/green.gif","img/card_backs/set1/yellow.gif","img/card_backs/set2/blue.gif","img/card_backs/set2/gray.gif","img/card_backs/set2/orange.gif","img/card_backs/set2/pink.gif","""event"",""trial"",""time""
""fullscreenenter"",""1"",""2293""
","
","
","""event"",""trial"",""time""
""fullscreenenter"",""1"",""2293""
","
","","10603.164999978617","You will never <b> lose </b> money. </br> If you end up with fewer than 0 tokens, you will earn $0 of bonus money, but you will still be paid for playing the game.","83","","instructions","2021-06-08 21:26:19.041","","","","","",""
"casino-keyboard-response","32","206851","0.0-16.0-0.10","594","true","img/card_backs/set1/red.gif","img/card_backs/set1/purple.gif","img/card_backs/set1/green.gif","img/card_backs/set1/yellow.gif","img/card_backs/set2/blue.gif","img/card_backs/set2/gray.gif","img/card_backs/set2/orange.gif","img/card_backs/set2/pink.gif","""event"",""trial"",""time""
""fullscreenenter"",""1"",""2293""
","
","
","""event"",""trial"",""time""
""fullscreenenter"",""1"",""2293""
","
","","4317.83000001451","You will have 10 seconds to make each choice.","82","","instructions","2021-06-08 21:26:23.363","","","","","",""
"casino-keyboard-response","33","215254","0.0-16.0-0.11","594","true","img/card_backs/set1/red.gif","img/card_backs/set1/purple.gif","img/card_backs/set1/green.gif","img/card_backs/set1/yellow.gif","img/card_backs/set2/blue.gif","img/card_backs/set2/gray.gif","img/card_backs/set2/orange.gif","img/card_backs/set2/pink.gif","""event"",""trial"",""time""
""fullscreenenter"",""1"",""2293""
","
","
","""event"",""trial"",""time""
""fullscreenenter"",""1"",""2293""
","
","","8400.750000000698","Before you play the game for real, you will play with practice decks. </br> The tokens you earn during practice won't count toward your total.","86","","instructions","2021-06-08 21:26:31.766","","","","","",""
"casino-keyboard-response","34","225949","0.0-16.0-0.12","594","true","img/card_backs/set1/red.gif","img/card_backs/set1/purple.gif","img/card_backs/set1/green.gif","img/card_backs/set1/yellow.gif","img/card_backs/set2/blue.gif","img/card_backs/set2/gray.gif","img/card_backs/set2/orange.gif","img/card_backs/set2/pink.gif","""event"",""trial"",""time""
""fullscreenenter"",""1"",""2293""
","
","
","""event"",""trial"",""time""
""fullscreenenter"",""1"",""2293""
","
","","10693.269999988843","Ready? Remember, use the '2', '4', '6', and '8' keys to select the decks. </br> Put your fingers on those keys now and then press '2' to begin.","50","","instructions","2021-06-08 21:26:42.462","","","","","",""
"casino-fixation","35","226452","0.0-17.0-0.0","594","true","img/card_backs/set1/red.gif","img/card_backs/set1/purple.gif","img/card_backs/set1/green.gif","img/card_backs/set1/yellow.gif","img/card_backs/set2/blue.gif","img/card_backs/set2/gray.gif","img/card_backs/set2/orange.gif","img/card_backs/set2/pink.gif","""event"",""trial"",""time""
""fullscreenenter"",""1"",""2293""
","
","
","""event"",""trial"",""time""
""fullscreenenter"",""1"",""2293""
","
","","null","","null","","fixation","2021-06-08 21:26:42.965","","","","","",""
"card-selection-trial","36","229482","0.0-17.0-1.0","594","true","img/card_backs/set1/red.gif","img/card_backs/set1/purple.gif","img/card_backs/set1/green.gif","img/card_backs/set1/yellow.gif","img/card_backs/set2/blue.gif","img/card_backs/set2/gray.gif","img/card_backs/set2/orange.gif","img/card_backs/set2/pink.gif","""event"",""trial"",""time""
""fullscreenenter"",""1"",""2293""
","
","
","""event"",""trial"",""time""
""fullscreenenter"",""1"",""2293""
","
","","1022.8300000017043","","","","practice","2021-06-08 21:26:45.994","img/practice_cards/backs/black.gif","0","-100","0","",""
"casino-fixation","37","229987","0.0-17.0-0.1","594","true","img/card_backs/set1/red.gif","img/card_backs/set1/purple.gif","img/card_backs/set1/green.gif","img/card_backs/set1/yellow.gif","img/card_backs/set2/blue.gif","img/card_backs/set2/gray.gif","img/card_backs/set2/orange.gif","img/card_backs/set2/pink.gif","""event"",""trial"",""time""
""fullscreenenter"",""1"",""2293""
","
","
","""event"",""trial"",""time""
""fullscreenenter"",""1"",""2293""
","
","","null","","null","","fixation","2021-06-08 21:26:46.499","","","","","",""
"card-selection-trial","38","232751","0.0-17.0-1.1","594","true","img/card_backs/set1/red.gif","img/card_backs/set1/purple.gif","img/card_backs/set1/green.gif","img/card_backs/set1/yellow.gif","img/card_backs/set2/blue.gif","img/card_backs/set2/gray.gif","img/card_backs/set2/orange.gif","img/card_backs/set2/pink.gif","""event"",""trial"",""time""
""fullscreenenter"",""1"",""2293""
","
","
","""event"",""trial"",""time""
""fullscreenenter"",""1"",""2293""
","
","","752.8800000145566","","","","practice","2021-06-08 21:26:49.263","img/practice_cards/backs/dark_green.gif","1","200","0","",""
"casino-fixation","39","233255","0.0-17.0-0.2","594","true","img/card_backs/set1/red.gif","img/card_backs/set1/purple.gif","img/card_backs/set1/green.gif","img/card_backs/set1/yellow.gif","img/card_backs/set2/blue.gif","img/card_backs/set2/gray.gif","img/card_backs/set2/orange.gif","img/card_backs/set2/pink.gif","""event"",""trial"",""time""
""fullscreenenter"",""1"",""2293""
","
","
","""event"",""trial"",""time""
""fullscreenenter"",""1"",""2293""
","
","","null","","null","","fixation","2021-06-08 21:26:49.768","","","","","",""
"card-selection-trial","40","236472","0.0-17.0-1.2","594","true","img/card_backs/set1/red.gif","img/card_backs/set1/purple.gif","img/card_backs/set1/green.gif","img/card_backs/set1/yellow.gif","img/card_backs/set2/blue.gif","img/card_backs/set2/gray.gif","img/card_backs/set2/orange.gif","img/card_backs/set2/pink.gif","""event"",""trial"",""time""
""fullscreenenter"",""1"",""2293""
","
","
","""event"",""trial"",""time""
""fullscreenenter"",""1"",""2293""
","
","","1210.6000000203494","","","","practice","2021-06-08 21:26:52.984","img/practice_cards/backs/dark_blue.gif","2","-200","0","",""
"casino-fixation","41","236975","0.0-17.0-0.3","594","true","img/card_backs/set1/red.gif","img/card_backs/set1/purple.gif","img/card_backs/set1/green.gif","img/card_backs/set1/yellow.gif","img/card_backs/set2/blue.gif","img/card_backs/set2/gray.gif","img/card_backs/set2/orange.gif","img/card_backs/set2/pink.gif","""event"",""trial"",""time""
""fullscreenenter"",""1"",""2293""
","
","
","""event"",""trial"",""time""
""fullscreenenter"",""1"",""2293""
","
","","null","","null","","fixation","2021-06-08 21:26:53.487","","","","","",""
"card-selection-trial","42","239473","0.0-17.0-1.3","594","true","img/card_backs/set1/red.gif","img/card_backs/set1/purple.gif","img/card_backs/set1/green.gif","img/card_backs/set1/yellow.gif","img/card_backs/set2/blue.gif","img/card_backs/set2/gray.gif","img/card_backs/set2/orange.gif","img/card_backs/set2/pink.gif","""event"",""trial"",""time""
""fullscreenenter"",""1"",""2293""
","
","
","""event"",""trial"",""time""
""fullscreenenter"",""1"",""2293""
","
","","487.90499998722225","","","","practice","2021-06-08 21:26:55.985","img/practice_cards/backs/dark_green.gif","3","-200","0","",""
"casino-fixation","43","239976","0.0-17.0-0.4","594","true","img/card_backs/set1/red.gif","img/card_backs/set1/purple.gif","img/card_backs/set1/green.gif","img/card_backs/set1/yellow.gif","img/card_backs/set2/blue.gif","img/card_backs/set2/gray.gif","img/card_backs/set2/orange.gif","img/card_backs/set2/pink.gif","""event"",""trial"",""time""
""fullscreenenter"",""1"",""2293""
","
","
","""event"",""trial"",""time""
""fullscreenenter"",""1"",""2293""
","
","","null","","null","","fixation","2021-06-08 21:26:56.488","","","","","",""
"card-selection-trial","44","242756","0.0-17.0-1.4","594","true","img/card_backs/set1/red.gif","img/card_backs/set1/purple.gif","img/card_backs/set1/green.gif","img/card_backs/set1/yellow.gif","img/card_backs/set2/blue.gif","img/card_backs/set2/gray.gif","img/card_backs/set2/orange.gif","img/card_backs/set2/pink.gif","""event"",""trial"",""time""
""fullscreenenter"",""1"",""2293""
","
","
","""event"",""trial"",""time""
""fullscreenenter"",""1"",""2293""
","
","","772.9799999797251","","","","practice","2021-06-08 21:26:59.268","img/practice_cards/backs/black.gif","0","-100","0","",""
"casino-fixation","45","243258","0.0-17.0-0.5","594","true","img/card_backs/set1/red.gif","img/card_backs/set1/purple.gif","img/card_backs/set1/green.gif","img/card_backs/set1/yellow.gif","img/card_backs/set2/blue.gif","img/card_backs/set2/gray.gif","img/card_backs/set2/orange.gif","img/card_backs/set2/pink.gif","""event"",""trial"",""time""
""fullscreenenter"",""1"",""2293""
","
","
","""event"",""trial"",""time""
""fullscreenenter"",""1"",""2293""
","
","","null","","null","","fixation","2021-06-08 21:26:59.770","","","","","",""
"card-selection-trial","46","246619","0.0-17.0-1.5","594","true","img/card_backs/set1/red.gif","img/card_backs/set1/purple.gif","img/card_backs/set1/green.gif","img/card_backs/set1/yellow.gif","img/card_backs/set2/blue.gif","img/card_backs/set2/gray.gif","img/card_backs/set2/orange.gif","img/card_backs/set2/pink.gif","""event"",""trial"",""time""
""fullscreenenter"",""1"",""2293""
","
","
","""event"",""trial"",""time""
""fullscreenenter"",""1"",""2293""
","
","","1350.4200000024866","","","","practice","2021-06-08 21:27:03.131","img/practice_cards/backs/black.gif","1","-100","0","",""
"casino-fixation","47","247124","0.0-17.0-0.6","594","true","img/card_backs/set1/red.gif","img/card_backs/set1/purple.gif","img/card_backs/set1/green.gif","img/card_backs/set1/yellow.gif","img/card_backs/set2/blue.gif","img/card_backs/set2/gray.gif","img/card_backs/set2/orange.gif","img/card_backs/set2/pink.gif","""event"",""trial"",""time""
""fullscreenenter"",""1"",""2293""
","
","
","""event"",""trial"",""time""
""fullscreenenter"",""1"",""2293""
","
","","null","","null","","fixation","2021-06-08 21:27:03.636","","","","","",""
"card-selection-trial","48","249463","0.0-17.0-1.6","594","true","img/card_backs/set1/red.gif","img/card_backs/set1/purple.gif","img/card_backs/set1/green.gif","img/card_backs/set1/yellow.gif","img/card_backs/set2/blue.gif","img/card_backs/set2/gray.gif","img/card_backs/set2/orange.gif","img/card_backs/set2/pink.gif","""event"",""trial"",""time""
""fullscreenenter"",""1"",""2293""
","
","
","""event"",""trial"",""time""
""fullscreenenter"",""1"",""2293""
","
","","332.68500000122003","","","","practice","2021-06-08 21:27:05.976","img/practice_cards/backs/dark_blue.gif","2","200","0","",""
"casino-fixation","49","249968","0.0-17.0-0.7","594","true","img/card_backs/set1/red.gif","img/card_backs/set1/purple.gif","img/card_backs/set1/green.gif","img/card_backs/set1/yellow.gif","img/card_backs/set2/blue.gif","img/card_backs/set2/gray.gif","img/card_backs/set2/orange.gif","img/card_backs/set2/pink.gif","""event"",""trial"",""time""
""fullscreenenter"",""1"",""2293""
","
","
","""event"",""trial"",""time""
""fullscreenenter"",""1"",""2293""
","
","","null","","null","","fixation","2021-06-08 21:27:06.480","","","","","",""
"card-selection-trial","50","252384","0.0-17.0-1.7","594","true","img/card_backs/set1/red.gif","img/card_backs/set1/purple.gif","img/card_backs/set1/green.gif","img/card_backs/set1/yellow.gif","img/card_backs/set2/blue.gif","img/card_backs/set2/gray.gif","img/card_backs/set2/orange.gif","img/card_backs/set2/pink.gif","""event"",""trial"",""time""
""fullscreenenter"",""1"",""2293""
","
","
","""event"",""trial"",""time""
""fullscreenenter"",""1"",""2293""
","
","","408.2150000031106","","","","practice","2021-06-08 21:27:08.896","img/practice_cards/backs/black.gif","3","100","0","",""
"casino-fixation","51","252887","0.0-17.0-0.8","594","true","img/card_backs/set1/red.gif","img/card_backs/set1/purple.gif","img/card_backs/set1/green.gif","img/card_backs/set1/yellow.gif","img/card_backs/set2/blue.gif","img/card_backs/set2/gray.gif","img/card_backs/set2/orange.gif","img/card_backs/set2/pink.gif","""event"",""trial"",""time""
""fullscreenenter"",""1"",""2293""
","
","
","""event"",""trial"",""time""
""fullscreenenter"",""1"",""2293""
","
","","null","","null","","fixation","2021-06-08 21:27:09.399","","","","","",""
"card-selection-trial","52","255998","0.0-17.0-1.8","594","true","img/card_backs/set1/red.gif","img/card_backs/set1/purple.gif","img/card_backs/set1/green.gif","img/card_backs/set1/yellow.gif","img/card_backs/set2/blue.gif","img/card_backs/set2/gray.gif","img/card_backs/set2/orange.gif","img/card_backs/set2/pink.gif","""event"",""trial"",""time""
""fullscreenenter"",""1"",""2293""
","
","
","""event"",""trial"",""time""
""fullscreenenter"",""1"",""2293""
","
","","1104.7449999896344","","","","practice","2021-06-08 21:27:12.510","img/practice_cards/backs/dark_blue.gif","2","-200","0","",""
"casino-fixation","53","256500","0.0-17.0-0.9","594","true","img/card_backs/set1/red.gif","img/card_backs/set1/purple.gif","img/card_backs/set1/green.gif","img/card_backs/set1/yellow.gif","img/card_backs/set2/blue.gif","img/card_backs/set2/gray.gif","img/card_backs/set2/orange.gif","img/card_backs/set2/pink.gif","""event"",""trial"",""time""
""fullscreenenter"",""1"",""2293""
","
","
","""event"",""trial"",""time""
""fullscreenenter"",""1"",""2293""
","
","","null","","null","","fixation","2021-06-08 21:27:13.013","","","","","",""
"card-selection-trial","54","258995","0.0-17.0-1.9","594","true","img/card_backs/set1/red.gif","img/card_backs/set1/purple.gif","img/card_backs/set1/green.gif","img/card_backs/set1/yellow.gif","img/card_backs/set2/blue.gif","img/card_backs/set2/gray.gif","img/card_backs/set2/orange.gif","img/card_backs/set2/pink.gif","""event"",""trial"",""time""
""fullscreenenter"",""1"",""2293""
","
","
","""event"",""trial"",""time""
""fullscreenenter"",""1"",""2293""
","
","","487.1899999852758","","","","practice","2021-06-08 21:27:15.507","img/practice_cards/backs/dark_green.gif","3","-200","0","",""
"casino-keyboard-response","55","262359","0.0-18.0","594","true","img/card_backs/set1/red.gif","img/card_backs/set1/purple.gif","img/card_backs/set1/green.gif","img/card_backs/set1/yellow.gif","img/card_backs/set2/blue.gif","img/card_backs/set2/gray.gif","img/card_backs/set2/orange.gif","img/card_backs/set2/pink.gif","""event"",""trial"",""time""
""fullscreenenter"",""1"",""2293""
","
","
","""event"",""trial"",""time""
""fullscreenenter"",""1"",""2293""
","
","","3361.99000000488","You earned -600 tokens during the practice round!","82","","","2021-06-08 21:27:18.871","","","","","",""
"casino-keyboard-response","56","266672","0.0-19.0-0.0","594","true","img/card_backs/set1/red.gif","img/card_backs/set1/purple.gif","img/card_backs/set1/green.gif","img/card_backs/set1/yellow.gif","img/card_backs/set2/blue.gif","img/card_backs/set2/gray.gif","img/card_backs/set2/orange.gif","img/card_backs/set2/pink.gif","""event"",""trial"",""time""
""fullscreenenter"",""1"",""2293""
","
","
","""event"",""trial"",""time""
""fullscreenenter"",""1"",""2293""
","
","","4310.879999975441","Nice job! You are almost ready to play the real game.","86","","instructions","2021-06-08 21:27:23.184","","","","","",""
"casino-keyboard-response","57","273155","0.0-19.0-0.1","594","true","img/card_backs/set1/red.gif","img/card_backs/set1/purple.gif","img/card_backs/set1/green.gif","img/card_backs/set1/yellow.gif","img/card_backs/set2/blue.gif","img/card_backs/set2/gray.gif","img/card_backs/set2/orange.gif","img/card_backs/set2/pink.gif","""event"",""trial"",""time""
""fullscreenenter"",""1"",""2293""
","
","
","""event"",""trial"",""time""
""fullscreenenter"",""1"",""2293""
","
","","6481.479999987641","You will play two rounds of the real game. In each round, you will pick 100 cards in total.","73","","instructions","2021-06-08 21:27:29.668","","","","","",""
"casino-keyboard-response","58","277120","0.0-19.0-0.2","594","true","img/card_backs/set1/red.gif","img/card_backs/set1/purple.gif","img/card_backs/set1/green.gif","img/card_backs/set1/yellow.gif","img/card_backs/set2/blue.gif","img/card_backs/set2/gray.gif","img/card_backs/set2/orange.gif","img/card_backs/set2/pink.gif","""event"",""trial"",""time""
""fullscreenenter"",""1"",""2293""
","
","
","""event"",""trial"",""time""
""fullscreenenter"",""1"",""2293""
","
","","3962.2199999867007","We are now going to ask you some questions about how the game works.","66","","instructions","2021-06-08 21:27:33.632","","","","","",""
"casino-keyboard-response","59","283395","0.0-19.0-0.3","594","true","img/card_backs/set1/red.gif","img/card_backs/set1/purple.gif","img/card_backs/set1/green.gif","img/card_backs/set1/yellow.gif","img/card_backs/set2/blue.gif","img/card_backs/set2/gray.gif","img/card_backs/set2/orange.gif","img/card_backs/set2/pink.gif","""event"",""trial"",""time""
""fullscreenenter"",""1"",""2293""
","
","
","""event"",""trial"",""time""
""fullscreenenter"",""1"",""2293""
","
","","6273.480000003474","Answer carefully. You will not be able to begin the game until you answer them correctly.","67","","instructions","2021-06-08 21:27:39.908","","","","","",""
"casino-comp_q","60","290389","0.0-20.0-0.0","594","true","img/card_backs/set1/red.gif","img/card_backs/set1/purple.gif","img/card_backs/set1/green.gif","img/card_backs/set1/yellow.gif","img/card_backs/set2/blue.gif","img/card_backs/set2/gray.gif","img/card_backs/set2/orange.gif","img/card_backs/set2/pink.gif","""event"",""trial"",""time""
""fullscreenenter"",""1"",""2293""
","
","
","""event"",""trial"",""time""
""fullscreenenter"",""1"",""2293""
","
","","6990.854999981821","True or False: All the decks have some cards that cause you to win tokens and some cards that cause you to lose tokens.","84","","","2021-06-08 21:27:46.901","","","","","",""
"casino-keyboard-response","61","296912","0.0-20.0-1.0","594","true","img/card_backs/set1/red.gif","img/card_backs/set1/purple.gif","img/card_backs/set1/green.gif","img/card_backs/set1/yellow.gif","img/card_backs/set2/blue.gif","img/card_backs/set2/gray.gif","img/card_backs/set2/orange.gif","img/card_backs/set2/pink.gif","""event"",""trial"",""time""
""fullscreenenter"",""1"",""2293""
","
","
","""event"",""trial"",""time""
""fullscreenenter"",""1"",""2293""
","
","","6520.0499999918975","True is correct! All the decks have a mix of winning and losing cards.","77","","","2021-06-08 21:27:53.424","","","","","true",""
"casino-comp_q","62","302944","0.0-21.0-0.0","594","true","img/card_backs/set1/red.gif","img/card_backs/set1/purple.gif","img/card_backs/set1/green.gif","img/card_backs/set1/yellow.gif","img/card_backs/set2/blue.gif","img/card_backs/set2/gray.gif","img/card_backs/set2/orange.gif","img/card_backs/set2/pink.gif","""event"",""trial"",""time""
""fullscreenenter"",""1"",""2293""
","
","
","""event"",""trial"",""time""
""fullscreenenter"",""1"",""2293""
","
","","6028.254999982892","True or False: You will have as much time as you want to make your response.","70","","","2021-06-08 21:27:59.457","","","","","",""
"casino-keyboard-response","63","312943","0.0-21.0-1.0","594","true","img/card_backs/set1/red.gif","img/card_backs/set1/purple.gif","img/card_backs/set1/green.gif","img/card_backs/set1/yellow.gif","img/card_backs/set2/blue.gif","img/card_backs/set2/gray.gif","img/card_backs/set2/orange.gif","img/card_backs/set2/pink.gif","""event"",""trial"",""time""
""fullscreenenter"",""1"",""2293""
","
","
","""event"",""trial"",""time""
""fullscreenenter"",""1"",""2293""
","
","","9996.08499999158","False is correct! You will only have 10 seconds to make each choice.","75","","","2021-06-08 21:28:09.455","","","","","true",""
"casino-comp_q","64","318570","0.0-22.0-0.0","594","true","img/card_backs/set1/red.gif","img/card_backs/set1/purple.gif","img/card_backs/set1/green.gif","img/card_backs/set1/yellow.gif","img/card_backs/set2/blue.gif","img/card_backs/set2/gray.gif","img/card_backs/set2/orange.gif","img/card_backs/set2/pink.gif","""event"",""trial"",""time""
""fullscreenenter"",""1"",""2293""
","
","
","""event"",""trial"",""time""
""fullscreenenter"",""1"",""2293""
","
","","5624.115000013262","True or False: The location of the deck determines how lucky it is.","70","","","2021-06-08 21:28:15.082","","","","","",""
"casino-keyboard-response","65","321628","0.0-22.0-1.0","594","true","img/card_backs/set1/red.gif","img/card_backs/set1/purple.gif","img/card_backs/set1/green.gif","img/card_backs/set1/yellow.gif","img/card_backs/set2/blue.gif","img/card_backs/set2/gray.gif","img/card_backs/set2/orange.gif","img/card_backs/set2/pink.gif","""event"",""trial"",""time""
""fullscreenenter"",""1"",""2293""
","
","
","""event"",""trial"",""time""
""fullscreenenter"",""1"",""2293""
","
","","3055.8299999975134","False is correct! The <i>color</i>  of the deck determines how lucky or unlucky it is.","68","","","2021-06-08 21:28:18.140","","","","","true",""
"casino-keyboard-response","66","358261","0.0-23.0-0.0","594","true","img/card_backs/set1/red.gif","img/card_backs/set1/purple.gif","img/card_backs/set1/green.gif","img/card_backs/set1/yellow.gif","img/card_backs/set2/blue.gif","img/card_backs/set2/gray.gif","img/card_backs/set2/orange.gif","img/card_backs/set2/pink.gif","""event"",""trial"",""time""
""fullscreenenter"",""1"",""2293""
","
","
","""event"",""trial"",""time""
""fullscreenenter"",""1"",""2293""
","
","","36629.62000002153","Great job! Now it's time to start the real game.","82","","instructions","2021-06-08 21:28:54.773","","","","","",""
"casino-keyboard-response","67","363265","0.0-23.0-0.1","594","true","img/card_backs/set1/red.gif","img/card_backs/set1/purple.gif","img/card_backs/set1/green.gif","img/card_backs/set1/yellow.gif","img/card_backs/set2/blue.gif","img/card_backs/set2/gray.gif","img/card_backs/set2/orange.gif","img/card_backs/set2/pink.gif","""event"",""trial"",""time""
""fullscreenenter"",""1"",""2293""
","
","
","""event"",""trial"",""time""
""fullscreenenter"",""1"",""2293""
","
","","5002.4649999977555","Before we start, we're going to head into a new room of the casino.","86","","instructions","2021-06-08 21:28:59.777","","","","","",""
"casino-keyboard-response","68","369531","0.0-24.0-0.0","594","true","img/card_backs/set1/red.gif","img/card_backs/set1/purple.gif","img/card_backs/set1/green.gif","img/card_backs/set1/yellow.gif","img/card_backs/set2/blue.gif","img/card_backs/set2/gray.gif","img/card_backs/set2/orange.gif","img/card_backs/set2/pink.gif","""event"",""trial"",""time""
""fullscreenenter"",""1"",""2293""
","
","
","""event"",""trial"",""time""
""fullscreenenter"",""1"",""2293""
","
","","6264.395000005607","Here we are! The real game will use different cards, but the rules will be the same.","71","","instructions","2021-06-08 21:29:06.044","","","","","",""
"casino-keyboard-response","69","371182","0.0-24.0-0.1","594","true","img/card_backs/set1/red.gif","img/card_backs/set1/purple.gif","img/card_backs/set1/green.gif","img/card_backs/set1/yellow.gif","img/card_backs/set2/blue.gif","img/card_backs/set2/gray.gif","img/card_backs/set2/orange.gif","img/card_backs/set2/pink.gif","""event"",""trial"",""time""
""fullscreenenter"",""1"",""2293""
","
","
","""event"",""trial"",""time""
""fullscreenenter"",""1"",""2293""
","
","","1648.5849999880884","Ready? Put your fingers over the '2', '4', 6', and '8' keys so you are ready to play the game. </br> Then press 2 to start.","50","","instructions","2021-06-08 21:29:07.694","","","","","",""
"casino-fixation","70","371685","0.0-25.0-0.0","594","true","img/card_backs/set1/red.gif","img/card_backs/set1/purple.gif","img/card_backs/set1/green.gif","img/card_backs/set1/yellow.gif","img/card_backs/set2/blue.gif","img/card_backs/set2/gray.gif","img/card_backs/set2/orange.gif","img/card_backs/set2/pink.gif","""event"",""trial"",""time""
""fullscreenenter"",""1"",""2293""
","
","
","""event"",""trial"",""time""
""fullscreenenter"",""1"",""2293""
","
","","null","","null","","fixation","2021-06-08 21:29:08.197","","","","","",""
"card-selection-trial","71","374512","0.0-25.0-1.0","594","true","img/card_backs/set1/red.gif","img/card_backs/set1/purple.gif","img/card_backs/set1/green.gif","img/card_backs/set1/yellow.gif","img/card_backs/set2/blue.gif","img/card_backs/set2/gray.gif","img/card_backs/set2/orange.gif","img/card_backs/set2/pink.gif","""event"",""trial"",""time""
""fullscreenenter"",""1"",""2293""
","
","
","""event"",""trial"",""time""
""fullscreenenter"",""1"",""2293""
","
","","819.9899999890476","","","","real_trial","2021-06-08 21:29:11.024","img/card_backs/set1/yellow.gif","0","60","1","",""
"casino-fixation","72","375017","0.0-25.0-0.1","594","true","img/card_backs/set1/red.gif","img/card_backs/set1/purple.gif","img/card_backs/set1/green.gif","img/card_backs/set1/yellow.gif","img/card_backs/set2/blue.gif","img/card_backs/set2/gray.gif","img/card_backs/set2/orange.gif","img/card_backs/set2/pink.gif","""event"",""trial"",""time""
""fullscreenenter"",""1"",""2293""
","
","
","""event"",""trial"",""time""
""fullscreenenter"",""1"",""2293""
","
","","null","","null","","fixation","2021-06-08 21:29:11.529","","","","","",""
"card-selection-trial","73","377461","0.0-25.0-1.1","594","true","img/card_backs/set1/red.gif","img/card_backs/set1/purple.gif","img/card_backs/set1/green.gif","img/card_backs/set1/yellow.gif","img/card_backs/set2/blue.gif","img/card_backs/set2/gray.gif","img/card_backs/set2/orange.gif","img/card_backs/set2/pink.gif","""event"",""trial"",""time""
""fullscreenenter"",""1"",""2293""
","
","
","""event"",""trial"",""time""
""fullscreenenter"",""1"",""2293""
","
","","433.47999997786246","","","","real_trial","2021-06-08 21:29:13.973","img/card_backs/set1/yellow.gif","0","-100","1","",""
"casino-fixation","74","377966","0.0-25.0-0.2","594","true","img/card_backs/set1/red.gif","img/card_backs/set1/purple.gif","img/card_backs/set1/green.gif","img/card_backs/set1/yellow.gif","img/card_backs/set2/blue.gif","img/card_backs/set2/gray.gif","img/card_backs/set2/orange.gif","img/card_backs/set2/pink.gif","""event"",""trial"",""time""
""fullscreenenter"",""1"",""2293""
","
","
","""event"",""trial"",""time""
""fullscreenenter"",""1"",""2293""
","
","","null","","null","","fixation","2021-06-08 21:29:14.478","","","","","",""
"card-selection-trial","75","380764","0.0-25.0-1.2","594","true","img/card_backs/set1/red.gif","img/card_backs/set1/purple.gif","img/card_backs/set1/green.gif","img/card_backs/set1/yellow.gif","img/card_backs/set2/blue.gif","img/card_backs/set2/gray.gif","img/card_backs/set2/orange.gif","img/card_backs/set2/pink.gif","""event"",""trial"",""time""
""fullscreenenter"",""1"",""2293""
","
","
","""event"",""trial"",""time""
""fullscreenenter"",""1"",""2293""
","
","","788.1199999828823","","","","real_trial","2021-06-08 21:29:17.276","img/card_backs/set1/yellow.gif","0","40","1","",""
"casino-fixation","76","381268","0.0-25.0-0.3","594","true","img/card_backs/set1/red.gif","img/card_backs/set1/purple.gif","img/card_backs/set1/green.gif","img/card_backs/set1/yellow.gif","img/card_backs/set2/blue.gif","img/card_backs/set2/gray.gif","img/card_backs/set2/orange.gif","img/card_backs/set2/pink.gif","""event"",""trial"",""time""
""fullscreenenter"",""1"",""2293""
","
","
","""event"",""trial"",""time""
""fullscreenenter"",""1"",""2293""
","
","","null","","null","","fixation","2021-06-08 21:29:17.780","","","","","",""
"card-selection-trial","77","384177","0.0-25.0-1.3","594","true","img/card_backs/set1/red.gif","img/card_backs/set1/purple.gif","img/card_backs/set1/green.gif","img/card_backs/set1/yellow.gif","img/card_backs/set2/blue.gif","img/card_backs/set2/gray.gif","img/card_backs/set2/orange.gif","img/card_backs/set2/pink.gif","""event"",""trial"",""time""
""fullscreenenter"",""1"",""2293""
","
","
","""event"",""trial"",""time""
""fullscreenenter"",""1"",""2293""
","
","","901.110000006156","","","","real_trial","2021-06-08 21:29:20.689","img/card_backs/set1/purple.gif","0","240","1","",""
"casino-fixation","78","384683","0.0-25.0-0.4","594","true","img/card_backs/set1/red.gif","img/card_backs/set1/purple.gif","img/card_backs/set1/green.gif","img/card_backs/set1/yellow.gif","img/card_backs/set2/blue.gif","img/card_backs/set2/gray.gif","img/card_backs/set2/orange.gif","img/card_backs/set2/pink.gif","""event"",""trial"",""time""
""fullscreenenter"",""1"",""2293""
","
","
","""event"",""trial"",""time""
""fullscreenenter"",""1"",""2293""
","
","","null","","null","","fixation","2021-06-08 21:29:21.195","","","","","",""
"card-selection-trial","79","388476","0.0-25.0-1.4","594","true","img/card_backs/set1/red.gif","img/card_backs/set1/purple.gif","img/card_backs/set1/green.gif","img/card_backs/set1/yellow.gif","img/card_backs/set2/blue.gif","img/card_backs/set2/gray.gif","img/card_backs/set2/orange.gif","img/card_backs/set2/pink.gif","""event"",""trial"",""time""
""fullscreenenter"",""1"",""2293""
","
","
","""event"",""trial"",""time""
""fullscreenenter"",""1"",""2293""
","
","","1785.4950000182725","","","","real_trial","2021-06-08 21:29:24.988","img/card_backs/set1/yellow.gif","3","60","1","",""
"casino-fixation","80","388978","0.0-25.0-0.5","594","true","img/card_backs/set1/red.gif","img/card_backs/set1/purple.gif","img/card_backs/set1/green.gif","img/card_backs/set1/yellow.gif","img/card_backs/set2/blue.gif","img/card_backs/set2/gray.gif","img/card_backs/set2/orange.gif","img/card_backs/set2/pink.gif","""event"",""trial"",""time""
""fullscreenenter"",""1"",""2293""
","
","
","""event"",""trial"",""time""
""fullscreenenter"",""1"",""2293""
","
","","null","","null","","fixation","2021-06-08 21:29:25.491","","","","","",""
"card-selection-trial","81","391631","0.0-25.0-1.5","594","true","img/card_backs/set1/red.gif","img/card_backs/set1/purple.gif","img/card_backs/set1/green.gif","img/card_backs/set1/yellow.gif","img/card_backs/set2/blue.gif","img/card_backs/set2/gray.gif","img/card_backs/set2/orange.gif","img/card_backs/set2/pink.gif","""event"",""trial"",""time""
""fullscreenenter"",""1"",""2293""
","
","
","""event"",""trial"",""time""
""fullscreenenter"",""1"",""2293""
","
","","644.3399999989197","","","","real_trial","2021-06-08 21:29:28.144","img/card_backs/set1/yellow.gif","0","50","1","",""
"casino-fixation","82","392136","0.0-25.0-0.6","594","true","img/card_backs/set1/red.gif","img/card_backs/set1/purple.gif","img/card_backs/set1/green.gif","img/card_backs/set1/yellow.gif","img/card_backs/set2/blue.gif","img/card_backs/set2/gray.gif","img/card_backs/set2/orange.gif","img/card_backs/set2/pink.gif","""event"",""trial"",""time""
""fullscreenenter"",""1"",""2293""
","
","
","""event"",""trial"",""time""
""fullscreenenter"",""1"",""2293""
","
","","null","","null","","fixation","2021-06-08 21:29:28.649","","","","","",""
"card-selection-trial","83","395306","0.0-25.0-1.6","594","true","img/card_backs/set1/red.gif","img/card_backs/set1/purple.gif","img/card_backs/set1/green.gif","img/card_backs/set1/yellow.gif","img/card_backs/set2/blue.gif","img/card_backs/set2/gray.gif","img/card_backs/set2/orange.gif","img/card_backs/set2/pink.gif","""event"",""trial"",""time""
""fullscreenenter"",""1"",""2293""
","
","
","""event"",""trial"",""time""
""fullscreenenter"",""1"",""2293""
","
","","1160.8300000079907","","","","real_trial","2021-06-08 21:29:31.818","img/card_backs/set1/yellow.gif","1","50","1","",""
"casino-fixation","84","395811","0.0-25.0-0.7","594","true","img/card_backs/set1/red.gif","img/card_backs/set1/purple.gif","img/card_backs/set1/green.gif","img/card_backs/set1/yellow.gif","img/card_backs/set2/blue.gif","img/card_backs/set2/gray.gif","img/card_backs/set2/orange.gif","img/card_backs/set2/pink.gif","""event"",""trial"",""time""
""fullscreenenter"",""1"",""2293""
","
","
","""event"",""trial"",""time""
""fullscreenenter"",""1"",""2293""
","
","","null","","null","","fixation","2021-06-08 21:29:32.323","","","","","",""
"card-selection-trial","85","399462","0.0-25.0-1.7","594","true","img/card_backs/set1/red.gif","img/card_backs/set1/purple.gif","img/card_backs/set1/green.gif","img/card_backs/set1/yellow.gif","img/card_backs/set2/blue.gif","img/card_backs/set2/gray.gif","img/card_backs/set2/orange.gif","img/card_backs/set2/pink.gif","""event"",""trial"",""time""
""fullscreenenter"",""1"",""2293""
","
","
","""event"",""trial"",""time""
""fullscreenenter"",""1"",""2293""
","
","","1645.2099999878556","","","","real_trial","2021-06-08 21:29:35.974","img/card_backs/set1/yellow.gif","0","-100","1","",""
"casino-fixation","86","399967","0.0-25.0-0.8","594","true","img/card_backs/set1/red.gif","img/card_backs/set1/purple.gif","img/card_backs/set1/green.gif","img/card_backs/set1/yellow.gif","img/card_backs/set2/blue.gif","img/card_backs/set2/gray.gif","img/card_backs/set2/orange.gif","img/card_backs/set2/pink.gif","""event"",""trial"",""time""
""fullscreenenter"",""1"",""2293""
","
","
","""event"",""trial"",""time""
""fullscreenenter"",""1"",""2293""
","
","","null","","null","","fixation","2021-06-08 21:29:36.479","","","","","",""
"card-selection-trial","87","403229","0.0-25.0-1.8","594","true","img/card_backs/set1/red.gif","img/card_backs/set1/purple.gif","img/card_backs/set1/green.gif","img/card_backs/set1/yellow.gif","img/card_backs/set2/blue.gif","img/card_backs/set2/gray.gif","img/card_backs/set2/orange.gif","img/card_backs/set2/pink.gif","""event"",""trial"",""time""
""fullscreenenter"",""1"",""2293""
","
","
","""event"",""trial"",""time""
""fullscreenenter"",""1"",""2293""
","
","","1254.4300000008661","","","","real_trial","2021-06-08 21:29:39.741","img/card_backs/set1/yellow.gif","3","-100","1","",""
"casino-fixation","88","403736","0.0-25.0-0.9","594","true","img/card_backs/set1/red.gif","img/card_backs/set1/purple.gif","img/card_backs/set1/green.gif","img/card_backs/set1/yellow.gif","img/card_backs/set2/blue.gif","img/card_backs/set2/gray.gif","img/card_backs/set2/orange.gif","img/card_backs/set2/pink.gif","""event"",""trial"",""time""
""fullscreenenter"",""1"",""2293""
","
","
","""event"",""trial"",""time""
""fullscreenenter"",""1"",""2293""
","
","","null","","null","","fixation","2021-06-08 21:29:40.248","","","","","",""
"card-selection-trial","89","407288","0.0-25.0-1.9","594","true","img/card_backs/set1/red.gif","img/card_backs/set1/purple.gif","img/card_backs/set1/green.gif","img/card_backs/set1/yellow.gif","img/card_backs/set2/blue.gif","img/card_backs/set2/gray.gif","img/card_backs/set2/orange.gif","img/card_backs/set2/pink.gif","""event"",""trial"",""time""
""fullscreenenter"",""1"",""2293""
","
","
","""event"",""trial"",""time""
""fullscreenenter"",""1"",""2293""
","
","","1541.414999985136","","","","real_trial","2021-06-08 21:29:43.800","img/card_backs/set1/purple.gif","1","-190","1","",""
"casino-fixation","90","407793","0.0-25.0-0.10","594","true","img/card_backs/set1/red.gif","img/card_backs/set1/purple.gif","img/card_backs/set1/green.gif","img/card_backs/set1/yellow.gif","img/card_backs/set2/blue.gif","img/card_backs/set2/gray.gif","img/card_backs/set2/orange.gif","img/card_backs/set2/pink.gif","""event"",""trial"",""time""
""fullscreenenter"",""1"",""2293""
","
","
","""event"",""trial"",""time""
""fullscreenenter"",""1"",""2293""
","
","","null","","null","","fixation","2021-06-08 21:29:44.305","","","","","",""
"card-selection-trial","91","413083","0.0-25.0-1.10","594","true","img/card_backs/set1/red.gif","img/card_backs/set1/purple.gif","img/card_backs/set1/green.gif","img/card_backs/set1/yellow.gif","img/card_backs/set2/blue.gif","img/card_backs/set2/gray.gif","img/card_backs/set2/orange.gif","img/card_backs/set2/pink.gif","""event"",""trial"",""time""
""fullscreenenter"",""1"",""2293""
","
","
","""event"",""trial"",""time""
""fullscreenenter"",""1"",""2293""
","
","","3277.525000012247","","","","real_trial","2021-06-08 21:29:49.595","img/card_backs/set1/yellow.gif","2","-100","1","",""
"casino-fixation","92","413585","0.0-25.0-0.11","594","true","img/card_backs/set1/red.gif","img/card_backs/set1/purple.gif","img/card_backs/set1/green.gif","img/card_backs/set1/yellow.gif","img/card_backs/set2/blue.gif","img/card_backs/set2/gray.gif","img/card_backs/set2/orange.gif","img/card_backs/set2/pink.gif","""event"",""trial"",""time""
""fullscreenenter"",""1"",""2293""
","
","
","""event"",""trial"",""time""
""fullscreenenter"",""1"",""2293""
","
","","null","","null","","fixation","2021-06-08 21:29:50.097","","","","","",""
"card-selection-trial","93","416830","0.0-25.0-1.11","594","true","img/card_backs/set1/red.gif","img/card_backs/set1/purple.gif","img/card_backs/set1/green.gif","img/card_backs/set1/yellow.gif","img/card_backs/set2/blue.gif","img/card_backs/set2/gray.gif","img/card_backs/set2/orange.gif","img/card_backs/set2/pink.gif","""event"",""trial"",""time""
""fullscreenenter"",""1"",""2293""
","
","
","""event"",""trial"",""time""
""fullscreenenter"",""1"",""2293""
","
","","1239.640000014333","","","","real_trial","2021-06-08 21:29:53.342","img/card_backs/set1/yellow.gif","2","60","1","",""
"casino-fixation","94","417335","0.0-25.0-0.12","594","true","img/card_backs/set1/red.gif","img/card_backs/set1/purple.gif","img/card_backs/set1/green.gif","img/card_backs/set1/yellow.gif","img/card_backs/set2/blue.gif","img/card_backs/set2/gray.gif","img/card_backs/set2/orange.gif","img/card_backs/set2/pink.gif","""event"",""trial"",""time""
""fullscreenenter"",""1"",""2293""
","
","
","""event"",""trial"",""time""
""fullscreenenter"",""1"",""2293""
","
","","null","","null","","fixation","2021-06-08 21:29:53.847","","","","","",""
"card-selection-trial","95","421495","0.0-25.0-1.12","594","true","img/card_backs/set1/red.gif","img/card_backs/set1/purple.gif","img/card_backs/set1/green.gif","img/card_backs/set1/yellow.gif","img/card_backs/set2/blue.gif","img/card_backs/set2/gray.gif","img/card_backs/set2/orange.gif","img/card_backs/set2/pink.gif","""event"",""trial"",""time""
""fullscreenenter"",""1"",""2293""
","
","
","""event"",""trial"",""time""
""fullscreenenter"",""1"",""2293""
","
","","2154.1599999764003","","","","real_trial","2021-06-08 21:29:58.007","img/card_backs/set1/yellow.gif","1","60","1","",""
"casino-fixation","96","421999","0.0-25.0-0.13","594","true","img/card_backs/set1/red.gif","img/card_backs/set1/purple.gif","img/card_backs/set1/green.gif","img/card_backs/set1/yellow.gif","img/card_backs/set2/blue.gif","img/card_backs/set2/gray.gif","img/card_backs/set2/orange.gif","img/card_backs/set2/pink.gif","""event"",""trial"",""time""
""fullscreenenter"",""1"",""2293""
","
","
","""event"",""trial"",""time""
""fullscreenenter"",""1"",""2293""
","
","","null","","null","","fixation","2021-06-08 21:29:58.511","","","","","",""
"card-selection-trial","97","425140","0.0-25.0-1.13","594","true","img/card_backs/set1/red.gif","img/card_backs/set1/purple.gif","img/card_backs/set1/green.gif","img/card_backs/set1/yellow.gif","img/card_backs/set2/blue.gif","img/card_backs/set2/gray.gif","img/card_backs/set2/orange.gif","img/card_backs/set2/pink.gif","""event"",""trial"",""time""
""fullscreenenter"",""1"",""2293""
","
","
","""event"",""trial"",""time""
""fullscreenenter"",""1"",""2293""
","
","","1132.290000008652","","","","real_trial","2021-06-08 21:30:01.652","img/card_backs/set1/yellow.gif","0","60","1","",""
"casino-fixation","98","425642","0.0-25.0-0.14","594","true","img/card_backs/set1/red.gif","img/card_backs/set1/purple.gif","img/card_backs/set1/green.gif","img/card_backs/set1/yellow.gif","img/card_backs/set2/blue.gif","img/card_backs/set2/gray.gif","img/card_backs/set2/orange.gif","img/card_backs/set2/pink.gif","""event"",""trial"",""time""
""fullscreenenter"",""1"",""2293""
","
","
","""event"",""trial"",""time""
""fullscreenenter"",""1"",""2293""
","
","","null","","null","","fixation","2021-06-08 21:30:02.154","","","","","",""
"card-selection-trial","99","429283","0.0-25.0-1.14","594","true","img/card_backs/set1/red.gif","img/card_backs/set1/purple.gif","img/card_backs/set1/green.gif","img/card_backs/set1/yellow.gif","img/card_backs/set2/blue.gif","img/card_backs/set2/gray.gif","img/card_backs/set2/orange.gif","img/card_backs/set2/pink.gif","""event"",""trial"",""time""
""fullscreenenter"",""1"",""2293""
","
","
","""event"",""trial"",""time""
""fullscreenenter"",""1"",""2293""
","
","","1629.449999978533","","","","real_trial","2021-06-08 21:30:05.796","img/card_backs/set1/yellow.gif","2","50","1","",""
"casino-fixation","100","429789","0.0-25.0-0.15","594","true","img/card_backs/set1/red.gif","img/card_backs/set1/purple.gif","img/card_backs/set1/green.gif","img/card_backs/set1/yellow.gif","img/card_backs/set2/blue.gif","img/card_backs/set2/gray.gif","img/card_backs/set2/orange.gif","img/card_backs/set2/pink.gif","""event"",""trial"",""time""
""fullscreenenter"",""1"",""2293""
","
","
","""event"",""trial"",""time""
""fullscreenenter"",""1"",""2293""
","
","","null","","null","","fixation","2021-06-08 21:30:06.301","","","","","",""
"card-selection-trial","101","432573","0.0-25.0-1.15","594","true","img/card_backs/set1/red.gif","img/card_backs/set1/purple.gif","img/card_backs/set1/green.gif","img/card_backs/set1/yellow.gif","img/card_backs/set2/blue.gif","img/card_backs/set2/gray.gif","img/card_backs/set2/orange.gif","img/card_backs/set2/pink.gif","""event"",""trial"",""time""
""fullscreenenter"",""1"",""2293""
","
","
","""event"",""trial"",""time""
""fullscreenenter"",""1"",""2293""
","
","","775.0949999899603","","","","real_trial","2021-06-08 21:30:09.085","img/card_backs/set1/yellow.gif","2","40","1","",""
"casino-fixation","102","433075","0.0-25.0-0.16","594","true","img/card_backs/set1/red.gif","img/card_backs/set1/purple.gif","img/card_backs/set1/green.gif","img/card_backs/set1/yellow.gif","img/card_backs/set2/blue.gif","img/card_backs/set2/gray.gif","img/card_backs/set2/orange.gif","img/card_backs/set2/pink.gif","""event"",""trial"",""time""
""fullscreenenter"",""1"",""2293""
","
","
","""event"",""trial"",""time""
""fullscreenenter"",""1"",""2293""
","
","","null","","null","","fixation","2021-06-08 21:30:09.587","","","","","",""
"card-selection-trial","103","435850","0.0-25.0-1.16","594","true","img/card_backs/set1/red.gif","img/card_backs/set1/purple.gif","img/card_backs/set1/green.gif","img/card_backs/set1/yellow.gif","img/card_backs/set2/blue.gif","img/card_backs/set2/gray.gif","img/card_backs/set2/orange.gif","img/card_backs/set2/pink.gif","""event"",""trial"",""time""
""fullscreenenter"",""1"",""2293""
","
","
","""event"",""trial"",""time""
""fullscreenenter"",""1"",""2293""
","
","","768.4400000143796","","","","real_trial","2021-06-08 21:30:12.362","img/card_backs/set1/yellow.gif","3","-90","1","",""
"casino-fixation","104","436354","0.0-25.0-0.17","594","true","img/card_backs/set1/red.gif","img/card_backs/set1/purple.gif","img/card_backs/set1/green.gif","img/card_backs/set1/yellow.gif","img/card_backs/set2/blue.gif","img/card_backs/set2/gray.gif","img/card_backs/set2/orange.gif","img/card_backs/set2/pink.gif","""event"",""trial"",""time""
""fullscreenenter"",""1"",""2293""
","
","
","""event"",""trial"",""time""
""fullscreenenter"",""1"",""2293""
","
","","null","","null","","fixation","2021-06-08 21:30:12.866","","","","","",""
"card-selection-trial","105","439332","0.0-25.0-1.17","594","true","img/card_backs/set1/red.gif","img/card_backs/set1/purple.gif","img/card_backs/set1/green.gif","img/card_backs/set1/yellow.gif","img/card_backs/set2/blue.gif","img/card_backs/set2/gray.gif","img/card_backs/set2/orange.gif","img/card_backs/set2/pink.gif","""event"",""trial"",""time""
""fullscreenenter"",""1"",""2293""
","
","
","""event"",""trial"",""time""
""fullscreenenter"",""1"",""2293""
","
","","968.605000001844","","","","real_trial","2021-06-08 21:30:15.844","img/card_backs/set1/yellow.gif","1","60","1","",""
"casino-fixation","106","439838","0.0-25.0-0.18","594","true","img/card_backs/set1/red.gif","img/card_backs/set1/purple.gif","img/card_backs/set1/green.gif","img/card_backs/set1/yellow.gif","img/card_backs/set2/blue.gif","img/card_backs/set2/gray.gif","img/card_backs/set2/orange.gif","img/card_backs/set2/pink.gif","""event"",""trial"",""time""
""fullscreenenter"",""1"",""2293""
","
","
","""event"",""trial"",""time""
""fullscreenenter"",""1"",""2293""
","
","","null","","null","","fixation","2021-06-08 21:30:16.350","","","","","",""
"card-selection-trial","107","443790","0.0-25.0-1.18","594","true","img/card_backs/set1/red.gif","img/card_backs/set1/purple.gif","img/card_backs/set1/green.gif","img/card_backs/set1/yellow.gif","img/card_backs/set2/blue.gif","img/card_backs/set2/gray.gif","img/card_backs/set2/orange.gif","img/card_backs/set2/pink.gif","""event"",""trial"",""time""
""fullscreenenter"",""1"",""2293""
","
","
","""event"",""trial"",""time""
""fullscreenenter"",""1"",""2293""
","
","","1941.2500000034925","","","","real_trial","2021-06-08 21:30:20.303","img/card_backs/set1/yellow.gif","3","50","1","",""
"casino-fixation","108","444296","0.0-25.0-0.19","594","true","img/card_backs/set1/red.gif","img/card_backs/set1/purple.gif","img/card_backs/set1/green.gif","img/card_backs/set1/yellow.gif","img/card_backs/set2/blue.gif","img/card_backs/set2/gray.gif","img/card_backs/set2/orange.gif","img/card_backs/set2/pink.gif","""event"",""trial"",""time""
""fullscreenenter"",""1"",""2293""
","
","
","""event"",""trial"",""time""
""fullscreenenter"",""1"",""2293""
","
","","null","","null","","fixation","2021-06-08 21:30:20.808","","","","","",""
"card-selection-trial","109","447153","0.0-25.0-1.19","594","true","img/card_backs/set1/red.gif","img/card_backs/set1/purple.gif","img/card_backs/set1/green.gif","img/card_backs/set1/yellow.gif","img/card_backs/set2/blue.gif","img/card_backs/set2/gray.gif","img/card_backs/set2/orange.gif","img/card_backs/set2/pink.gif","""event"",""trial"",""time""
""fullscreenenter"",""1"",""2293""
","
","
","""event"",""trial"",""time""
""fullscreenenter"",""1"",""2293""
","
","","848.9249999984168","","","","real_trial","2021-06-08 21:30:23.665","img/card_backs/set1/yellow.gif","1","50","1","",""
"casino-fixation","110","447657","0.0-25.0-0.20","594","true","img/card_backs/set1/red.gif","img/card_backs/set1/purple.gif","img/card_backs/set1/green.gif","img/card_backs/set1/yellow.gif","img/card_backs/set2/blue.gif","img/card_backs/set2/gray.gif","img/card_backs/set2/orange.gif","img/card_backs/set2/pink.gif","""event"",""trial"",""time""
""fullscreenenter"",""1"",""2293""
","
","
","""event"",""trial"",""time""
""fullscreenenter"",""1"",""2293""
","
","","null","","null","","fixation","2021-06-08 21:30:24.169","","","","","",""
"card-selection-trial","111","450636","0.0-25.0-1.20","594","true","img/card_backs/set1/red.gif","img/card_backs/set1/purple.gif","img/card_backs/set1/green.gif","img/card_backs/set1/yellow.gif","img/card_backs/set2/blue.gif","img/card_backs/set2/gray.gif","img/card_backs/set2/orange.gif","img/card_backs/set2/pink.gif","""event"",""trial"",""time""
""fullscreenenter"",""1"",""2293""
","
","
","""event"",""trial"",""time""
""fullscreenenter"",""1"",""2293""
","
","","968.6100000108127","","","","real_trial","2021-06-08 21:30:27.148","img/card_backs/set1/yellow.gif","0","50","1","",""
"casino-fixation","112","451140","0.0-25.0-0.21","594","true","img/card_backs/set1/red.gif","img/card_backs/set1/purple.gif","img/card_backs/set1/green.gif","img/card_backs/set1/yellow.gif","img/card_backs/set2/blue.gif","img/card_backs/set2/gray.gif","img/card_backs/set2/orange.gif","img/card_backs/set2/pink.gif","""event"",""trial"",""time""
""fullscreenenter"",""1"",""2293""
","
","
","""event"",""trial"",""time""
""fullscreenenter"",""1"",""2293""
","
","","null","","null","","fixation","2021-06-08 21:30:27.652","","","","","",""
"card-selection-trial","113","453701","0.0-25.0-1.21","594","true","img/card_backs/set1/red.gif","img/card_backs/set1/purple.gif","img/card_backs/set1/green.gif","img/card_backs/set1/yellow.gif","img/card_backs/set2/blue.gif","img/card_backs/set2/gray.gif","img/card_backs/set2/orange.gif","img/card_backs/set2/pink.gif","""event"",""trial"",""time""
""fullscreenenter"",""1"",""2293""
","
","
","""event"",""trial"",""time""
""fullscreenenter"",""1"",""2293""
","
","","549.6700000076089","","","","real_trial","2021-06-08 21:30:30.213","img/card_backs/set1/yellow.gif","0","-100","1","",""
"casino-fixation","114","454202","0.0-25.0-0.22","594","true","img/card_backs/set1/red.gif","img/card_backs/set1/purple.gif","img/card_backs/set1/green.gif","img/card_backs/set1/yellow.gif","img/card_backs/set2/blue.gif","img/card_backs/set2/gray.gif","img/card_backs/set2/orange.gif","img/card_backs/set2/pink.gif","""event"",""trial"",""time""
""fullscreenenter"",""1"",""2293""
","
","
","""event"",""trial"",""time""
""fullscreenenter"",""1"",""2293""
","
","","null","","null","","fixation","2021-06-08 21:30:30.714","","","","","",""
"card-selection-trial","115","457076","0.0-25.0-1.22","594","true","img/card_backs/set1/red.gif","img/card_backs/set1/purple.gif","img/card_backs/set1/green.gif","img/card_backs/set1/yellow.gif","img/card_backs/set2/blue.gif","img/card_backs/set2/gray.gif","img/card_backs/set2/orange.gif","img/card_backs/set2/pink.gif","""event"",""trial"",""time""
""fullscreenenter"",""1"",""2293""
","
","
","""event"",""trial"",""time""
""fullscreenenter"",""1"",""2293""
","
","","865.9400000178721","","","","real_trial","2021-06-08 21:30:33.588","img/card_backs/set1/yellow.gif","1","-100","1","",""
"casino-fixation","116","457584","0.0-25.0-0.23","594","true","img/card_backs/set1/red.gif","img/card_backs/set1/purple.gif","img/card_backs/set1/green.gif","img/card_backs/set1/yellow.gif","img/card_backs/set2/blue.gif","img/card_backs/set2/gray.gif","img/card_backs/set2/orange.gif","img/card_backs/set2/pink.gif","""event"",""trial"",""time""
""fullscreenenter"",""1"",""2293""
","
","
","""event"",""trial"",""time""
""fullscreenenter"",""1"",""2293""
","
","","null","","null","","fixation","2021-06-08 21:30:34.096","","","","","",""
"card-selection-trial","117","461062","0.0-25.0-1.23","594","true","img/card_backs/set1/red.gif","img/card_backs/set1/purple.gif","img/card_backs/set1/green.gif","img/card_backs/set1/yellow.gif","img/card_backs/set2/blue.gif","img/card_backs/set2/gray.gif","img/card_backs/set2/orange.gif","img/card_backs/set2/pink.gif","""event"",""trial"",""time""
""fullscreenenter"",""1"",""2293""
","
","
","""event"",""trial"",""time""
""fullscreenenter"",""1"",""2293""
","
","","1471.3950000004843","","","","real_trial","2021-06-08 21:30:37.574","img/card_backs/set1/yellow.gif","0","50","1","",""
"casino-fixation","118","461567","0.0-25.0-0.24","594","true","img/card_backs/set1/red.gif","img/card_backs/set1/purple.gif","img/card_backs/set1/green.gif","img/card_backs/set1/yellow.gif","img/card_backs/set2/blue.gif","img/card_backs/set2/gray.gif","img/card_backs/set2/orange.gif","img/card_backs/set2/pink.gif","""event"",""trial"",""time""
""fullscreenenter"",""1"",""2293""
","
","
","""event"",""trial"",""time""
""fullscreenenter"",""1"",""2293""
","
","","null","","null","","fixation","2021-06-08 21:30:38.079","","","","","",""
"card-selection-trial","119","464119","0.0-25.0-1.24","594","true","img/card_backs/set1/red.gif","img/card_backs/set1/purple.gif","img/card_backs/set1/green.gif","img/card_backs/set1/yellow.gif","img/card_backs/set2/blue.gif","img/card_backs/set2/gray.gif","img/card_backs/set2/orange.gif","img/card_backs/set2/pink.gif","""event"",""trial"",""time""
""fullscreenenter"",""1"",""2293""
","
","
","""event"",""trial"",""time""
""fullscreenenter"",""1"",""2293""
","
","","542.2149999940302","","","","real_trial","2021-06-08 21:30:40.631","img/card_backs/set1/yellow.gif","0","-90","1","",""
"casino-fixation","120","464625","0.0-25.0-0.25","594","true","img/card_backs/set1/red.gif","img/card_backs/set1/purple.gif","img/card_backs/set1/green.gif","img/card_backs/set1/yellow.gif","img/card_backs/set2/blue.gif","img/card_backs/set2/gray.gif","img/card_backs/set2/orange.gif","img/card_backs/set2/pink.gif","""event"",""trial"",""time""
""fullscreenenter"",""1"",""2293""
","
","
","""event"",""trial"",""time""
""fullscreenenter"",""1"",""2293""
","
","","null","","null","","fixation","2021-06-08 21:30:41.137","","","","","",""
"card-selection-trial","121","467127","0.0-25.0-1.25","594","true","img/card_backs/set1/red.gif","img/card_backs/set1/purple.gif","img/card_backs/set1/green.gif","img/card_backs/set1/yellow.gif","img/card_backs/set2/blue.gif","img/card_backs/set2/gray.gif","img/card_backs/set2/orange.gif","img/card_backs/set2/pink.gif","""event"",""trial"",""time""
""fullscreenenter"",""1"",""2293""
","
","
","""event"",""trial"",""time""
""fullscreenenter"",""1"",""2293""
","
","","494.32999998680316","","","","real_trial","2021-06-08 21:30:43.639","img/card_backs/set1/yellow.gif","0","-100","1","",""
"casino-fixation","122","467633","0.0-25.0-0.26","594","true","img/card_backs/set1/red.gif","img/card_backs/set1/purple.gif","img/card_backs/set1/green.gif","img/card_backs/set1/yellow.gif","img/card_backs/set2/blue.gif","img/card_backs/set2/gray.gif","img/card_backs/set2/orange.gif","img/card_backs/set2/pink.gif","""event"",""trial"",""time""
""fullscreenenter"",""1"",""2293""
","
","
","""event"",""trial"",""time""
""fullscreenenter"",""1"",""2293""
","
","","null","","null","","fixation","2021-06-08 21:30:44.145","","","","","",""
"card-selection-trial","123","470750","0.0-25.0-1.26","594","true","img/card_backs/set1/red.gif","img/card_backs/set1/purple.gif","img/card_backs/set1/green.gif","img/card_backs/set1/yellow.gif","img/card_backs/set2/blue.gif","img/card_backs/set2/gray.gif","img/card_backs/set2/orange.gif","img/card_backs/set2/pink.gif","""event"",""trial"",""time""
""fullscreenenter"",""1"",""2293""
","
","
","""event"",""trial"",""time""
""fullscreenenter"",""1"",""2293""
","
","","1110.4399999894667","","","","real_trial","2021-06-08 21:30:47.262","img/card_backs/set1/yellow.gif","1","-100","1","",""
"casino-fixation","124","471255","0.0-25.0-0.27","594","true","img/card_backs/set1/red.gif","img/card_backs/set1/purple.gif","img/card_backs/set1/green.gif","img/card_backs/set1/yellow.gif","img/card_backs/set2/blue.gif","img/card_backs/set2/gray.gif","img/card_backs/set2/orange.gif","img/card_backs/set2/pink.gif","""event"",""trial"",""time""
""fullscreenenter"",""1"",""2293""
","
","
","""event"",""trial"",""time""
""fullscreenenter"",""1"",""2293""
","
","","null","","null","","fixation","2021-06-08 21:30:47.767","","","","","",""
"card-selection-trial","125","474830","0.0-25.0-1.27","594","true","img/card_backs/set1/red.gif","img/card_backs/set1/purple.gif","img/card_backs/set1/green.gif","img/card_backs/set1/yellow.gif","img/card_backs/set2/blue.gif","img/card_backs/set2/gray.gif","img/card_backs/set2/orange.gif","img/card_backs/set2/pink.gif","""event"",""trial"",""time""
""fullscreenenter"",""1"",""2293""
","
","
","""event"",""trial"",""time""
""fullscreenenter"",""1"",""2293""
","
","","1567.494999995688","","","","real_trial","2021-06-08 21:30:51.342","img/card_backs/set1/purple.gif","3","250","1","",""
"casino-fixation","126","475336","0.0-25.0-0.28","594","true","img/card_backs/set1/red.gif","img/card_backs/set1/purple.gif","img/card_backs/set1/green.gif","img/card_backs/set1/yellow.gif","img/card_backs/set2/blue.gif","img/card_backs/set2/gray.gif","img/card_backs/set2/orange.gif","img/card_backs/set2/pink.gif","""event"",""trial"",""time""
""fullscreenenter"",""1"",""2293""
","
","
","""event"",""trial"",""time""
""fullscreenenter"",""1"",""2293""
","
","","null","","null","","fixation","2021-06-08 21:30:51.848","","","","","",""
"card-selection-trial","127","478888","0.0-25.0-1.28","594","true","img/card_backs/set1/red.gif","img/card_backs/set1/purple.gif","img/card_backs/set1/green.gif","img/card_backs/set1/yellow.gif","img/card_backs/set2/blue.gif","img/card_backs/set2/gray.gif","img/card_backs/set2/orange.gif","img/card_backs/set2/pink.gif","""event"",""trial"",""time""
""fullscreenenter"",""1"",""2293""
","
","
","""event"",""trial"",""time""
""fullscreenenter"",""1"",""2293""
","
","","1545.8100000105333","","","","real_trial","2021-06-08 21:30:55.401","img/card_backs/set1/purple.gif","0","240","1","",""
"casino-fixation","128","479394","0.0-25.0-0.29","594","true","img/card_backs/set1/red.gif","img/card_backs/set1/purple.gif","img/card_backs/set1/green.gif","img/card_backs/set1/yellow.gif","img/card_backs/set2/blue.gif","img/card_backs/set2/gray.gif","img/card_backs/set2/orange.gif","img/card_backs/set2/pink.gif","""event"",""trial"",""time""
""fullscreenenter"",""1"",""2293""
","
","
","""event"",""trial"",""time""
""fullscreenenter"",""1"",""2293""
","
","","null","","null","","fixation","2021-06-08 21:30:55.906","","","","","",""
"card-selection-trial","129","482287","0.0-25.0-1.29","594","true","img/card_backs/set1/red.gif","img/card_backs/set1/purple.gif","img/card_backs/set1/green.gif","img/card_backs/set1/yellow.gif","img/card_backs/set2/blue.gif","img/card_backs/set2/gray.gif","img/card_backs/set2/orange.gif","img/card_backs/set2/pink.gif","""event"",""trial"",""time""
""fullscreenenter"",""1"",""2293""
","
","
","""event"",""trial"",""time""
""fullscreenenter"",""1"",""2293""
","
","","885.7800000114366","","","","real_trial","2021-06-08 21:30:58.799","img/card_backs/set1/purple.gif","1","-210","1","",""
"casino-fixation","130","482790","0.0-25.0-0.30","594","true","img/card_backs/set1/red.gif","img/card_backs/set1/purple.gif","img/card_backs/set1/green.gif","img/card_backs/set1/yellow.gif","img/card_backs/set2/blue.gif","img/card_backs/set2/gray.gif","img/card_backs/set2/orange.gif","img/card_backs/set2/pink.gif","""event"",""trial"",""time""
""fullscreenenter"",""1"",""2293""
","
","
","""event"",""trial"",""time""
""fullscreenenter"",""1"",""2293""
","
","","null","","null","","fixation","2021-06-08 21:30:59.302","","","","","",""
"card-selection-trial","131","485548","0.0-25.0-1.30","594","true","img/card_backs/set1/red.gif","img/card_backs/set1/purple.gif","img/card_backs/set1/green.gif","img/card_backs/set1/yellow.gif","img/card_backs/set2/blue.gif","img/card_backs/set2/gray.gif","img/card_backs/set2/orange.gif","img/card_backs/set2/pink.gif","""event"",""trial"",""time""
""fullscreenenter"",""1"",""2293""
","
","
","""event"",""trial"",""time""
""fullscreenenter"",""1"",""2293""
","
","","746.8149999913294","","","","real_trial","2021-06-08 21:31:02.060","img/card_backs/set1/purple.gif","0","-190","1","",""
"casino-fixation","132","486052","0.0-25.0-0.31","594","true","img/card_backs/set1/red.gif","img/card_backs/set1/purple.gif","img/card_backs/set1/green.gif","img/card_backs/set1/yellow.gif","img/card_backs/set2/blue.gif","img/card_backs/set2/gray.gif","img/card_backs/set2/orange.gif","img/card_backs/set2/pink.gif","""event"",""trial"",""time""
""fullscreenenter"",""1"",""2293""
","
","
","""event"",""trial"",""time""
""fullscreenenter"",""1"",""2293""
","
","","null","","null","","fixation","2021-06-08 21:31:02.564","","","","","",""
"card-selection-trial","133","490493","0.0-25.0-1.31","594","true","img/card_backs/set1/red.gif","img/card_backs/set1/purple.gif","img/card_backs/set1/green.gif","img/card_backs/set1/yellow.gif","img/card_backs/set2/blue.gif","img/card_backs/set2/gray.gif","img/card_backs/set2/orange.gif","img/card_backs/set2/pink.gif","""event"",""trial"",""time""
""fullscreenenter"",""1"",""2293""
","
","
","""event"",""trial"",""time""
""fullscreenenter"",""1"",""2293""
","
","","2432.4349999951664","","","","real_trial","2021-06-08 21:31:07.006","img/card_backs/set1/purple.gif","2","-190","1","",""
"casino-fixation","134","490998","0.0-25.0-0.32","594","true","img/card_backs/set1/red.gif","img/card_backs/set1/purple.gif","img/card_backs/set1/green.gif","img/card_backs/set1/yellow.gif","img/card_backs/set2/blue.gif","img/card_backs/set2/gray.gif","img/card_backs/set2/orange.gif","img/card_backs/set2/pink.gif","""event"",""trial"",""time""
""fullscreenenter"",""1"",""2293""
","
","
","""event"",""trial"",""time""
""fullscreenenter"",""1"",""2293""
","
","","null","","null","","fixation","2021-06-08 21:31:07.510","","","","","",""
"card-selection-trial","135","493821","0.0-25.0-1.32","594","true","img/card_backs/set1/red.gif","img/card_backs/set1/purple.gif","img/card_backs/set1/green.gif","img/card_backs/set1/yellow.gif","img/card_backs/set2/blue.gif","img/card_backs/set2/gray.gif","img/card_backs/set2/orange.gif","img/card_backs/set2/pink.gif","""event"",""trial"",""time""
""fullscreenenter"",""1"",""2293""
","
","
","""event"",""trial"",""time""
""fullscreenenter"",""1"",""2293""
","
","","817.1050000237301","","","","real_trial","2021-06-08 21:31:10.333","img/card_backs/set1/yellow.gif","3","-100","1","",""
"casino-fixation","136","494325","0.0-25.0-0.33","594","true","img/card_backs/set1/red.gif","img/card_backs/set1/purple.gif","img/card_backs/set1/green.gif","img/card_backs/set1/yellow.gif","img/card_backs/set2/blue.gif","img/card_backs/set2/gray.gif","img/card_backs/set2/orange.gif","img/card_backs/set2/pink.gif","""event"",""trial"",""time""
""fullscreenenter"",""1"",""2293""
","
","
","""event"",""trial"",""time""
""fullscreenenter"",""1"",""2293""
","
","","null","","null","","fixation","2021-06-08 21:31:10.837","","","","","",""
"card-selection-trial","137","497544","0.0-25.0-1.33","594","true","img/card_backs/set1/red.gif","img/card_backs/set1/purple.gif","img/card_backs/set1/green.gif","img/card_backs/set1/yellow.gif","img/card_backs/set2/blue.gif","img/card_backs/set2/gray.gif","img/card_backs/set2/orange.gif","img/card_backs/set2/pink.gif","""event"",""trial"",""time""
""fullscreenenter"",""1"",""2293""
","
","
","""event"",""trial"",""time""
""fullscreenenter"",""1"",""2293""
","
","","1210.3150000039022","","","","real_trial","2021-06-08 21:31:14.056","img/card_backs/set1/red.gif","3","240","1","",""
"casino-fixation","138","498049","0.0-25.0-0.34","594","true","img/card_backs/set1/red.gif","img/card_backs/set1/purple.gif","img/card_backs/set1/green.gif","img/card_backs/set1/yellow.gif","img/card_backs/set2/blue.gif","img/card_backs/set2/gray.gif","img/card_backs/set2/orange.gif","img/card_backs/set2/pink.gif","""event"",""trial"",""time""
""fullscreenenter"",""1"",""2293""
","
","
","""event"",""trial"",""time""
""fullscreenenter"",""1"",""2293""
","
","","null","","null","","fixation","2021-06-08 21:31:14.561","","","","","",""
"card-selection-trial","139","500813","0.0-25.0-1.34","594","true","img/card_backs/set1/red.gif","img/card_backs/set1/purple.gif","img/card_backs/set1/green.gif","img/card_backs/set1/yellow.gif","img/card_backs/set2/blue.gif","img/card_backs/set2/gray.gif","img/card_backs/set2/orange.gif","img/card_backs/set2/pink.gif","""event"",""trial"",""time""
""fullscreenenter"",""1"",""2293""
","
","
","""event"",""trial"",""time""
""fullscreenenter"",""1"",""2293""
","
","","757.3649999976624","","","","real_trial","2021-06-08 21:31:17.325","img/card_backs/set1/red.gif","1","-190","1","",""
"casino-fixation","140","501320","0.0-25.0-0.35","594","true","img/card_backs/set1/red.gif","img/card_backs/set1/purple.gif","img/card_backs/set1/green.gif","img/card_backs/set1/yellow.gif","img/card_backs/set2/blue.gif","img/card_backs/set2/gray.gif","img/card_backs/set2/orange.gif","img/card_backs/set2/pink.gif","""event"",""trial"",""time""
""fullscreenenter"",""1"",""2293""
","
","
","""event"",""trial"",""time""
""fullscreenenter"",""1"",""2293""
","
","","null","","null","","fixation","2021-06-08 21:31:17.832","","","","","",""
"card-selection-trial","141","506011","0.0-25.0-1.35","594","true","img/card_backs/set1/red.gif","img/card_backs/set1/purple.gif","img/card_backs/set1/green.gif","img/card_backs/set1/yellow.gif","img/card_backs/set2/blue.gif","img/card_backs/set2/gray.gif","img/card_backs/set2/orange.gif","img/card_backs/set2/pink.gif","""event"",""trial"",""time""
""fullscreenenter"",""1"",""2293""
","
","
","""event"",""trial"",""time""
""fullscreenenter"",""1"",""2293""
","
","","2684.7149999812245","","","","real_trial","2021-06-08 21:31:22.523","img/card_backs/set1/yellow.gif","0","-90","1","",""
"casino-fixation","142","506516","0.0-25.0-0.36","594","true","img/card_backs/set1/red.gif","img/card_backs/set1/purple.gif","img/card_backs/set1/green.gif","img/card_backs/set1/yellow.gif","img/card_backs/set2/blue.gif","img/card_backs/set2/gray.gif","img/card_backs/set2/orange.gif","img/card_backs/set2/pink.gif","""event"",""trial"",""time""
""fullscreenenter"",""1"",""2293""
","
","
","""event"",""trial"",""time""
""fullscreenenter"",""1"",""2293""
","
","","null","","null","","fixation","2021-06-08 21:31:23.028","","","","","",""
"card-selection-trial","143","510129","0.0-25.0-1.36","594","true","img/card_backs/set1/red.gif","img/card_backs/set1/purple.gif","img/card_backs/set1/green.gif","img/card_backs/set1/yellow.gif","img/card_backs/set2/blue.gif","img/card_backs/set2/gray.gif","img/card_backs/set2/orange.gif","img/card_backs/set2/pink.gif","""event"",""trial"",""time""
""fullscreenenter"",""1"",""2293""
","
","
","""event"",""trial"",""time""
""fullscreenenter"",""1"",""2293""
","
","","1603.4799999906681","","","","real_trial","2021-06-08 21:31:26.641","img/card_backs/set1/yellow.gif","1","-90","1","",""
"casino-fixation","144","510636","0.0-25.0-0.37","594","true","img/card_backs/set1/red.gif","img/card_backs/set1/purple.gif","img/card_backs/set1/green.gif","img/card_backs/set1/yellow.gif","img/card_backs/set2/blue.gif","img/card_backs/set2/gray.gif","img/card_backs/set2/orange.gif","img/card_backs/set2/pink.gif","""event"",""trial"",""time""
""fullscreenenter"",""1"",""2293""
","
","
","""event"",""trial"",""time""
""fullscreenenter"",""1"",""2293""
","
","","null","","null","","fixation","2021-06-08 21:31:27.148","","","","","",""
"card-selection-trial","145","513224","0.0-25.0-1.37","594","true","img/card_backs/set1/red.gif","img/card_backs/set1/purple.gif","img/card_backs/set1/green.gif","img/card_backs/set1/yellow.gif","img/card_backs/set2/blue.gif","img/card_backs/set2/gray.gif","img/card_backs/set2/orange.gif","img/card_backs/set2/pink.gif","""event"",""trial"",""time""
""fullscreenenter"",""1"",""2293""
","
","
","""event"",""trial"",""time""
""fullscreenenter"",""1"",""2293""
","
","","577.8199999767821","","","","real_trial","2021-06-08 21:31:29.736","img/card_backs/set1/purple.gif","3","-200","1","",""
"casino-fixation","146","513726","0.0-25.0-0.38","594","true","img/card_backs/set1/red.gif","img/card_backs/set1/purple.gif","img/card_backs/set1/green.gif","img/card_backs/set1/yellow.gif","img/card_backs/set2/blue.gif","img/card_backs/set2/gray.gif","img/card_backs/set2/orange.gif","img/card_backs/set2/pink.gif","""event"",""trial"",""time""
""fullscreenenter"",""1"",""2293""
","
","
","""event"",""trial"",""time""
""fullscreenenter"",""1"",""2293""
","
","","null","","null","","fixation","2021-06-08 21:31:30.238","","","","","",""
"card-selection-trial","147","517034","0.0-25.0-1.38","594","true","img/card_backs/set1/red.gif","img/card_backs/set1/purple.gif","img/card_backs/set1/green.gif","img/card_backs/set1/yellow.gif","img/card_backs/set2/blue.gif","img/card_backs/set2/gray.gif","img/card_backs/set2/orange.gif","img/card_backs/set2/pink.gif","""event"",""trial"",""time""
""fullscreenenter"",""1"",""2293""
","
","
","""event"",""trial"",""time""
""fullscreenenter"",""1"",""2293""
","
","","1300.2999999735039","","","","real_trial","2021-06-08 21:31:33.547","img/card_backs/set1/red.gif","2","-210","1","",""
"casino-fixation","148","517539","0.0-25.0-0.39","594","true","img/card_backs/set1/red.gif","img/card_backs/set1/purple.gif","img/card_backs/set1/green.gif","img/card_backs/set1/yellow.gif","img/card_backs/set2/blue.gif","img/card_backs/set2/gray.gif","img/card_backs/set2/orange.gif","img/card_backs/set2/pink.gif","""event"",""trial"",""time""
""fullscreenenter"",""1"",""2293""
","
","
","""event"",""trial"",""time""
""fullscreenenter"",""1"",""2293""
","
","","null","","null","","fixation","2021-06-08 21:31:34.051","","","","","",""
"card-selection-trial","149","520324","0.0-25.0-1.39","594","true","img/card_backs/set1/red.gif","img/card_backs/set1/purple.gif","img/card_backs/set1/green.gif","img/card_backs/set1/yellow.gif","img/card_backs/set2/blue.gif","img/card_backs/set2/gray.gif","img/card_backs/set2/orange.gif","img/card_backs/set2/pink.gif","""event"",""trial"",""time""
""fullscreenenter"",""1"",""2293""
","
","
","""event"",""trial"",""time""
""fullscreenenter"",""1"",""2293""
","
","","777.8249999973923","","","","real_trial","2021-06-08 21:31:36.836","img/card_backs/set1/yellow.gif","3","40","1","",""
"casino-fixation","150","520830","0.0-25.0-0.40","594","true","img/card_backs/set1/red.gif","img/card_backs/set1/purple.gif","img/card_backs/set1/green.gif","img/card_backs/set1/yellow.gif","img/card_backs/set2/blue.gif","img/card_backs/set2/gray.gif","img/card_backs/set2/orange.gif","img/card_backs/set2/pink.gif","""event"",""trial"",""time""
""fullscreenenter"",""1"",""2293""
","
","
","""event"",""trial"",""time""
""fullscreenenter"",""1"",""2293""
","
","","null","","null","","fixation","2021-06-08 21:31:37.342","","","","","",""
"card-selection-trial","151","523799","0.0-25.0-1.40","594","true","img/card_backs/set1/red.gif","img/card_backs/set1/purple.gif","img/card_backs/set1/green.gif","img/card_backs/set1/yellow.gif","img/card_backs/set2/blue.gif","img/card_backs/set2/gray.gif","img/card_backs/set2/orange.gif","img/card_backs/set2/pink.gif","""event"",""trial"",""time""
""fullscreenenter"",""1"",""2293""
","
","
","""event"",""trial"",""time""
""fullscreenenter"",""1"",""2293""
","
","","958.9099999866448","","","","real_trial","2021-06-08 21:31:40.311","img/card_backs/set1/yellow.gif","1","40","1","",""
"casino-fixation","152","524302","0.0-25.0-0.41","594","true","img/card_backs/set1/red.gif","img/card_backs/set1/purple.gif","img/card_backs/set1/green.gif","img/card_backs/set1/yellow.gif","img/card_backs/set2/blue.gif","img/card_backs/set2/gray.gif","img/card_backs/set2/orange.gif","img/card_backs/set2/pink.gif","""event"",""trial"",""time""
""fullscreenenter"",""1"",""2293""
","
","
","""event"",""trial"",""time""
""fullscreenenter"",""1"",""2293""
","
","","null","","null","","fixation","2021-06-08 21:31:40.814","","","","","",""
"card-selection-trial","153","526949","0.0-25.0-1.41","594","true","img/card_backs/set1/red.gif","img/card_backs/set1/purple.gif","img/card_backs/set1/green.gif","img/card_backs/set1/yellow.gif","img/card_backs/set2/blue.gif","img/card_backs/set2/gray.gif","img/card_backs/set2/orange.gif","img/card_backs/set2/pink.gif","""event"",""trial"",""time""
""fullscreenenter"",""1"",""2293""
","
","
","""event"",""trial"",""time""
""fullscreenenter"",""1"",""2293""
","
","","636.4699999976438","","","","real_trial","2021-06-08 21:31:43.461","img/card_backs/set1/yellow.gif","3","-100","1","",""
"casino-fixation","154","527454","0.0-25.0-0.42","594","true","img/card_backs/set1/red.gif","img/card_backs/set1/purple.gif","img/card_backs/set1/green.gif","img/card_backs/set1/yellow.gif","img/card_backs/set2/blue.gif","img/card_backs/set2/gray.gif","img/card_backs/set2/orange.gif","img/card_backs/set2/pink.gif","""event"",""trial"",""time""
""fullscreenenter"",""1"",""2293""
","
","
","""event"",""trial"",""time""
""fullscreenenter"",""1"",""2293""
","
","","null","","null","","fixation","2021-06-08 21:31:43.966","","","","","",""
"card-selection-trial","155","530496","0.0-25.0-1.42","594","true","img/card_backs/set1/red.gif","img/card_backs/set1/purple.gif","img/card_backs/set1/green.gif","img/card_backs/set1/yellow.gif","img/card_backs/set2/blue.gif","img/card_backs/set2/gray.gif","img/card_backs/set2/orange.gif","img/card_backs/set2/pink.gif","""event"",""trial"",""time""
""fullscreenenter"",""1"",""2293""
","
","
","""event"",""trial"",""time""
""fullscreenenter"",""1"",""2293""
","
","","1035.6550000142306","","","","real_trial","2021-06-08 21:31:47.008","img/card_backs/set1/purple.gif","1","250","1","",""
"casino-fixation","156","530997","0.0-25.0-0.43","594","true","img/card_backs/set1/red.gif","img/card_backs/set1/purple.gif","img/card_backs/set1/green.gif","img/card_backs/set1/yellow.gif","img/card_backs/set2/blue.gif","img/card_backs/set2/gray.gif","img/card_backs/set2/orange.gif","img/card_backs/set2/pink.gif","""event"",""trial"",""time""
""fullscreenenter"",""1"",""2293""
","
","
","""event"",""trial"",""time""
""fullscreenenter"",""1"",""2293""
","
","","null","","null","","fixation","2021-06-08 21:31:47.509","","","","","",""
"card-selection-trial","157","534256","0.0-25.0-1.43","594","true","img/card_backs/set1/red.gif","img/card_backs/set1/purple.gif","img/card_backs/set1/green.gif","img/card_backs/set1/yellow.gif","img/card_backs/set2/blue.gif","img/card_backs/set2/gray.gif","img/card_backs/set2/orange.gif","img/card_backs/set2/pink.gif","""event"",""trial"",""time""
""fullscreenenter"",""1"",""2293""
","
","
","""event"",""trial"",""time""
""fullscreenenter"",""1"",""2293""
","
","","1255.830000009155","","","","real_trial","2021-06-08 21:31:50.768","img/card_backs/set1/purple.gif","2","250","1","",""
"casino-fixation","158","534756","0.0-25.0-0.44","594","true","img/card_backs/set1/red.gif","img/card_backs/set1/purple.gif","img/card_backs/set1/green.gif","img/card_backs/set1/yellow.gif","img/card_backs/set2/blue.gif","img/card_backs/set2/gray.gif","img/card_backs/set2/orange.gif","img/card_backs/set2/pink.gif","""event"",""trial"",""time""
""fullscreenenter"",""1"",""2293""
","
","
","""event"",""trial"",""time""
""fullscreenenter"",""1"",""2293""
","
","","null","","null","","fixation","2021-06-08 21:31:51.268","","","","","",""
"card-selection-trial","159","537654","0.0-25.0-1.44","594","true","img/card_backs/set1/red.gif","img/card_backs/set1/purple.gif","img/card_backs/set1/green.gif","img/card_backs/set1/yellow.gif","img/card_backs/set2/blue.gif","img/card_backs/set2/gray.gif","img/card_backs/set2/orange.gif","img/card_backs/set2/pink.gif","""event"",""trial"",""time""
""fullscreenenter"",""1"",""2293""
","
","
","""event"",""trial"",""time""
""fullscreenenter"",""1"",""2293""
","
","","889.740000013262","","","","real_trial","2021-06-08 21:31:54.166","img/card_backs/set1/purple.gif","3","260","1","",""
"casino-fixation","160","538160","0.0-25.0-0.45","594","true","img/card_backs/set1/red.gif","img/card_backs/set1/purple.gif","img/card_backs/set1/green.gif","img/card_backs/set1/yellow.gif","img/card_backs/set2/blue.gif","img/card_backs/set2/gray.gif","img/card_backs/set2/orange.gif","img/card_backs/set2/pink.gif","""event"",""trial"",""time""
""fullscreenenter"",""1"",""2293""
","
","
","""event"",""trial"",""time""
""fullscreenenter"",""1"",""2293""
","
","","null","","null","","fixation","2021-06-08 21:31:54.672","","","","","",""
"card-selection-trial","161","540835","0.0-25.0-1.45","594","true","img/card_backs/set1/red.gif","img/card_backs/set1/purple.gif","img/card_backs/set1/green.gif","img/card_backs/set1/yellow.gif","img/card_backs/set2/blue.gif","img/card_backs/set2/gray.gif","img/card_backs/set2/orange.gif","img/card_backs/set2/pink.gif","""event"",""trial"",""time""
""fullscreenenter"",""1"",""2293""
","
","
","""event"",""trial"",""time""
""fullscreenenter"",""1"",""2293""
","
","","666.8749999953434","","","","real_trial","2021-06-08 21:31:57.347","img/card_backs/set1/purple.gif","3","-190","1","",""
"casino-fixation","162","541340","0.0-25.0-0.46","594","true","img/card_backs/set1/red.gif","img/card_backs/set1/purple.gif","img/card_backs/set1/green.gif","img/card_backs/set1/yellow.gif","img/card_backs/set2/blue.gif","img/card_backs/set2/gray.gif","img/card_backs/set2/orange.gif","img/card_backs/set2/pink.gif","""event"",""trial"",""time""
""fullscreenenter"",""1"",""2293""
","
","
","""event"",""trial"",""time""
""fullscreenenter"",""1"",""2293""
","
","","null","","null","","fixation","2021-06-08 21:31:57.852","","","","","",""
"card-selection-trial","163","544220","0.0-25.0-1.46","594","true","img/card_backs/set1/red.gif","img/card_backs/set1/purple.gif","img/card_backs/set1/green.gif","img/card_backs/set1/yellow.gif","img/card_backs/set2/blue.gif","img/card_backs/set2/gray.gif","img/card_backs/set2/orange.gif","img/card_backs/set2/pink.gif","""event"",""trial"",""time""
""fullscreenenter"",""1"",""2293""
","
","
","""event"",""trial"",""time""
""fullscreenenter"",""1"",""2293""
","
","","871.8349999981001","","","","real_trial","2021-06-08 21:32:00.732","img/card_backs/set1/yellow.gif","1","-100","1","",""
"casino-fixation","164","544724","0.0-25.0-0.47","594","true","img/card_backs/set1/red.gif","img/card_backs/set1/purple.gif","img/card_backs/set1/green.gif","img/card_backs/set1/yellow.gif","img/card_backs/set2/blue.gif","img/card_backs/set2/gray.gif","img/card_backs/set2/orange.gif","img/card_backs/set2/pink.gif","""event"",""trial"",""time""
""fullscreenenter"",""1"",""2293""
","
","
","""event"",""trial"",""time""
""fullscreenenter"",""1"",""2293""
","
","","null","","null","","fixation","2021-06-08 21:32:01.236","","","","","",""
"card-selection-trial","165","547514","0.0-25.0-1.47","594","true","img/card_backs/set1/red.gif","img/card_backs/set1/purple.gif","img/card_backs/set1/green.gif","img/card_backs/set1/yellow.gif","img/card_backs/set2/blue.gif","img/card_backs/set2/gray.gif","img/card_backs/set2/orange.gif","img/card_backs/set2/pink.gif","""event"",""trial"",""time""
""fullscreenenter"",""1"",""2293""
","
","
","""event"",""trial"",""time""
""fullscreenenter"",""1"",""2293""
","
","","781.170000002021","","","","real_trial","2021-06-08 21:32:04.026","img/card_backs/set1/purple.gif","3","260","1","",""
"casino-fixation","166","548020","0.0-25.0-0.48","594","true","img/card_backs/set1/red.gif","img/card_backs/set1/purple.gif","img/card_backs/set1/green.gif","img/card_backs/set1/yellow.gif","img/card_backs/set2/blue.gif","img/card_backs/set2/gray.gif","img/card_backs/set2/orange.gif","img/card_backs/set2/pink.gif","""event"",""trial"",""time""
""fullscreenenter"",""1"",""2293""
","
","
","""event"",""trial"",""time""
""fullscreenenter"",""1"",""2293""
","
","","null","","null","","fixation","2021-06-08 21:32:04.532","","","","","",""
"card-selection-trial","167","551188","0.0-25.0-1.48","594","true","img/card_backs/set1/red.gif","img/card_backs/set1/purple.gif","img/card_backs/set1/green.gif","img/card_backs/set1/yellow.gif","img/card_backs/set2/blue.gif","img/card_backs/set2/gray.gif","img/card_backs/set2/orange.gif","img/card_backs/set2/pink.gif","""event"",""trial"",""time""
""fullscreenenter"",""1"",""2293""
","
","
