"trial_type","trial_index","time_elapsed","internal_node_id","sub_id","risk_good_first","block1_A","block1_B","block1_C","block1_D","block2_A","block2_B","block2_C","block2_D","interactions","blur_events","focus_events","fullscreenenter_events","fullscreenexit_events","success","rt","stimulus","key_press","button_pressed","task_part","timestamp","card_choice","choice_position","points_earned","block","correct","response"
"pavlovia","0","4","0.0-0.0","A1124","true","img/card_backs/set1/yellow.gif","img/card_backs/set1/green.gif","img/card_backs/set1/red.gif","img/card_backs/set1/purple.gif","img/card_backs/set2/orange.gif","img/card_backs/set2/blue.gif","img/card_backs/set2/gray.gif","img/card_backs/set2/pink.gif","""event"",""trial"",""time""
""fullscreenenter"",""1"",""12318""
","
","
","""event"",""trial"",""time""
""fullscreenenter"",""1"",""12318""
","
","","","","","","","","","","","","",""
"fullscreen","1","13200","0.0-1.0","A1124","true","img/card_backs/set1/yellow.gif","img/card_backs/set1/green.gif","img/card_backs/set1/red.gif","img/card_backs/set1/purple.gif","img/card_backs/set2/orange.gif","img/card_backs/set2/blue.gif","img/card_backs/set2/gray.gif","img/card_backs/set2/pink.gif","""event"",""trial"",""time""
""fullscreenenter"",""1"",""12318""
","
","
","""event"",""trial"",""time""
""fullscreenenter"",""1"",""12318""
","
","true","","","","","","","","","","","",""
"audio-keyboard-response","2","17199","0.0-2.0","A1124","true","img/card_backs/set1/yellow.gif","img/card_backs/set1/green.gif","img/card_backs/set1/red.gif","img/card_backs/set1/purple.gif","img/card_backs/set2/orange.gif","img/card_backs/set2/blue.gif","img/card_backs/set2/gray.gif","img/card_backs/set2/pink.gif","""event"",""trial"",""time""
""fullscreenenter"",""1"",""12318""
","
","
","""event"",""trial"",""time""
""fullscreenenter"",""1"",""12318""
","
","","3866","audio/beep_loop.wav","32","","","","","","","","",""
"audio-button-response","3","19214","0.0-3.0","A1124","true","img/card_backs/set1/yellow.gif","img/card_backs/set1/green.gif","img/card_backs/set1/red.gif","img/card_backs/set1/purple.gif","img/card_backs/set2/orange.gif","img/card_backs/set2/blue.gif","img/card_backs/set2/gray.gif","img/card_backs/set2/pink.gif","""event"",""trial"",""time""
""fullscreenenter"",""1"",""12318""
","
","
","""event"",""trial"",""time""
""fullscreenenter"",""1"",""12318""
","
","","NaN","audio/turtle.mp3","","3","","","","","","","",""
"audio-button-response","4","22173","0.0-4.0","A1124","true","img/card_backs/set1/yellow.gif","img/card_backs/set1/green.gif","img/card_backs/set1/red.gif","img/card_backs/set1/purple.gif","img/card_backs/set2/orange.gif","img/card_backs/set2/blue.gif","img/card_backs/set2/gray.gif","img/card_backs/set2/pink.gif","""event"",""trial"",""time""
""fullscreenenter"",""1"",""12318""
","
","
","""event"",""trial"",""time""
""fullscreenenter"",""1"",""12318""
","
","","NaN","audio/shark.mp3","","2","","","","","","","",""
"fullscreen","5","25329","0.0-5.0","A1124","true","img/card_backs/set1/yellow.gif","img/card_backs/set1/green.gif","img/card_backs/set1/red.gif","img/card_backs/set1/purple.gif","img/card_backs/set2/orange.gif","img/card_backs/set2/blue.gif","img/card_backs/set2/gray.gif","img/card_backs/set2/pink.gif","""event"",""trial"",""time""
""fullscreenenter"",""1"",""12318""
","
","
","""event"",""trial"",""time""
""fullscreenenter"",""1"",""12318""
","
","true","","","","","","","","","","","",""
"casino-keyboard-response","6","30655","0.0-6.0-0.0","A1124","true","img/card_backs/set1/yellow.gif","img/card_backs/set1/green.gif","img/card_backs/set1/red.gif","img/card_backs/set1/purple.gif","img/card_backs/set2/orange.gif","img/card_backs/set2/blue.gif","img/card_backs/set2/gray.gif","img/card_backs/set2/pink.gif","""event"",""trial"",""time""
""fullscreenenter"",""1"",""12318""
","
","
","""event"",""trial"",""time""
""fullscreenenter"",""1"",""12318""
","
","","5323.464999964926","Welcome to the casino!","71","","instructions","2021-04-08 01:39:13.586","","","","","",""
"casino-keyboard-response","7","43704","0.0-6.0-0.1","A1124","true","img/card_backs/set1/yellow.gif","img/card_backs/set1/green.gif","img/card_backs/set1/red.gif","img/card_backs/set1/purple.gif","img/card_backs/set2/orange.gif","img/card_backs/set2/blue.gif","img/card_backs/set2/gray.gif","img/card_backs/set2/pink.gif","""event"",""trial"",""time""
""fullscreenenter"",""1"",""12318""
","
","
","""event"",""trial"",""time""
""fullscreenenter"",""1"",""12318""
","
","","13046.614999999292","Today you will be playing a game to earn tokens. </br> At the end of the experiment, you will be paid a bonus based on how many tokens you win. ","69","","instructions","2021-04-08 01:39:26.634","","","","","",""
"casino-keyboard-response","8","62120","0.0-6.0-0.2","A1124","true","img/card_backs/set1/yellow.gif","img/card_backs/set1/green.gif","img/card_backs/set1/red.gif","img/card_backs/set1/purple.gif","img/card_backs/set2/orange.gif","img/card_backs/set2/blue.gif","img/card_backs/set2/gray.gif","img/card_backs/set2/pink.gif","""event"",""trial"",""time""
""fullscreenenter"",""1"",""12318""
","
","
","""event"",""trial"",""time""
""fullscreenenter"",""1"",""12318""
","
","","18412.42999996757","On every turn, you will be shown four different decks of cards. </br> You need to select a card from one of the four decks.  ","75","","instructions","2021-04-08 01:39:45.050","","","","","",""
"casino-keyboard-response","9","68504","0.0-6.0-0.3","A1124","true","img/card_backs/set1/yellow.gif","img/card_backs/set1/green.gif","img/card_backs/set1/red.gif","img/card_backs/set1/purple.gif","img/card_backs/set2/orange.gif","img/card_backs/set2/blue.gif","img/card_backs/set2/gray.gif","img/card_backs/set2/pink.gif","""event"",""trial"",""time""
""fullscreenenter"",""1"",""12318""
","
","
","""event"",""trial"",""time""
""fullscreenenter"",""1"",""12318""
","
","","6382.350000028964","On the next screen, you will see what the decks will look like. ","66","","instructions","2021-04-08 01:39:51.434","","","","","",""
"card-selection-trial","10","72513","0.0-7.0-0.0","A1124","true","img/card_backs/set1/yellow.gif","img/card_backs/set1/green.gif","img/card_backs/set1/red.gif","img/card_backs/set1/purple.gif","img/card_backs/set2/orange.gif","img/card_backs/set2/blue.gif","img/card_backs/set2/gray.gif","img/card_backs/set2/pink.gif","""event"",""trial"",""time""
""fullscreenenter"",""1"",""12318""
","
","
","""event"",""trial"",""time""
""fullscreenenter"",""1"",""12318""
","
","","null","","","","practice","2021-04-08 01:39:55.444","null","null","null","0","",""
"casino-keyboard-response","11","85124","0.0-8.0-0.0","A1124","true","img/card_backs/set1/yellow.gif","img/card_backs/set1/green.gif","img/card_backs/set1/red.gif","img/card_backs/set1/purple.gif","img/card_backs/set2/orange.gif","img/card_backs/set2/blue.gif","img/card_backs/set2/gray.gif","img/card_backs/set2/pink.gif","""event"",""trial"",""time""
""fullscreenenter"",""1"",""12318""
","
","
","""event"",""trial"",""time""
""fullscreenenter"",""1"",""12318""
","
","","12608.73499995796","You should pick a card from a deck using the '2', '4', '6', and '8' keys at the top of the keyboard.","85","","instructions","2021-04-08 01:40:08.054","","","","","",""
"casino-keyboard-response","12","90786","0.0-8.0-0.1","A1124","true","img/card_backs/set1/yellow.gif","img/card_backs/set1/green.gif","img/card_backs/set1/red.gif","img/card_backs/set1/purple.gif","img/card_backs/set2/orange.gif","img/card_backs/set2/blue.gif","img/card_backs/set2/gray.gif","img/card_backs/set2/pink.gif","""event"",""trial"",""time""
""fullscreenenter"",""1"",""12318""
","
","
","""event"",""trial"",""time""
""fullscreenenter"",""1"",""12318""
","
","","5659.395000024233","Once you select a card, it will turn over and you will see how many tokens you earned.","83","","instructions","2021-04-08 01:40:13.716","","","","","",""
"casino-keyboard-response","13","97404","0.0-8.0-0.2","A1124","true","img/card_backs/set1/yellow.gif","img/card_backs/set1/green.gif","img/card_backs/set1/red.gif","img/card_backs/set1/purple.gif","img/card_backs/set2/orange.gif","img/card_backs/set2/blue.gif","img/card_backs/set2/gray.gif","img/card_backs/set2/pink.gif","""event"",""trial"",""time""
""fullscreenenter"",""1"",""12318""
","
","
","""event"",""trial"",""time""
""fullscreenenter"",""1"",""12318""
","
","","6616.594999970403","Let's try practicing that! </br> First, try to put your fingers over the '2', '4', '6', and '8' keys. </br>  You can use whatever fingers are most comfortable for you. Try to find a comfortable position now. ","50","","instructions","2021-04-08 01:40:20.334","","","","","",""
"casino-keyboard-response","14","98523","0.0-8.0-0.3","A1124","true","img/card_backs/set1/yellow.gif","img/card_backs/set1/green.gif","img/card_backs/set1/red.gif","img/card_backs/set1/purple.gif","img/card_backs/set2/orange.gif","img/card_backs/set2/blue.gif","img/card_backs/set2/gray.gif","img/card_backs/set2/pink.gif","""event"",""trial"",""time""
""fullscreenenter"",""1"",""12318""
","
","
","""event"",""trial"",""time""
""fullscreenenter"",""1"",""12318""
","
","","1117.8599999984726","Okay ready? </br> On the next screen, press '2' to select the left deck. ","50","","instructions","2021-04-08 01:40:21.453","","","","","",""
"card-selection-trial","15","101781","0.0-9.0-0.0","A1124","true","img/card_backs/set1/yellow.gif","img/card_backs/set1/green.gif","img/card_backs/set1/red.gif","img/card_backs/set1/purple.gif","img/card_backs/set2/orange.gif","img/card_backs/set2/blue.gif","img/card_backs/set2/gray.gif","img/card_backs/set2/pink.gif","""event"",""trial"",""time""
""fullscreenenter"",""1"",""12318""
","
","
","""event"",""trial"",""time""
""fullscreenenter"",""1"",""12318""
","
","","1239.4199999980628","","","","practice_card_selection","2021-04-08 01:40:24.711","img/practice_cards/backs/brown.gif","0","100","","",""
"casino-keyboard-response","16","104441","0.0-10.0-0.0","A1124","true","img/card_backs/set1/yellow.gif","img/card_backs/set1/green.gif","img/card_backs/set1/red.gif","img/card_backs/set1/purple.gif","img/card_backs/set2/orange.gif","img/card_backs/set2/blue.gif","img/card_backs/set2/gray.gif","img/card_backs/set2/pink.gif","""event"",""trial"",""time""
""fullscreenenter"",""1"",""12318""
","
","
","""event"",""trial"",""time""
""fullscreenenter"",""1"",""12318""
","
","","2658.2799999741837","Great! Now on the next screen, try pressing '6' to select the third deck.","54","","instructions","2021-04-08 01:40:27.371","","","","","",""
"card-selection-trial","17","106855","0.0-11.0-0.0","A1124","true","img/card_backs/set1/yellow.gif","img/card_backs/set1/green.gif","img/card_backs/set1/red.gif","img/card_backs/set1/purple.gif","img/card_backs/set2/orange.gif","img/card_backs/set2/blue.gif","img/card_backs/set2/gray.gif","img/card_backs/set2/pink.gif","""event"",""trial"",""time""
""fullscreenenter"",""1"",""12318""
","
","
","""event"",""trial"",""time""
""fullscreenenter"",""1"",""12318""
","
","","407.0400000200607","","","","practice_card_selection","2021-04-08 01:40:29.785","img/practice_cards/backs/brown.gif","2","-100","","",""
"casino-keyboard-response","18","108757","0.0-12.0-0.0","A1124","true","img/card_backs/set1/yellow.gif","img/card_backs/set1/green.gif","img/card_backs/set1/red.gif","img/card_backs/set1/purple.gif","img/card_backs/set2/orange.gif","img/card_backs/set2/blue.gif","img/card_backs/set2/gray.gif","img/card_backs/set2/pink.gif","""event"",""trial"",""time""
""fullscreenenter"",""1"",""12318""
","
","
","""event"",""trial"",""time""
""fullscreenenter"",""1"",""12318""
","
","","1901.1150000151247","Now on the next screen, try pressing '4' to select the second deck.","52","","instructions","2021-04-08 01:40:31.687","","","","","",""
"card-selection-trial","19","111137","0.0-13.0-0.0","A1124","true","img/card_backs/set1/yellow.gif","img/card_backs/set1/green.gif","img/card_backs/set1/red.gif","img/card_backs/set1/purple.gif","img/card_backs/set2/orange.gif","img/card_backs/set2/blue.gif","img/card_backs/set2/gray.gif","img/card_backs/set2/pink.gif","""event"",""trial"",""time""
""fullscreenenter"",""1"",""12318""
","
","
","""event"",""trial"",""time""
""fullscreenenter"",""1"",""12318""
","
","","371.7600000090897","","","","practice_card_selection","2021-04-08 01:40:34.067","img/practice_cards/backs/dark_blue.gif","1","-200","","",""
"casino-keyboard-response","20","111869","0.0-14.0-0.0","A1124","true","img/card_backs/set1/yellow.gif","img/card_backs/set1/green.gif","img/card_backs/set1/red.gif","img/card_backs/set1/purple.gif","img/card_backs/set2/orange.gif","img/card_backs/set2/blue.gif","img/card_backs/set2/gray.gif","img/card_backs/set2/pink.gif","""event"",""trial"",""time""
""fullscreenenter"",""1"",""12318""
","
","
","""event"",""trial"",""time""
""fullscreenenter"",""1"",""12318""
","
","","730.8849999681115","Finally, try pressing '8' to select the deck all the way on the right.","56","","instructions","2021-04-08 01:40:34.799","","","","","",""
"card-selection-trial","21","114332","0.0-15.0-0.0","A1124","true","img/card_backs/set1/yellow.gif","img/card_backs/set1/green.gif","img/card_backs/set1/red.gif","img/card_backs/set1/purple.gif","img/card_backs/set2/orange.gif","img/card_backs/set2/blue.gif","img/card_backs/set2/gray.gif","img/card_backs/set2/pink.gif","""event"",""trial"",""time""
""fullscreenenter"",""1"",""12318""
","
","
","""event"",""trial"",""time""
""fullscreenenter"",""1"",""12318""
","
","","454.7000000020489","","","","practice_card_selection","2021-04-08 01:40:37.262","img/practice_cards/backs/black.gif","3","-100","","",""
"casino-keyboard-response","22","118101","0.0-16.0-0.0","A1124","true","img/card_backs/set1/yellow.gif","img/card_backs/set1/green.gif","img/card_backs/set1/red.gif","img/card_backs/set1/purple.gif","img/card_backs/set2/orange.gif","img/card_backs/set2/blue.gif","img/card_backs/set2/gray.gif","img/card_backs/set2/pink.gif","""event"",""trial"",""time""
""fullscreenenter"",""1"",""12318""
","
","
","""event"",""trial"",""time""
""fullscreenenter"",""1"",""12318""
","
","","3767.500000016298","Great! It seems like you are getting the hang of this.","80","","instructions","2021-04-08 01:40:41.031","","","","","",""
"casino-keyboard-response","23","126181","0.0-16.0-0.1","A1124","true","img/card_backs/set1/yellow.gif","img/card_backs/set1/green.gif","img/card_backs/set1/red.gif","img/card_backs/set1/purple.gif","img/card_backs/set2/orange.gif","img/card_backs/set2/blue.gif","img/card_backs/set2/gray.gif","img/card_backs/set2/pink.gif","""event"",""trial"",""time""
""fullscreenenter"",""1"",""12318""
","
","
","""event"",""trial"",""time""
""fullscreenenter"",""1"",""12318""
","
","","8078.210000006948","You may have noticed that some cards will cause you to <b> win </b> tokens while other cards will cause you to <b> lose </b>  tokens.","70","","instructions","2021-04-08 01:40:49.111","","","","","",""
"casino-keyboard-response","24","159860","0.0-16.0-0.2","A1124","true","img/card_backs/set1/yellow.gif","img/card_backs/set1/green.gif","img/card_backs/set1/red.gif","img/card_backs/set1/purple.gif","img/card_backs/set2/orange.gif","img/card_backs/set2/blue.gif","img/card_backs/set2/gray.gif","img/card_backs/set2/pink.gif","""event"",""trial"",""time""
""fullscreenenter"",""1"",""12318""
","
","
","""event"",""trial"",""time""
""fullscreenenter"",""1"",""12318""
","
","","33677.07999999402","Each deck has a mix of cards that will cause you to win and lose tokens. </br> However, the cards in each colored deck are different.","73","","instructions","2021-04-08 01:41:22.790","","","","","",""
"casino-keyboard-response","25","171227","0.0-16.0-0.3","A1124","true","img/card_backs/set1/yellow.gif","img/card_backs/set1/green.gif","img/card_backs/set1/red.gif","img/card_backs/set1/purple.gif","img/card_backs/set2/orange.gif","img/card_backs/set2/blue.gif","img/card_backs/set2/gray.gif","img/card_backs/set2/pink.gif","""event"",""trial"",""time""
""fullscreenenter"",""1"",""12318""
","
","
","""event"",""trial"",""time""
""fullscreenenter"",""1"",""12318""
","
","","11364.78000000352","Some colored decks are luckier than others. </br> If you choose the lucky decks, you will earn more tokens than if you choose the unlucky decks.","69","","instructions","2021-04-08 01:41:34.157","","","","","",""
"casino-keyboard-response","26","178101","0.0-16.0-0.4","A1124","true","img/card_backs/set1/yellow.gif","img/card_backs/set1/green.gif","img/card_backs/set1/red.gif","img/card_backs/set1/purple.gif","img/card_backs/set2/orange.gif","img/card_backs/set2/blue.gif","img/card_backs/set2/gray.gif","img/card_backs/set2/pink.gif","""event"",""trial"",""time""
""fullscreenenter"",""1"",""12318""
","
","
","""event"",""trial"",""time""
""fullscreenenter"",""1"",""12318""
","
","","6872.895000036806","You should try to figure out which decks are lucky. </br> Then, try to choose the lucky decks so you can win the most tokens.","87","","instructions","2021-04-08 01:41:41.032","","","","","",""
"casino-keyboard-response","27","189502","0.0-16.0-0.5","A1124","true","img/card_backs/set1/yellow.gif","img/card_backs/set1/green.gif","img/card_backs/set1/red.gif","img/card_backs/set1/purple.gif","img/card_backs/set2/orange.gif","img/card_backs/set2/blue.gif","img/card_backs/set2/gray.gif","img/card_backs/set2/pink.gif","""event"",""trial"",""time""
""fullscreenenter"",""1"",""12318""
","
","
","""event"",""trial"",""time""
""fullscreenenter"",""1"",""12318""
","
","","11398.440000019036","To make it trickier, the casino dealer will switch the locations of the decks on every turn. </br> The color of the deck determines how lucky it is. The location does not matter.","88","","instructions","2021-04-08 01:41:52.432","","","","","",""
"casino-keyboard-response","28","198495","0.0-16.0-0.6","A1124","true","img/card_backs/set1/yellow.gif","img/card_backs/set1/green.gif","img/card_backs/set1/red.gif","img/card_backs/set1/purple.gif","img/card_backs/set2/orange.gif","img/card_backs/set2/blue.gif","img/card_backs/set2/gray.gif","img/card_backs/set2/pink.gif","""event"",""trial"",""time""
""fullscreenenter"",""1"",""12318""
","
","
","""event"",""trial"",""time""
""fullscreenenter"",""1"",""12318""
","
","","8991.674999997485","The mix of cards in each colored deck will stay the same throughout the game. </br> That means that a deck that is lucky early on will stay lucky.","79","","instructions","2021-04-08 01:42:01.425","","","","","",""
"casino-keyboard-response","29","208137","0.0-16.0-0.7","A1124","true","img/card_backs/set1/yellow.gif","img/card_backs/set1/green.gif","img/card_backs/set1/red.gif","img/card_backs/set1/purple.gif","img/card_backs/set2/orange.gif","img/card_backs/set2/blue.gif","img/card_backs/set2/gray.gif","img/card_backs/set2/pink.gif","""event"",""trial"",""time""
""fullscreenenter"",""1"",""12318""
","
","
","""event"",""trial"",""time""
""fullscreenenter"",""1"",""12318""
","
","","9639.885000011418","Remember though, all the decks have a <b> mix </b> of both <b> good </b> and <b> bad </b> cards so it may take a couple of turns to figure out if a deck is lucky.","69","","instructions","2021-04-08 01:42:11.067","","","","","",""
"casino-keyboard-response","30","221466","0.0-16.0-0.8","A1124","true","img/card_backs/set1/yellow.gif","img/card_backs/set1/green.gif","img/card_backs/set1/red.gif","img/card_backs/set1/purple.gif","img/card_backs/set2/orange.gif","img/card_backs/set2/blue.gif","img/card_backs/set2/gray.gif","img/card_backs/set2/pink.gif","""event"",""trial"",""time""
""fullscreenenter"",""1"",""12318""
","
","
","""event"",""trial"",""time""
""fullscreenenter"",""1"",""12318""
","
","","13328.095000004396","At the end of the game, you will be paid bonus money based on how many tokens you win. </br> If you win more tokens, you will earn more money!","72","","instructions","2021-04-08 01:42:24.396","","","","","",""
"casino-keyboard-response","31","231944","0.0-16.0-0.9","A1124","true","img/card_backs/set1/yellow.gif","img/card_backs/set1/green.gif","img/card_backs/set1/red.gif","img/card_backs/set1/purple.gif","img/card_backs/set2/orange.gif","img/card_backs/set2/blue.gif","img/card_backs/set2/gray.gif","img/card_backs/set2/pink.gif","""event"",""trial"",""time""
""fullscreenenter"",""1"",""12318""
","
","
","""event"",""trial"",""time""
""fullscreenenter"",""1"",""12318""
","
","","10475.87999998359","You will never <b> lose </b> money. </br> If you end up with fewer than 0 tokens, you will earn $0 of bonus money, but you will still be paid for playing the game.","83","","instructions","2021-04-08 01:42:34.874","","","","","",""
"casino-keyboard-response","32","236320","0.0-16.0-0.10","A1124","true","img/card_backs/set1/yellow.gif","img/card_backs/set1/green.gif","img/card_backs/set1/red.gif","img/card_backs/set1/purple.gif","img/card_backs/set2/orange.gif","img/card_backs/set2/blue.gif","img/card_backs/set2/gray.gif","img/card_backs/set2/pink.gif","""event"",""trial"",""time""
""fullscreenenter"",""1"",""12318""
","
","
","""event"",""trial"",""time""
""fullscreenenter"",""1"",""12318""
","
","","4373.360000026878","You will have 10 seconds to make each choice.","82","","instructions","2021-04-08 01:42:39.250","","","","","",""
"casino-keyboard-response","33","244379","0.0-16.0-0.11","A1124","true","img/card_backs/set1/yellow.gif","img/card_backs/set1/green.gif","img/card_backs/set1/red.gif","img/card_backs/set1/purple.gif","img/card_backs/set2/orange.gif","img/card_backs/set2/blue.gif","img/card_backs/set2/gray.gif","img/card_backs/set2/pink.gif","""event"",""trial"",""time""
""fullscreenenter"",""1"",""12318""
","
","
","""event"",""trial"",""time""
""fullscreenenter"",""1"",""12318""
","
","","8057.895000034478","Before you play the game for real, you will play with practice decks. </br> The tokens you earn during practice won't count toward your total.","86","","instructions","2021-04-08 01:42:47.309","","","","","",""
"casino-keyboard-response","34","246902","0.0-16.0-0.12","A1124","true","img/card_backs/set1/yellow.gif","img/card_backs/set1/green.gif","img/card_backs/set1/red.gif","img/card_backs/set1/purple.gif","img/card_backs/set2/orange.gif","img/card_backs/set2/blue.gif","img/card_backs/set2/gray.gif","img/card_backs/set2/pink.gif","""event"",""trial"",""time""
""fullscreenenter"",""1"",""12318""
","
","
","""event"",""trial"",""time""
""fullscreenenter"",""1"",""12318""
","
","","2516.284999961499","Ready? Remember, use the '2', '4', '6', and '8' keys to select the decks. </br> Put your fingers on those keys now and then press '2' to begin.","50","","instructions","2021-04-08 01:42:49.832","","","","","",""
"casino-fixation","35","247403","0.0-17.0-0.0","A1124","true","img/card_backs/set1/yellow.gif","img/card_backs/set1/green.gif","img/card_backs/set1/red.gif","img/card_backs/set1/purple.gif","img/card_backs/set2/orange.gif","img/card_backs/set2/blue.gif","img/card_backs/set2/gray.gif","img/card_backs/set2/pink.gif","""event"",""trial"",""time""
""fullscreenenter"",""1"",""12318""
","
","
","""event"",""trial"",""time""
""fullscreenenter"",""1"",""12318""
","
","","null","","null","","fixation","2021-04-08 01:42:50.333","","","","","",""
"card-selection-trial","36","250195","0.0-17.0-1.0","A1124","true","img/card_backs/set1/yellow.gif","img/card_backs/set1/green.gif","img/card_backs/set1/red.gif","img/card_backs/set1/purple.gif","img/card_backs/set2/orange.gif","img/card_backs/set2/blue.gif","img/card_backs/set2/gray.gif","img/card_backs/set2/pink.gif","""event"",""trial"",""time""
""fullscreenenter"",""1"",""12318""
","
","
","""event"",""trial"",""time""
""fullscreenenter"",""1"",""12318""
","
","","786.3050000160001","","","","practice","2021-04-08 01:42:53.126","img/practice_cards/backs/black.gif","0","100","0","",""
"casino-fixation","37","250700","0.0-17.0-0.1","A1124","true","img/card_backs/set1/yellow.gif","img/card_backs/set1/green.gif","img/card_backs/set1/red.gif","img/card_backs/set1/purple.gif","img/card_backs/set2/orange.gif","img/card_backs/set2/blue.gif","img/card_backs/set2/gray.gif","img/card_backs/set2/pink.gif","""event"",""trial"",""time""
""fullscreenenter"",""1"",""12318""
","
","
","""event"",""trial"",""time""
""fullscreenenter"",""1"",""12318""
","
","","null","","null","","fixation","2021-04-08 01:42:53.630","","","","","",""
"card-selection-trial","38","253737","0.0-17.0-1.1","A1124","true","img/card_backs/set1/yellow.gif","img/card_backs/set1/green.gif","img/card_backs/set1/red.gif","img/card_backs/set1/purple.gif","img/card_backs/set2/orange.gif","img/card_backs/set2/blue.gif","img/card_backs/set2/gray.gif","img/card_backs/set2/pink.gif","""event"",""trial"",""time""
""fullscreenenter"",""1"",""12318""
","
","
","""event"",""trial"",""time""
""fullscreenenter"",""1"",""12318""
","
","","1027.3100000340492","","","","practice","2021-04-08 01:42:56.667","img/practice_cards/backs/black.gif","2","-100","0","",""
"casino-fixation","39","254241","0.0-17.0-0.2","A1124","true","img/card_backs/set1/yellow.gif","img/card_backs/set1/green.gif","img/card_backs/set1/red.gif","img/card_backs/set1/purple.gif","img/card_backs/set2/orange.gif","img/card_backs/set2/blue.gif","img/card_backs/set2/gray.gif","img/card_backs/set2/pink.gif","""event"",""trial"",""time""
""fullscreenenter"",""1"",""12318""
","
","
","""event"",""trial"",""time""
""fullscreenenter"",""1"",""12318""
","
","","null","","null","","fixation","2021-04-08 01:42:57.171","","","","","",""
"card-selection-trial","40","256813","0.0-17.0-1.2","A1124","true","img/card_backs/set1/yellow.gif","img/card_backs/set1/green.gif","img/card_backs/set1/red.gif","img/card_backs/set1/purple.gif","img/card_backs/set2/orange.gif","img/card_backs/set2/blue.gif","img/card_backs/set2/gray.gif","img/card_backs/set2/pink.gif","""event"",""trial"",""time""
""fullscreenenter"",""1"",""12318""
","
","
","""event"",""trial"",""time""
""fullscreenenter"",""1"",""12318""
","
","","562.1499999542721","","","","practice","2021-04-08 01:42:59.743","img/practice_cards/backs/black.gif","2","-100","0","",""
"casino-fixation","41","257318","0.0-17.0-0.3","A1124","true","img/card_backs/set1/yellow.gif","img/card_backs/set1/green.gif","img/card_backs/set1/red.gif","img/card_backs/set1/purple.gif","img/card_backs/set2/orange.gif","img/card_backs/set2/blue.gif","img/card_backs/set2/gray.gif","img/card_backs/set2/pink.gif","""event"",""trial"",""time""
""fullscreenenter"",""1"",""12318""
","
","
","""event"",""trial"",""time""
""fullscreenenter"",""1"",""12318""
","
","","null","","null","","fixation","2021-04-08 01:43:00.248","","","","","",""
"card-selection-trial","42","260029","0.0-17.0-1.3","A1124","true","img/card_backs/set1/yellow.gif","img/card_backs/set1/green.gif","img/card_backs/set1/red.gif","img/card_backs/set1/purple.gif","img/card_backs/set2/orange.gif","img/card_backs/set2/blue.gif","img/card_backs/set2/gray.gif","img/card_backs/set2/pink.gif","""event"",""trial"",""time""
""fullscreenenter"",""1"",""12318""
","
","
","""event"",""trial"",""time""
""fullscreenenter"",""1"",""12318""
","
","","701.0799999698065","","","","practice","2021-04-08 01:43:02.959","img/practice_cards/backs/dark_green.gif","3","200","0","",""
"casino-fixation","43","260534","0.0-17.0-0.4","A1124","true","img/card_backs/set1/yellow.gif","img/card_backs/set1/green.gif","img/card_backs/set1/red.gif","img/card_backs/set1/purple.gif","img/card_backs/set2/orange.gif","img/card_backs/set2/blue.gif","img/card_backs/set2/gray.gif","img/card_backs/set2/pink.gif","""event"",""trial"",""time""
""fullscreenenter"",""1"",""12318""
","
","
","""event"",""trial"",""time""
""fullscreenenter"",""1"",""12318""
","
","","null","","null","","fixation","2021-04-08 01:43:03.464","","","","","",""
"card-selection-trial","44","263057","0.0-17.0-1.4","A1124","true","img/card_backs/set1/yellow.gif","img/card_backs/set1/green.gif","img/card_backs/set1/red.gif","img/card_backs/set1/purple.gif","img/card_backs/set2/orange.gif","img/card_backs/set2/blue.gif","img/card_backs/set2/gray.gif","img/card_backs/set2/pink.gif","""event"",""trial"",""time""
""fullscreenenter"",""1"",""12318""
","
","
","""event"",""trial"",""time""
""fullscreenenter"",""1"",""12318""
","
","","516.3950000423938","","","","practice","2021-04-08 01:43:05.988","img/practice_cards/backs/dark_green.gif","0","-200","0","",""
"casino-fixation","45","263560","0.0-17.0-0.5","A1124","true","img/card_backs/set1/yellow.gif","img/card_backs/set1/green.gif","img/card_backs/set1/red.gif","img/card_backs/set1/purple.gif","img/card_backs/set2/orange.gif","img/card_backs/set2/blue.gif","img/card_backs/set2/gray.gif","img/card_backs/set2/pink.gif","""event"",""trial"",""time""
""fullscreenenter"",""1"",""12318""
","
","
","""event"",""trial"",""time""
""fullscreenenter"",""1"",""12318""
","
","","null","","null","","fixation","2021-04-08 01:43:06.490","","","","","",""
"card-selection-trial","46","266460","0.0-17.0-1.5","A1124","true","img/card_backs/set1/yellow.gif","img/card_backs/set1/green.gif","img/card_backs/set1/red.gif","img/card_backs/set1/purple.gif","img/card_backs/set2/orange.gif","img/card_backs/set2/blue.gif","img/card_backs/set2/gray.gif","img/card_backs/set2/pink.gif","""event"",""trial"",""time""
""fullscreenenter"",""1"",""12318""
","
","
","""event"",""trial"",""time""
""fullscreenenter"",""1"",""12318""
","
","","892.1500000287779","","","","practice","2021-04-08 01:43:09.390","img/practice_cards/backs/dark_green.gif","1","-200","0","",""
"casino-fixation","47","266963","0.0-17.0-0.6","A1124","true","img/card_backs/set1/yellow.gif","img/card_backs/set1/green.gif","img/card_backs/set1/red.gif","img/card_backs/set1/purple.gif","img/card_backs/set2/orange.gif","img/card_backs/set2/blue.gif","img/card_backs/set2/gray.gif","img/card_backs/set2/pink.gif","""event"",""trial"",""time""
""fullscreenenter"",""1"",""12318""
","
","
","""event"",""trial"",""time""
""fullscreenenter"",""1"",""12318""
","
","","null","","null","","fixation","2021-04-08 01:43:09.893","","","","","",""
"card-selection-trial","48","269841","0.0-17.0-1.6","A1124","true","img/card_backs/set1/yellow.gif","img/card_backs/set1/green.gif","img/card_backs/set1/red.gif","img/card_backs/set1/purple.gif","img/card_backs/set2/orange.gif","img/card_backs/set2/blue.gif","img/card_backs/set2/gray.gif","img/card_backs/set2/pink.gif","""event"",""trial"",""time""
""fullscreenenter"",""1"",""12318""
","
","
","""event"",""trial"",""time""
""fullscreenenter"",""1"",""12318""
","
","","871.5399999637157","","","","practice","2021-04-08 01:43:12.771","img/practice_cards/backs/brown.gif","0","-100","0","",""
"casino-fixation","49","270343","0.0-17.0-0.7","A1124","true","img/card_backs/set1/yellow.gif","img/card_backs/set1/green.gif","img/card_backs/set1/red.gif","img/card_backs/set1/purple.gif","img/card_backs/set2/orange.gif","img/card_backs/set2/blue.gif","img/card_backs/set2/gray.gif","img/card_backs/set2/pink.gif","""event"",""trial"",""time""
""fullscreenenter"",""1"",""12318""
","
","
","""event"",""trial"",""time""
""fullscreenenter"",""1"",""12318""
","
","","null","","null","","fixation","2021-04-08 01:43:13.273","","","","","",""
"card-selection-trial","50","272893","0.0-17.0-1.7","A1124","true","img/card_backs/set1/yellow.gif","img/card_backs/set1/green.gif","img/card_backs/set1/red.gif","img/card_backs/set1/purple.gif","img/card_backs/set2/orange.gif","img/card_backs/set2/blue.gif","img/card_backs/set2/gray.gif","img/card_backs/set2/pink.gif","""event"",""trial"",""time""
""fullscreenenter"",""1"",""12318""
","
","
","""event"",""trial"",""time""
""fullscreenenter"",""1"",""12318""
","
","","540.8799999859184","","","","practice","2021-04-08 01:43:15.823","img/practice_cards/backs/brown.gif","0","100","0","",""
"casino-fixation","51","273396","0.0-17.0-0.8","A1124","true","img/card_backs/set1/yellow.gif","img/card_backs/set1/green.gif","img/card_backs/set1/red.gif","img/card_backs/set1/purple.gif","img/card_backs/set2/orange.gif","img/card_backs/set2/blue.gif","img/card_backs/set2/gray.gif","img/card_backs/set2/pink.gif","""event"",""trial"",""time""
""fullscreenenter"",""1"",""12318""
","
","
","""event"",""trial"",""time""
""fullscreenenter"",""1"",""12318""
","
","","null","","null","","fixation","2021-04-08 01:43:16.326","","","","","",""
"card-selection-trial","52","276170","0.0-17.0-1.8","A1124","true","img/card_backs/set1/yellow.gif","img/card_backs/set1/green.gif","img/card_backs/set1/red.gif","img/card_backs/set1/purple.gif","img/card_backs/set2/orange.gif","img/card_backs/set2/blue.gif","img/card_backs/set2/gray.gif","img/card_backs/set2/pink.gif","""event"",""trial"",""time""
""fullscreenenter"",""1"",""12318""
","
","
","""event"",""trial"",""time""
""fullscreenenter"",""1"",""12318""
","
","","766.9849999947473","","","","practice","2021-04-08 01:43:19.100","img/practice_cards/backs/brown.gif","3","-100","0","",""
"casino-fixation","53","276674","0.0-17.0-0.9","A1124","true","img/card_backs/set1/yellow.gif","img/card_backs/set1/green.gif","img/card_backs/set1/red.gif","img/card_backs/set1/purple.gif","img/card_backs/set2/orange.gif","img/card_backs/set2/blue.gif","img/card_backs/set2/gray.gif","img/card_backs/set2/pink.gif","""event"",""trial"",""time""
""fullscreenenter"",""1"",""12318""
","
","
","""event"",""trial"",""time""
""fullscreenenter"",""1"",""12318""
","
","","null","","null","","fixation","2021-04-08 01:43:19.604","","","","","",""
"card-selection-trial","54","279806","0.0-17.0-1.9","A1124","true","img/card_backs/set1/yellow.gif","img/card_backs/set1/green.gif","img/card_backs/set1/red.gif","img/card_backs/set1/purple.gif","img/card_backs/set2/orange.gif","img/card_backs/set2/blue.gif","img/card_backs/set2/gray.gif","img/card_backs/set2/pink.gif","""event"",""trial"",""time""
""fullscreenenter"",""1"",""12318""
","
","
","""event"",""trial"",""time""
""fullscreenenter"",""1"",""12318""
","
","","1121.2700000032783","","","","practice","2021-04-08 01:43:22.736","img/practice_cards/backs/dark_blue.gif","2","-200","0","",""
"casino-keyboard-response","55","282657","0.0-18.0","A1124","true","img/card_backs/set1/yellow.gif","img/card_backs/set1/green.gif","img/card_backs/set1/red.gif","img/card_backs/set1/purple.gif","img/card_backs/set2/orange.gif","img/card_backs/set2/blue.gif","img/card_backs/set2/gray.gif","img/card_backs/set2/pink.gif","""event"",""trial"",""time""
""fullscreenenter"",""1"",""12318""
","
","
","""event"",""trial"",""time""
""fullscreenenter"",""1"",""12318""
","
","","2849.7300000162795","You earned -600 tokens during the practice round!","82","","","2021-04-08 01:43:25.587","","","","","",""
"casino-keyboard-response","56","286757","0.0-19.0-0.0","A1124","true","img/card_backs/set1/yellow.gif","img/card_backs/set1/green.gif","img/card_backs/set1/red.gif","img/card_backs/set1/purple.gif","img/card_backs/set2/orange.gif","img/card_backs/set2/blue.gif","img/card_backs/set2/gray.gif","img/card_backs/set2/pink.gif","""event"",""trial"",""time""
""fullscreenenter"",""1"",""12318""
","
","
","""event"",""trial"",""time""
""fullscreenenter"",""1"",""12318""
","
","","4099.234999972396","Nice job! You are almost ready to play the real game.","86","","instructions","2021-04-08 01:43:29.687","","","","","",""
"casino-keyboard-response","57","293561","0.0-19.0-0.1","A1124","true","img/card_backs/set1/yellow.gif","img/card_backs/set1/green.gif","img/card_backs/set1/red.gif","img/card_backs/set1/purple.gif","img/card_backs/set2/orange.gif","img/card_backs/set2/blue.gif","img/card_backs/set2/gray.gif","img/card_backs/set2/pink.gif","""event"",""trial"",""time""
""fullscreenenter"",""1"",""12318""
","
","
","""event"",""trial"",""time""
""fullscreenenter"",""1"",""12318""
","
","","6802.640000008978","You will play two rounds of the real game. In each round, you will pick 100 cards in total.","73","","instructions","2021-04-08 01:43:36.491","","","","","",""
"casino-keyboard-response","58","297847","0.0-19.0-0.2","A1124","true","img/card_backs/set1/yellow.gif","img/card_backs/set1/green.gif","img/card_backs/set1/red.gif","img/card_backs/set1/purple.gif","img/card_backs/set2/orange.gif","img/card_backs/set2/blue.gif","img/card_backs/set2/gray.gif","img/card_backs/set2/pink.gif","""event"",""trial"",""time""
""fullscreenenter"",""1"",""12318""
","
","
","""event"",""trial"",""time""
""fullscreenenter"",""1"",""12318""
","
","","4284.31499999715","We are now going to ask you some questions about how the game works.","66","","instructions","2021-04-08 01:43:40.777","","","","","",""
"casino-keyboard-response","59","305034","0.0-19.0-0.3","A1124","true","img/card_backs/set1/yellow.gif","img/card_backs/set1/green.gif","img/card_backs/set1/red.gif","img/card_backs/set1/purple.gif","img/card_backs/set2/orange.gif","img/card_backs/set2/blue.gif","img/card_backs/set2/gray.gif","img/card_backs/set2/pink.gif","""event"",""trial"",""time""
""fullscreenenter"",""1"",""12318""
","
","
","""event"",""trial"",""time""
""fullscreenenter"",""1"",""12318""
","
","","7185.364999982994","Answer carefully. You will not be able to begin the game until you answer them correctly.","67","","instructions","2021-04-08 01:43:47.964","","","","","",""
"casino-comp_q","60","310435","0.0-20.0-0.0","A1124","true","img/card_backs/set1/yellow.gif","img/card_backs/set1/green.gif","img/card_backs/set1/red.gif","img/card_backs/set1/purple.gif","img/card_backs/set2/orange.gif","img/card_backs/set2/blue.gif","img/card_backs/set2/gray.gif","img/card_backs/set2/pink.gif","""event"",""trial"",""time""
""fullscreenenter"",""1"",""12318""
","
","
","""event"",""trial"",""time""
""fullscreenenter"",""1"",""12318""
","
","","5398.3400000142865","True or False: All the decks have some cards that cause you to win tokens and some cards that cause you to lose tokens.","84","","","2021-04-08 01:43:53.365","","","","","",""
"casino-keyboard-response","61","313199","0.0-20.0-1.0","A1124","true","img/card_backs/set1/yellow.gif","img/card_backs/set1/green.gif","img/card_backs/set1/red.gif","img/card_backs/set1/purple.gif","img/card_backs/set2/orange.gif","img/card_backs/set2/blue.gif","img/card_backs/set2/gray.gif","img/card_backs/set2/pink.gif","""event"",""trial"",""time""
""fullscreenenter"",""1"",""12318""
","
","
","""event"",""trial"",""time""
""fullscreenenter"",""1"",""12318""
","
","","2763.3200000273064","True is correct! All the decks have a mix of winning and losing cards.","77","","","2021-04-08 01:43:56.130","","","","","true",""
"casino-comp_q","62","316261","0.0-21.0-0.0","A1124","true","img/card_backs/set1/yellow.gif","img/card_backs/set1/green.gif","img/card_backs/set1/red.gif","img/card_backs/set1/purple.gif","img/card_backs/set2/orange.gif","img/card_backs/set2/blue.gif","img/card_backs/set2/gray.gif","img/card_backs/set2/pink.gif","""event"",""trial"",""time""
""fullscreenenter"",""1"",""12318""
","
","
","""event"",""trial"",""time""
""fullscreenenter"",""1"",""12318""
","
","","3058.5149999824353","True or False: You will have as much time as you want to make your response.","74","","","2021-04-08 01:43:59.191","","","","","",""
"casino-keyboard-response","63","320593","0.0-21.0-1.0","A1124","true","img/card_backs/set1/yellow.gif","img/card_backs/set1/green.gif","img/card_backs/set1/red.gif","img/card_backs/set1/purple.gif","img/card_backs/set2/orange.gif","img/card_backs/set2/blue.gif","img/card_backs/set2/gray.gif","img/card_backs/set2/pink.gif","""event"",""trial"",""time""
""fullscreenenter"",""1"",""12318""
","
","
","""event"",""trial"",""time""
""fullscreenenter"",""1"",""12318""
","
","","4329.834999982268","True is incorrect. You will only have 10 seconds to make each choice.","75","","","2021-04-08 01:44:03.523","","","","","false",""
"casino-comp_q","64","324944","0.0-21.1-0.1","A1124","true","img/card_backs/set1/yellow.gif","img/card_backs/set1/green.gif","img/card_backs/set1/red.gif","img/card_backs/set1/purple.gif","img/card_backs/set2/orange.gif","img/card_backs/set2/blue.gif","img/card_backs/set2/gray.gif","img/card_backs/set2/pink.gif","""event"",""trial"",""time""
""fullscreenenter"",""1"",""12318""
","
","
","""event"",""trial"",""time""
""fullscreenenter"",""1"",""12318""
","
","","4349.020000023302","True or False: You will have as much time as you want to make your response.","70","","","2021-04-08 01:44:07.874","","","","","",""
"casino-keyboard-response","65","331196","0.0-21.1-1.1","A1124","true","img/card_backs/set1/yellow.gif","img/card_backs/set1/green.gif","img/card_backs/set1/red.gif","img/card_backs/set1/purple.gif","img/card_backs/set2/orange.gif","img/card_backs/set2/blue.gif","img/card_backs/set2/gray.gif","img/card_backs/set2/pink.gif","""event"",""trial"",""time""
""fullscreenenter"",""1"",""12318""
","
","
","""event"",""trial"",""time""
""fullscreenenter"",""1"",""12318""
","
","","6251.150000025518","False is correct! You will only have 10 seconds to make each choice.","75","","","2021-04-08 01:44:14.126","","","","","true",""
"casino-comp_q","66","334205","0.0-22.0-0.0","A1124","true","img/card_backs/set1/yellow.gif","img/card_backs/set1/green.gif","img/card_backs/set1/red.gif","img/card_backs/set1/purple.gif","img/card_backs/set2/orange.gif","img/card_backs/set2/blue.gif","img/card_backs/set2/gray.gif","img/card_backs/set2/pink.gif","""event"",""trial"",""time""
""fullscreenenter"",""1"",""12318""
","
","
","""event"",""trial"",""time""
""fullscreenenter"",""1"",""12318""
","
","","3007.7250000322238","True or False: The location of the deck determines how lucky it is.","70","","","2021-04-08 01:44:17.135","","","","","",""
"casino-keyboard-response","67","340725","0.0-22.0-1.0","A1124","true","img/card_backs/set1/yellow.gif","img/card_backs/set1/green.gif","img/card_backs/set1/red.gif","img/card_backs/set1/purple.gif","img/card_backs/set2/orange.gif","img/card_backs/set2/blue.gif","img/card_backs/set2/gray.gif","img/card_backs/set2/pink.gif","""event"",""trial"",""time""
""fullscreenenter"",""1"",""12318""
","
","
","""event"",""trial"",""time""
""fullscreenenter"",""1"",""12318""
","
","","6518.215000047348","False is correct! The <i>color</i>  of the deck determines how lucky or unlucky it is.","68","","","2021-04-08 01:44:23.655","","","","","true",""
"casino-keyboard-response","68","344775","0.0-23.0-0.0","A1124","true","img/card_backs/set1/yellow.gif","img/card_backs/set1/green.gif","img/card_backs/set1/red.gif","img/card_backs/set1/purple.gif","img/card_backs/set2/orange.gif","img/card_backs/set2/blue.gif","img/card_backs/set2/gray.gif","img/card_backs/set2/pink.gif","""event"",""trial"",""time""
""fullscreenenter"",""1"",""12318""
","
","
","""event"",""trial"",""time""
""fullscreenenter"",""1"",""12318""
","
","","4048.5050000133924","Great job! Now it's time to start the real game.","82","","instructions","2021-04-08 01:44:27.705","","","","","",""
"casino-keyboard-response","69","349902","0.0-23.0-0.1","A1124","true","img/card_backs/set1/yellow.gif","img/card_backs/set1/green.gif","img/card_backs/set1/red.gif","img/card_backs/set1/purple.gif","img/card_backs/set2/orange.gif","img/card_backs/set2/blue.gif","img/card_backs/set2/gray.gif","img/card_backs/set2/pink.gif","""event"",""trial"",""time""
""fullscreenenter"",""1"",""12318""
","
","
","""event"",""trial"",""time""
""fullscreenenter"",""1"",""12318""
","
","","5125.579999992624","Before we start, we're going to head into a new room of the casino.","86","","instructions","2021-04-08 01:44:32.832","","","","","",""
"casino-keyboard-response","70","355910","0.0-24.0-0.0","A1124","true","img/card_backs/set1/yellow.gif","img/card_backs/set1/green.gif","img/card_backs/set1/red.gif","img/card_backs/set1/purple.gif","img/card_backs/set2/orange.gif","img/card_backs/set2/blue.gif","img/card_backs/set2/gray.gif","img/card_backs/set2/pink.gif","""event"",""trial"",""time""
""fullscreenenter"",""1"",""12318""
","
","
","""event"",""trial"",""time""
""fullscreenenter"",""1"",""12318""
","
","","6006.144999992102","Here we are! The real game will use different cards, but the rules will be the same.","71","","instructions","2021-04-08 01:44:38.840","","","","","",""
"casino-keyboard-response","71","362584","0.0-24.0-0.1","A1124","true","img/card_backs/set1/yellow.gif","img/card_backs/set1/green.gif","img/card_backs/set1/red.gif","img/card_backs/set1/purple.gif","img/card_backs/set2/orange.gif","img/card_backs/set2/blue.gif","img/card_backs/set2/gray.gif","img/card_backs/set2/pink.gif","""event"",""trial"",""time""
""fullscreenenter"",""1"",""12318""
","
","
","""event"",""trial"",""time""
""fullscreenenter"",""1"",""12318""
","
","","6672.649999964051","Ready? Put your fingers over the '2', '4', 6', and '8' keys so you are ready to play the game. </br> Then press 2 to start.","50","","instructions","2021-04-08 01:44:45.514","","","","","",""
"casino-fixation","72","363087","0.0-25.0-0.0","A1124","true","img/card_backs/set1/yellow.gif","img/card_backs/set1/green.gif","img/card_backs/set1/red.gif","img/card_backs/set1/purple.gif","img/card_backs/set2/orange.gif","img/card_backs/set2/blue.gif","img/card_backs/set2/gray.gif","img/card_backs/set2/pink.gif","""event"",""trial"",""time""
""fullscreenenter"",""1"",""12318""
","
","
","""event"",""trial"",""time""
""fullscreenenter"",""1"",""12318""
","
","","null","","null","","fixation","2021-04-08 01:44:46.017","","","","","",""
"card-selection-trial","73","367685","0.0-25.0-1.0","A1124","true","img/card_backs/set1/yellow.gif","img/card_backs/set1/green.gif","img/card_backs/set1/red.gif","img/card_backs/set1/purple.gif","img/card_backs/set2/orange.gif","img/card_backs/set2/blue.gif","img/card_backs/set2/gray.gif","img/card_backs/set2/pink.gif","""event"",""trial"",""time""
""fullscreenenter"",""1"",""12318""
","
","
","""event"",""trial"",""time""
""fullscreenenter"",""1"",""12318""
","
","","2587.8999999840744","","","","real_trial","2021-04-08 01:44:50.615","img/card_backs/set1/purple.gif","1","-100","1","",""
"casino-fixation","74","368189","0.0-25.0-0.1","A1124","true","img/card_backs/set1/yellow.gif","img/card_backs/set1/green.gif","img/card_backs/set1/red.gif","img/card_backs/set1/purple.gif","img/card_backs/set2/orange.gif","img/card_backs/set2/blue.gif","img/card_backs/set2/gray.gif","img/card_backs/set2/pink.gif","""event"",""trial"",""time""
""fullscreenenter"",""1"",""12318""
","
","
","""event"",""trial"",""time""
""fullscreenenter"",""1"",""12318""
","
","","null","","null","","fixation","2021-04-08 01:44:51.119","","","","","",""
"card-selection-trial","75","370802","0.0-25.0-1.1","A1124","true","img/card_backs/set1/yellow.gif","img/card_backs/set1/green.gif","img/card_backs/set1/red.gif","img/card_backs/set1/purple.gif","img/card_backs/set2/orange.gif","img/card_backs/set2/blue.gif","img/card_backs/set2/gray.gif","img/card_backs/set2/pink.gif","""event"",""trial"",""time""
""fullscreenenter"",""1"",""12318""
","
","
","""event"",""trial"",""time""
""fullscreenenter"",""1"",""12318""
","
","","607.4699999880977","","","","real_trial","2021-04-08 01:44:53.732","img/card_backs/set1/purple.gif","0","-90","1","",""
"casino-fixation","76","371305","0.0-25.0-0.2","A1124","true","img/card_backs/set1/yellow.gif","img/card_backs/set1/green.gif","img/card_backs/set1/red.gif","img/card_backs/set1/purple.gif","img/card_backs/set2/orange.gif","img/card_backs/set2/blue.gif","img/card_backs/set2/gray.gif","img/card_backs/set2/pink.gif","""event"",""trial"",""time""
""fullscreenenter"",""1"",""12318""
","
","
","""event"",""trial"",""time""
""fullscreenenter"",""1"",""12318""
","
","","null","","null","","fixation","2021-04-08 01:44:54.235","","","","","",""
"card-selection-trial","77","374123","0.0-25.0-1.2","A1124","true","img/card_backs/set1/yellow.gif","img/card_backs/set1/green.gif","img/card_backs/set1/red.gif","img/card_backs/set1/purple.gif","img/card_backs/set2/orange.gif","img/card_backs/set2/blue.gif","img/card_backs/set2/gray.gif","img/card_backs/set2/pink.gif","""event"",""trial"",""time""
""fullscreenenter"",""1"",""12318""
","
","
","""event"",""trial"",""time""
""fullscreenenter"",""1"",""12318""
","
","","807.3250000015832","","","","real_trial","2021-04-08 01:44:57.053","img/card_backs/set1/purple.gif","3","-90","1","",""
"casino-fixation","78","374627","0.0-25.0-0.3","A1124","true","img/card_backs/set1/yellow.gif","img/card_backs/set1/green.gif","img/card_backs/set1/red.gif","img/card_backs/set1/purple.gif","img/card_backs/set2/orange.gif","img/card_backs/set2/blue.gif","img/card_backs/set2/gray.gif","img/card_backs/set2/pink.gif","""event"",""trial"",""time""
""fullscreenenter"",""1"",""12318""
","
","
","""event"",""trial"",""time""
""fullscreenenter"",""1"",""12318""
","
","","null","","null","","fixation","2021-04-08 01:44:57.558","","","","","",""
"card-selection-trial","79","377693","0.0-25.0-1.3","A1124","true","img/card_backs/set1/yellow.gif","img/card_backs/set1/green.gif","img/card_backs/set1/red.gif","img/card_backs/set1/purple.gif","img/card_backs/set2/orange.gif","img/card_backs/set2/blue.gif","img/card_backs/set2/gray.gif","img/card_backs/set2/pink.gif","""event"",""trial"",""time""
""fullscreenenter"",""1"",""12318""
","
","
","""event"",""trial"",""time""
""fullscreenenter"",""1"",""12318""
","
","","1057.2549999924377","","","","real_trial","2021-04-08 01:45:00.623","img/card_backs/set1/yellow.gif","2","260","1","",""
"casino-fixation","80","378198","0.0-25.0-0.4","A1124","true","img/card_backs/set1/yellow.gif","img/card_backs/set1/green.gif","img/card_backs/set1/red.gif","img/card_backs/set1/purple.gif","img/card_backs/set2/orange.gif","img/card_backs/set2/blue.gif","img/card_backs/set2/gray.gif","img/card_backs/set2/pink.gif","""event"",""trial"",""time""
""fullscreenenter"",""1"",""12318""
","
","
","""event"",""trial"",""time""
""fullscreenenter"",""1"",""12318""
","
","","null","","null","","fixation","2021-04-08 01:45:01.128","","","","","",""
"card-selection-trial","81","381153","0.0-25.0-1.4","A1124","true","img/card_backs/set1/yellow.gif","img/card_backs/set1/green.gif","img/card_backs/set1/red.gif","img/card_backs/set1/purple.gif","img/card_backs/set2/orange.gif","img/card_backs/set2/blue.gif","img/card_backs/set2/gray.gif","img/card_backs/set2/pink.gif","""event"",""trial"",""time""
""fullscreenenter"",""1"",""12318""
","
","
","""event"",""trial"",""time""
""fullscreenenter"",""1"",""12318""
","
","","947.165000019595","","","","real_trial","2021-04-08 01:45:04.083","img/card_backs/set1/yellow.gif","1","-210","1","",""
"casino-fixation","82","381657","0.0-25.0-0.5","A1124","true","img/card_backs/set1/yellow.gif","img/card_backs/set1/green.gif","img/card_backs/set1/red.gif","img/card_backs/set1/purple.gif","img/card_backs/set2/orange.gif","img/card_backs/set2/blue.gif","img/card_backs/set2/gray.gif","img/card_backs/set2/pink.gif","""event"",""trial"",""time""
""fullscreenenter"",""1"",""12318""
","
","
","""event"",""trial"",""time""
""fullscreenenter"",""1"",""12318""
","
","","null","","null","","fixation","2021-04-08 01:45:04.587","","","","","",""
"card-selection-trial","83","384096","0.0-25.0-1.5","A1124","true","img/card_backs/set1/yellow.gif","img/card_backs/set1/green.gif","img/card_backs/set1/red.gif","img/card_backs/set1/purple.gif","img/card_backs/set2/orange.gif","img/card_backs/set2/blue.gif","img/card_backs/set2/gray.gif","img/card_backs/set2/pink.gif","""event"",""trial"",""time""
""fullscreenenter"",""1"",""12318""
","
","
","""event"",""trial"",""time""
""fullscreenenter"",""1"",""12318""
","
","","431.4400000148453","","","","real_trial","2021-04-08 01:45:07.026","img/card_backs/set1/yellow.gif","2","240","1","",""
"casino-fixation","84","384601","0.0-25.0-0.6","A1124","true","img/card_backs/set1/yellow.gif","img/card_backs/set1/green.gif","img/card_backs/set1/red.gif","img/card_backs/set1/purple.gif","img/card_backs/set2/orange.gif","img/card_backs/set2/blue.gif","img/card_backs/set2/gray.gif","img/card_backs/set2/pink.gif","""event"",""trial"",""time""
""fullscreenenter"",""1"",""12318""
","
","
","""event"",""trial"",""time""
""fullscreenenter"",""1"",""12318""
","
","","null","","null","","fixation","2021-04-08 01:45:07.531","","","","","",""
"card-selection-trial","85","387051","0.0-25.0-1.6","A1124","true","img/card_backs/set1/yellow.gif","img/card_backs/set1/green.gif","img/card_backs/set1/red.gif","img/card_backs/set1/purple.gif","img/card_backs/set2/orange.gif","img/card_backs/set2/blue.gif","img/card_backs/set2/gray.gif","img/card_backs/set2/pink.gif","""event"",""trial"",""time""
""fullscreenenter"",""1"",""12318""
","
","
","""event"",""trial"",""time""
""fullscreenenter"",""1"",""12318""
","
","","441.74999999813735","","","","real_trial","2021-04-08 01:45:09.981","img/card_backs/set1/yellow.gif","2","260","1","",""
"casino-fixation","86","387555","0.0-25.0-0.7","A1124","true","img/card_backs/set1/yellow.gif","img/card_backs/set1/green.gif","img/card_backs/set1/red.gif","img/card_backs/set1/purple.gif","img/card_backs/set2/orange.gif","img/card_backs/set2/blue.gif","img/card_backs/set2/gray.gif","img/card_backs/set2/pink.gif","""event"",""trial"",""time""
""fullscreenenter"",""1"",""12318""
","
","
","""event"",""trial"",""time""
""fullscreenenter"",""1"",""12318""
","
","","null","","null","","fixation","2021-04-08 01:45:10.486","","","","","",""
"card-selection-trial","87","390099","0.0-25.0-1.7","A1124","true","img/card_backs/set1/yellow.gif","img/card_backs/set1/green.gif","img/card_backs/set1/red.gif","img/card_backs/set1/purple.gif","img/card_backs/set2/orange.gif","img/card_backs/set2/blue.gif","img/card_backs/set2/gray.gif","img/card_backs/set2/pink.gif","""event"",""trial"",""time""
""fullscreenenter"",""1"",""12318""
","
","
","""event"",""trial"",""time""
""fullscreenenter"",""1"",""12318""
","
","","536.5849999943748","","","","real_trial","2021-04-08 01:45:13.029","img/card_backs/set1/yellow.gif","0","-200","1","",""
"casino-fixation","88","390603","0.0-25.0-0.8","A1124","true","img/card_backs/set1/yellow.gif","img/card_backs/set1/green.gif","img/card_backs/set1/red.gif","img/card_backs/set1/purple.gif","img/card_backs/set2/orange.gif","img/card_backs/set2/blue.gif","img/card_backs/set2/gray.gif","img/card_backs/set2/pink.gif","""event"",""trial"",""time""
""fullscreenenter"",""1"",""12318""
","
","
","""event"",""trial"",""time""
""fullscreenenter"",""1"",""12318""
","
","","null","","null","","fixation","2021-04-08 01:45:13.534","","","","","",""
"card-selection-trial","89","393756","0.0-25.0-1.8","A1124","true","img/card_backs/set1/yellow.gif","img/card_backs/set1/green.gif","img/card_backs/set1/red.gif","img/card_backs/set1/purple.gif","img/card_backs/set2/orange.gif","img/card_backs/set2/blue.gif","img/card_backs/set2/gray.gif","img/card_backs/set2/pink.gif","""event"",""trial"",""time""
""fullscreenenter"",""1"",""12318""
","
","
","""event"",""trial"",""time""
""fullscreenenter"",""1"",""12318""
","
","","1142.3899999936111","","","","real_trial","2021-04-08 01:45:16.686","img/card_backs/set1/red.gif","1","40","1","",""
"casino-fixation","90","394263","0.0-25.0-0.9","A1124","true","img/card_backs/set1/yellow.gif","img/card_backs/set1/green.gif","img/card_backs/set1/red.gif","img/card_backs/set1/purple.gif","img/card_backs/set2/orange.gif","img/card_backs/set2/blue.gif","img/card_backs/set2/gray.gif","img/card_backs/set2/pink.gif","""event"",""trial"",""time""
""fullscreenenter"",""1"",""12318""
","
","
","""event"",""trial"",""time""
""fullscreenenter"",""1"",""12318""
","
","","null","","null","","fixation","2021-04-08 01:45:17.193","","","","","",""
"card-selection-trial","91","396737","0.0-25.0-1.9","A1124","true","img/card_backs/set1/yellow.gif","img/card_backs/set1/green.gif","img/card_backs/set1/red.gif","img/card_backs/set1/purple.gif","img/card_backs/set2/orange.gif","img/card_backs/set2/blue.gif","img/card_backs/set2/gray.gif","img/card_backs/set2/pink.gif","""event"",""trial"",""time""
""fullscreenenter"",""1"",""12318""
","
","
","""event"",""trial"",""time""
""fullscreenenter"",""1"",""12318""
","
","","464.83499999158084","","","","real_trial","2021-04-08 01:45:19.667","img/card_backs/set1/red.gif","1","-110","1","",""
"casino-fixation","92","397238","0.0-25.0-0.10","A1124","true","img/card_backs/set1/yellow.gif","img/card_backs/set1/green.gif","img/card_backs/set1/red.gif","img/card_backs/set1/purple.gif","img/card_backs/set2/orange.gif","img/card_backs/set2/blue.gif","img/card_backs/set2/gray.gif","img/card_backs/set2/pink.gif","""event"",""trial"",""time""
""fullscreenenter"",""1"",""12318""
","
","
","""event"",""trial"",""time""
""fullscreenenter"",""1"",""12318""
","
","","null","","null","","fixation","2021-04-08 01:45:20.169","","","","","",""
"card-selection-trial","93","399877","0.0-25.0-1.10","A1124","true","img/card_backs/set1/yellow.gif","img/card_backs/set1/green.gif","img/card_backs/set1/red.gif","img/card_backs/set1/purple.gif","img/card_backs/set2/orange.gif","img/card_backs/set2/blue.gif","img/card_backs/set2/gray.gif","img/card_backs/set2/pink.gif","""event"",""trial"",""time""
""fullscreenenter"",""1"",""12318""
","
","
","""event"",""trial"",""time""
""fullscreenenter"",""1"",""12318""
","
","","630.7450000313111","","","","real_trial","2021-04-08 01:45:22.807","img/card_backs/set1/red.gif","3","50","1","",""
"casino-fixation","94","400381","0.0-25.0-0.11","A1124","true","img/card_backs/set1/yellow.gif","img/card_backs/set1/green.gif","img/card_backs/set1/red.gif","img/card_backs/set1/purple.gif","img/card_backs/set2/orange.gif","img/card_backs/set2/blue.gif","img/card_backs/set2/gray.gif","img/card_backs/set2/pink.gif","""event"",""trial"",""time""
""fullscreenenter"",""1"",""12318""
","
","
","""event"",""trial"",""time""
""fullscreenenter"",""1"",""12318""
","
","","null","","null","","fixation","2021-04-08 01:45:23.311","","","","","",""
"card-selection-trial","95","403138","0.0-25.0-1.11","A1124","true","img/card_backs/set1/yellow.gif","img/card_backs/set1/green.gif","img/card_backs/set1/red.gif","img/card_backs/set1/purple.gif","img/card_backs/set2/orange.gif","img/card_backs/set2/blue.gif","img/card_backs/set2/gray.gif","img/card_backs/set2/pink.gif","""event"",""trial"",""time""
""fullscreenenter"",""1"",""12318""
","
","
","""event"",""trial"",""time""
""fullscreenenter"",""1"",""12318""
","
","","749.2200000560842","","","","real_trial","2021-04-08 01:45:26.069","img/card_backs/set1/red.gif","0","50","1","",""
"casino-fixation","96","403643","0.0-25.0-0.12","A1124","true","img/card_backs/set1/yellow.gif","img/card_backs/set1/green.gif","img/card_backs/set1/red.gif","img/card_backs/set1/purple.gif","img/card_backs/set2/orange.gif","img/card_backs/set2/blue.gif","img/card_backs/set2/gray.gif","img/card_backs/set2/pink.gif","""event"",""trial"",""time""
""fullscreenenter"",""1"",""12318""
","
","
","""event"",""trial"",""time""
""fullscreenenter"",""1"",""12318""
","
","","null","","null","","fixation","2021-04-08 01:45:26.573","","","","","",""
"card-selection-trial","97","406145","0.0-25.0-1.12","A1124","true","img/card_backs/set1/yellow.gif","img/card_backs/set1/green.gif","img/card_backs/set1/red.gif","img/card_backs/set1/purple.gif","img/card_backs/set2/orange.gif","img/card_backs/set2/blue.gif","img/card_backs/set2/gray.gif","img/card_backs/set2/pink.gif","""event"",""trial"",""time""
""fullscreenenter"",""1"",""12318""
","
","
","""event"",""trial"",""time""
""fullscreenenter"",""1"",""12318""
","
","","491.79499997990206","","","","real_trial","2021-04-08 01:45:29.075","img/card_backs/set1/red.gif","0","60","1","",""
"casino-fixation","98","406650","0.0-25.0-0.13","A1124","true","img/card_backs/set1/yellow.gif","img/card_backs/set1/green.gif","img/card_backs/set1/red.gif","img/card_backs/set1/purple.gif","img/card_backs/set2/orange.gif","img/card_backs/set2/blue.gif","img/card_backs/set2/gray.gif","img/card_backs/set2/pink.gif","""event"",""trial"",""time""
""fullscreenenter"",""1"",""12318""
","
","
","""event"",""trial"",""time""
""fullscreenenter"",""1"",""12318""
","
","","null","","null","","fixation","2021-04-08 01:45:29.580","","","","","",""
"card-selection-trial","99","409615","0.0-25.0-1.13","A1124","true","img/card_backs/set1/yellow.gif","img/card_backs/set1/green.gif","img/card_backs/set1/red.gif","img/card_backs/set1/purple.gif","img/card_backs/set2/orange.gif","img/card_backs/set2/blue.gif","img/card_backs/set2/gray.gif","img/card_backs/set2/pink.gif","""event"",""trial"",""time""
""fullscreenenter"",""1"",""12318""
","
","
","""event"",""trial"",""time""
""fullscreenenter"",""1"",""12318""
","
","","953.4700000076555","","","","real_trial","2021-04-08 01:45:32.545","img/card_backs/set1/red.gif","2","60","1","",""
"casino-fixation","100","410120","0.0-25.0-0.14","A1124","true","img/card_backs/set1/yellow.gif","img/card_backs/set1/green.gif","img/card_backs/set1/red.gif","img/card_backs/set1/purple.gif","img/card_backs/set2/orange.gif","img/card_backs/set2/blue.gif","img/card_backs/set2/gray.gif","img/card_backs/set2/pink.gif","""event"",""trial"",""time""
""fullscreenenter"",""1"",""12318""
","
","
","""event"",""trial"",""time""
""fullscreenenter"",""1"",""12318""
","
","","null","","null","","fixation","2021-04-08 01:45:33.050","","","","","",""
"card-selection-trial","101","413180","0.0-25.0-1.14","A1124","true","img/card_backs/set1/yellow.gif","img/card_backs/set1/green.gif","img/card_backs/set1/red.gif","img/card_backs/set1/purple.gif","img/card_backs/set2/orange.gif","img/card_backs/set2/blue.gif","img/card_backs/set2/gray.gif","img/card_backs/set2/pink.gif","""event"",""trial"",""time""
""fullscreenenter"",""1"",""12318""
","
","
","""event"",""trial"",""time""
""fullscreenenter"",""1"",""12318""
","
","","1054.2850000201724","","","","real_trial","2021-04-08 01:45:36.110","img/card_backs/set1/green.gif","2","250","1","",""
"casino-fixation","102","413685","0.0-25.0-0.15","A1124","true","img/card_backs/set1/yellow.gif","img/card_backs/set1/green.gif","img/card_backs/set1/red.gif","img/card_backs/set1/purple.gif","img/card_backs/set2/orange.gif","img/card_backs/set2/blue.gif","img/card_backs/set2/gray.gif","img/card_backs/set2/pink.gif","""event"",""trial"",""time""
""fullscreenenter"",""1"",""12318""
","
","
","""event"",""trial"",""time""
""fullscreenenter"",""1"",""12318""
","
","","null","","null","","fixation","2021-04-08 01:45:36.615","","","","","",""
"card-selection-trial","103","416733","0.0-25.0-1.15","A1124","true","img/card_backs/set1/yellow.gif","img/card_backs/set1/green.gif","img/card_backs/set1/red.gif","img/card_backs/set1/purple.gif","img/card_backs/set2/orange.gif","img/card_backs/set2/blue.gif","img/card_backs/set2/gray.gif","img/card_backs/set2/pink.gif","""event"",""trial"",""time""
""fullscreenenter"",""1"",""12318""
","
","
","""event"",""trial"",""time""
""fullscreenenter"",""1"",""12318""
","
","","1036.759999988135","","","","real_trial","2021-04-08 01:45:39.663","img/card_backs/set1/green.gif","1","260","1","",""
"casino-fixation","104","417238","0.0-25.0-0.16","A1124","true","img/card_backs/set1/yellow.gif","img/card_backs/set1/green.gif","img/card_backs/set1/red.gif","img/card_backs/set1/purple.gif","img/card_backs/set2/orange.gif","img/card_backs/set2/blue.gif","img/card_backs/set2/gray.gif","img/card_backs/set2/pink.gif","""event"",""trial"",""time""
""fullscreenenter"",""1"",""12318""
","
","
","""event"",""trial"",""time""
""fullscreenenter"",""1"",""12318""
","
","","null","","null","","fixation","2021-04-08 01:45:40.168","","","","","",""
"card-selection-trial","105","419833","0.0-25.0-1.16","A1124","true","img/card_backs/set1/yellow.gif","img/card_backs/set1/green.gif","img/card_backs/set1/red.gif","img/card_backs/set1/purple.gif","img/card_backs/set2/orange.gif","img/card_backs/set2/blue.gif","img/card_backs/set2/gray.gif","img/card_backs/set2/pink.gif","""event"",""trial"",""time""
""fullscreenenter"",""1"",""12318""
","
","
","""event"",""trial"",""time""
""fullscreenenter"",""1"",""12318""
","
","","585.5800000135787","","","","real_trial","2021-04-08 01:45:42.763","img/card_backs/set1/green.gif","3","-190","1","",""
"casino-fixation","106","420338","0.0-25.0-0.17","A1124","true","img/card_backs/set1/yellow.gif","img/card_backs/set1/green.gif","img/card_backs/set1/red.gif","img/card_backs/set1/purple.gif","img/card_backs/set2/orange.gif","img/card_backs/set2/blue.gif","img/card_backs/set2/gray.gif","img/card_backs/set2/pink.gif","""event"",""trial"",""time""
""fullscreenenter"",""1"",""12318""
","
","
","""event"",""trial"",""time""
""fullscreenenter"",""1"",""12318""
","
","","null","","null","","fixation","2021-04-08 01:45:43.268","","","","","",""
"card-selection-trial","107","422948","0.0-25.0-1.17","A1124","true","img/card_backs/set1/yellow.gif","img/card_backs/set1/green.gif","img/card_backs/set1/red.gif","img/card_backs/set1/purple.gif","img/card_backs/set2/orange.gif","img/card_backs/set2/blue.gif","img/card_backs/set2/gray.gif","img/card_backs/set2/pink.gif","""event"",""trial"",""time""
""fullscreenenter"",""1"",""12318""
","
","
","""event"",""trial"",""time""
""fullscreenenter"",""1"",""12318""
","
","","601.8700000131503","","","","real_trial","2021-04-08 01:45:45.878","img/card_backs/set1/green.gif","2","-210","1","",""
"casino-fixation","108","423449","0.0-25.0-0.18","A1124","true","img/card_backs/set1/yellow.gif","img/card_backs/set1/green.gif","img/card_backs/set1/red.gif","img/card_backs/set1/purple.gif","img/card_backs/set2/orange.gif","img/card_backs/set2/blue.gif","img/card_backs/set2/gray.gif","img/card_backs/set2/pink.gif","""event"",""trial"",""time""
""fullscreenenter"",""1"",""12318""
","
","
","""event"",""trial"",""time""
""fullscreenenter"",""1"",""12318""
","
","","null","","null","","fixation","2021-04-08 01:45:46.379","","","","","",""
"card-selection-trial","109","425963","0.0-25.0-1.18","A1124","true","img/card_backs/set1/yellow.gif","img/card_backs/set1/green.gif","img/card_backs/set1/red.gif","img/card_backs/set1/purple.gif","img/card_backs/set2/orange.gif","img/card_backs/set2/blue.gif","img/card_backs/set2/gray.gif","img/card_backs/set2/pink.gif","""event"",""trial"",""time""
""fullscreenenter"",""1"",""12318""
","
","
","""event"",""trial"",""time""
""fullscreenenter"",""1"",""12318""
","
","","504.7499999636784","","","","real_trial","2021-04-08 01:45:48.893","img/card_backs/set1/green.gif","3","240","1","",""
"casino-fixation","110","426468","0.0-25.0-0.19","A1124","true","img/card_backs/set1/yellow.gif","img/card_backs/set1/green.gif","img/card_backs/set1/red.gif","img/card_backs/set1/purple.gif","img/card_backs/set2/orange.gif","img/card_backs/set2/blue.gif","img/card_backs/set2/gray.gif","img/card_backs/set2/pink.gif","""event"",""trial"",""time""
""fullscreenenter"",""1"",""12318""
","
","
","""event"",""trial"",""time""
""fullscreenenter"",""1"",""12318""
","
","","null","","null","","fixation","2021-04-08 01:45:49.398","","","","","",""
"card-selection-trial","111","429145","0.0-25.0-1.19","A1124","true","img/card_backs/set1/yellow.gif","img/card_backs/set1/green.gif","img/card_backs/set1/red.gif","img/card_backs/set1/purple.gif","img/card_backs/set2/orange.gif","img/card_backs/set2/blue.gif","img/card_backs/set2/gray.gif","img/card_backs/set2/pink.gif","""event"",""trial"",""time""
""fullscreenenter"",""1"",""12318""
","
","
","""event"",""trial"",""time""
""fullscreenenter"",""1"",""12318""
","
","","666.960000002291","","","","real_trial","2021-04-08 01:45:52.075","img/card_backs/set1/green.gif","1","240","1","",""
"casino-fixation","112","429647","0.0-25.0-0.20","A1124","true","img/card_backs/set1/yellow.gif","img/card_backs/set1/green.gif","img/card_backs/set1/red.gif","img/card_backs/set1/purple.gif","img/card_backs/set2/orange.gif","img/card_backs/set2/blue.gif","img/card_backs/set2/gray.gif","img/card_backs/set2/pink.gif","""event"",""trial"",""time""
""fullscreenenter"",""1"",""12318""
","
","
","""event"",""trial"",""time""
""fullscreenenter"",""1"",""12318""
","
","","null","","null","","fixation","2021-04-08 01:45:52.577","","","","","",""
"card-selection-trial","113","432127","0.0-25.0-1.20","A1124","true","img/card_backs/set1/yellow.gif","img/card_backs/set1/green.gif","img/card_backs/set1/red.gif","img/card_backs/set1/purple.gif","img/card_backs/set2/orange.gif","img/card_backs/set2/blue.gif","img/card_backs/set2/gray.gif","img/card_backs/set2/pink.gif","""event"",""trial"",""time""
""fullscreenenter"",""1"",""12318""
","
","
","""event"",""trial"",""time""
""fullscreenenter"",""1"",""12318""
","
","","471.6699999989942","","","","real_trial","2021-04-08 01:45:55.057","img/card_backs/set1/green.gif","3","240","1","",""
"casino-fixation","114","432631","0.0-25.0-0.21","A1124","true","img/card_backs/set1/yellow.gif","img/card_backs/set1/green.gif","img/card_backs/set1/red.gif","img/card_backs/set1/purple.gif","img/card_backs/set2/orange.gif","img/card_backs/set2/blue.gif","img/card_backs/set2/gray.gif","img/card_backs/set2/pink.gif","""event"",""trial"",""time""
""fullscreenenter"",""1"",""12318""
","
","
","""event"",""trial"",""time""
""fullscreenenter"",""1"",""12318""
","
","","null","","null","","fixation","2021-04-08 01:45:55.561","","","","","",""
"card-selection-trial","115","435403","0.0-25.0-1.21","A1124","true","img/card_backs/set1/yellow.gif","img/card_backs/set1/green.gif","img/card_backs/set1/red.gif","img/card_backs/set1/purple.gif","img/card_backs/set2/orange.gif","img/card_backs/set2/blue.gif","img/card_backs/set2/gray.gif","img/card_backs/set2/pink.gif","""event"",""trial"",""time""
""fullscreenenter"",""1"",""12318""
","
","
","""event"",""trial"",""time""
""fullscreenenter"",""1"",""12318""
","
","","761.56000001356","","","","real_trial","2021-04-08 01:45:58.333","img/card_backs/set1/yellow.gif","1","240","1","",""
"casino-fixation","116","435905","0.0-25.0-0.22","A1124","true","img/card_backs/set1/yellow.gif","img/card_backs/set1/green.gif","img/card_backs/set1/red.gif","img/card_backs/set1/purple.gif","img/card_backs/set2/orange.gif","img/card_backs/set2/blue.gif","img/card_backs/set2/gray.gif","img/card_backs/set2/pink.gif","""event"",""trial"",""time""
""fullscreenenter"",""1"",""12318""
","
","
","""event"",""trial"",""time""
""fullscreenenter"",""1"",""12318""
","
","","null","","null","","fixation","2021-04-08 01:45:58.835","","","","","",""
"card-selection-trial","117","439472","0.0-25.0-1.22","A1124","true","img/card_backs/set1/yellow.gif","img/card_backs/set1/green.gif","img/card_backs/set1/red.gif","img/card_backs/set1/purple.gif","img/card_backs/set2/orange.gif","img/card_backs/set2/blue.gif","img/card_backs/set2/gray.gif","img/card_backs/set2/pink.gif","""event"",""trial"",""time""
""fullscreenenter"",""1"",""12318""
","
","
","""event"",""trial"",""time""
""fullscreenenter"",""1"",""12318""
","
","","1557.5400000088848","","","","real_trial","2021-04-08 01:46:02.402","img/card_backs/set1/green.gif","2","-210","1","",""
"casino-fixation","118","439979","0.0-25.0-0.23","A1124","true","img/card_backs/set1/yellow.gif","img/card_backs/set1/green.gif","img/card_backs/set1/red.gif","img/card_backs/set1/purple.gif","img/card_backs/set2/orange.gif","img/card_backs/set2/blue.gif","img/card_backs/set2/gray.gif","img/card_backs/set2/pink.gif","""event"",""trial"",""time""
""fullscreenenter"",""1"",""12318""
","
","
","""event"",""trial"",""time""
""fullscreenenter"",""1"",""12318""
","
","","null","","null","","fixation","2021-04-08 01:46:02.909","","","","","",""
"card-selection-trial","119","442646","0.0-25.0-1.23","A1124","true","img/card_backs/set1/yellow.gif","img/card_backs/set1/green.gif","img/card_backs/set1/red.gif","img/card_backs/set1/purple.gif","img/card_backs/set2/orange.gif","img/card_backs/set2/blue.gif","img/card_backs/set2/gray.gif","img/card_backs/set2/pink.gif","""event"",""trial"",""time""
""fullscreenenter"",""1"",""12318""
","
","
","""event"",""trial"",""time""
""fullscreenenter"",""1"",""12318""
","
","","657.7350000152364","","","","real_trial","2021-04-08 01:46:05.576","img/card_backs/set1/red.gif","1","-110","1","",""
"casino-fixation","120","443152","0.0-25.0-0.24","A1124","true","img/card_backs/set1/yellow.gif","img/card_backs/set1/green.gif","img/card_backs/set1/red.gif","img/card_backs/set1/purple.gif","img/card_backs/set2/orange.gif","img/card_backs/set2/blue.gif","img/card_backs/set2/gray.gif","img/card_backs/set2/pink.gif","""event"",""trial"",""time""
""fullscreenenter"",""1"",""12318""
","
","
","""event"",""trial"",""time""
""fullscreenenter"",""1"",""12318""
","
","","null","","null","","fixation","2021-04-08 01:46:06.082","","","","","",""
"card-selection-trial","121","445627","0.0-25.0-1.24","A1124","true","img/card_backs/set1/yellow.gif","img/card_backs/set1/green.gif","img/card_backs/set1/red.gif","img/card_backs/set1/purple.gif","img/card_backs/set2/orange.gif","img/card_backs/set2/blue.gif","img/card_backs/set2/gray.gif","img/card_backs/set2/pink.gif","""event"",""trial"",""time""
""fullscreenenter"",""1"",""12318""
","
","
","""event"",""trial"",""time""
""fullscreenenter"",""1"",""12318""
","
","","466.55999997165054","","","","real_trial","2021-04-08 01:46:08.557","img/card_backs/set1/yellow.gif","3","-210","1","",""
"casino-fixation","122","446130","0.0-25.0-0.25","A1124","true","img/card_backs/set1/yellow.gif","img/card_backs/set1/green.gif","img/card_backs/set1/red.gif","img/card_backs/set1/purple.gif","img/card_backs/set2/orange.gif","img/card_backs/set2/blue.gif","img/card_backs/set2/gray.gif","img/card_backs/set2/pink.gif","""event"",""trial"",""time""
""fullscreenenter"",""1"",""12318""
","
","
","""event"",""trial"",""time""
""fullscreenenter"",""1"",""12318""
","
","","null","","null","","fixation","2021-04-08 01:46:09.060","","","","","",""
"card-selection-trial","123","448728","0.0-25.0-1.25","A1124","true","img/card_backs/set1/yellow.gif","img/card_backs/set1/green.gif","img/card_backs/set1/red.gif","img/card_backs/set1/purple.gif","img/card_backs/set2/orange.gif","img/card_backs/set2/blue.gif","img/card_backs/set2/gray.gif","img/card_backs/set2/pink.gif","""event"",""trial"",""time""
""fullscreenenter"",""1"",""12318""
","
","
","""event"",""trial"",""time""
""fullscreenenter"",""1"",""12318""
","
","","590.7349999761209","","","","real_trial","2021-04-08 01:46:11.658","img/card_backs/set1/yellow.gif","1","240","1","",""
"casino-fixation","124","449232","0.0-25.0-0.26","A1124","true","img/card_backs/set1/yellow.gif","img/card_backs/set1/green.gif","img/card_backs/set1/red.gif","img/card_backs/set1/purple.gif","img/card_backs/set2/orange.gif","img/card_backs/set2/blue.gif","img/card_backs/set2/gray.gif","img/card_backs/set2/pink.gif","""event"",""trial"",""time""
""fullscreenenter"",""1"",""12318""
","
","
","""event"",""trial"",""time""
""fullscreenenter"",""1"",""12318""
","
","","null","","null","","fixation","2021-04-08 01:46:12.162","","","","","",""
"card-selection-trial","125","451669","0.0-25.0-1.26","A1124","true","img/card_backs/set1/yellow.gif","img/card_backs/set1/green.gif","img/card_backs/set1/red.gif","img/card_backs/set1/purple.gif","img/card_backs/set2/orange.gif","img/card_backs/set2/blue.gif","img/card_backs/set2/gray.gif","img/card_backs/set2/pink.gif","""event"",""trial"",""time""
""fullscreenenter"",""1"",""12318""
","
","
","""event"",""trial"",""time""
""fullscreenenter"",""1"",""12318""
","
","","426.6050000442192","","","","real_trial","2021-04-08 01:46:14.599","img/card_backs/set1/yellow.gif","3","240","1","",""
"casino-fixation","126","452175","0.0-25.0-0.27","A1124","true","img/card_backs/set1/yellow.gif","img/card_backs/set1/green.gif","img/card_backs/set1/red.gif","img/card_backs/set1/purple.gif","img/card_backs/set2/orange.gif","img/card_backs/set2/blue.gif","img/card_backs/set2/gray.gif","img/card_backs/set2/pink.gif","""event"",""trial"",""time""
""fullscreenenter"",""1"",""12318""
","
","
","""event"",""trial"",""time""
""fullscreenenter"",""1"",""12318""
","
","","null","","null","","fixation","2021-04-08 01:46:15.105","","","","","",""
"card-selection-trial","127","454715","0.0-25.0-1.27","A1124","true","img/card_backs/set1/yellow.gif","img/card_backs/set1/green.gif","img/card_backs/set1/red.gif","img/card_backs/set1/purple.gif","img/card_backs/set2/orange.gif","img/card_backs/set2/blue.gif","img/card_backs/set2/gray.gif","img/card_backs/set2/pink.gif","""event"",""trial"",""time""
""fullscreenenter"",""1"",""12318""
","
","
","""event"",""trial"",""time""
""fullscreenenter"",""1"",""12318""
","
","","530.9899999992922","","","","real_trial","2021-04-08 01:46:17.645","img/card_backs/set1/green.gif","3","-200","1","",""
"casino-fixation","128","455218","0.0-25.0-0.28","A1124","true","img/card_backs/set1/yellow.gif","img/card_backs/set1/green.gif","img/card_backs/set1/red.gif","img/card_backs/set1/purple.gif","img/card_backs/set2/orange.gif","img/card_backs/set2/blue.gif","img/card_backs/set2/gray.gif","img/card_backs/set2/pink.gif","""event"",""trial"",""time""
""fullscreenenter"",""1"",""12318""
","
","
","""event"",""trial"",""time""
""fullscreenenter"",""1"",""12318""
","
","","null","","null","","fixation","2021-04-08 01:46:18.148","","","","","",""
"card-selection-trial","129","457759","0.0-25.0-1.28","A1124","true","img/card_backs/set1/yellow.gif","img/card_backs/set1/green.gif","img/card_backs/set1/red.gif","img/card_backs/set1/purple.gif","img/card_backs/set2/orange.gif","img/card_backs/set2/blue.gif","img/card_backs/set2/gray.gif","img/card_backs/set2/pink.gif","""event"",""trial"",""time""
""fullscreenenter"",""1"",""12318""
","
","
","""event"",""trial"",""time""
""fullscreenenter"",""1"",""12318""
","
","","533.8300000294112","","","","real_trial","2021-04-08 01:46:20.690","img/card_backs/set1/green.gif","3","260","1","",""
"casino-fixation","130","458265","0.0-25.0-0.29","A1124","true","img/card_backs/set1/yellow.gif","img/card_backs/set1/green.gif","img/card_backs/set1/red.gif","img/card_backs/set1/purple.gif","img/card_backs/set2/orange.gif","img/card_backs/set2/blue.gif","img/card_backs/set2/gray.gif","img/card_backs/set2/pink.gif","""event"",""trial"",""time""
""fullscreenenter"",""1"",""12318""
","
","
","""event"",""trial"",""time""
""fullscreenenter"",""1"",""12318""
","
","","null","","null","","fixation","2021-04-08 01:46:21.195","","","","","",""
"card-selection-trial","131","460742","0.0-25.0-1.29","A1124","true","img/card_backs/set1/yellow.gif","img/card_backs/set1/green.gif","img/card_backs/set1/red.gif","img/card_backs/set1/purple.gif","img/card_backs/set2/orange.gif","img/card_backs/set2/blue.gif","img/card_backs/set2/gray.gif","img/card_backs/set2/pink.gif","""event"",""trial"",""time""
""fullscreenenter"",""1"",""12318""
","
","
","""event"",""trial"",""time""
""fullscreenenter"",""1"",""12318""
","
","","467.8950000088662","","","","real_trial","2021-04-08 01:46:23.672","img/card_backs/set1/green.gif","3","260","1","",""
"casino-fixation","132","461246","0.0-25.0-0.30","A1124","true","img/card_backs/set1/yellow.gif","img/card_backs/set1/green.gif","img/card_backs/set1/red.gif","img/card_backs/set1/purple.gif","img/card_backs/set2/orange.gif","img/card_backs/set2/blue.gif","img/card_backs/set2/gray.gif","img/card_backs/set2/pink.gif","""event"",""trial"",""time""
""fullscreenenter"",""1"",""12318""
","
","
","""event"",""trial"",""time""
""fullscreenenter"",""1"",""12318""
","
","","null","","null","","fixation","2021-04-08 01:46:24.176","","","","","",""
"card-selection-trial","133","463896","0.0-25.0-1.30","A1124","true","img/card_backs/set1/yellow.gif","img/card_backs/set1/green.gif","img/card_backs/set1/red.gif","img/card_backs/set1/purple.gif","img/card_backs/set2/orange.gif","img/card_backs/set2/blue.gif","img/card_backs/set2/gray.gif","img/card_backs/set2/pink.gif","""event"",""trial"",""time""
""fullscreenenter"",""1"",""12318""
","
","
","""event"",""trial"",""time""
""fullscreenenter"",""1"",""12318""
","
","","641.8699999921955","","","","real_trial","2021-04-08 01:46:26.826","img/card_backs/set1/purple.gif","1","50","1","",""
"casino-fixation","134","464400","0.0-25.0-0.31","A1124","true","img/card_backs/set1/yellow.gif","img/card_backs/set1/green.gif","img/card_backs/set1/red.gif","img/card_backs/set1/purple.gif","img/card_backs/set2/orange.gif","img/card_backs/set2/blue.gif","img/card_backs/set2/gray.gif","img/card_backs/set2/pink.gif","""event"",""trial"",""time""
""fullscreenenter"",""1"",""12318""
","
","
","""event"",""trial"",""time""
""fullscreenenter"",""1"",""12318""
","
","","null","","null","","fixation","2021-04-08 01:46:27.330","","","","","",""
"card-selection-trial","135","467114","0.0-25.0-1.31","A1124","true","img/card_backs/set1/yellow.gif","img/card_backs/set1/green.gif","img/card_backs/set1/red.gif","img/card_backs/set1/purple.gif","img/card_backs/set2/orange.gif","img/card_backs/set2/blue.gif","img/card_backs/set2/gray.gif","img/card_backs/set2/pink.gif","""event"",""trial"",""time""
""fullscreenenter"",""1"",""12318""
","
","
","""event"",""trial"",""time""
""fullscreenenter"",""1"",""12318""
","
","","705.8850000030361","","","","real_trial","2021-04-08 01:46:30.044","img/card_backs/set1/purple.gif","1","-110","1","",""
"casino-fixation","136","467617","0.0-25.0-0.32","A1124","true","img/card_backs/set1/yellow.gif","img/card_backs/set1/green.gif","img/card_backs/set1/red.gif","img/card_backs/set1/purple.gif","img/card_backs/set2/orange.gif","img/card_backs/set2/blue.gif","img/card_backs/set2/gray.gif","img/card_backs/set2/pink.gif","""event"",""trial"",""time""
""fullscreenenter"",""1"",""12318""
","
","
","""event"",""trial"",""time""
""fullscreenenter"",""1"",""12318""
","
","","null","","null","","fixation","2021-04-08 01:46:30.547","","","","","",""
"card-selection-trial","137","470305","0.0-25.0-1.32","A1124","true","img/card_backs/set1/yellow.gif","img/card_backs/set1/green.gif","img/card_backs/set1/red.gif","img/card_backs/set1/purple.gif","img/card_backs/set2/orange.gif","img/card_backs/set2/blue.gif","img/card_backs/set2/gray.gif","img/card_backs/set2/pink.gif","""event"",""trial"",""time""
""fullscreenenter"",""1"",""12318""
","
","
","""event"",""trial"",""time""
""fullscreenenter"",""1"",""12318""
","
","","680.0550000043586","","","","real_trial","2021-04-08 01:46:33.235","img/card_backs/set1/yellow.gif","2","240","1","",""
"casino-fixation","138","470810","0.0-25.0-0.33","A1124","true","img/card_backs/set1/yellow.gif","img/card_backs/set1/green.gif","img/card_backs/set1/red.gif","img/card_backs/set1/purple.gif","img/card_backs/set2/orange.gif","img/card_backs/set2/blue.gif","img/card_backs/set2/gray.gif","img/card_backs/set2/pink.gif","""event"",""trial"",""time""
""fullscreenenter"",""1"",""12318""
","
","
","""event"",""trial"",""time""
""fullscreenenter"",""1"",""12318""
","
","","null","","null","","fixation","2021-04-08 01:46:33.740","","","","","",""
"card-selection-trial","139","473395","0.0-25.0-1.33","A1124","true","img/card_backs/set1/yellow.gif","img/card_backs/set1/green.gif","img/card_backs/set1/red.gif","img/card_backs/set1/purple.gif","img/card_backs/set2/orange.gif","img/card_backs/set2/blue.gif","img/card_backs/set2/gray.gif","img/card_backs/set2/pink.gif","""event"",""trial"",""time""
""fullscreenenter"",""1"",""12318""
","
","
","""event"",""trial"",""time""
""fullscreenenter"",""1"",""12318""
","
","","579.4700000551529","","","","real_trial","2021-04-08 01:46:36.325","img/card_backs/set1/yellow.gif","0","-200","1","",""
"casino-fixation","140","473900","0.0-25.0-0.34","A1124","true","img/card_backs/set1/yellow.gif","img/card_backs/set1/green.gif","img/card_backs/set1/red.gif","img/card_backs/set1/purple.gif","img/card_backs/set2/orange.gif","img/card_backs/set2/blue.gif","img/card_backs/set2/gray.gif","img/card_backs/set2/pink.gif","""event"",""trial"",""time""
""fullscreenenter"",""1"",""12318""
","
","
","""event"",""trial"",""time""
""fullscreenenter"",""1"",""12318""
","
","","null","","null","","fixation","2021-04-08 01:46:36.830","","","","","",""
"card-selection-trial","141","476371","0.0-25.0-1.34","A1124","true","img/card_backs/set1/yellow.gif","img/card_backs/set1/green.gif","img/card_backs/set1/red.gif","img/card_backs/set1/purple.gif","img/card_backs/set2/orange.gif","img/card_backs/set2/blue.gif","img/card_backs/set2/gray.gif","img/card_backs/set2/pink.gif","""event"",""trial"",""time""
""fullscreenenter"",""1"",""12318""
","
","
","""event"",""trial"",""time""
""fullscreenenter"",""1"",""12318""
","
","","462.740000046324","","","","real_trial","2021-04-08 01:46:39.301","img/card_backs/set1/green.gif","3","260","1","",""
"casino-fixation","142","476874","0.0-25.0-0.35","A1124","true","img/card_backs/set1/yellow.gif","img/card_backs/set1/green.gif","img/card_backs/set1/red.gif","img/card_backs/set1/purple.gif","img/card_backs/set2/orange.gif","img/card_backs/set2/blue.gif","img/card_backs/set2/gray.gif","img/card_backs/set2/pink.gif","""event"",""trial"",""time""
""fullscreenenter"",""1"",""12318""
","
","
","""event"",""trial"",""time""
""fullscreenenter"",""1"",""12318""
","
","","null","","null","","fixation","2021-04-08 01:46:39.804","","","","","",""
"card-selection-trial","143","479396","0.0-25.0-1.35","A1124","true","img/card_backs/set1/yellow.gif","img/card_backs/set1/green.gif","img/card_backs/set1/red.gif","img/card_backs/set1/purple.gif","img/card_backs/set2/orange.gif","img/card_backs/set2/blue.gif","img/card_backs/set2/gray.gif","img/card_backs/set2/pink.gif","""event"",""trial"",""time""
""fullscreenenter"",""1"",""12318""
","
","
","""event"",""trial"",""time""
""fullscreenenter"",""1"",""12318""
","
","","516.4649999933317","","","","real_trial","2021-04-08 01:46:42.326","img/card_backs/set1/yellow.gif","3","-190","1","",""
"casino-fixation","144","479898","0.0-25.0-0.36","A1124","true","img/card_backs/set1/yellow.gif","img/card_backs/set1/green.gif","img/card_backs/set1/red.gif","img/card_backs/set1/purple.gif","img/card_backs/set2/orange.gif","img/card_backs/set2/blue.gif","img/card_backs/set2/gray.gif","img/card_backs/set2/pink.gif","""event"",""trial"",""time""
""fullscreenenter"",""1"",""12318""
","
","
","""event"",""trial"",""time""
""fullscreenenter"",""1"",""12318""
","
","","null","","null","","fixation","2021-04-08 01:46:42.829","","","","","",""
"card-selection-trial","145","482519","0.0-25.0-1.36","A1124","true","img/card_backs/set1/yellow.gif","img/card_backs/set1/green.gif","img/card_backs/set1/red.gif","img/card_backs/set1/purple.gif","img/card_backs/set2/orange.gif","img/card_backs/set2/blue.gif","img/card_backs/set2/gray.gif","img/card_backs/set2/pink.gif","""event"",""trial"",""time""
""fullscreenenter"",""1"",""12318""
","
","
","""event"",""trial"",""time""
""fullscreenenter"",""1"",""12318""
","
","","614.144999999553","","","","real_trial","2021-04-08 01:46:45.449","img/card_backs/set1/green.gif","0","-190","1","",""
"casino-fixation","146","483022","0.0-25.0-0.37","A1124","true","img/card_backs/set1/yellow.gif","img/card_backs/set1/green.gif","img/card_backs/set1/red.gif","img/card_backs/set1/purple.gif","img/card_backs/set2/orange.gif","img/card_backs/set2/blue.gif","img/card_backs/set2/gray.gif","img/card_backs/set2/pink.gif","""event"",""trial"",""time""
""fullscreenenter"",""1"",""12318""
","
","
","""event"",""trial"",""time""
""fullscreenenter"",""1"",""12318""
","
","","null","","null","","fixation","2021-04-08 01:46:45.952","","","","","",""
"card-selection-trial","147","485678","0.0-25.0-1.37","A1124","true","img/card_backs/set1/yellow.gif","img/card_backs/set1/green.gif","img/card_backs/set1/red.gif","img/card_backs/set1/purple.gif","img/card_backs/set2/orange.gif","img/card_backs/set2/blue.gif","img/card_backs/set2/gray.gif","img/card_backs/set2/pink.gif","""event"",""trial"",""time""
""fullscreenenter"",""1"",""12318""
","
","
","""event"",""trial"",""time""
""fullscreenenter"",""1"",""12318""
","
","","649.135000014212","","","","real_trial","2021-04-08 01:46:48.608","img/card_backs/set1/green.gif","1","-210","1","",""
"casino-fixation","148","486184","0.0-25.0-0.38","A1124","true","img/card_backs/set1/yellow.gif","img/card_backs/set1/green.gif","img/card_backs/set1/red.gif","img/card_backs/set1/purple.gif","img/card_backs/set2/orange.gif","img/card_backs/set2/blue.gif","img/card_backs/set2/gray.gif","img/card_backs/set2/pink.gif","""event"",""trial"",""time""
""fullscreenenter"",""1"",""12318""
","
","
","""event"",""trial"",""time""
""fullscreenenter"",""1"",""12318""
","
","","null","","null","","fixation","2021-04-08 01:46:49.114","","","","","",""
"card-selection-trial","149","488801","0.0-25.0-1.38","A1124","true","img/card_backs/set1/yellow.gif","img/card_backs/set1/green.gif","img/card_backs/set1/red.gif","img/card_backs/set1/purple.gif","img/card_backs/set2/orange.gif","img/card_backs/set2/blue.gif","img/card_backs/set2/gray.gif","img/card_backs/set2/pink.gif","""event"",""trial"",""time""
""fullscreenenter"",""1"",""12318""
","
","
","""event"",""trial"",""time""
""fullscreenenter"",""1"",""12318""
","
","","610.6249999720603","","","","real_trial","2021-04-08 01:46:51.731","img/card_backs/set1/purple.gif","2","-90","1","",""
"casino-fixation","150","489305","0.0-25.0-0.39","A1124","true","img/card_backs/set1/yellow.gif","img/card_backs/set1/green.gif","img/card_backs/set1/red.gif","img/card_backs/set1/purple.gif","img/card_backs/set2/orange.gif","img/card_backs/set2/blue.gif","img/card_backs/set2/gray.gif","img/card_backs/set2/pink.gif","""event"",""trial"",""time""
""fullscreenenter"",""1"",""12318""
","
","
","""event"",""trial"",""time""
""fullscreenenter"",""1"",""12318""
","
","","null","","null","","fixation","2021-04-08 01:46:52.235","","","","","",""
"card-selection-trial","151","492247","0.0-25.0-1.39","A1124","true","img/card_backs/set1/yellow.gif","img/card_backs/set1/green.gif","img/card_backs/set1/red.gif","img/card_backs/set1/purple.gif","img/card_backs/set2/orange.gif","img/card_backs/set2/blue.gif","img/card_backs/set2/gray.gif","img/card_backs/set2/pink.gif","""event"",""trial"",""time""
""fullscreenenter"",""1"",""12318""
","
","
","""event"",""trial"",""time""
""fullscreenenter"",""1"",""12318""
","
","","933.7449999875389","","","","real_trial","2021-04-08 01:46:55.177","img/card_backs/set1/green.gif","2","260","1","",""
"casino-fixation","152","492749","0.0-25.0-0.40","A1124","true","img/card_backs/set1/yellow.gif","img/card_backs/set1/green.gif","img/card_backs/set1/red.gif","img/card_backs/set1/purple.gif","img/card_backs/set2/orange.gif","img/card_backs/set2/blue.gif","img/card_backs/set2/gray.gif","img/card_backs/set2/pink.gif","""event"",""trial"",""time""
""fullscreenenter"",""1"",""12318""
","
","
","""event"",""trial"",""time""
""fullscreenenter"",""1"",""12318""
","
","","null","","null","","fixation","2021-04-08 01:46:55.679","","","","","",""
"card-selection-trial","153","495309","0.0-25.0-1.40","A1124","true","img/card_backs/set1/yellow.gif","img/card_backs/set1/green.gif","img/card_backs/set1/red.gif","img/card_backs/set1/purple.gif","img/card_backs/set2/orange.gif","img/card_backs/set2/blue.gif","img/card_backs/set2/gray.gif","img/card_backs/set2/pink.gif","""event"",""trial"",""time""
""fullscreenenter"",""1"",""12318""
","
","
","""event"",""trial"",""time""
""fullscreenenter"",""1"",""12318""
","
","","553.3200000063516","","","","real_trial","2021-04-08 01:46:58.239","img/card_backs/set1/green.gif","3","-190","1","",""
"casino-fixation","154","495816","0.0-25.0-0.41","A1124","true","img/card_backs/set1/yellow.gif","img/card_backs/set1/green.gif","img/card_backs/set1/red.gif","img/card_backs/set1/purple.gif","img/card_backs/set2/orange.gif","img/card_backs/set2/blue.gif","img/card_backs/set2/gray.gif","img/card_backs/set2/pink.gif","""event"",""trial"",""time""
""fullscreenenter"",""1"",""12318""
","
","
","""event"",""trial"",""time""
""fullscreenenter"",""1"",""12318""
","
","","null","","null","","fixation","2021-04-08 01:46:58.746","","","","","",""
"card-selection-trial","155","498574","0.0-25.0-1.41","A1124","true","img/card_backs/set1/yellow.gif","img/card_backs/set1/green.gif","img/card_backs/set1/red.gif","img/card_backs/set1/purple.gif","img/card_backs/set2/orange.gif","img/card_backs/set2/blue.gif","img/card_backs/set2/gray.gif","img/card_backs/set2/pink.gif","""event"",""trial"",""time""
""fullscreenenter"",""1"",""12318""
","
","
","""event"",""trial"",""time""
""fullscreenenter"",""1"",""12318""
","
","","750.8400000515394","","","","real_trial","2021-04-08 01:47:01.504","img/card_backs/set1/green.gif","0","-200","1","",""
"casino-fixation","156","499079","0.0-25.0-0.42","A1124","true","img/card_backs/set1/yellow.gif","img/card_backs/set1/green.gif","img/card_backs/set1/red.gif","img/card_backs/set1/purple.gif","img/card_backs/set2/orange.gif","img/card_backs/set2/blue.gif","img/card_backs/set2/gray.gif","img/card_backs/set2/pink.gif","""event"",""trial"",""time""
""fullscreenenter"",""1"",""12318""
","
","
","""event"",""trial"",""time""
""fullscreenenter"",""1"",""12318""
","
","","null","","null","","fixation","2021-04-08 01:47:02.009","","","","","",""
"card-selection-trial","157","501593","0.0-25.0-1.42","A1124","true","img/card_backs/set1/yellow.gif","img/card_backs/set1/green.gif","img/card_backs/set1/red.gif","img/card_backs/set1/purple.gif","img/card_backs/set2/orange.gif","img/card_backs/set2/blue.gif","img/card_backs/set2/gray.gif","img/card_backs/set2/pink.gif","""event"",""trial"",""time""
""fullscreenenter"",""1"",""12318""
","
","
","""event"",""trial"",""time""
""fullscreenenter"",""1"",""12318""
","
","","501.9699999829754","","","","real_trial","2021-04-08 01:47:04.523","img/card_backs/set1/green.gif","3","-190","1","",""
"casino-fixation","158","502097","0.0-25.0-0.43","A1124","true","img/card_backs/set1/yellow.gif","img/card_backs/set1/green.gif","img/card_backs/set1/red.gif","img/card_backs/set1/purple.gif","img/card_backs/set2/orange.gif","img/card_backs/set2/blue.gif","img/card_backs/set2/gray.gif","img/card_backs/set2/pink.gif","""event"",""trial"",""time""
""fullscreenenter"",""1"",""12318""
","
","
","""event"",""trial"",""time""
""fullscreenenter"",""1"",""12318""
","
","","null","","null","","fixation","2021-04-08 01:47:05.027","","","","","",""
"card-selection-trial","159","505083","0.0-25.0-1.43","A1124","true","img/card_backs/set1/yellow.gif","img/card_backs/set1/green.gif","img/card_backs/set1/red.gif","img/card_backs/set1/purple.gif","img/card_backs/set2/orange.gif","img/card_backs/set2/blue.gif","img/card_backs/set2/gray.gif","img/card_backs/set2/pink.gif","""event"",""trial"",""time""
""fullscreenenter"",""1"",""12318""
","
","
","""event"",""trial"",""time""
""fullscreenenter"",""1"",""12318""
","
","","975.9149999590591","","","","real_trial","2021-04-08 01:47:08.013","img/card_backs/set1/yellow.gif","2","260","1","",""
"casino-fixation","160","505587","0.0-25.0-0.44","A1124","true","img/card_backs/set1/yellow.gif","img/card_backs/set1/green.gif","img/card_backs/set1/red.gif","img/card_backs/set1/purple.gif","img/card_backs/set2/orange.gif","img/card_backs/set2/blue.gif","img/card_backs/set2/gray.gif","img/card_backs/set2/pink.gif","""event"",""trial"",""time""
""fullscreenenter"",""1"",""12318""
","
","
","""event"",""trial"",""time""
""fullscreenenter"",""1"",""12318""
","
","","null","","null","","fixation","2021-04-08 01:47:08.517","","","","","",""
"card-selection-trial","161","508063","0.0-25.0-1.44","A1124","true","img/card_backs/set1/yellow.gif","img/card_backs/set1/green.gif","img/card_backs/set1/red.gif","img/card_backs/set1/purple.gif","img/card_backs/set2/orange.gif","img/card_backs/set2/blue.gif","img/card_backs/set2/gray.gif","img/card_backs/set2/pink.gif","""event"",""trial"",""time""
""fullscreenenter"",""1"",""12318""
","
","
","""event"",""trial"",""time""
""fullscreenenter"",""1"",""12318""
","
","","467.81499998178333","","","","real_trial","2021-04-08 01:47:10.993","img/card_backs/set1/yellow.gif","0","260","1","",""
"casino-fixation","162","508566","0.0-25.0-0.45","A1124","true","img/card_backs/set1/yellow.gif","img/card_backs/set1/green.gif","img/card_backs/set1/red.gif","img/card_backs/set1/purple.gif","img/card_backs/set2/orange.gif","img/card_backs/set2/blue.gif","img/card_backs/set2/gray.gif","img/card_backs/set2/pink.gif","""event"",""trial"",""time""
""fullscreenenter"",""1"",""12318""
","
","
","""event"",""trial"",""time""
""fullscreenenter"",""1"",""12318""
","
","","null","","null","","fixation","2021-04-08 01:47:11.496","","","","","",""
"card-selection-trial","163","511257","0.0-25.0-1.45","A1124","true","img/card_backs/set1/yellow.gif","img/card_backs/set1/green.gif","img/card_backs/set1/red.gif","img/card_backs/set1/purple.gif","img/card_backs/set2/orange.gif","img/card_backs/set2/blue.gif","img/card_backs/set2/gray.gif","img/card_backs/set2/pink.gif","""event"",""trial"",""time""
""fullscreenenter"",""1"",""12318""
","
","
","""event"",""trial"",""time""
""fullscreenenter"",""1"",""12318""
","
","","685.3950000368059","","","","real_trial","2021-04-08 01:47:14.187","img/card_backs/set1/yellow.gif","2","-200","1","",""
"casino-fixation","164","511760","0.0-25.0-0.46","A1124","true","img/card_backs/set1/yellow.gif","img/card_backs/set1/green.gif","img/card_backs/set1/red.gif","img/card_backs/set1/purple.gif","img/card_backs/set2/orange.gif","img/card_backs/set2/blue.gif","img/card_backs/set2/gray.gif","img/card_backs/set2/pink.gif","""event"",""trial"",""time""
""fullscreenenter"",""1"",""12318""
","
","
","""event"",""trial"",""time""
""fullscreenenter"",""1"",""12318""
","
","","null","","null","","fixation","2021-04-08 01:47:14.690","","","","","",""
"card-selection-trial","165","514298","0.0-25.0-1.46","A1124","true","img/card_backs/set1/yellow.gif","img/card_backs/set1/green.gif","img/card_backs/set1/red.gif","img/card_backs/set1/purple.gif","img/card_backs/set2/orange.gif","img/card_backs/set2/blue.gif","img/card_backs/set2/gray.gif","img/card_backs/set2/pink.gif","""event"",""trial"",""time""
""fullscreenenter"",""1"",""12318""
","
","
","""event"",""trial"",""time""
""fullscreenenter"",""1"",""12318""
","
","","530.0799999968149","","","","real_trial","2021-04-08 01:47:17.228","img/card_backs/set1/yellow.gif","0","250","1","",""
