"trial_type","trial_index","time_elapsed","internal_node_id","sub_id","risk_good_first","block1_A","block1_B","block1_C","block1_D","block2_A","block2_B","block2_C","block2_D","interactions","blur_events","focus_events","fullscreenenter_events","fullscreenexit_events","success","rt","stimulus","key_press","button_pressed","task_part","timestamp","card_choice","choice_position","points_earned","block","correct","response"
"pavlovia","0","8","0.0-0.0","1079","false","img/card_backs/set1/green.gif","img/card_backs/set1/purple.gif","img/card_backs/set1/yellow.gif","img/card_backs/set1/red.gif","img/card_backs/set2/gray.gif","img/card_backs/set2/orange.gif","img/card_backs/set2/pink.gif","img/card_backs/set2/blue.gif","""event"",""trial"",""time""
""fullscreenenter"",""1"",""4040""
","
","
","""event"",""trial"",""time""
""fullscreenenter"",""1"",""4040""
","
","","","","","","","","","","","","",""
"fullscreen","1","5017","0.0-1.0","1079","false","img/card_backs/set1/green.gif","img/card_backs/set1/purple.gif","img/card_backs/set1/yellow.gif","img/card_backs/set1/red.gif","img/card_backs/set2/gray.gif","img/card_backs/set2/orange.gif","img/card_backs/set2/pink.gif","img/card_backs/set2/blue.gif","""event"",""trial"",""time""
""fullscreenenter"",""1"",""4040""
","
","
","""event"",""trial"",""time""
""fullscreenenter"",""1"",""4040""
","
","true","","","","","","","","","","","",""
"audio-keyboard-response","2","7686","0.0-2.0","1079","false","img/card_backs/set1/green.gif","img/card_backs/set1/purple.gif","img/card_backs/set1/yellow.gif","img/card_backs/set1/red.gif","img/card_backs/set2/gray.gif","img/card_backs/set2/orange.gif","img/card_backs/set2/pink.gif","img/card_backs/set2/blue.gif","""event"",""trial"",""time""
""fullscreenenter"",""1"",""4040""
","
","
","""event"",""trial"",""time""
""fullscreenenter"",""1"",""4040""
","
","","2469","audio/beep_loop.wav","174","","","","","","","","",""
"audio-button-response","3","11521","0.0-3.0","1079","false","img/card_backs/set1/green.gif","img/card_backs/set1/purple.gif","img/card_backs/set1/yellow.gif","img/card_backs/set1/red.gif","img/card_backs/set2/gray.gif","img/card_backs/set2/orange.gif","img/card_backs/set2/pink.gif","img/card_backs/set2/blue.gif","""event"",""trial"",""time""
""fullscreenenter"",""1"",""4040""
","
","
","""event"",""trial"",""time""
""fullscreenenter"",""1"",""4040""
","
","","NaN","audio/turtle.mp3","","3","","","","","","","",""
"audio-button-response","4","14448","0.0-4.0","1079","false","img/card_backs/set1/green.gif","img/card_backs/set1/purple.gif","img/card_backs/set1/yellow.gif","img/card_backs/set1/red.gif","img/card_backs/set2/gray.gif","img/card_backs/set2/orange.gif","img/card_backs/set2/pink.gif","img/card_backs/set2/blue.gif","""event"",""trial"",""time""
""fullscreenenter"",""1"",""4040""
","
","
","""event"",""trial"",""time""
""fullscreenenter"",""1"",""4040""
","
","","NaN","audio/shark.mp3","","2","","","","","","","",""
"fullscreen","5","18841","0.0-5.0","1079","false","img/card_backs/set1/green.gif","img/card_backs/set1/purple.gif","img/card_backs/set1/yellow.gif","img/card_backs/set1/red.gif","img/card_backs/set2/gray.gif","img/card_backs/set2/orange.gif","img/card_backs/set2/pink.gif","img/card_backs/set2/blue.gif","""event"",""trial"",""time""
""fullscreenenter"",""1"",""4040""
""blur"",""6"",""27891""
""focus"",""6"",""33417""
","""event"",""trial"",""time""
""blur"",""6"",""27891""
","""event"",""trial"",""time""
""focus"",""6"",""33417""
","""event"",""trial"",""time""
""fullscreenenter"",""1"",""4040""
","
","true","","","","","","","","","","","",""
"casino-keyboard-response","6","35393","0.0-6.0-0.0","1079","false","img/card_backs/set1/green.gif","img/card_backs/set1/purple.gif","img/card_backs/set1/yellow.gif","img/card_backs/set1/red.gif","img/card_backs/set2/gray.gif","img/card_backs/set2/orange.gif","img/card_backs/set2/pink.gif","img/card_backs/set2/blue.gif","""event"",""trial"",""time""
""fullscreenenter"",""1"",""4040""
""blur"",""6"",""27891""
""focus"",""6"",""33417""
","""event"",""trial"",""time""
""blur"",""6"",""27891""
","""event"",""trial"",""time""
""focus"",""6"",""33417""
","""event"",""trial"",""time""
""fullscreenenter"",""1"",""4040""
","
","","16543.899999976158","Welcome to the casino!","71","","instructions","2021-08-05 17:17:14.784","","","","","",""
"casino-keyboard-response","7","46528","0.0-6.0-0.1","1079","false","img/card_backs/set1/green.gif","img/card_backs/set1/purple.gif","img/card_backs/set1/yellow.gif","img/card_backs/set1/red.gif","img/card_backs/set2/gray.gif","img/card_backs/set2/orange.gif","img/card_backs/set2/pink.gif","img/card_backs/set2/blue.gif","""event"",""trial"",""time""
""fullscreenenter"",""1"",""4040""
""blur"",""6"",""27891""
""focus"",""6"",""33417""
","""event"",""trial"",""time""
""blur"",""6"",""27891""
","""event"",""trial"",""time""
""focus"",""6"",""33417""
","""event"",""trial"",""time""
""fullscreenenter"",""1"",""4040""
","
","","11131.300000011921","Today you will be playing a game to earn tokens. </br> At the end of the experiment, you will be paid a bonus based on how many tokens you win. ","69","","instructions","2021-08-05 17:17:25.919","","","","","",""
"casino-keyboard-response","8","54397","0.0-6.0-0.2","1079","false","img/card_backs/set1/green.gif","img/card_backs/set1/purple.gif","img/card_backs/set1/yellow.gif","img/card_backs/set1/red.gif","img/card_backs/set2/gray.gif","img/card_backs/set2/orange.gif","img/card_backs/set2/pink.gif","img/card_backs/set2/blue.gif","""event"",""trial"",""time""
""fullscreenenter"",""1"",""4040""
""blur"",""6"",""27891""
""focus"",""6"",""33417""
","""event"",""trial"",""time""
""blur"",""6"",""27891""
","""event"",""trial"",""time""
""focus"",""6"",""33417""
","""event"",""trial"",""time""
""fullscreenenter"",""1"",""4040""
","
","","7863.5","On every turn, you will be shown four different decks of cards. </br> You need to select a card from one of the four decks.  ","75","","instructions","2021-08-05 17:17:33.788","","","","","",""
"casino-keyboard-response","9","58948","0.0-6.0-0.3","1079","false","img/card_backs/set1/green.gif","img/card_backs/set1/purple.gif","img/card_backs/set1/yellow.gif","img/card_backs/set1/red.gif","img/card_backs/set2/gray.gif","img/card_backs/set2/orange.gif","img/card_backs/set2/pink.gif","img/card_backs/set2/blue.gif","""event"",""trial"",""time""
""fullscreenenter"",""1"",""4040""
""blur"",""6"",""27891""
""focus"",""6"",""33417""
","""event"",""trial"",""time""
""blur"",""6"",""27891""
","""event"",""trial"",""time""
""focus"",""6"",""33417""
","""event"",""trial"",""time""
""fullscreenenter"",""1"",""4040""
","
","","4546.799999982119","On the next screen, you will see what the decks will look like. ","66","","instructions","2021-08-05 17:17:38.340","","","","","",""
"card-selection-trial","10","62969","0.0-7.0-0.0","1079","false","img/card_backs/set1/green.gif","img/card_backs/set1/purple.gif","img/card_backs/set1/yellow.gif","img/card_backs/set1/red.gif","img/card_backs/set2/gray.gif","img/card_backs/set2/orange.gif","img/card_backs/set2/pink.gif","img/card_backs/set2/blue.gif","""event"",""trial"",""time""
""fullscreenenter"",""1"",""4040""
""blur"",""6"",""27891""
""focus"",""6"",""33417""
","""event"",""trial"",""time""
""blur"",""6"",""27891""
","""event"",""trial"",""time""
""focus"",""6"",""33417""
","""event"",""trial"",""time""
""fullscreenenter"",""1"",""4040""
","
","","null","","","","practice","2021-08-05 17:17:42.361","null","null","null","0","",""
"casino-keyboard-response","11","70920","0.0-8.0-0.0","1079","false","img/card_backs/set1/green.gif","img/card_backs/set1/purple.gif","img/card_backs/set1/yellow.gif","img/card_backs/set1/red.gif","img/card_backs/set2/gray.gif","img/card_backs/set2/orange.gif","img/card_backs/set2/pink.gif","img/card_backs/set2/blue.gif","""event"",""trial"",""time""
""fullscreenenter"",""1"",""4040""
""blur"",""6"",""27891""
""focus"",""6"",""33417""
","""event"",""trial"",""time""
""blur"",""6"",""27891""
","""event"",""trial"",""time""
""focus"",""6"",""33417""
","""event"",""trial"",""time""
""fullscreenenter"",""1"",""4040""
","
","","7946.899999976158","You should pick a card from a deck using the '2', '4', '6', and '8' keys at the top of the keyboard.","85","","instructions","2021-08-05 17:17:50.311","","","","","",""
"casino-keyboard-response","12","77050","0.0-8.0-0.1","1079","false","img/card_backs/set1/green.gif","img/card_backs/set1/purple.gif","img/card_backs/set1/yellow.gif","img/card_backs/set1/red.gif","img/card_backs/set2/gray.gif","img/card_backs/set2/orange.gif","img/card_backs/set2/pink.gif","img/card_backs/set2/blue.gif","""event"",""trial"",""time""
""fullscreenenter"",""1"",""4040""
""blur"",""6"",""27891""
""focus"",""6"",""33417""
","""event"",""trial"",""time""
""blur"",""6"",""27891""
","""event"",""trial"",""time""
""focus"",""6"",""33417""
","""event"",""trial"",""time""
""fullscreenenter"",""1"",""4040""
","
","","6126.0999999940395","Once you select a card, it will turn over and you will see how many tokens you earned.","83","","instructions","2021-08-05 17:17:56.441","","","","","",""
"casino-keyboard-response","13","91673","0.0-8.0-0.2","1079","false","img/card_backs/set1/green.gif","img/card_backs/set1/purple.gif","img/card_backs/set1/yellow.gif","img/card_backs/set1/red.gif","img/card_backs/set2/gray.gif","img/card_backs/set2/orange.gif","img/card_backs/set2/pink.gif","img/card_backs/set2/blue.gif","""event"",""trial"",""time""
""fullscreenenter"",""1"",""4040""
""blur"",""6"",""27891""
""focus"",""6"",""33417""
","""event"",""trial"",""time""
""blur"",""6"",""27891""
","""event"",""trial"",""time""
""focus"",""6"",""33417""
","""event"",""trial"",""time""
""fullscreenenter"",""1"",""4040""
","
","","14618.5","Let's try practicing that! </br> First, try to put your fingers over the '2', '4', '6', and '8' keys. </br>  You can use whatever fingers are most comfortable for you. Try to find a comfortable position now. ","50","","instructions","2021-08-05 17:18:11.064","","","","","",""
"casino-keyboard-response","14","97995","0.0-8.0-0.3","1079","false","img/card_backs/set1/green.gif","img/card_backs/set1/purple.gif","img/card_backs/set1/yellow.gif","img/card_backs/set1/red.gif","img/card_backs/set2/gray.gif","img/card_backs/set2/orange.gif","img/card_backs/set2/pink.gif","img/card_backs/set2/blue.gif","""event"",""trial"",""time""
""fullscreenenter"",""1"",""4040""
""blur"",""6"",""27891""
""focus"",""6"",""33417""
","""event"",""trial"",""time""
""blur"",""6"",""27891""
","""event"",""trial"",""time""
""focus"",""6"",""33417""
","""event"",""trial"",""time""
""fullscreenenter"",""1"",""4040""
","
","","6315.0999999940395","Okay ready? </br> On the next screen, press '2' to select the left deck. ","50","","instructions","2021-08-05 17:18:17.386","","","","","",""
"card-selection-trial","15","101232","0.0-9.0-0.0","1079","false","img/card_backs/set1/green.gif","img/card_backs/set1/purple.gif","img/card_backs/set1/yellow.gif","img/card_backs/set1/red.gif","img/card_backs/set2/gray.gif","img/card_backs/set2/orange.gif","img/card_backs/set2/pink.gif","img/card_backs/set2/blue.gif","""event"",""trial"",""time""
""fullscreenenter"",""1"",""4040""
""blur"",""6"",""27891""
""focus"",""6"",""33417""
","""event"",""trial"",""time""
""blur"",""6"",""27891""
","""event"",""trial"",""time""
""focus"",""6"",""33417""
","""event"",""trial"",""time""
""fullscreenenter"",""1"",""4040""
","
","","1204.9000000059605","","","","practice_card_selection","2021-08-05 17:18:20.623","img/practice_cards/backs/brown.gif","0","100","","",""
"casino-keyboard-response","16","107200","0.0-10.0-0.0","1079","false","img/card_backs/set1/green.gif","img/card_backs/set1/purple.gif","img/card_backs/set1/yellow.gif","img/card_backs/set1/red.gif","img/card_backs/set2/gray.gif","img/card_backs/set2/orange.gif","img/card_backs/set2/pink.gif","img/card_backs/set2/blue.gif","""event"",""trial"",""time""
""fullscreenenter"",""1"",""4040""
""blur"",""6"",""27891""
""focus"",""6"",""33417""
","""event"",""trial"",""time""
""blur"",""6"",""27891""
","""event"",""trial"",""time""
""focus"",""6"",""33417""
","""event"",""trial"",""time""
""fullscreenenter"",""1"",""4040""
","
","","5965.4000000059605","Great! Now on the next screen, try pressing '6' to select the third deck.","54","","instructions","2021-08-05 17:18:26.591","","","","","",""
"card-selection-trial","17","109872","0.0-11.0-0.0","1079","false","img/card_backs/set1/green.gif","img/card_backs/set1/purple.gif","img/card_backs/set1/yellow.gif","img/card_backs/set1/red.gif","img/card_backs/set2/gray.gif","img/card_backs/set2/orange.gif","img/card_backs/set2/pink.gif","img/card_backs/set2/blue.gif","""event"",""trial"",""time""
""fullscreenenter"",""1"",""4040""
""blur"",""6"",""27891""
""focus"",""6"",""33417""
","""event"",""trial"",""time""
""blur"",""6"",""27891""
","""event"",""trial"",""time""
""focus"",""6"",""33417""
","""event"",""trial"",""time""
""fullscreenenter"",""1"",""4040""
","
","","654.9000000059605","","","","practice_card_selection","2021-08-05 17:18:29.263","img/practice_cards/backs/brown.gif","2","-100","","",""
"casino-keyboard-response","18","112667","0.0-12.0-0.0","1079","false","img/card_backs/set1/green.gif","img/card_backs/set1/purple.gif","img/card_backs/set1/yellow.gif","img/card_backs/set1/red.gif","img/card_backs/set2/gray.gif","img/card_backs/set2/orange.gif","img/card_backs/set2/pink.gif","img/card_backs/set2/blue.gif","""event"",""trial"",""time""
""fullscreenenter"",""1"",""4040""
""blur"",""6"",""27891""
""focus"",""6"",""33417""
","""event"",""trial"",""time""
""blur"",""6"",""27891""
","""event"",""trial"",""time""
""focus"",""6"",""33417""
","""event"",""trial"",""time""
""fullscreenenter"",""1"",""4040""
","
","","2792.199999988079","Now on the next screen, try pressing '4' to select the second deck.","52","","instructions","2021-08-05 17:18:32.058","","","","","",""
"card-selection-trial","19","115583","0.0-13.0-0.0","1079","false","img/card_backs/set1/green.gif","img/card_backs/set1/purple.gif","img/card_backs/set1/yellow.gif","img/card_backs/set1/red.gif","img/card_backs/set2/gray.gif","img/card_backs/set2/orange.gif","img/card_backs/set2/pink.gif","img/card_backs/set2/blue.gif","""event"",""trial"",""time""
""fullscreenenter"",""1"",""4040""
""blur"",""6"",""27891""
""focus"",""6"",""33417""
","""event"",""trial"",""time""
""blur"",""6"",""27891""
","""event"",""trial"",""time""
""focus"",""6"",""33417""
","""event"",""trial"",""time""
""fullscreenenter"",""1"",""4040""
","
","","900.6999999880791","","","","practice_card_selection","2021-08-05 17:18:34.974","img/practice_cards/backs/black.gif","1","-100","","",""
"casino-keyboard-response","20","117304","0.0-14.0-0.0","1079","false","img/card_backs/set1/green.gif","img/card_backs/set1/purple.gif","img/card_backs/set1/yellow.gif","img/card_backs/set1/red.gif","img/card_backs/set2/gray.gif","img/card_backs/set2/orange.gif","img/card_backs/set2/pink.gif","img/card_backs/set2/blue.gif","""event"",""trial"",""time""
""fullscreenenter"",""1"",""4040""
""blur"",""6"",""27891""
""focus"",""6"",""33417""
","""event"",""trial"",""time""
""blur"",""6"",""27891""
","""event"",""trial"",""time""
""focus"",""6"",""33417""
","""event"",""trial"",""time""
""fullscreenenter"",""1"",""4040""
","
","","1718.5","Finally, try pressing '8' to select the deck all the way on the right.","56","","instructions","2021-08-05 17:18:36.695","","","","","",""
"card-selection-trial","21","120273","0.0-15.0-0.0","1079","false","img/card_backs/set1/green.gif","img/card_backs/set1/purple.gif","img/card_backs/set1/yellow.gif","img/card_backs/set1/red.gif","img/card_backs/set2/gray.gif","img/card_backs/set2/orange.gif","img/card_backs/set2/pink.gif","img/card_backs/set2/blue.gif","""event"",""trial"",""time""
""fullscreenenter"",""1"",""4040""
""blur"",""6"",""27891""
""focus"",""6"",""33417""
","""event"",""trial"",""time""
""blur"",""6"",""27891""
","""event"",""trial"",""time""
""focus"",""6"",""33417""
","""event"",""trial"",""time""
""fullscreenenter"",""1"",""4040""
","
","","952.3000000119209","","","","practice_card_selection","2021-08-05 17:18:39.665","img/practice_cards/backs/black.gif","3","100","","",""
"casino-keyboard-response","22","124557","0.0-16.0-0.0","1079","false","img/card_backs/set1/green.gif","img/card_backs/set1/purple.gif","img/card_backs/set1/yellow.gif","img/card_backs/set1/red.gif","img/card_backs/set2/gray.gif","img/card_backs/set2/orange.gif","img/card_backs/set2/pink.gif","img/card_backs/set2/blue.gif","""event"",""trial"",""time""
""fullscreenenter"",""1"",""4040""
""blur"",""6"",""27891""
""focus"",""6"",""33417""
","""event"",""trial"",""time""
""blur"",""6"",""27891""
","""event"",""trial"",""time""
""focus"",""6"",""33417""
","""event"",""trial"",""time""
""fullscreenenter"",""1"",""4040""
","
","","4278.699999988079","Great! It seems like you are getting the hang of this.","80","","instructions","2021-08-05 17:18:43.948","","","","","",""
"casino-keyboard-response","23","131898","0.0-16.0-0.1","1079","false","img/card_backs/set1/green.gif","img/card_backs/set1/purple.gif","img/card_backs/set1/yellow.gif","img/card_backs/set1/red.gif","img/card_backs/set2/gray.gif","img/card_backs/set2/orange.gif","img/card_backs/set2/pink.gif","img/card_backs/set2/blue.gif","""event"",""trial"",""time""
""fullscreenenter"",""1"",""4040""
""blur"",""6"",""27891""
""focus"",""6"",""33417""
","""event"",""trial"",""time""
""blur"",""6"",""27891""
","""event"",""trial"",""time""
""focus"",""6"",""33417""
","""event"",""trial"",""time""
""fullscreenenter"",""1"",""4040""
","
","","7337.600000023842","You may have noticed that some cards will cause you to <b> win </b> tokens while other cards will cause you to <b> lose </b>  tokens.","70","","instructions","2021-08-05 17:18:51.290","","","","","",""
"casino-keyboard-response","24","163536","0.0-16.0-0.2","1079","false","img/card_backs/set1/green.gif","img/card_backs/set1/purple.gif","img/card_backs/set1/yellow.gif","img/card_backs/set1/red.gif","img/card_backs/set2/gray.gif","img/card_backs/set2/orange.gif","img/card_backs/set2/pink.gif","img/card_backs/set2/blue.gif","""event"",""trial"",""time""
""fullscreenenter"",""1"",""4040""
""blur"",""6"",""27891""
""focus"",""6"",""33417""
","""event"",""trial"",""time""
""blur"",""6"",""27891""
","""event"",""trial"",""time""
""focus"",""6"",""33417""
","""event"",""trial"",""time""
""fullscreenenter"",""1"",""4040""
","
","","31632.70000001788","Each deck has a mix of cards that will cause you to win and lose tokens. </br> However, the cards in each colored deck are different.","73","","instructions","2021-08-05 17:19:22.927","","","","","",""
"casino-keyboard-response","25","172764","0.0-16.0-0.3","1079","false","img/card_backs/set1/green.gif","img/card_backs/set1/purple.gif","img/card_backs/set1/yellow.gif","img/card_backs/set1/red.gif","img/card_backs/set2/gray.gif","img/card_backs/set2/orange.gif","img/card_backs/set2/pink.gif","img/card_backs/set2/blue.gif","""event"",""trial"",""time""
""fullscreenenter"",""1"",""4040""
""blur"",""6"",""27891""
""focus"",""6"",""33417""
","""event"",""trial"",""time""
""blur"",""6"",""27891""
","""event"",""trial"",""time""
""focus"",""6"",""33417""
","""event"",""trial"",""time""
""fullscreenenter"",""1"",""4040""
","
","","9222.90000000596","Some colored decks are luckier than others. </br> If you choose the lucky decks, you will earn more tokens than if you choose the unlucky decks.","69","","instructions","2021-08-05 17:19:32.155","","","","","",""
"casino-keyboard-response","26","180462","0.0-16.0-0.4","1079","false","img/card_backs/set1/green.gif","img/card_backs/set1/purple.gif","img/card_backs/set1/yellow.gif","img/card_backs/set1/red.gif","img/card_backs/set2/gray.gif","img/card_backs/set2/orange.gif","img/card_backs/set2/pink.gif","img/card_backs/set2/blue.gif","""event"",""trial"",""time""
""fullscreenenter"",""1"",""4040""
""blur"",""6"",""27891""
""focus"",""6"",""33417""
","""event"",""trial"",""time""
""blur"",""6"",""27891""
","""event"",""trial"",""time""
""focus"",""6"",""33417""
","""event"",""trial"",""time""
""fullscreenenter"",""1"",""4040""
","
","","7694.4000000059605","You should try to figure out which decks are lucky. </br> Then, try to choose the lucky decks so you can win the most tokens.","87","","instructions","2021-08-05 17:19:39.853","","","","","",""
"casino-keyboard-response","27","192910","0.0-16.0-0.5","1079","false","img/card_backs/set1/green.gif","img/card_backs/set1/purple.gif","img/card_backs/set1/yellow.gif","img/card_backs/set1/red.gif","img/card_backs/set2/gray.gif","img/card_backs/set2/orange.gif","img/card_backs/set2/pink.gif","img/card_backs/set2/blue.gif","""event"",""trial"",""time""
""fullscreenenter"",""1"",""4040""
""blur"",""6"",""27891""
""focus"",""6"",""33417""
","""event"",""trial"",""time""
""blur"",""6"",""27891""
","""event"",""trial"",""time""
""focus"",""6"",""33417""
","""event"",""trial"",""time""
""fullscreenenter"",""1"",""4040""
","
","","12442.90000000596","To make it trickier, the casino dealer will switch the locations of the decks on every turn. </br> The color of the deck determines how lucky it is. The location does not matter.","88","","instructions","2021-08-05 17:19:52.301","","","","","",""
"casino-keyboard-response","28","202734","0.0-16.0-0.6","1079","false","img/card_backs/set1/green.gif","img/card_backs/set1/purple.gif","img/card_backs/set1/yellow.gif","img/card_backs/set1/red.gif","img/card_backs/set2/gray.gif","img/card_backs/set2/orange.gif","img/card_backs/set2/pink.gif","img/card_backs/set2/blue.gif","""event"",""trial"",""time""
""fullscreenenter"",""1"",""4040""
""blur"",""6"",""27891""
""focus"",""6"",""33417""
","""event"",""trial"",""time""
""blur"",""6"",""27891""
","""event"",""trial"",""time""
""focus"",""6"",""33417""
","""event"",""trial"",""time""
""fullscreenenter"",""1"",""4040""
","
","","9820","The mix of cards in each colored deck will stay the same throughout the game. </br> That means that a deck that is lucky early on will stay lucky.","79","","instructions","2021-08-05 17:20:02.126","","","","","",""
"casino-keyboard-response","29","211135","0.0-16.0-0.7","1079","false","img/card_backs/set1/green.gif","img/card_backs/set1/purple.gif","img/card_backs/set1/yellow.gif","img/card_backs/set1/red.gif","img/card_backs/set2/gray.gif","img/card_backs/set2/orange.gif","img/card_backs/set2/pink.gif","img/card_backs/set2/blue.gif","""event"",""trial"",""time""
""fullscreenenter"",""1"",""4040""
""blur"",""6"",""27891""
""focus"",""6"",""33417""
","""event"",""trial"",""time""
""blur"",""6"",""27891""
","""event"",""trial"",""time""
""focus"",""6"",""33417""
","""event"",""trial"",""time""
""fullscreenenter"",""1"",""4040""
","
","","8396.40000000596","Remember though, all the decks have a <b> mix </b> of both <b> good </b> and <b> bad </b> cards so it may take a couple of turns to figure out if a deck is lucky.","69","","instructions","2021-08-05 17:20:10.526","","","","","",""
"casino-keyboard-response","30","219583","0.0-16.0-0.8","1079","false","img/card_backs/set1/green.gif","img/card_backs/set1/purple.gif","img/card_backs/set1/yellow.gif","img/card_backs/set1/red.gif","img/card_backs/set2/gray.gif","img/card_backs/set2/orange.gif","img/card_backs/set2/pink.gif","img/card_backs/set2/blue.gif","""event"",""trial"",""time""
""fullscreenenter"",""1"",""4040""
""blur"",""6"",""27891""
""focus"",""6"",""33417""
","""event"",""trial"",""time""
""blur"",""6"",""27891""
","""event"",""trial"",""time""
""focus"",""6"",""33417""
","""event"",""trial"",""time""
""fullscreenenter"",""1"",""4040""
","
","","8443.800000011921","At the end of the game, you will be paid bonus money based on how many tokens you win. </br> If you win more tokens, you will earn more money!","72","","instructions","2021-08-05 17:20:18.975","","","","","",""
"casino-keyboard-response","31","230122","0.0-16.0-0.9","1079","false","img/card_backs/set1/green.gif","img/card_backs/set1/purple.gif","img/card_backs/set1/yellow.gif","img/card_backs/set1/red.gif","img/card_backs/set2/gray.gif","img/card_backs/set2/orange.gif","img/card_backs/set2/pink.gif","img/card_backs/set2/blue.gif","""event"",""trial"",""time""
""fullscreenenter"",""1"",""4040""
""blur"",""6"",""27891""
""focus"",""6"",""33417""
","""event"",""trial"",""time""
""blur"",""6"",""27891""
","""event"",""trial"",""time""
""focus"",""6"",""33417""
","""event"",""trial"",""time""
""fullscreenenter"",""1"",""4040""
","
","","10529.699999988079","You will never <b> lose </b> money. </br> If you end up with fewer than 0 tokens, you will earn $0 of bonus money, but you will still be paid for playing the game.","83","","instructions","2021-08-05 17:20:29.513","","","","","",""
"casino-keyboard-response","32","234551","0.0-16.0-0.10","1079","false","img/card_backs/set1/green.gif","img/card_backs/set1/purple.gif","img/card_backs/set1/yellow.gif","img/card_backs/set1/red.gif","img/card_backs/set2/gray.gif","img/card_backs/set2/orange.gif","img/card_backs/set2/pink.gif","img/card_backs/set2/blue.gif","""event"",""trial"",""time""
""fullscreenenter"",""1"",""4040""
""blur"",""6"",""27891""
""focus"",""6"",""33417""
","""event"",""trial"",""time""
""blur"",""6"",""27891""
","""event"",""trial"",""time""
""focus"",""6"",""33417""
","""event"",""trial"",""time""
""fullscreenenter"",""1"",""4040""
","
","","4422.5","You will have 10 seconds to make each choice.","82","","instructions","2021-08-05 17:20:33.942","","","","","",""
"casino-keyboard-response","33","242745","0.0-16.0-0.11","1079","false","img/card_backs/set1/green.gif","img/card_backs/set1/purple.gif","img/card_backs/set1/yellow.gif","img/card_backs/set1/red.gif","img/card_backs/set2/gray.gif","img/card_backs/set2/orange.gif","img/card_backs/set2/pink.gif","img/card_backs/set2/blue.gif","""event"",""trial"",""time""
""fullscreenenter"",""1"",""4040""
""blur"",""6"",""27891""
""focus"",""6"",""33417""
","""event"",""trial"",""time""
""blur"",""6"",""27891""
","""event"",""trial"",""time""
""focus"",""6"",""33417""
","""event"",""trial"",""time""
""fullscreenenter"",""1"",""4040""
","
","","8189.399999976158","Before you play the game for real, you will play with practice decks. </br> The tokens you earn during practice won't count toward your total.","86","","instructions","2021-08-05 17:20:42.136","","","","","",""
"casino-keyboard-response","34","254884","0.0-16.0-0.12","1079","false","img/card_backs/set1/green.gif","img/card_backs/set1/purple.gif","img/card_backs/set1/yellow.gif","img/card_backs/set1/red.gif","img/card_backs/set2/gray.gif","img/card_backs/set2/orange.gif","img/card_backs/set2/pink.gif","img/card_backs/set2/blue.gif","""event"",""trial"",""time""
""fullscreenenter"",""1"",""4040""
""blur"",""6"",""27891""
""focus"",""6"",""33417""
","""event"",""trial"",""time""
""blur"",""6"",""27891""
","""event"",""trial"",""time""
""focus"",""6"",""33417""
","""event"",""trial"",""time""
""fullscreenenter"",""1"",""4040""
","
","","12134","Ready? Remember, use the '2', '4', '6', and '8' keys to select the decks. </br> Put your fingers on those keys now and then press '2' to begin.","50","","instructions","2021-08-05 17:20:54.276","","","","","",""
"casino-fixation","35","255398","0.0-17.0-0.0","1079","false","img/card_backs/set1/green.gif","img/card_backs/set1/purple.gif","img/card_backs/set1/yellow.gif","img/card_backs/set1/red.gif","img/card_backs/set2/gray.gif","img/card_backs/set2/orange.gif","img/card_backs/set2/pink.gif","img/card_backs/set2/blue.gif","""event"",""trial"",""time""
""fullscreenenter"",""1"",""4040""
""blur"",""6"",""27891""
""focus"",""6"",""33417""
","""event"",""trial"",""time""
""blur"",""6"",""27891""
","""event"",""trial"",""time""
""focus"",""6"",""33417""
","""event"",""trial"",""time""
""fullscreenenter"",""1"",""4040""
","
","","null","","null","","fixation","2021-08-05 17:20:54.790","","","","","",""
"card-selection-trial","36","259375","0.0-17.0-1.0","1079","false","img/card_backs/set1/green.gif","img/card_backs/set1/purple.gif","img/card_backs/set1/yellow.gif","img/card_backs/set1/red.gif","img/card_backs/set2/gray.gif","img/card_backs/set2/orange.gif","img/card_backs/set2/pink.gif","img/card_backs/set2/blue.gif","""event"",""trial"",""time""
""fullscreenenter"",""1"",""4040""
""blur"",""6"",""27891""
""focus"",""6"",""33417""
","""event"",""trial"",""time""
""blur"",""6"",""27891""
","""event"",""trial"",""time""
""focus"",""6"",""33417""
","""event"",""trial"",""time""
""fullscreenenter"",""1"",""4040""
","
","","1964.7000000178814","","","","practice","2021-08-05 17:20:58.766","img/practice_cards/backs/brown.gif","1","100","0","",""
"casino-fixation","37","259879","0.0-17.0-0.1","1079","false","img/card_backs/set1/green.gif","img/card_backs/set1/purple.gif","img/card_backs/set1/yellow.gif","img/card_backs/set1/red.gif","img/card_backs/set2/gray.gif","img/card_backs/set2/orange.gif","img/card_backs/set2/pink.gif","img/card_backs/set2/blue.gif","""event"",""trial"",""time""
""fullscreenenter"",""1"",""4040""
""blur"",""6"",""27891""
""focus"",""6"",""33417""
","""event"",""trial"",""time""
""blur"",""6"",""27891""
","""event"",""trial"",""time""
""focus"",""6"",""33417""
","""event"",""trial"",""time""
""fullscreenenter"",""1"",""4040""
","
","","null","","null","","fixation","2021-08-05 17:20:59.270","","","","","",""
"card-selection-trial","38","263285","0.0-17.0-1.1","1079","false","img/card_backs/set1/green.gif","img/card_backs/set1/purple.gif","img/card_backs/set1/yellow.gif","img/card_backs/set1/red.gif","img/card_backs/set2/gray.gif","img/card_backs/set2/orange.gif","img/card_backs/set2/pink.gif","img/card_backs/set2/blue.gif","""event"",""trial"",""time""
""fullscreenenter"",""1"",""4040""
""blur"",""6"",""27891""
""focus"",""6"",""33417""
","""event"",""trial"",""time""
""blur"",""6"",""27891""
","""event"",""trial"",""time""
""focus"",""6"",""33417""
","""event"",""trial"",""time""
""fullscreenenter"",""1"",""4040""
","
","","1395.800000011921","","","","practice","2021-08-05 17:21:02.676","img/practice_cards/backs/dark_blue.gif","3","-200","0","",""
"casino-fixation","39","263789","0.0-17.0-0.2","1079","false","img/card_backs/set1/green.gif","img/card_backs/set1/purple.gif","img/card_backs/set1/yellow.gif","img/card_backs/set1/red.gif","img/card_backs/set2/gray.gif","img/card_backs/set2/orange.gif","img/card_backs/set2/pink.gif","img/card_backs/set2/blue.gif","""event"",""trial"",""time""
""fullscreenenter"",""1"",""4040""
""blur"",""6"",""27891""
""focus"",""6"",""33417""
","""event"",""trial"",""time""
""blur"",""6"",""27891""
","""event"",""trial"",""time""
""focus"",""6"",""33417""
","""event"",""trial"",""time""
""fullscreenenter"",""1"",""4040""
","
","","null","","null","","fixation","2021-08-05 17:21:03.180","","","","","",""
"card-selection-trial","40","267159","0.0-17.0-1.2","1079","false","img/card_backs/set1/green.gif","img/card_backs/set1/purple.gif","img/card_backs/set1/yellow.gif","img/card_backs/set1/red.gif","img/card_backs/set2/gray.gif","img/card_backs/set2/orange.gif","img/card_backs/set2/pink.gif","img/card_backs/set2/blue.gif","""event"",""trial"",""time""
""fullscreenenter"",""1"",""4040""
""blur"",""6"",""27891""
""focus"",""6"",""33417""
","""event"",""trial"",""time""
""blur"",""6"",""27891""
","""event"",""trial"",""time""
""focus"",""6"",""33417""
","""event"",""trial"",""time""
""fullscreenenter"",""1"",""4040""
","
","","1356.699999988079","","","","practice","2021-08-05 17:21:06.550","img/practice_cards/backs/black.gif","2","100","0","",""
"casino-fixation","41","267664","0.0-17.0-0.3","1079","false","img/card_backs/set1/green.gif","img/card_backs/set1/purple.gif","img/card_backs/set1/yellow.gif","img/card_backs/set1/red.gif","img/card_backs/set2/gray.gif","img/card_backs/set2/orange.gif","img/card_backs/set2/pink.gif","img/card_backs/set2/blue.gif","""event"",""trial"",""time""
""fullscreenenter"",""1"",""4040""
""blur"",""6"",""27891""
""focus"",""6"",""33417""
","""event"",""trial"",""time""
""blur"",""6"",""27891""
","""event"",""trial"",""time""
""focus"",""6"",""33417""
","""event"",""trial"",""time""
""fullscreenenter"",""1"",""4040""
","
","","null","","null","","fixation","2021-08-05 17:21:07.055","","","","","",""
"card-selection-trial","42","271004","0.0-17.0-1.3","1079","false","img/card_backs/set1/green.gif","img/card_backs/set1/purple.gif","img/card_backs/set1/yellow.gif","img/card_backs/set1/red.gif","img/card_backs/set2/gray.gif","img/card_backs/set2/orange.gif","img/card_backs/set2/pink.gif","img/card_backs/set2/blue.gif","""event"",""trial"",""time""
""fullscreenenter"",""1"",""4040""
""blur"",""6"",""27891""
""focus"",""6"",""33417""
","""event"",""trial"",""time""
""blur"",""6"",""27891""
","""event"",""trial"",""time""
""focus"",""6"",""33417""
","""event"",""trial"",""time""
""fullscreenenter"",""1"",""4040""
","
","","1324.300000011921","","","","practice","2021-08-05 17:21:10.395","img/practice_cards/backs/dark_blue.gif","1","-200","0","",""
"casino-fixation","43","271515","0.0-17.0-0.4","1079","false","img/card_backs/set1/green.gif","img/card_backs/set1/purple.gif","img/card_backs/set1/yellow.gif","img/card_backs/set1/red.gif","img/card_backs/set2/gray.gif","img/card_backs/set2/orange.gif","img/card_backs/set2/pink.gif","img/card_backs/set2/blue.gif","""event"",""trial"",""time""
""fullscreenenter"",""1"",""4040""
""blur"",""6"",""27891""
""focus"",""6"",""33417""
","""event"",""trial"",""time""
""blur"",""6"",""27891""
","""event"",""trial"",""time""
""focus"",""6"",""33417""
","""event"",""trial"",""time""
""fullscreenenter"",""1"",""4040""
","
","","null","","null","","fixation","2021-08-05 17:21:10.906","","","","","",""
"card-selection-trial","44","275525","0.0-17.0-1.4","1079","false","img/card_backs/set1/green.gif","img/card_backs/set1/purple.gif","img/card_backs/set1/yellow.gif","img/card_backs/set1/red.gif","img/card_backs/set2/gray.gif","img/card_backs/set2/orange.gif","img/card_backs/set2/pink.gif","img/card_backs/set2/blue.gif","""event"",""trial"",""time""
""fullscreenenter"",""1"",""4040""
""blur"",""6"",""27891""
""focus"",""6"",""33417""
","""event"",""trial"",""time""
""blur"",""6"",""27891""
","""event"",""trial"",""time""
""focus"",""6"",""33417""
","""event"",""trial"",""time""
""fullscreenenter"",""1"",""4040""
","
","","1991.5999999940395","","","","practice","2021-08-05 17:21:14.916","img/practice_cards/backs/black.gif","0","100","0","",""
"casino-fixation","45","276034","0.0-17.0-0.5","1079","false","img/card_backs/set1/green.gif","img/card_backs/set1/purple.gif","img/card_backs/set1/yellow.gif","img/card_backs/set1/red.gif","img/card_backs/set2/gray.gif","img/card_backs/set2/orange.gif","img/card_backs/set2/pink.gif","img/card_backs/set2/blue.gif","""event"",""trial"",""time""
""fullscreenenter"",""1"",""4040""
""blur"",""6"",""27891""
""focus"",""6"",""33417""
","""event"",""trial"",""time""
""blur"",""6"",""27891""
","""event"",""trial"",""time""
""focus"",""6"",""33417""
","""event"",""trial"",""time""
""fullscreenenter"",""1"",""4040""
","
","","null","","null","","fixation","2021-08-05 17:21:15.425","","","","","",""
"card-selection-trial","46","279639","0.0-17.0-1.5","1079","false","img/card_backs/set1/green.gif","img/card_backs/set1/purple.gif","img/card_backs/set1/yellow.gif","img/card_backs/set1/red.gif","img/card_backs/set2/gray.gif","img/card_backs/set2/orange.gif","img/card_backs/set2/pink.gif","img/card_backs/set2/blue.gif","""event"",""trial"",""time""
""fullscreenenter"",""1"",""4040""
""blur"",""6"",""27891""
""focus"",""6"",""33417""
","""event"",""trial"",""time""
""blur"",""6"",""27891""
","""event"",""trial"",""time""
""focus"",""6"",""33417""
","""event"",""trial"",""time""
""fullscreenenter"",""1"",""4040""
","
","","1593.5","","","","practice","2021-08-05 17:21:19.030","img/practice_cards/backs/dark_green.gif","3","200","0","",""
"casino-fixation","47","280149","0.0-17.0-0.6","1079","false","img/card_backs/set1/green.gif","img/card_backs/set1/purple.gif","img/card_backs/set1/yellow.gif","img/card_backs/set1/red.gif","img/card_backs/set2/gray.gif","img/card_backs/set2/orange.gif","img/card_backs/set2/pink.gif","img/card_backs/set2/blue.gif","""event"",""trial"",""time""
""fullscreenenter"",""1"",""4040""
""blur"",""6"",""27891""
""focus"",""6"",""33417""
","""event"",""trial"",""time""
""blur"",""6"",""27891""
","""event"",""trial"",""time""
""focus"",""6"",""33417""
","""event"",""trial"",""time""
""fullscreenenter"",""1"",""4040""
","
","","null","","null","","fixation","2021-08-05 17:21:19.540","","","","","",""
"card-selection-trial","48","282730","0.0-17.0-1.6","1079","false","img/card_backs/set1/green.gif","img/card_backs/set1/purple.gif","img/card_backs/set1/yellow.gif","img/card_backs/set1/red.gif","img/card_backs/set2/gray.gif","img/card_backs/set2/orange.gif","img/card_backs/set2/pink.gif","img/card_backs/set2/blue.gif","""event"",""trial"",""time""
""fullscreenenter"",""1"",""4040""
""blur"",""6"",""27891""
""focus"",""6"",""33417""
","""event"",""trial"",""time""
""blur"",""6"",""27891""
","""event"",""trial"",""time""
""focus"",""6"",""33417""
","""event"",""trial"",""time""
""fullscreenenter"",""1"",""4040""
","
","","571.8999999761581","","","","practice","2021-08-05 17:21:22.121","img/practice_cards/backs/black.gif","2","-100","0","",""
"casino-fixation","49","283240","0.0-17.0-0.7","1079","false","img/card_backs/set1/green.gif","img/card_backs/set1/purple.gif","img/card_backs/set1/yellow.gif","img/card_backs/set1/red.gif","img/card_backs/set2/gray.gif","img/card_backs/set2/orange.gif","img/card_backs/set2/pink.gif","img/card_backs/set2/blue.gif","""event"",""trial"",""time""
""fullscreenenter"",""1"",""4040""
""blur"",""6"",""27891""
""focus"",""6"",""33417""
","""event"",""trial"",""time""
""blur"",""6"",""27891""
","""event"",""trial"",""time""
""focus"",""6"",""33417""
","""event"",""trial"",""time""
""fullscreenenter"",""1"",""4040""
","
","","null","","null","","fixation","2021-08-05 17:21:22.631","","","","","",""
"card-selection-trial","50","287265","0.0-17.0-1.7","1079","false","img/card_backs/set1/green.gif","img/card_backs/set1/purple.gif","img/card_backs/set1/yellow.gif","img/card_backs/set1/red.gif","img/card_backs/set2/gray.gif","img/card_backs/set2/orange.gif","img/card_backs/set2/pink.gif","img/card_backs/set2/blue.gif","""event"",""trial"",""time""
""fullscreenenter"",""1"",""4040""
""blur"",""6"",""27891""
""focus"",""6"",""33417""
","""event"",""trial"",""time""
""blur"",""6"",""27891""
","""event"",""trial"",""time""
""focus"",""6"",""33417""
","""event"",""trial"",""time""
""fullscreenenter"",""1"",""4040""
","
","","2013.699999988079","","","","practice","2021-08-05 17:21:26.656","img/practice_cards/backs/black.gif","0","-100","0","",""
"casino-fixation","51","287769","0.0-17.0-0.8","1079","false","img/card_backs/set1/green.gif","img/card_backs/set1/purple.gif","img/card_backs/set1/yellow.gif","img/card_backs/set1/red.gif","img/card_backs/set2/gray.gif","img/card_backs/set2/orange.gif","img/card_backs/set2/pink.gif","img/card_backs/set2/blue.gif","""event"",""trial"",""time""
""fullscreenenter"",""1"",""4040""
""blur"",""6"",""27891""
""focus"",""6"",""33417""
","""event"",""trial"",""time""
""blur"",""6"",""27891""
","""event"",""trial"",""time""
""focus"",""6"",""33417""
","""event"",""trial"",""time""
""fullscreenenter"",""1"",""4040""
","
","","null","","null","","fixation","2021-08-05 17:21:27.161","","","","","",""
"card-selection-trial","52","290690","0.0-17.0-1.8","1079","false","img/card_backs/set1/green.gif","img/card_backs/set1/purple.gif","img/card_backs/set1/yellow.gif","img/card_backs/set1/red.gif","img/card_backs/set2/gray.gif","img/card_backs/set2/orange.gif","img/card_backs/set2/pink.gif","img/card_backs/set2/blue.gif","""event"",""trial"",""time""
""fullscreenenter"",""1"",""4040""
""blur"",""6"",""27891""
""focus"",""6"",""33417""
","""event"",""trial"",""time""
""blur"",""6"",""27891""
","""event"",""trial"",""time""
""focus"",""6"",""33417""
","""event"",""trial"",""time""
""fullscreenenter"",""1"",""4040""
","
","","909.6999999880791","","","","practice","2021-08-05 17:21:30.081","img/practice_cards/backs/dark_green.gif","1","-200","0","",""
"casino-fixation","53","291195","0.0-17.0-0.9","1079","false","img/card_backs/set1/green.gif","img/card_backs/set1/purple.gif","img/card_backs/set1/yellow.gif","img/card_backs/set1/red.gif","img/card_backs/set2/gray.gif","img/card_backs/set2/orange.gif","img/card_backs/set2/pink.gif","img/card_backs/set2/blue.gif","""event"",""trial"",""time""
""fullscreenenter"",""1"",""4040""
""blur"",""6"",""27891""
""focus"",""6"",""33417""
","""event"",""trial"",""time""
""blur"",""6"",""27891""
","""event"",""trial"",""time""
""focus"",""6"",""33417""
","""event"",""trial"",""time""
""fullscreenenter"",""1"",""4040""
","
","","null","","null","","fixation","2021-08-05 17:21:30.586","","","","","",""
"card-selection-trial","54","294222","0.0-17.0-1.9","1079","false","img/card_backs/set1/green.gif","img/card_backs/set1/purple.gif","img/card_backs/set1/yellow.gif","img/card_backs/set1/red.gif","img/card_backs/set2/gray.gif","img/card_backs/set2/orange.gif","img/card_backs/set2/pink.gif","img/card_backs/set2/blue.gif","""event"",""trial"",""time""
""fullscreenenter"",""1"",""4040""
""blur"",""6"",""27891""
""focus"",""6"",""33417""
","""event"",""trial"",""time""
""blur"",""6"",""27891""
","""event"",""trial"",""time""
""focus"",""6"",""33417""
","""event"",""trial"",""time""
""fullscreenenter"",""1"",""4040""
","
","","1013.7000000178814","","","","practice","2021-08-05 17:21:33.613","img/practice_cards/backs/black.gif","3","-100","0","",""
"casino-keyboard-response","55","297619","0.0-18.0","1079","false","img/card_backs/set1/green.gif","img/card_backs/set1/purple.gif","img/card_backs/set1/yellow.gif","img/card_backs/set1/red.gif","img/card_backs/set2/gray.gif","img/card_backs/set2/orange.gif","img/card_backs/set2/pink.gif","img/card_backs/set2/blue.gif","""event"",""trial"",""time""
""fullscreenenter"",""1"",""4040""
""blur"",""6"",""27891""
""focus"",""6"",""33417""
","""event"",""trial"",""time""
""blur"",""6"",""27891""
","""event"",""trial"",""time""
""focus"",""6"",""33417""
","""event"",""trial"",""time""
""fullscreenenter"",""1"",""4040""
","
","","3394.5","You earned -400 tokens during the practice round!","82","","","2021-08-05 17:21:37.010","","","","","",""
"casino-keyboard-response","56","301933","0.0-19.0-0.0","1079","false","img/card_backs/set1/green.gif","img/card_backs/set1/purple.gif","img/card_backs/set1/yellow.gif","img/card_backs/set1/red.gif","img/card_backs/set2/gray.gif","img/card_backs/set2/orange.gif","img/card_backs/set2/pink.gif","img/card_backs/set2/blue.gif","""event"",""trial"",""time""
""fullscreenenter"",""1"",""4040""
""blur"",""6"",""27891""
""focus"",""6"",""33417""
","""event"",""trial"",""time""
""blur"",""6"",""27891""
","""event"",""trial"",""time""
""focus"",""6"",""33417""
","""event"",""trial"",""time""
""fullscreenenter"",""1"",""4040""
","
","","4307.299999982119","Nice job! You are almost ready to play the real game.","86","","instructions","2021-08-05 17:21:41.324","","","","","",""
"casino-keyboard-response","57","308371","0.0-19.0-0.1","1079","false","img/card_backs/set1/green.gif","img/card_backs/set1/purple.gif","img/card_backs/set1/yellow.gif","img/card_backs/set1/red.gif","img/card_backs/set2/gray.gif","img/card_backs/set2/orange.gif","img/card_backs/set2/pink.gif","img/card_backs/set2/blue.gif","""event"",""trial"",""time""
""fullscreenenter"",""1"",""4040""
""blur"",""6"",""27891""
""focus"",""6"",""33417""
","""event"",""trial"",""time""
""blur"",""6"",""27891""
","""event"",""trial"",""time""
""focus"",""6"",""33417""
","""event"",""trial"",""time""
""fullscreenenter"",""1"",""4040""
","
","","6429.4000000059605","You will play two rounds of the real game. In each round, you will pick 100 cards in total.","73","","instructions","2021-08-05 17:21:47.762","","","","","",""
"casino-keyboard-response","58","312713","0.0-19.0-0.2","1079","false","img/card_backs/set1/green.gif","img/card_backs/set1/purple.gif","img/card_backs/set1/yellow.gif","img/card_backs/set1/red.gif","img/card_backs/set2/gray.gif","img/card_backs/set2/orange.gif","img/card_backs/set2/pink.gif","img/card_backs/set2/blue.gif","""event"",""trial"",""time""
""fullscreenenter"",""1"",""4040""
""blur"",""6"",""27891""
""focus"",""6"",""33417""
","""event"",""trial"",""time""
""blur"",""6"",""27891""
","""event"",""trial"",""time""
""focus"",""6"",""33417""
","""event"",""trial"",""time""
""fullscreenenter"",""1"",""4040""
","
","","4337.699999988079","We are now going to ask you some questions about how the game works.","66","","instructions","2021-08-05 17:21:52.104","","","","","",""
"casino-keyboard-response","59","319047","0.0-19.0-0.3","1079","false","img/card_backs/set1/green.gif","img/card_backs/set1/purple.gif","img/card_backs/set1/yellow.gif","img/card_backs/set1/red.gif","img/card_backs/set2/gray.gif","img/card_backs/set2/orange.gif","img/card_backs/set2/pink.gif","img/card_backs/set2/blue.gif","""event"",""trial"",""time""
""fullscreenenter"",""1"",""4040""
""blur"",""6"",""27891""
""focus"",""6"",""33417""
","""event"",""trial"",""time""
""blur"",""6"",""27891""
","""event"",""trial"",""time""
""focus"",""6"",""33417""
","""event"",""trial"",""time""
""fullscreenenter"",""1"",""4040""
","
","","6330.699999988079","Answer carefully. You will not be able to begin the game until you answer them correctly.","67","","instructions","2021-08-05 17:21:58.438","","","","","",""
"casino-comp_q","60","326782","0.0-20.0-0.0","1079","false","img/card_backs/set1/green.gif","img/card_backs/set1/purple.gif","img/card_backs/set1/yellow.gif","img/card_backs/set1/red.gif","img/card_backs/set2/gray.gif","img/card_backs/set2/orange.gif","img/card_backs/set2/pink.gif","img/card_backs/set2/blue.gif","""event"",""trial"",""time""
""fullscreenenter"",""1"",""4040""
""blur"",""6"",""27891""
""focus"",""6"",""33417""
","""event"",""trial"",""time""
""blur"",""6"",""27891""
","""event"",""trial"",""time""
""focus"",""6"",""33417""
","""event"",""trial"",""time""
""fullscreenenter"",""1"",""4040""
","
","","7729.100000023842","True or False: All the decks have some cards that cause you to win tokens and some cards that cause you to lose tokens.","84","","","2021-08-05 17:22:06.173","","","","","",""
"casino-keyboard-response","61","331900","0.0-20.0-1.0","1079","false","img/card_backs/set1/green.gif","img/card_backs/set1/purple.gif","img/card_backs/set1/yellow.gif","img/card_backs/set1/red.gif","img/card_backs/set2/gray.gif","img/card_backs/set2/orange.gif","img/card_backs/set2/pink.gif","img/card_backs/set2/blue.gif","""event"",""trial"",""time""
""fullscreenenter"",""1"",""4040""
""blur"",""6"",""27891""
""focus"",""6"",""33417""
","""event"",""trial"",""time""
""blur"",""6"",""27891""
","""event"",""trial"",""time""
""focus"",""6"",""33417""
","""event"",""trial"",""time""
""fullscreenenter"",""1"",""4040""
","
","","5113.300000011921","True is correct! All the decks have a mix of winning and losing cards.","77","","","2021-08-05 17:22:11.292","","","","","true",""
"casino-comp_q","62","337051","0.0-21.0-0.0","1079","false","img/card_backs/set1/green.gif","img/card_backs/set1/purple.gif","img/card_backs/set1/yellow.gif","img/card_backs/set1/red.gif","img/card_backs/set2/gray.gif","img/card_backs/set2/orange.gif","img/card_backs/set2/pink.gif","img/card_backs/set2/blue.gif","""event"",""trial"",""time""
""fullscreenenter"",""1"",""4040""
""blur"",""6"",""27891""
""focus"",""6"",""33417""
","""event"",""trial"",""time""
""blur"",""6"",""27891""
","""event"",""trial"",""time""
""focus"",""6"",""33417""
","""event"",""trial"",""time""
""fullscreenenter"",""1"",""4040""
","
","","5145.0999999940395","True or False: You will have as much time as you want to make your response.","70","","","2021-08-05 17:22:16.442","","","","","",""
"casino-keyboard-response","63","341165","0.0-21.0-1.0","1079","false","img/card_backs/set1/green.gif","img/card_backs/set1/purple.gif","img/card_backs/set1/yellow.gif","img/card_backs/set1/red.gif","img/card_backs/set2/gray.gif","img/card_backs/set2/orange.gif","img/card_backs/set2/pink.gif","img/card_backs/set2/blue.gif","""event"",""trial"",""time""
""fullscreenenter"",""1"",""4040""
""blur"",""6"",""27891""
""focus"",""6"",""33417""
","""event"",""trial"",""time""
""blur"",""6"",""27891""
","""event"",""trial"",""time""
""focus"",""6"",""33417""
","""event"",""trial"",""time""
""fullscreenenter"",""1"",""4040""
","
","","4109.300000011921","False is correct! You will only have 10 seconds to make each choice.","75","","","2021-08-05 17:22:20.556","","","","","true",""
"casino-comp_q","64","346317","0.0-22.0-0.0","1079","false","img/card_backs/set1/green.gif","img/card_backs/set1/purple.gif","img/card_backs/set1/yellow.gif","img/card_backs/set1/red.gif","img/card_backs/set2/gray.gif","img/card_backs/set2/orange.gif","img/card_backs/set2/pink.gif","img/card_backs/set2/blue.gif","""event"",""trial"",""time""
""fullscreenenter"",""1"",""4040""
""blur"",""6"",""27891""
""focus"",""6"",""33417""
","""event"",""trial"",""time""
""blur"",""6"",""27891""
","""event"",""trial"",""time""
""focus"",""6"",""33417""
","""event"",""trial"",""time""
""fullscreenenter"",""1"",""4040""
","
","","5148","True or False: The location of the deck determines how lucky it is.","70","","","2021-08-05 17:22:25.708","","","","","",""
"casino-keyboard-response","65","351762","0.0-22.0-1.0","1079","false","img/card_backs/set1/green.gif","img/card_backs/set1/purple.gif","img/card_backs/set1/yellow.gif","img/card_backs/set1/red.gif","img/card_backs/set2/gray.gif","img/card_backs/set2/orange.gif","img/card_backs/set2/pink.gif","img/card_backs/set2/blue.gif","""event"",""trial"",""time""
""fullscreenenter"",""1"",""4040""
""blur"",""6"",""27891""
""focus"",""6"",""33417""
","""event"",""trial"",""time""
""blur"",""6"",""27891""
","""event"",""trial"",""time""
""focus"",""6"",""33417""
","""event"",""trial"",""time""
""fullscreenenter"",""1"",""4040""
","
","","5443.300000011921","False is correct! The <i>color</i>  of the deck determines how lucky or unlucky it is.","68","","","2021-08-05 17:22:31.153","","","","","true",""
"casino-keyboard-response","66","356116","0.0-23.0-0.0","1079","false","img/card_backs/set1/green.gif","img/card_backs/set1/purple.gif","img/card_backs/set1/yellow.gif","img/card_backs/set1/red.gif","img/card_backs/set2/gray.gif","img/card_backs/set2/orange.gif","img/card_backs/set2/pink.gif","img/card_backs/set2/blue.gif","""event"",""trial"",""time""
""fullscreenenter"",""1"",""4040""
""blur"",""6"",""27891""
""focus"",""6"",""33417""
","""event"",""trial"",""time""
""blur"",""6"",""27891""
","""event"",""trial"",""time""
""focus"",""6"",""33417""
","""event"",""trial"",""time""
""fullscreenenter"",""1"",""4040""
","
","","4349.800000011921","Great job! Now it's time to start the real game.","82","","instructions","2021-08-05 17:22:35.507","","","","","",""
"casino-keyboard-response","67","361151","0.0-23.0-0.1","1079","false","img/card_backs/set1/green.gif","img/card_backs/set1/purple.gif","img/card_backs/set1/yellow.gif","img/card_backs/set1/red.gif","img/card_backs/set2/gray.gif","img/card_backs/set2/orange.gif","img/card_backs/set2/pink.gif","img/card_backs/set2/blue.gif","""event"",""trial"",""time""
""fullscreenenter"",""1"",""4040""
""blur"",""6"",""27891""
""focus"",""6"",""33417""
","""event"",""trial"",""time""
""blur"",""6"",""27891""
","""event"",""trial"",""time""
""focus"",""6"",""33417""
","""event"",""trial"",""time""
""fullscreenenter"",""1"",""4040""
","
","","5031.100000023842","Before we start, we're going to head into a new room of the casino.","86","","instructions","2021-08-05 17:22:40.542","","","","","",""
"casino-keyboard-response","68","386707","0.0-24.0-0.0","1079","false","img/card_backs/set1/green.gif","img/card_backs/set1/purple.gif","img/card_backs/set1/yellow.gif","img/card_backs/set1/red.gif","img/card_backs/set2/gray.gif","img/card_backs/set2/orange.gif","img/card_backs/set2/pink.gif","img/card_backs/set2/blue.gif","""event"",""trial"",""time""
""fullscreenenter"",""1"",""4040""
""blur"",""6"",""27891""
""focus"",""6"",""33417""
","""event"",""trial"",""time""
""blur"",""6"",""27891""
","""event"",""trial"",""time""
""focus"",""6"",""33417""
","""event"",""trial"",""time""
""fullscreenenter"",""1"",""4040""
","
","","25551.09999999404","Here we are! The real game will use different cards, but the rules will be the same.","71","","instructions","2021-08-05 17:23:06.098","","","","","",""
"casino-keyboard-response","69","430226","0.0-24.0-0.1","1079","false","img/card_backs/set1/green.gif","img/card_backs/set1/purple.gif","img/card_backs/set1/yellow.gif","img/card_backs/set1/red.gif","img/card_backs/set2/gray.gif","img/card_backs/set2/orange.gif","img/card_backs/set2/pink.gif","img/card_backs/set2/blue.gif","""event"",""trial"",""time""
""fullscreenenter"",""1"",""4040""
""blur"",""6"",""27891""
""focus"",""6"",""33417""
","""event"",""trial"",""time""
""blur"",""6"",""27891""
","""event"",""trial"",""time""
""focus"",""6"",""33417""
","""event"",""trial"",""time""
""fullscreenenter"",""1"",""4040""
","
","","43504.5","Ready? Put your fingers over the '2', '4', 6', and '8' keys so you are ready to play the game. </br> Then press 2 to start.","50","","instructions","2021-08-05 17:23:49.617","","","","","",""
"casino-fixation","70","430731","0.0-25.0-0.0","1079","false","img/card_backs/set1/green.gif","img/card_backs/set1/purple.gif","img/card_backs/set1/yellow.gif","img/card_backs/set1/red.gif","img/card_backs/set2/gray.gif","img/card_backs/set2/orange.gif","img/card_backs/set2/pink.gif","img/card_backs/set2/blue.gif","""event"",""trial"",""time""
""fullscreenenter"",""1"",""4040""
""blur"",""6"",""27891""
""focus"",""6"",""33417""
","""event"",""trial"",""time""
""blur"",""6"",""27891""
","""event"",""trial"",""time""
""focus"",""6"",""33417""
","""event"",""trial"",""time""
""fullscreenenter"",""1"",""4040""
","
","","null","","null","","fixation","2021-08-05 17:23:50.122","","","","","",""
"card-selection-trial","71","434167","0.0-25.0-1.0","1079","false","img/card_backs/set1/green.gif","img/card_backs/set1/purple.gif","img/card_backs/set1/yellow.gif","img/card_backs/set1/red.gif","img/card_backs/set2/gray.gif","img/card_backs/set2/orange.gif","img/card_backs/set2/pink.gif","img/card_backs/set2/blue.gif","""event"",""trial"",""time""
""fullscreenenter"",""1"",""4040""
""blur"",""6"",""27891""
""focus"",""6"",""33417""
","""event"",""trial"",""time""
""blur"",""6"",""27891""
","""event"",""trial"",""time""
""focus"",""6"",""33417""
","""event"",""trial"",""time""
""fullscreenenter"",""1"",""4040""
","
","","1421.5","","","","real_trial","2021-08-05 17:23:53.558","img/card_backs/set1/red.gif","1","-60","1","",""
"casino-fixation","72","434671","0.0-25.0-0.1","1079","false","img/card_backs/set1/green.gif","img/card_backs/set1/purple.gif","img/card_backs/set1/yellow.gif","img/card_backs/set1/red.gif","img/card_backs/set2/gray.gif","img/card_backs/set2/orange.gif","img/card_backs/set2/pink.gif","img/card_backs/set2/blue.gif","""event"",""trial"",""time""
""fullscreenenter"",""1"",""4040""
""blur"",""6"",""27891""
""focus"",""6"",""33417""
","""event"",""trial"",""time""
""blur"",""6"",""27891""
","""event"",""trial"",""time""
""focus"",""6"",""33417""
","""event"",""trial"",""time""
""fullscreenenter"",""1"",""4040""
","
","","null","","null","","fixation","2021-08-05 17:23:54.062","","","","","",""
"card-selection-trial","73","437403","0.0-25.0-1.1","1079","false","img/card_backs/set1/green.gif","img/card_backs/set1/purple.gif","img/card_backs/set1/yellow.gif","img/card_backs/set1/red.gif","img/card_backs/set2/gray.gif","img/card_backs/set2/orange.gif","img/card_backs/set2/pink.gif","img/card_backs/set2/blue.gif","""event"",""trial"",""time""
""fullscreenenter"",""1"",""4040""
""blur"",""6"",""27891""
""focus"",""6"",""33417""
","""event"",""trial"",""time""
""blur"",""6"",""27891""
","""event"",""trial"",""time""
""focus"",""6"",""33417""
","""event"",""trial"",""time""
""fullscreenenter"",""1"",""4040""
","
","","720.8000000119209","","","","real_trial","2021-08-05 17:23:56.795","img/card_backs/set1/red.gif","3","120","1","",""
"casino-fixation","74","437908","0.0-25.0-0.2","1079","false","img/card_backs/set1/green.gif","img/card_backs/set1/purple.gif","img/card_backs/set1/yellow.gif","img/card_backs/set1/red.gif","img/card_backs/set2/gray.gif","img/card_backs/set2/orange.gif","img/card_backs/set2/pink.gif","img/card_backs/set2/blue.gif","""event"",""trial"",""time""
""fullscreenenter"",""1"",""4040""
""blur"",""6"",""27891""
""focus"",""6"",""33417""
","""event"",""trial"",""time""
""blur"",""6"",""27891""
","""event"",""trial"",""time""
""focus"",""6"",""33417""
","""event"",""trial"",""time""
""fullscreenenter"",""1"",""4040""
","
","","null","","null","","fixation","2021-08-05 17:23:57.299","","","","","",""
"card-selection-trial","75","440958","0.0-25.0-1.2","1079","false","img/card_backs/set1/green.gif","img/card_backs/set1/purple.gif","img/card_backs/set1/yellow.gif","img/card_backs/set1/red.gif","img/card_backs/set2/gray.gif","img/card_backs/set2/orange.gif","img/card_backs/set2/pink.gif","img/card_backs/set2/blue.gif","""event"",""trial"",""time""
""fullscreenenter"",""1"",""4040""
""blur"",""6"",""27891""
""focus"",""6"",""33417""
","""event"",""trial"",""time""
""blur"",""6"",""27891""
","""event"",""trial"",""time""
""focus"",""6"",""33417""
","""event"",""trial"",""time""
""fullscreenenter"",""1"",""4040""
","
","","1038.5","","","","real_trial","2021-08-05 17:24:00.349","img/card_backs/set1/purple.gif","0","180","1","",""
"casino-fixation","76","441463","0.0-25.0-0.3","1079","false","img/card_backs/set1/green.gif","img/card_backs/set1/purple.gif","img/card_backs/set1/yellow.gif","img/card_backs/set1/red.gif","img/card_backs/set2/gray.gif","img/card_backs/set2/orange.gif","img/card_backs/set2/pink.gif","img/card_backs/set2/blue.gif","""event"",""trial"",""time""
""fullscreenenter"",""1"",""4040""
""blur"",""6"",""27891""
""focus"",""6"",""33417""
","""event"",""trial"",""time""
""blur"",""6"",""27891""
","""event"",""trial"",""time""
""focus"",""6"",""33417""
","""event"",""trial"",""time""
""fullscreenenter"",""1"",""4040""
","
","","null","","null","","fixation","2021-08-05 17:24:00.854","","","","","",""
"card-selection-trial","77","445184","0.0-25.0-1.3","1079","false","img/card_backs/set1/green.gif","img/card_backs/set1/purple.gif","img/card_backs/set1/yellow.gif","img/card_backs/set1/red.gif","img/card_backs/set2/gray.gif","img/card_backs/set2/orange.gif","img/card_backs/set2/pink.gif","img/card_backs/set2/blue.gif","""event"",""trial"",""time""
""fullscreenenter"",""1"",""4040""
""blur"",""6"",""27891""
""focus"",""6"",""33417""
","""event"",""trial"",""time""
""blur"",""6"",""27891""
","""event"",""trial"",""time""
""focus"",""6"",""33417""
","""event"",""trial"",""time""
""fullscreenenter"",""1"",""4040""
","
","","1707","","","","real_trial","2021-08-05 17:24:04.575","img/card_backs/set1/red.gif","1","-70","1","",""
"casino-fixation","78","445689","0.0-25.0-0.4","1079","false","img/card_backs/set1/green.gif","img/card_backs/set1/purple.gif","img/card_backs/set1/yellow.gif","img/card_backs/set1/red.gif","img/card_backs/set2/gray.gif","img/card_backs/set2/orange.gif","img/card_backs/set2/pink.gif","img/card_backs/set2/blue.gif","""event"",""trial"",""time""
""fullscreenenter"",""1"",""4040""
""blur"",""6"",""27891""
""focus"",""6"",""33417""
","""event"",""trial"",""time""
""blur"",""6"",""27891""
","""event"",""trial"",""time""
""focus"",""6"",""33417""
","""event"",""trial"",""time""
""fullscreenenter"",""1"",""4040""
","
","","null","","null","","fixation","2021-08-05 17:24:05.080","","","","","",""
"card-selection-trial","79","448545","0.0-25.0-1.4","1079","false","img/card_backs/set1/green.gif","img/card_backs/set1/purple.gif","img/card_backs/set1/yellow.gif","img/card_backs/set1/red.gif","img/card_backs/set2/gray.gif","img/card_backs/set2/orange.gif","img/card_backs/set2/pink.gif","img/card_backs/set2/blue.gif","""event"",""trial"",""time""
""fullscreenenter"",""1"",""4040""
""blur"",""6"",""27891""
""focus"",""6"",""33417""
","""event"",""trial"",""time""
""blur"",""6"",""27891""
","""event"",""trial"",""time""
""focus"",""6"",""33417""
","""event"",""trial"",""time""
""fullscreenenter"",""1"",""4040""
","
","","846.2000000178814","","","","real_trial","2021-08-05 17:24:07.936","img/card_backs/set1/purple.gif","3","200","1","",""
"casino-fixation","80","449050","0.0-25.0-0.5","1079","false","img/card_backs/set1/green.gif","img/card_backs/set1/purple.gif","img/card_backs/set1/yellow.gif","img/card_backs/set1/red.gif","img/card_backs/set2/gray.gif","img/card_backs/set2/orange.gif","img/card_backs/set2/pink.gif","img/card_backs/set2/blue.gif","""event"",""trial"",""time""
""fullscreenenter"",""1"",""4040""
""blur"",""6"",""27891""
""focus"",""6"",""33417""
","""event"",""trial"",""time""
""blur"",""6"",""27891""
","""event"",""trial"",""time""
""focus"",""6"",""33417""
","""event"",""trial"",""time""
""fullscreenenter"",""1"",""4040""
","
","","null","","null","","fixation","2021-08-05 17:24:08.441","","","","","",""
"card-selection-trial","81","452485","0.0-25.0-1.5","1079","false","img/card_backs/set1/green.gif","img/card_backs/set1/purple.gif","img/card_backs/set1/yellow.gif","img/card_backs/set1/red.gif","img/card_backs/set2/gray.gif","img/card_backs/set2/orange.gif","img/card_backs/set2/pink.gif","img/card_backs/set2/blue.gif","""event"",""trial"",""time""
""fullscreenenter"",""1"",""4040""
""blur"",""6"",""27891""
""focus"",""6"",""33417""
","""event"",""trial"",""time""
""blur"",""6"",""27891""
","""event"",""trial"",""time""
""focus"",""6"",""33417""
","""event"",""trial"",""time""
""fullscreenenter"",""1"",""4040""
","
","","1421.4000000059605","","","","real_trial","2021-08-05 17:24:11.876","img/card_backs/set1/green.gif","0","190","1","",""
"casino-fixation","82","452990","0.0-25.0-0.6","1079","false","img/card_backs/set1/green.gif","img/card_backs/set1/purple.gif","img/card_backs/set1/yellow.gif","img/card_backs/set1/red.gif","img/card_backs/set2/gray.gif","img/card_backs/set2/orange.gif","img/card_backs/set2/pink.gif","img/card_backs/set2/blue.gif","""event"",""trial"",""time""
""fullscreenenter"",""1"",""4040""
""blur"",""6"",""27891""
""focus"",""6"",""33417""
","""event"",""trial"",""time""
""blur"",""6"",""27891""
","""event"",""trial"",""time""
""focus"",""6"",""33417""
","""event"",""trial"",""time""
""fullscreenenter"",""1"",""4040""
","
","","null","","null","","fixation","2021-08-05 17:24:12.381","","","","","",""
"card-selection-trial","83","456426","0.0-25.0-1.6","1079","false","img/card_backs/set1/green.gif","img/card_backs/set1/purple.gif","img/card_backs/set1/yellow.gif","img/card_backs/set1/red.gif","img/card_backs/set2/gray.gif","img/card_backs/set2/orange.gif","img/card_backs/set2/pink.gif","img/card_backs/set2/blue.gif","""event"",""trial"",""time""
""fullscreenenter"",""1"",""4040""
""blur"",""6"",""27891""
""focus"",""6"",""33417""
","""event"",""trial"",""time""
""blur"",""6"",""27891""
","""event"",""trial"",""time""
""focus"",""6"",""33417""
","""event"",""trial"",""time""
""fullscreenenter"",""1"",""4040""
","
","","1423.9000000059605","","","","real_trial","2021-08-05 17:24:15.817","img/card_backs/set1/green.gif","3","-230","1","",""
"casino-fixation","84","456931","0.0-25.0-0.7","1079","false","img/card_backs/set1/green.gif","img/card_backs/set1/purple.gif","img/card_backs/set1/yellow.gif","img/card_backs/set1/red.gif","img/card_backs/set2/gray.gif","img/card_backs/set2/orange.gif","img/card_backs/set2/pink.gif","img/card_backs/set2/blue.gif","""event"",""trial"",""time""
""fullscreenenter"",""1"",""4040""
""blur"",""6"",""27891""
""focus"",""6"",""33417""
","""event"",""trial"",""time""
""blur"",""6"",""27891""
","""event"",""trial"",""time""
""focus"",""6"",""33417""
","""event"",""trial"",""time""
""fullscreenenter"",""1"",""4040""
","
","","null","","null","","fixation","2021-08-05 17:24:16.322","","","","","",""
"card-selection-trial","85","460112","0.0-25.0-1.7","1079","false","img/card_backs/set1/green.gif","img/card_backs/set1/purple.gif","img/card_backs/set1/yellow.gif","img/card_backs/set1/red.gif","img/card_backs/set2/gray.gif","img/card_backs/set2/orange.gif","img/card_backs/set2/pink.gif","img/card_backs/set2/blue.gif","""event"",""trial"",""time""
""fullscreenenter"",""1"",""4040""
""blur"",""6"",""27891""
""focus"",""6"",""33417""
","""event"",""trial"",""time""
""blur"",""6"",""27891""
","""event"",""trial"",""time""
""focus"",""6"",""33417""
","""event"",""trial"",""time""
""fullscreenenter"",""1"",""4040""
","
","","1169.800000011921","","","","real_trial","2021-08-05 17:24:19.503","img/card_backs/set1/purple.gif","1","-230","1","",""
"casino-fixation","86","460616","0.0-25.0-0.8","1079","false","img/card_backs/set1/green.gif","img/card_backs/set1/purple.gif","img/card_backs/set1/yellow.gif","img/card_backs/set1/red.gif","img/card_backs/set2/gray.gif","img/card_backs/set2/orange.gif","img/card_backs/set2/pink.gif","img/card_backs/set2/blue.gif","""event"",""trial"",""time""
""fullscreenenter"",""1"",""4040""
""blur"",""6"",""27891""
""focus"",""6"",""33417""
","""event"",""trial"",""time""
""blur"",""6"",""27891""
","""event"",""trial"",""time""
""focus"",""6"",""33417""
","""event"",""trial"",""time""
""fullscreenenter"",""1"",""4040""
","
","","null","","null","","fixation","2021-08-05 17:24:20.007","","","","","",""
"card-selection-trial","87","464082","0.0-25.0-1.8","1079","false","img/card_backs/set1/green.gif","img/card_backs/set1/purple.gif","img/card_backs/set1/yellow.gif","img/card_backs/set1/red.gif","img/card_backs/set2/gray.gif","img/card_backs/set2/orange.gif","img/card_backs/set2/pink.gif","img/card_backs/set2/blue.gif","""event"",""trial"",""time""
""fullscreenenter"",""1"",""4040""
""blur"",""6"",""27891""
""focus"",""6"",""33417""
","""event"",""trial"",""time""
""blur"",""6"",""27891""
","""event"",""trial"",""time""
""focus"",""6"",""33417""
","""event"",""trial"",""time""
""fullscreenenter"",""1"",""4040""
","
","","1452.4000000059605","","","","real_trial","2021-08-05 17:24:23.473","img/card_backs/set1/purple.gif","0","190","1","",""
"casino-fixation","88","464586","0.0-25.0-0.9","1079","false","img/card_backs/set1/green.gif","img/card_backs/set1/purple.gif","img/card_backs/set1/yellow.gif","img/card_backs/set1/red.gif","img/card_backs/set2/gray.gif","img/card_backs/set2/orange.gif","img/card_backs/set2/pink.gif","img/card_backs/set2/blue.gif","""event"",""trial"",""time""
""fullscreenenter"",""1"",""4040""
""blur"",""6"",""27891""
""focus"",""6"",""33417""
","""event"",""trial"",""time""
""blur"",""6"",""27891""
","""event"",""trial"",""time""
""focus"",""6"",""33417""
","""event"",""trial"",""time""
""fullscreenenter"",""1"",""4040""
","
","","null","","null","","fixation","2021-08-05 17:24:23.977","","","","","",""
"card-selection-trial","89","467532","0.0-25.0-1.9","1079","false","img/card_backs/set1/green.gif","img/card_backs/set1/purple.gif","img/card_backs/set1/yellow.gif","img/card_backs/set1/red.gif","img/card_backs/set2/gray.gif","img/card_backs/set2/orange.gif","img/card_backs/set2/pink.gif","img/card_backs/set2/blue.gif","""event"",""trial"",""time""
""fullscreenenter"",""1"",""4040""
""blur"",""6"",""27891""
""focus"",""6"",""33417""
","""event"",""trial"",""time""
""blur"",""6"",""27891""
","""event"",""trial"",""time""
""focus"",""6"",""33417""
","""event"",""trial"",""time""
""fullscreenenter"",""1"",""4040""
","
","","933.7999999821186","","","","real_trial","2021-08-05 17:24:26.924","img/card_backs/set1/red.gif","2","-70","1","",""
"casino-fixation","90","468037","0.0-25.0-0.10","1079","false","img/card_backs/set1/green.gif","img/card_backs/set1/purple.gif","img/card_backs/set1/yellow.gif","img/card_backs/set1/red.gif","img/card_backs/set2/gray.gif","img/card_backs/set2/orange.gif","img/card_backs/set2/pink.gif","img/card_backs/set2/blue.gif","""event"",""trial"",""time""
""fullscreenenter"",""1"",""4040""
""blur"",""6"",""27891""
""focus"",""6"",""33417""
","""event"",""trial"",""time""
""blur"",""6"",""27891""
","""event"",""trial"",""time""
""focus"",""6"",""33417""
","""event"",""trial"",""time""
""fullscreenenter"",""1"",""4040""
","
","","null","","null","","fixation","2021-08-05 17:24:27.428","","","","","",""
"card-selection-trial","91","472113","0.0-25.0-1.10","1079","false","img/card_backs/set1/green.gif","img/card_backs/set1/purple.gif","img/card_backs/set1/yellow.gif","img/card_backs/set1/red.gif","img/card_backs/set2/gray.gif","img/card_backs/set2/orange.gif","img/card_backs/set2/pink.gif","img/card_backs/set2/blue.gif","""event"",""trial"",""time""
""fullscreenenter"",""1"",""4040""
""blur"",""6"",""27891""
""focus"",""6"",""33417""
","""event"",""trial"",""time""
""blur"",""6"",""27891""
","""event"",""trial"",""time""
""focus"",""6"",""33417""
","""event"",""trial"",""time""
""fullscreenenter"",""1"",""4040""
","
","","2063.800000011921","","","","real_trial","2021-08-05 17:24:31.507","img/card_backs/set1/purple.gif","3","180","1","",""
"casino-fixation","92","472622","0.0-25.0-0.11","1079","false","img/card_backs/set1/green.gif","img/card_backs/set1/purple.gif","img/card_backs/set1/yellow.gif","img/card_backs/set1/red.gif","img/card_backs/set2/gray.gif","img/card_backs/set2/orange.gif","img/card_backs/set2/pink.gif","img/card_backs/set2/blue.gif","""event"",""trial"",""time""
""fullscreenenter"",""1"",""4040""
""blur"",""6"",""27891""
""focus"",""6"",""33417""
","""event"",""trial"",""time""
""blur"",""6"",""27891""
","""event"",""trial"",""time""
""focus"",""6"",""33417""
","""event"",""trial"",""time""
""fullscreenenter"",""1"",""4040""
","
","","null","","null","","fixation","2021-08-05 17:24:32.013","","","","","",""
"card-selection-trial","93","476353","0.0-25.0-1.11","1079","false","img/card_backs/set1/green.gif","img/card_backs/set1/purple.gif","img/card_backs/set1/yellow.gif","img/card_backs/set1/red.gif","img/card_backs/set2/gray.gif","img/card_backs/set2/orange.gif","img/card_backs/set2/pink.gif","img/card_backs/set2/blue.gif","""event"",""trial"",""time""
""fullscreenenter"",""1"",""4040""
""blur"",""6"",""27891""
""focus"",""6"",""33417""
","""event"",""trial"",""time""
""blur"",""6"",""27891""
","""event"",""trial"",""time""
""focus"",""6"",""33417""
","""event"",""trial"",""time""
""fullscreenenter"",""1"",""4040""
","
","","1719.7000000178814","","","","real_trial","2021-08-05 17:24:35.744","img/card_backs/set1/yellow.gif","1","-50","1","",""
"casino-fixation","94","476859","0.0-25.0-0.12","1079","false","img/card_backs/set1/green.gif","img/card_backs/set1/purple.gif","img/card_backs/set1/yellow.gif","img/card_backs/set1/red.gif","img/card_backs/set2/gray.gif","img/card_backs/set2/orange.gif","img/card_backs/set2/pink.gif","img/card_backs/set2/blue.gif","""event"",""trial"",""time""
""fullscreenenter"",""1"",""4040""
""blur"",""6"",""27891""
""focus"",""6"",""33417""
","""event"",""trial"",""time""
""blur"",""6"",""27891""
","""event"",""trial"",""time""
""focus"",""6"",""33417""
","""event"",""trial"",""time""
""fullscreenenter"",""1"",""4040""
","
","","null","","null","","fixation","2021-08-05 17:24:36.250","","","","","",""
"card-selection-trial","95","479731","0.0-25.0-1.12","1079","false","img/card_backs/set1/green.gif","img/card_backs/set1/purple.gif","img/card_backs/set1/yellow.gif","img/card_backs/set1/red.gif","img/card_backs/set2/gray.gif","img/card_backs/set2/orange.gif","img/card_backs/set2/pink.gif","img/card_backs/set2/blue.gif","""event"",""trial"",""time""
""fullscreenenter"",""1"",""4040""
""blur"",""6"",""27891""
""focus"",""6"",""33417""
","""event"",""trial"",""time""
""blur"",""6"",""27891""
","""event"",""trial"",""time""
""focus"",""6"",""33417""
","""event"",""trial"",""time""
""fullscreenenter"",""1"",""4040""
","
","","858.0999999940395","","","","real_trial","2021-08-05 17:24:39.122","img/card_backs/set1/red.gif","0","110","1","",""
"casino-fixation","96","480235","0.0-25.0-0.13","1079","false","img/card_backs/set1/green.gif","img/card_backs/set1/purple.gif","img/card_backs/set1/yellow.gif","img/card_backs/set1/red.gif","img/card_backs/set2/gray.gif","img/card_backs/set2/orange.gif","img/card_backs/set2/pink.gif","img/card_backs/set2/blue.gif","""event"",""trial"",""time""
""fullscreenenter"",""1"",""4040""
""blur"",""6"",""27891""
""focus"",""6"",""33417""
","""event"",""trial"",""time""
""blur"",""6"",""27891""
","""event"",""trial"",""time""
""focus"",""6"",""33417""
","""event"",""trial"",""time""
""fullscreenenter"",""1"",""4040""
","
","","null","","null","","fixation","2021-08-05 17:24:39.627","","","","","",""
"card-selection-trial","97","483356","0.0-25.0-1.13","1079","false","img/card_backs/set1/green.gif","img/card_backs/set1/purple.gif","img/card_backs/set1/yellow.gif","img/card_backs/set1/red.gif","img/card_backs/set2/gray.gif","img/card_backs/set2/orange.gif","img/card_backs/set2/pink.gif","img/card_backs/set2/blue.gif","""event"",""trial"",""time""
""fullscreenenter"",""1"",""4040""
""blur"",""6"",""27891""
""focus"",""6"",""33417""
","""event"",""trial"",""time""
""blur"",""6"",""27891""
","""event"",""trial"",""time""
""focus"",""6"",""33417""
","""event"",""trial"",""time""
""fullscreenenter"",""1"",""4040""
","
","","1108","","","","real_trial","2021-08-05 17:24:42.747","img/card_backs/set1/purple.gif","3","180","1","",""
"casino-fixation","98","483866","0.0-25.0-0.14","1079","false","img/card_backs/set1/green.gif","img/card_backs/set1/purple.gif","img/card_backs/set1/yellow.gif","img/card_backs/set1/red.gif","img/card_backs/set2/gray.gif","img/card_backs/set2/orange.gif","img/card_backs/set2/pink.gif","img/card_backs/set2/blue.gif","""event"",""trial"",""time""
""fullscreenenter"",""1"",""4040""
""blur"",""6"",""27891""
""focus"",""6"",""33417""
","""event"",""trial"",""time""
""blur"",""6"",""27891""
","""event"",""trial"",""time""
""focus"",""6"",""33417""
","""event"",""trial"",""time""
""fullscreenenter"",""1"",""4040""
","
","","null","","null","","fixation","2021-08-05 17:24:43.257","","","","","",""
"card-selection-trial","99","486671","0.0-25.0-1.14","1079","false","img/card_backs/set1/green.gif","img/card_backs/set1/purple.gif","img/card_backs/set1/yellow.gif","img/card_backs/set1/red.gif","img/card_backs/set2/gray.gif","img/card_backs/set2/orange.gif","img/card_backs/set2/pink.gif","img/card_backs/set2/blue.gif","""event"",""trial"",""time""
""fullscreenenter"",""1"",""4040""
""blur"",""6"",""27891""
""focus"",""6"",""33417""
","""event"",""trial"",""time""
""blur"",""6"",""27891""
","""event"",""trial"",""time""
""focus"",""6"",""33417""
","""event"",""trial"",""time""
""fullscreenenter"",""1"",""4040""
","
","","793.7999999821186","","","","real_trial","2021-08-05 17:24:46.062","img/card_backs/set1/green.gif","2","-250","1","",""
"casino-fixation","100","487176","0.0-25.0-0.15","1079","false","img/card_backs/set1/green.gif","img/card_backs/set1/purple.gif","img/card_backs/set1/yellow.gif","img/card_backs/set1/red.gif","img/card_backs/set2/gray.gif","img/card_backs/set2/orange.gif","img/card_backs/set2/pink.gif","img/card_backs/set2/blue.gif","""event"",""trial"",""time""
""fullscreenenter"",""1"",""4040""
""blur"",""6"",""27891""
""focus"",""6"",""33417""
","""event"",""trial"",""time""
""blur"",""6"",""27891""
","""event"",""trial"",""time""
""focus"",""6"",""33417""
","""event"",""trial"",""time""
""fullscreenenter"",""1"",""4040""
","
","","null","","null","","fixation","2021-08-05 17:24:46.567","","","","","",""
"card-selection-trial","101","489951","0.0-25.0-1.15","1079","false","img/card_backs/set1/green.gif","img/card_backs/set1/purple.gif","img/card_backs/set1/yellow.gif","img/card_backs/set1/red.gif","img/card_backs/set2/gray.gif","img/card_backs/set2/orange.gif","img/card_backs/set2/pink.gif","img/card_backs/set2/blue.gif","""event"",""trial"",""time""
""fullscreenenter"",""1"",""4040""
""blur"",""6"",""27891""
""focus"",""6"",""33417""
","""event"",""trial"",""time""
""blur"",""6"",""27891""
","""event"",""trial"",""time""
""focus"",""6"",""33417""
","""event"",""trial"",""time""
""fullscreenenter"",""1"",""4040""
","
","","763.4000000059605","","","","real_trial","2021-08-05 17:24:49.343","img/card_backs/set1/red.gif","1","-70","1","",""
"casino-fixation","102","490459","0.0-25.0-0.16","1079","false","img/card_backs/set1/green.gif","img/card_backs/set1/purple.gif","img/card_backs/set1/yellow.gif","img/card_backs/set1/red.gif","img/card_backs/set2/gray.gif","img/card_backs/set2/orange.gif","img/card_backs/set2/pink.gif","img/card_backs/set2/blue.gif","""event"",""trial"",""time""
""fullscreenenter"",""1"",""4040""
""blur"",""6"",""27891""
""focus"",""6"",""33417""
","""event"",""trial"",""time""
""blur"",""6"",""27891""
","""event"",""trial"",""time""
""focus"",""6"",""33417""
","""event"",""trial"",""time""
""fullscreenenter"",""1"",""4040""
","
","","null","","null","","fixation","2021-08-05 17:24:49.850","","","","","",""
"card-selection-trial","103","492995","0.0-25.0-1.16","1079","false","img/card_backs/set1/green.gif","img/card_backs/set1/purple.gif","img/card_backs/set1/yellow.gif","img/card_backs/set1/red.gif","img/card_backs/set2/gray.gif","img/card_backs/set2/orange.gif","img/card_backs/set2/pink.gif","img/card_backs/set2/blue.gif","""event"",""trial"",""time""
""fullscreenenter"",""1"",""4040""
""blur"",""6"",""27891""
""focus"",""6"",""33417""
","""event"",""trial"",""time""
""blur"",""6"",""27891""
","""event"",""trial"",""time""
""focus"",""6"",""33417""
","""event"",""trial"",""time""
""fullscreenenter"",""1"",""4040""
","
","","527.0999999940395","","","","real_trial","2021-08-05 17:24:52.386","img/card_backs/set1/red.gif","0","-50","1","",""
"casino-fixation","104","493500","0.0-25.0-0.17","1079","false","img/card_backs/set1/green.gif","img/card_backs/set1/purple.gif","img/card_backs/set1/yellow.gif","img/card_backs/set1/red.gif","img/card_backs/set2/gray.gif","img/card_backs/set2/orange.gif","img/card_backs/set2/pink.gif","img/card_backs/set2/blue.gif","""event"",""trial"",""time""
""fullscreenenter"",""1"",""4040""
""blur"",""6"",""27891""
""focus"",""6"",""33417""
","""event"",""trial"",""time""
""blur"",""6"",""27891""
","""event"",""trial"",""time""
""focus"",""6"",""33417""
","""event"",""trial"",""time""
""fullscreenenter"",""1"",""4040""
","
","","null","","null","","fixation","2021-08-05 17:24:52.891","","","","","",""
"card-selection-trial","105","495945","0.0-25.0-1.17","1079","false","img/card_backs/set1/green.gif","img/card_backs/set1/purple.gif","img/card_backs/set1/yellow.gif","img/card_backs/set1/red.gif","img/card_backs/set2/gray.gif","img/card_backs/set2/orange.gif","img/card_backs/set2/pink.gif","img/card_backs/set2/blue.gif","""event"",""trial"",""time""
""fullscreenenter"",""1"",""4040""
""blur"",""6"",""27891""
""focus"",""6"",""33417""
","""event"",""trial"",""time""
""blur"",""6"",""27891""
","""event"",""trial"",""time""
""focus"",""6"",""33417""
","""event"",""trial"",""time""
""fullscreenenter"",""1"",""4040""
","
","","435.5","","","","real_trial","2021-08-05 17:24:55.336","img/card_backs/set1/yellow.gif","3","-70","1","",""
"casino-fixation","106","496450","0.0-25.0-0.18","1079","false","img/card_backs/set1/green.gif","img/card_backs/set1/purple.gif","img/card_backs/set1/yellow.gif","img/card_backs/set1/red.gif","img/card_backs/set2/gray.gif","img/card_backs/set2/orange.gif","img/card_backs/set2/pink.gif","img/card_backs/set2/blue.gif","""event"",""trial"",""time""
""fullscreenenter"",""1"",""4040""
""blur"",""6"",""27891""
""focus"",""6"",""33417""
","""event"",""trial"",""time""
""blur"",""6"",""27891""
","""event"",""trial"",""time""
""focus"",""6"",""33417""
","""event"",""trial"",""time""
""fullscreenenter"",""1"",""4040""
","
","","null","","null","","fixation","2021-08-05 17:24:55.841","","","","","",""
"card-selection-trial","107","500576","0.0-25.0-1.18","1079","false","img/card_backs/set1/green.gif","img/card_backs/set1/purple.gif","img/card_backs/set1/yellow.gif","img/card_backs/set1/red.gif","img/card_backs/set2/gray.gif","img/card_backs/set2/orange.gif","img/card_backs/set2/pink.gif","img/card_backs/set2/blue.gif","""event"",""trial"",""time""
""fullscreenenter"",""1"",""4040""
""blur"",""6"",""27891""
""focus"",""6"",""33417""
","""event"",""trial"",""time""
""blur"",""6"",""27891""
","""event"",""trial"",""time""
""focus"",""6"",""33417""
","""event"",""trial"",""time""
""fullscreenenter"",""1"",""4040""
","
","","2116.2999999821186","","","","real_trial","2021-08-05 17:24:59.967","img/card_backs/set1/purple.gif","3","200","1","",""
"casino-fixation","108","501080","0.0-25.0-0.19","1079","false","img/card_backs/set1/green.gif","img/card_backs/set1/purple.gif","img/card_backs/set1/yellow.gif","img/card_backs/set1/red.gif","img/card_backs/set2/gray.gif","img/card_backs/set2/orange.gif","img/card_backs/set2/pink.gif","img/card_backs/set2/blue.gif","""event"",""trial"",""time""
""fullscreenenter"",""1"",""4040""
""blur"",""6"",""27891""
""focus"",""6"",""33417""
","""event"",""trial"",""time""
""blur"",""6"",""27891""
","""event"",""trial"",""time""
""focus"",""6"",""33417""
","""event"",""trial"",""time""
""fullscreenenter"",""1"",""4040""
","
","","null","","null","","fixation","2021-08-05 17:25:00.471","","","","","",""
"card-selection-trial","109","509851","0.0-25.0-1.19","1079","false","img/card_backs/set1/green.gif","img/card_backs/set1/purple.gif","img/card_backs/set1/yellow.gif","img/card_backs/set1/red.gif","img/card_backs/set2/gray.gif","img/card_backs/set2/orange.gif","img/card_backs/set2/pink.gif","img/card_backs/set2/blue.gif","""event"",""trial"",""time""
""fullscreenenter"",""1"",""4040""
""blur"",""6"",""27891""
""focus"",""6"",""33417""
","""event"",""trial"",""time""
""blur"",""6"",""27891""
","""event"",""trial"",""time""
""focus"",""6"",""33417""
","""event"",""trial"",""time""
""fullscreenenter"",""1"",""4040""
","
","","6758","","","","real_trial","2021-08-05 17:25:09.242","img/card_backs/set1/red.gif","1","120","1","",""
"casino-fixation","110","510356","0.0-25.0-0.20","1079","false","img/card_backs/set1/green.gif","img/card_backs/set1/purple.gif","img/card_backs/set1/yellow.gif","img/card_backs/set1/red.gif","img/card_backs/set2/gray.gif","img/card_backs/set2/orange.gif","img/card_backs/set2/pink.gif","img/card_backs/set2/blue.gif","""event"",""trial"",""time""
""fullscreenenter"",""1"",""4040""
""blur"",""6"",""27891""
""focus"",""6"",""33417""
","""event"",""trial"",""time""
""blur"",""6"",""27891""
","""event"",""trial"",""time""
""focus"",""6"",""33417""
","""event"",""trial"",""time""
""fullscreenenter"",""1"",""4040""
","
","","null","","null","","fixation","2021-08-05 17:25:09.747","","","","","",""
"card-selection-trial","111","513922","0.0-25.0-1.20","1079","false","img/card_backs/set1/green.gif","img/card_backs/set1/purple.gif","img/card_backs/set1/yellow.gif","img/card_backs/set1/red.gif","img/card_backs/set2/gray.gif","img/card_backs/set2/orange.gif","img/card_backs/set2/pink.gif","img/card_backs/set2/blue.gif","""event"",""trial"",""time""
""fullscreenenter"",""1"",""4040""
""blur"",""6"",""27891""
""focus"",""6"",""33417""
","""event"",""trial"",""time""
""blur"",""6"",""27891""
","""event"",""trial"",""time""
""focus"",""6"",""33417""
","""event"",""trial"",""time""
""fullscreenenter"",""1"",""4040""
","
","","1550","","","","real_trial","2021-08-05 17:25:13.314","img/card_backs/set1/red.gif","0","110","1","",""
"casino-fixation","112","514427","0.0-25.0-0.21","1079","false","img/card_backs/set1/green.gif","img/card_backs/set1/purple.gif","img/card_backs/set1/yellow.gif","img/card_backs/set1/red.gif","img/card_backs/set2/gray.gif","img/card_backs/set2/orange.gif","img/card_backs/set2/pink.gif","img/card_backs/set2/blue.gif","""event"",""trial"",""time""
""fullscreenenter"",""1"",""4040""
""blur"",""6"",""27891""
""focus"",""6"",""33417""
","""event"",""trial"",""time""
""blur"",""6"",""27891""
","""event"",""trial"",""time""
""focus"",""6"",""33417""
","""event"",""trial"",""time""
""fullscreenenter"",""1"",""4040""
","
","","null","","null","","fixation","2021-08-05 17:25:13.818","","","","","",""
"card-selection-trial","113","517503","0.0-25.0-1.21","1079","false","img/card_backs/set1/green.gif","img/card_backs/set1/purple.gif","img/card_backs/set1/yellow.gif","img/card_backs/set1/red.gif","img/card_backs/set2/gray.gif","img/card_backs/set2/orange.gif","img/card_backs/set2/pink.gif","img/card_backs/set2/blue.gif","""event"",""trial"",""time""
""fullscreenenter"",""1"",""4040""
""blur"",""6"",""27891""
""focus"",""6"",""33417""
","""event"",""trial"",""time""
""blur"",""6"",""27891""
","""event"",""trial"",""time""
""focus"",""6"",""33417""
","""event"",""trial"",""time""
""fullscreenenter"",""1"",""4040""
","
","","1062.300000011921","","","","real_trial","2021-08-05 17:25:16.894","img/card_backs/set1/purple.gif","3","190","1","",""
"casino-fixation","114","518007","0.0-25.0-0.22","1079","false","img/card_backs/set1/green.gif","img/card_backs/set1/purple.gif","img/card_backs/set1/yellow.gif","img/card_backs/set1/red.gif","img/card_backs/set2/gray.gif","img/card_backs/set2/orange.gif","img/card_backs/set2/pink.gif","img/card_backs/set2/blue.gif","""event"",""trial"",""time""
""fullscreenenter"",""1"",""4040""
""blur"",""6"",""27891""
""focus"",""6"",""33417""
","""event"",""trial"",""time""
""blur"",""6"",""27891""
","""event"",""trial"",""time""
""focus"",""6"",""33417""
","""event"",""trial"",""time""
""fullscreenenter"",""1"",""4040""
","
","","null","","null","","fixation","2021-08-05 17:25:17.398","","","","","",""
"card-selection-trial","115","522063","0.0-25.0-1.22","1079","false","img/card_backs/set1/green.gif","img/card_backs/set1/purple.gif","img/card_backs/set1/yellow.gif","img/card_backs/set1/red.gif","img/card_backs/set2/gray.gif","img/card_backs/set2/orange.gif","img/card_backs/set2/pink.gif","img/card_backs/set2/blue.gif","""event"",""trial"",""time""
""fullscreenenter"",""1"",""4040""
""blur"",""6"",""27891""
""focus"",""6"",""33417""
","""event"",""trial"",""time""
""blur"",""6"",""27891""
","""event"",""trial"",""time""
""focus"",""6"",""33417""
","""event"",""trial"",""time""
""fullscreenenter"",""1"",""4040""
","
","","2044","","","","real_trial","2021-08-05 17:25:21.455","img/card_backs/set1/yellow.gif","2","-70","1","",""
"casino-fixation","116","522568","0.0-25.0-0.23","1079","false","img/card_backs/set1/green.gif","img/card_backs/set1/purple.gif","img/card_backs/set1/yellow.gif","img/card_backs/set1/red.gif","img/card_backs/set2/gray.gif","img/card_backs/set2/orange.gif","img/card_backs/set2/pink.gif","img/card_backs/set2/blue.gif","""event"",""trial"",""time""
""fullscreenenter"",""1"",""4040""
""blur"",""6"",""27891""
""focus"",""6"",""33417""
","""event"",""trial"",""time""
""blur"",""6"",""27891""
","""event"",""trial"",""time""
""focus"",""6"",""33417""
","""event"",""trial"",""time""
""fullscreenenter"",""1"",""4040""
","
","","null","","null","","fixation","2021-08-05 17:25:21.959","","","","","",""
"card-selection-trial","117","527304","0.0-25.0-1.23","1079","false","img/card_backs/set1/green.gif","img/card_backs/set1/purple.gif","img/card_backs/set1/yellow.gif","img/card_backs/set1/red.gif","img/card_backs/set2/gray.gif","img/card_backs/set2/orange.gif","img/card_backs/set2/pink.gif","img/card_backs/set2/blue.gif","""event"",""trial"",""time""
""fullscreenenter"",""1"",""4040""
""blur"",""6"",""27891""
""focus"",""6"",""33417""
","""event"",""trial"",""time""
""blur"",""6"",""27891""
","""event"",""trial"",""time""
""focus"",""6"",""33417""
","""event"",""trial"",""time""
""fullscreenenter"",""1"",""4040""
","
","","2714.2999999821186","","","","real_trial","2021-08-05 17:25:26.695","img/card_backs/set1/red.gif","1","-50","1","",""
"casino-fixation","118","527809","0.0-25.0-0.24","1079","false","img/card_backs/set1/green.gif","img/card_backs/set1/purple.gif","img/card_backs/set1/yellow.gif","img/card_backs/set1/red.gif","img/card_backs/set2/gray.gif","img/card_backs/set2/orange.gif","img/card_backs/set2/pink.gif","img/card_backs/set2/blue.gif","""event"",""trial"",""time""
""fullscreenenter"",""1"",""4040""
""blur"",""6"",""27891""
""focus"",""6"",""33417""
","""event"",""trial"",""time""
""blur"",""6"",""27891""
","""event"",""trial"",""time""
""focus"",""6"",""33417""
","""event"",""trial"",""time""
""fullscreenenter"",""1"",""4040""
","
","","null","","null","","fixation","2021-08-05 17:25:27.200","","","","","",""
"card-selection-trial","119","530475","0.0-25.0-1.24","1079","false","img/card_backs/set1/green.gif","img/card_backs/set1/purple.gif","img/card_backs/set1/yellow.gif","img/card_backs/set1/red.gif","img/card_backs/set2/gray.gif","img/card_backs/set2/orange.gif","img/card_backs/set2/pink.gif","img/card_backs/set2/blue.gif","""event"",""trial"",""time""
""fullscreenenter"",""1"",""4040""
""blur"",""6"",""27891""
""focus"",""6"",""33417""
","""event"",""trial"",""time""
""blur"",""6"",""27891""
","""event"",""trial"",""time""
""focus"",""6"",""33417""
","""event"",""trial"",""time""
""fullscreenenter"",""1"",""4040""
","
","","652.5999999940395","","","","real_trial","2021-08-05 17:25:29.866","img/card_backs/set1/green.gif","3","-230","1","",""
"casino-fixation","120","530979","0.0-25.0-0.25","1079","false","img/card_backs/set1/green.gif","img/card_backs/set1/purple.gif","img/card_backs/set1/yellow.gif","img/card_backs/set1/red.gif","img/card_backs/set2/gray.gif","img/card_backs/set2/orange.gif","img/card_backs/set2/pink.gif","img/card_backs/set2/blue.gif","""event"",""trial"",""time""
""fullscreenenter"",""1"",""4040""
""blur"",""6"",""27891""
""focus"",""6"",""33417""
","""event"",""trial"",""time""
""blur"",""6"",""27891""
","""event"",""trial"",""time""
""focus"",""6"",""33417""
","""event"",""trial"",""time""
""fullscreenenter"",""1"",""4040""
","
","","null","","null","","fixation","2021-08-05 17:25:30.371","","","","","",""
"card-selection-trial","121","533600","0.0-25.0-1.25","1079","false","img/card_backs/set1/green.gif","img/card_backs/set1/purple.gif","img/card_backs/set1/yellow.gif","img/card_backs/set1/red.gif","img/card_backs/set2/gray.gif","img/card_backs/set2/orange.gif","img/card_backs/set2/pink.gif","img/card_backs/set2/blue.gif","""event"",""trial"",""time""
""fullscreenenter"",""1"",""4040""
""blur"",""6"",""27891""
""focus"",""6"",""33417""
","""event"",""trial"",""time""
""blur"",""6"",""27891""
","""event"",""trial"",""time""
""focus"",""6"",""33417""
","""event"",""trial"",""time""
""fullscreenenter"",""1"",""4040""
","
","","609.8000000119209","","","","real_trial","2021-08-05 17:25:32.991","img/card_backs/set1/green.gif","0","-250","1","",""
"casino-fixation","122","534104","0.0-25.0-0.26","1079","false","img/card_backs/set1/green.gif","img/card_backs/set1/purple.gif","img/card_backs/set1/yellow.gif","img/card_backs/set1/red.gif","img/card_backs/set2/gray.gif","img/card_backs/set2/orange.gif","img/card_backs/set2/pink.gif","img/card_backs/set2/blue.gif","""event"",""trial"",""time""
""fullscreenenter"",""1"",""4040""
""blur"",""6"",""27891""
""focus"",""6"",""33417""
","""event"",""trial"",""time""
""blur"",""6"",""27891""
","""event"",""trial"",""time""
""focus"",""6"",""33417""
","""event"",""trial"",""time""
""fullscreenenter"",""1"",""4040""
","
","","null","","null","","fixation","2021-08-05 17:25:33.496","","","","","",""
"card-selection-trial","123","537753","0.0-25.0-1.26","1079","false","img/card_backs/set1/green.gif","img/card_backs/set1/purple.gif","img/card_backs/set1/yellow.gif","img/card_backs/set1/red.gif","img/card_backs/set2/gray.gif","img/card_backs/set2/orange.gif","img/card_backs/set2/pink.gif","img/card_backs/set2/blue.gif","""event"",""trial"",""time""
""fullscreenenter"",""1"",""4040""
""blur"",""6"",""27891""
""focus"",""6"",""33417""
","""event"",""trial"",""time""
""blur"",""6"",""27891""
","""event"",""trial"",""time""
""focus"",""6"",""33417""
","""event"",""trial"",""time""
""fullscreenenter"",""1"",""4040""
","
","","1637.0999999940395","","","","real_trial","2021-08-05 17:25:37.144","img/card_backs/set1/green.gif","2","-250","1","",""
"casino-fixation","124","538257","0.0-25.0-0.27","1079","false","img/card_backs/set1/green.gif","img/card_backs/set1/purple.gif","img/card_backs/set1/yellow.gif","img/card_backs/set1/red.gif","img/card_backs/set2/gray.gif","img/card_backs/set2/orange.gif","img/card_backs/set2/pink.gif","img/card_backs/set2/blue.gif","""event"",""trial"",""time""
""fullscreenenter"",""1"",""4040""
""blur"",""6"",""27891""
""focus"",""6"",""33417""
","""event"",""trial"",""time""
""blur"",""6"",""27891""
","""event"",""trial"",""time""
""focus"",""6"",""33417""
","""event"",""trial"",""time""
""fullscreenenter"",""1"",""4040""
","
","","null","","null","","fixation","2021-08-05 17:25:37.648","","","","","",""
"card-selection-trial","125","540863","0.0-25.0-1.27","1079","false","img/card_backs/set1/green.gif","img/card_backs/set1/purple.gif","img/card_backs/set1/yellow.gif","img/card_backs/set1/red.gif","img/card_backs/set2/gray.gif","img/card_backs/set2/orange.gif","img/card_backs/set2/pink.gif","img/card_backs/set2/blue.gif","""event"",""trial"",""time""
""fullscreenenter"",""1"",""4040""
""blur"",""6"",""27891""
""focus"",""6"",""33417""
","""event"",""trial"",""time""
""blur"",""6"",""27891""
","""event"",""trial"",""time""
""focus"",""6"",""33417""
","""event"",""trial"",""time""
""fullscreenenter"",""1"",""4040""
","
","","596.5999999940395","","","","real_trial","2021-08-05 17:25:40.254","img/card_backs/set1/green.gif","1","200","1","",""
"casino-fixation","126","541368","0.0-25.0-0.28","1079","false","img/card_backs/set1/green.gif","img/card_backs/set1/purple.gif","img/card_backs/set1/yellow.gif","img/card_backs/set1/red.gif","img/card_backs/set2/gray.gif","img/card_backs/set2/orange.gif","img/card_backs/set2/pink.gif","img/card_backs/set2/blue.gif","""event"",""trial"",""time""
""fullscreenenter"",""1"",""4040""
""blur"",""6"",""27891""
""focus"",""6"",""33417""
","""event"",""trial"",""time""
""blur"",""6"",""27891""
","""event"",""trial"",""time""
""focus"",""6"",""33417""
","""event"",""trial"",""time""
""fullscreenenter"",""1"",""4040""
","
","","null","","null","","fixation","2021-08-05 17:25:40.759","","","","","",""
"card-selection-trial","127","544548","0.0-25.0-1.28","1079","false","img/card_backs/set1/green.gif","img/card_backs/set1/purple.gif","img/card_backs/set1/yellow.gif","img/card_backs/set1/red.gif","img/card_backs/set2/gray.gif","img/card_backs/set2/orange.gif","img/card_backs/set2/pink.gif","img/card_backs/set2/blue.gif","""event"",""trial"",""time""
""fullscreenenter"",""1"",""4040""
""blur"",""6"",""27891""
""focus"",""6"",""33417""
","""event"",""trial"",""time""
""blur"",""6"",""27891""
","""event"",""trial"",""time""
""focus"",""6"",""33417""
","""event"",""trial"",""time""
""fullscreenenter"",""1"",""4040""
","
","","1166.800000011921","","","","real_trial","2021-08-05 17:25:43.939","img/card_backs/set1/green.gif","3","-250","1","",""
"casino-fixation","128","545054","0.0-25.0-0.29","1079","false","img/card_backs/set1/green.gif","img/card_backs/set1/purple.gif","img/card_backs/set1/yellow.gif","img/card_backs/set1/red.gif","img/card_backs/set2/gray.gif","img/card_backs/set2/orange.gif","img/card_backs/set2/pink.gif","img/card_backs/set2/blue.gif","""event"",""trial"",""time""
""fullscreenenter"",""1"",""4040""
""blur"",""6"",""27891""
""focus"",""6"",""33417""
","""event"",""trial"",""time""
""blur"",""6"",""27891""
","""event"",""trial"",""time""
""focus"",""6"",""33417""
","""event"",""trial"",""time""
""fullscreenenter"",""1"",""4040""
","
","","null","","null","","fixation","2021-08-05 17:25:44.445","","","","","",""
"card-selection-trial","129","547959","0.0-25.0-1.29","1079","false","img/card_backs/set1/green.gif","img/card_backs/set1/purple.gif","img/card_backs/set1/yellow.gif","img/card_backs/set1/red.gif","img/card_backs/set2/gray.gif","img/card_backs/set2/orange.gif","img/card_backs/set2/pink.gif","img/card_backs/set2/blue.gif","""event"",""trial"",""time""
""fullscreenenter"",""1"",""4040""
""blur"",""6"",""27891""
""focus"",""6"",""33417""
","""event"",""trial"",""time""
""blur"",""6"",""27891""
","""event"",""trial"",""time""
""focus"",""6"",""33417""
","""event"",""trial"",""time""
""fullscreenenter"",""1"",""4040""
","
","","895.4000000059605","","","","real_trial","2021-08-05 17:25:47.350","img/card_backs/set1/green.gif","0","200","1","",""
"casino-fixation","130","548464","0.0-25.0-0.30","1079","false","img/card_backs/set1/green.gif","img/card_backs/set1/purple.gif","img/card_backs/set1/yellow.gif","img/card_backs/set1/red.gif","img/card_backs/set2/gray.gif","img/card_backs/set2/orange.gif","img/card_backs/set2/pink.gif","img/card_backs/set2/blue.gif","""event"",""trial"",""time""
""fullscreenenter"",""1"",""4040""
""blur"",""6"",""27891""
""focus"",""6"",""33417""
","""event"",""trial"",""time""
""blur"",""6"",""27891""
","""event"",""trial"",""time""
""focus"",""6"",""33417""
","""event"",""trial"",""time""
""fullscreenenter"",""1"",""4040""
","
","","null","","null","","fixation","2021-08-05 17:25:47.855","","","","","",""
"card-selection-trial","131","551630","0.0-25.0-1.30","1079","false","img/card_backs/set1/green.gif","img/card_backs/set1/purple.gif","img/card_backs/set1/yellow.gif","img/card_backs/set1/red.gif","img/card_backs/set2/gray.gif","img/card_backs/set2/orange.gif","img/card_backs/set2/pink.gif","img/card_backs/set2/blue.gif","""event"",""trial"",""time""
""fullscreenenter"",""1"",""4040""
""blur"",""6"",""27891""
""focus"",""6"",""33417""
","""event"",""trial"",""time""
""blur"",""6"",""27891""
","""event"",""trial"",""time""
""focus"",""6"",""33417""
","""event"",""trial"",""time""
""fullscreenenter"",""1"",""4040""
","
