"trial_type","trial_index","time_elapsed","internal_node_id","sub_id","risk_good_first","block1_A","block1_B","block1_C","block1_D","block2_A","block2_B","block2_C","block2_D","interactions","blur_events","focus_events","fullscreenenter_events","fullscreenexit_events","success","rt","stimulus","key_press","button_pressed","task_part","timestamp","card_choice","choice_position","points_earned","block","correct","response"
"pavlovia","0","2","0.0-0.0","182","false","img/card_backs/set1/red.gif","img/card_backs/set1/yellow.gif","img/card_backs/set1/purple.gif","img/card_backs/set1/green.gif","img/card_backs/set2/pink.gif","img/card_backs/set2/gray.gif","img/card_backs/set2/blue.gif","img/card_backs/set2/orange.gif","""event"",""trial"",""time""
""fullscreenenter"",""1"",""3364""
","
","
","""event"",""trial"",""time""
""fullscreenenter"",""1"",""3364""
","
","","","","","","","","","","","","",""
"fullscreen","1","4329","0.0-1.0","182","false","img/card_backs/set1/red.gif","img/card_backs/set1/yellow.gif","img/card_backs/set1/purple.gif","img/card_backs/set1/green.gif","img/card_backs/set2/pink.gif","img/card_backs/set2/gray.gif","img/card_backs/set2/blue.gif","img/card_backs/set2/orange.gif","""event"",""trial"",""time""
""fullscreenenter"",""1"",""3364""
","
","
","""event"",""trial"",""time""
""fullscreenenter"",""1"",""3364""
","
","true","","","","","","","","","","","",""
"audio-keyboard-response","2","6004","0.0-2.0","182","false","img/card_backs/set1/red.gif","img/card_backs/set1/yellow.gif","img/card_backs/set1/purple.gif","img/card_backs/set1/green.gif","img/card_backs/set2/pink.gif","img/card_backs/set2/gray.gif","img/card_backs/set2/blue.gif","img/card_backs/set2/orange.gif","""event"",""trial"",""time""
""fullscreenenter"",""1"",""3364""
","
","
","""event"",""trial"",""time""
""fullscreenenter"",""1"",""3364""
","
","","1632","audio/beep_loop.wav","32","","","","","","","","",""
"audio-button-response","3","8074","0.0-3.0","182","false","img/card_backs/set1/red.gif","img/card_backs/set1/yellow.gif","img/card_backs/set1/purple.gif","img/card_backs/set1/green.gif","img/card_backs/set2/pink.gif","img/card_backs/set2/gray.gif","img/card_backs/set2/blue.gif","img/card_backs/set2/orange.gif","""event"",""trial"",""time""
""fullscreenenter"",""1"",""3364""
","
","
","""event"",""trial"",""time""
""fullscreenenter"",""1"",""3364""
","
","","NaN","audio/turtle.mp3","","3","","","","","","","",""
"audio-button-response","4","10144","0.0-4.0","182","false","img/card_backs/set1/red.gif","img/card_backs/set1/yellow.gif","img/card_backs/set1/purple.gif","img/card_backs/set1/green.gif","img/card_backs/set2/pink.gif","img/card_backs/set2/gray.gif","img/card_backs/set2/blue.gif","img/card_backs/set2/orange.gif","""event"",""trial"",""time""
""fullscreenenter"",""1"",""3364""
","
","
","""event"",""trial"",""time""
""fullscreenenter"",""1"",""3364""
","
","","NaN","audio/shark.mp3","","2","","","","","","","",""
"fullscreen","5","32149","0.0-5.0","182","false","img/card_backs/set1/red.gif","img/card_backs/set1/yellow.gif","img/card_backs/set1/purple.gif","img/card_backs/set1/green.gif","img/card_backs/set2/pink.gif","img/card_backs/set2/gray.gif","img/card_backs/set2/blue.gif","img/card_backs/set2/orange.gif","""event"",""trial"",""time""
""fullscreenenter"",""1"",""3364""
","
","
","""event"",""trial"",""time""
""fullscreenenter"",""1"",""3364""
","
","true","","","","","","","","","","","",""
"casino-keyboard-response","6","35789","0.0-6.0-0.0","182","false","img/card_backs/set1/red.gif","img/card_backs/set1/yellow.gif","img/card_backs/set1/purple.gif","img/card_backs/set1/green.gif","img/card_backs/set2/pink.gif","img/card_backs/set2/gray.gif","img/card_backs/set2/blue.gif","img/card_backs/set2/orange.gif","""event"",""trial"",""time""
""fullscreenenter"",""1"",""3364""
","
","
","""event"",""trial"",""time""
""fullscreenenter"",""1"",""3364""
","
","","3634.2000000029802","Welcome to the casino!","71","","instructions","2021-07-01 18:28:52.005","","","","","",""
"casino-keyboard-response","7","45900","0.0-6.0-0.1","182","false","img/card_backs/set1/red.gif","img/card_backs/set1/yellow.gif","img/card_backs/set1/purple.gif","img/card_backs/set1/green.gif","img/card_backs/set2/pink.gif","img/card_backs/set2/gray.gif","img/card_backs/set2/blue.gif","img/card_backs/set2/orange.gif","""event"",""trial"",""time""
""fullscreenenter"",""1"",""3364""
","
","
","""event"",""trial"",""time""
""fullscreenenter"",""1"",""3364""
","
","","10107.90000000596","Today you will be playing a game to earn tokens. </br> At the end of the experiment, you will be paid a bonus based on how many tokens you win. ","69","","instructions","2021-07-01 18:29:02.116","","","","","",""
"casino-keyboard-response","8","53707","0.0-6.0-0.2","182","false","img/card_backs/set1/red.gif","img/card_backs/set1/yellow.gif","img/card_backs/set1/purple.gif","img/card_backs/set1/green.gif","img/card_backs/set2/pink.gif","img/card_backs/set2/gray.gif","img/card_backs/set2/blue.gif","img/card_backs/set2/orange.gif","""event"",""trial"",""time""
""fullscreenenter"",""1"",""3364""
","
","
","""event"",""trial"",""time""
""fullscreenenter"",""1"",""3364""
","
","","7804.4000000059605","On every turn, you will be shown four different decks of cards. </br> You need to select a card from one of the four decks.  ","75","","instructions","2021-07-01 18:29:09.924","","","","","",""
"casino-keyboard-response","9","58890","0.0-6.0-0.3","182","false","img/card_backs/set1/red.gif","img/card_backs/set1/yellow.gif","img/card_backs/set1/purple.gif","img/card_backs/set1/green.gif","img/card_backs/set2/pink.gif","img/card_backs/set2/gray.gif","img/card_backs/set2/blue.gif","img/card_backs/set2/orange.gif","""event"",""trial"",""time""
""fullscreenenter"",""1"",""3364""
","
","
","""event"",""trial"",""time""
""fullscreenenter"",""1"",""3364""
","
","","5179.800000011921","On the next screen, you will see what the decks will look like. ","66","","instructions","2021-07-01 18:29:15.106","","","","","",""
"card-selection-trial","10","62901","0.0-7.0-0.0","182","false","img/card_backs/set1/red.gif","img/card_backs/set1/yellow.gif","img/card_backs/set1/purple.gif","img/card_backs/set1/green.gif","img/card_backs/set2/pink.gif","img/card_backs/set2/gray.gif","img/card_backs/set2/blue.gif","img/card_backs/set2/orange.gif","""event"",""trial"",""time""
""fullscreenenter"",""1"",""3364""
","
","
","""event"",""trial"",""time""
""fullscreenenter"",""1"",""3364""
","
","","null","","","","practice","2021-07-01 18:29:19.117","null","null","null","0","",""
"casino-keyboard-response","11","70890","0.0-8.0-0.0","182","false","img/card_backs/set1/red.gif","img/card_backs/set1/yellow.gif","img/card_backs/set1/purple.gif","img/card_backs/set1/green.gif","img/card_backs/set2/pink.gif","img/card_backs/set2/gray.gif","img/card_backs/set2/blue.gif","img/card_backs/set2/orange.gif","""event"",""trial"",""time""
""fullscreenenter"",""1"",""3364""
","
","
","""event"",""trial"",""time""
""fullscreenenter"",""1"",""3364""
","
","","7986.899999991059","You should pick a card from a deck using the '2', '4', '6', and '8' keys at the top of the keyboard.","85","","instructions","2021-07-01 18:29:27.107","","","","","",""
"casino-keyboard-response","12","76528","0.0-8.0-0.1","182","false","img/card_backs/set1/red.gif","img/card_backs/set1/yellow.gif","img/card_backs/set1/purple.gif","img/card_backs/set1/green.gif","img/card_backs/set2/pink.gif","img/card_backs/set2/gray.gif","img/card_backs/set2/blue.gif","img/card_backs/set2/orange.gif","""event"",""trial"",""time""
""fullscreenenter"",""1"",""3364""
","
","
","""event"",""trial"",""time""
""fullscreenenter"",""1"",""3364""
","
","","5635.600000008941","Once you select a card, it will turn over and you will see how many tokens you earned.","83","","instructions","2021-07-01 18:29:32.744","","","","","",""
"casino-keyboard-response","13","91303","0.0-8.0-0.2","182","false","img/card_backs/set1/red.gif","img/card_backs/set1/yellow.gif","img/card_backs/set1/purple.gif","img/card_backs/set1/green.gif","img/card_backs/set2/pink.gif","img/card_backs/set2/gray.gif","img/card_backs/set2/blue.gif","img/card_backs/set2/orange.gif","""event"",""trial"",""time""
""fullscreenenter"",""1"",""3364""
","
","
","""event"",""trial"",""time""
""fullscreenenter"",""1"",""3364""
","
","","14772.29999999702","Let's try practicing that! </br> First, try to put your fingers over the '2', '4', '6', and '8' keys. </br>  You can use whatever fingers are most comfortable for you. Try to find a comfortable position now. ","50","","instructions","2021-07-01 18:29:47.519","","","","","",""
"casino-keyboard-response","14","97094","0.0-8.0-0.3","182","false","img/card_backs/set1/red.gif","img/card_backs/set1/yellow.gif","img/card_backs/set1/purple.gif","img/card_backs/set1/green.gif","img/card_backs/set2/pink.gif","img/card_backs/set2/gray.gif","img/card_backs/set2/blue.gif","img/card_backs/set2/orange.gif","""event"",""trial"",""time""
""fullscreenenter"",""1"",""3364""
","
","
","""event"",""trial"",""time""
""fullscreenenter"",""1"",""3364""
","
","","5788.600000008941","Okay ready? </br> On the next screen, press '2' to select the left deck. ","50","","instructions","2021-07-01 18:29:53.310","","","","","",""
"card-selection-trial","15","99910","0.0-9.0-0.0","182","false","img/card_backs/set1/red.gif","img/card_backs/set1/yellow.gif","img/card_backs/set1/purple.gif","img/card_backs/set1/green.gif","img/card_backs/set2/pink.gif","img/card_backs/set2/gray.gif","img/card_backs/set2/blue.gif","img/card_backs/set2/orange.gif","""event"",""trial"",""time""
""fullscreenenter"",""1"",""3364""
","
","
","""event"",""trial"",""time""
""fullscreenenter"",""1"",""3364""
","
","","800.3999999910593","","","","practice_card_selection","2021-07-01 18:29:56.126","img/practice_cards/backs/dark_green.gif","0","-200","","",""
"casino-keyboard-response","16","105501","0.0-10.0-0.0","182","false","img/card_backs/set1/red.gif","img/card_backs/set1/yellow.gif","img/card_backs/set1/purple.gif","img/card_backs/set1/green.gif","img/card_backs/set2/pink.gif","img/card_backs/set2/gray.gif","img/card_backs/set2/blue.gif","img/card_backs/set2/orange.gif","""event"",""trial"",""time""
""fullscreenenter"",""1"",""3364""
","
","
","""event"",""trial"",""time""
""fullscreenenter"",""1"",""3364""
","
","","5588.5","Great! Now on the next screen, try pressing '6' to select the third deck.","54","","instructions","2021-07-01 18:30:01.717","","","","","",""
"card-selection-trial","17","108413","0.0-11.0-0.0","182","false","img/card_backs/set1/red.gif","img/card_backs/set1/yellow.gif","img/card_backs/set1/purple.gif","img/card_backs/set1/green.gif","img/card_backs/set2/pink.gif","img/card_backs/set2/gray.gif","img/card_backs/set2/blue.gif","img/card_backs/set2/orange.gif","""event"",""trial"",""time""
""fullscreenenter"",""1"",""3364""
","
","
","""event"",""trial"",""time""
""fullscreenenter"",""1"",""3364""
","
","","904.1999999880791","","","","practice_card_selection","2021-07-01 18:30:04.629","img/practice_cards/backs/brown.gif","2","-100","","",""
"casino-keyboard-response","18","113236","0.0-12.0-0.0","182","false","img/card_backs/set1/red.gif","img/card_backs/set1/yellow.gif","img/card_backs/set1/purple.gif","img/card_backs/set1/green.gif","img/card_backs/set2/pink.gif","img/card_backs/set2/gray.gif","img/card_backs/set2/blue.gif","img/card_backs/set2/orange.gif","""event"",""trial"",""time""
""fullscreenenter"",""1"",""3364""
","
","
","""event"",""trial"",""time""
""fullscreenenter"",""1"",""3364""
","
","","4821.399999991059","Now on the next screen, try pressing '4' to select the second deck.","52","","instructions","2021-07-01 18:30:09.452","","","","","",""
"card-selection-trial","19","115887","0.0-13.0-0.0","182","false","img/card_backs/set1/red.gif","img/card_backs/set1/yellow.gif","img/card_backs/set1/purple.gif","img/card_backs/set1/green.gif","img/card_backs/set2/pink.gif","img/card_backs/set2/gray.gif","img/card_backs/set2/blue.gif","img/card_backs/set2/orange.gif","""event"",""trial"",""time""
""fullscreenenter"",""1"",""3364""
","
","
","""event"",""trial"",""time""
""fullscreenenter"",""1"",""3364""
","
","","642.1000000089407","","","","practice_card_selection","2021-07-01 18:30:12.103","img/practice_cards/backs/black.gif","1","-100","","",""
"casino-keyboard-response","20","120322","0.0-14.0-0.0","182","false","img/card_backs/set1/red.gif","img/card_backs/set1/yellow.gif","img/card_backs/set1/purple.gif","img/card_backs/set1/green.gif","img/card_backs/set2/pink.gif","img/card_backs/set2/gray.gif","img/card_backs/set2/blue.gif","img/card_backs/set2/orange.gif","""event"",""trial"",""time""
""fullscreenenter"",""1"",""3364""
","
","
","""event"",""trial"",""time""
""fullscreenenter"",""1"",""3364""
","
","","4432.5","Finally, try pressing '8' to select the deck all the way on the right.","56","","instructions","2021-07-01 18:30:16.538","","","","","",""
"card-selection-trial","21","122896","0.0-15.0-0.0","182","false","img/card_backs/set1/red.gif","img/card_backs/set1/yellow.gif","img/card_backs/set1/purple.gif","img/card_backs/set1/green.gif","img/card_backs/set2/pink.gif","img/card_backs/set2/gray.gif","img/card_backs/set2/blue.gif","img/card_backs/set2/orange.gif","""event"",""trial"",""time""
""fullscreenenter"",""1"",""3364""
","
","
","""event"",""trial"",""time""
""fullscreenenter"",""1"",""3364""
","
","","564","","","","practice_card_selection","2021-07-01 18:30:19.112","img/practice_cards/backs/dark_green.gif","3","200","","",""
"casino-keyboard-response","22","127258","0.0-16.0-0.0","182","false","img/card_backs/set1/red.gif","img/card_backs/set1/yellow.gif","img/card_backs/set1/purple.gif","img/card_backs/set1/green.gif","img/card_backs/set2/pink.gif","img/card_backs/set2/gray.gif","img/card_backs/set2/blue.gif","img/card_backs/set2/orange.gif","""event"",""trial"",""time""
""fullscreenenter"",""1"",""3364""
","
","
","""event"",""trial"",""time""
""fullscreenenter"",""1"",""3364""
","
","","4359.20000000298","Great! It seems like you are getting the hang of this.","80","","instructions","2021-07-01 18:30:23.474","","","","","",""
"casino-keyboard-response","23","136174","0.0-16.0-0.1","182","false","img/card_backs/set1/red.gif","img/card_backs/set1/yellow.gif","img/card_backs/set1/purple.gif","img/card_backs/set1/green.gif","img/card_backs/set2/pink.gif","img/card_backs/set2/gray.gif","img/card_backs/set2/blue.gif","img/card_backs/set2/orange.gif","""event"",""trial"",""time""
""fullscreenenter"",""1"",""3364""
","
","
","""event"",""trial"",""time""
""fullscreenenter"",""1"",""3364""
","
","","8913.70000000298","You may have noticed that some cards will cause you to <b> win </b> tokens while other cards will cause you to <b> lose </b>  tokens.","70","","instructions","2021-07-01 18:30:32.390","","","","","",""
"casino-keyboard-response","24","144422","0.0-16.0-0.2","182","false","img/card_backs/set1/red.gif","img/card_backs/set1/yellow.gif","img/card_backs/set1/purple.gif","img/card_backs/set1/green.gif","img/card_backs/set2/pink.gif","img/card_backs/set2/gray.gif","img/card_backs/set2/blue.gif","img/card_backs/set2/orange.gif","""event"",""trial"",""time""
""fullscreenenter"",""1"",""3364""
","
","
","""event"",""trial"",""time""
""fullscreenenter"",""1"",""3364""
","
","","8246.59999999404","Each deck has a mix of cards that will cause you to win and lose tokens. </br> However, the cards in each colored deck are different.","73","","instructions","2021-07-01 18:30:40.639","","","","","",""
"casino-keyboard-response","25","154485","0.0-16.0-0.3","182","false","img/card_backs/set1/red.gif","img/card_backs/set1/yellow.gif","img/card_backs/set1/purple.gif","img/card_backs/set1/green.gif","img/card_backs/set2/pink.gif","img/card_backs/set2/gray.gif","img/card_backs/set2/blue.gif","img/card_backs/set2/orange.gif","""event"",""trial"",""time""
""fullscreenenter"",""1"",""3364""
","
","
","""event"",""trial"",""time""
""fullscreenenter"",""1"",""3364""
","
","","10060.09999999404","Some colored decks are luckier than others. </br> If you choose the lucky decks, you will earn more tokens than if you choose the unlucky decks.","69","","instructions","2021-07-01 18:30:50.701","","","","","",""
"casino-keyboard-response","26","162002","0.0-16.0-0.4","182","false","img/card_backs/set1/red.gif","img/card_backs/set1/yellow.gif","img/card_backs/set1/purple.gif","img/card_backs/set1/green.gif","img/card_backs/set2/pink.gif","img/card_backs/set2/gray.gif","img/card_backs/set2/blue.gif","img/card_backs/set2/orange.gif","""event"",""trial"",""time""
""fullscreenenter"",""1"",""3364""
","
","
","""event"",""trial"",""time""
""fullscreenenter"",""1"",""3364""
","
","","7514.4000000059605","You should try to figure out which decks are lucky. </br> Then, try to choose the lucky decks so you can win the most tokens.","87","","instructions","2021-07-01 18:30:58.218","","","","","",""
"casino-keyboard-response","27","173758","0.0-16.0-0.5","182","false","img/card_backs/set1/red.gif","img/card_backs/set1/yellow.gif","img/card_backs/set1/purple.gif","img/card_backs/set1/green.gif","img/card_backs/set2/pink.gif","img/card_backs/set2/gray.gif","img/card_backs/set2/blue.gif","img/card_backs/set2/orange.gif","""event"",""trial"",""time""
""fullscreenenter"",""1"",""3364""
","
","
","""event"",""trial"",""time""
""fullscreenenter"",""1"",""3364""
","
","","11754","To make it trickier, the casino dealer will switch the locations of the decks on every turn. </br> The color of the deck determines how lucky it is. The location does not matter.","88","","instructions","2021-07-01 18:31:09.974","","","","","",""
"casino-keyboard-response","28","183239","0.0-16.0-0.6","182","false","img/card_backs/set1/red.gif","img/card_backs/set1/yellow.gif","img/card_backs/set1/purple.gif","img/card_backs/set1/green.gif","img/card_backs/set2/pink.gif","img/card_backs/set2/gray.gif","img/card_backs/set2/blue.gif","img/card_backs/set2/orange.gif","""event"",""trial"",""time""
""fullscreenenter"",""1"",""3364""
","
","
","""event"",""trial"",""time""
""fullscreenenter"",""1"",""3364""
","
","","9479.09999999404","The mix of cards in each colored deck will stay the same throughout the game. </br> That means that a deck that is lucky early on will stay lucky.","79","","instructions","2021-07-01 18:31:19.455","","","","","",""
"casino-keyboard-response","29","191879","0.0-16.0-0.7","182","false","img/card_backs/set1/red.gif","img/card_backs/set1/yellow.gif","img/card_backs/set1/purple.gif","img/card_backs/set1/green.gif","img/card_backs/set2/pink.gif","img/card_backs/set2/gray.gif","img/card_backs/set2/blue.gif","img/card_backs/set2/orange.gif","""event"",""trial"",""time""
""fullscreenenter"",""1"",""3364""
","
","
","""event"",""trial"",""time""
""fullscreenenter"",""1"",""3364""
","
","","8637.39999999106","Remember though, all the decks have a <b> mix </b> of both <b> good </b> and <b> bad </b> cards so it may take a couple of turns to figure out if a deck is lucky.","69","","instructions","2021-07-01 18:31:28.095","","","","","",""
"casino-keyboard-response","30","200289","0.0-16.0-0.8","182","false","img/card_backs/set1/red.gif","img/card_backs/set1/yellow.gif","img/card_backs/set1/purple.gif","img/card_backs/set1/green.gif","img/card_backs/set2/pink.gif","img/card_backs/set2/gray.gif","img/card_backs/set2/blue.gif","img/card_backs/set2/orange.gif","""event"",""trial"",""time""
""fullscreenenter"",""1"",""3364""
","
","
","""event"",""trial"",""time""
""fullscreenenter"",""1"",""3364""
","
","","8408.59999999404","At the end of the game, you will be paid bonus money based on how many tokens you win. </br> If you win more tokens, you will earn more money!","72","","instructions","2021-07-01 18:31:36.506","","","","","",""
"casino-keyboard-response","31","211227","0.0-16.0-0.9","182","false","img/card_backs/set1/red.gif","img/card_backs/set1/yellow.gif","img/card_backs/set1/purple.gif","img/card_backs/set1/green.gif","img/card_backs/set2/pink.gif","img/card_backs/set2/gray.gif","img/card_backs/set2/blue.gif","img/card_backs/set2/orange.gif","""event"",""trial"",""time""
""fullscreenenter"",""1"",""3364""
","
","
","""event"",""trial"",""time""
""fullscreenenter"",""1"",""3364""
","
","","10934.79999999702","You will never <b> lose </b> money. </br> If you end up with fewer than 0 tokens, you will earn $0 of bonus money, but you will still be paid for playing the game.","83","","instructions","2021-07-01 18:31:47.443","","","","","",""
"casino-keyboard-response","32","215747","0.0-16.0-0.10","182","false","img/card_backs/set1/red.gif","img/card_backs/set1/yellow.gif","img/card_backs/set1/purple.gif","img/card_backs/set1/green.gif","img/card_backs/set2/pink.gif","img/card_backs/set2/gray.gif","img/card_backs/set2/blue.gif","img/card_backs/set2/orange.gif","""event"",""trial"",""time""
""fullscreenenter"",""1"",""3364""
","
","
","""event"",""trial"",""time""
""fullscreenenter"",""1"",""3364""
","
","","4517.29999999702","You will have 10 seconds to make each choice.","82","","instructions","2021-07-01 18:31:51.963","","","","","",""
"casino-keyboard-response","33","224995","0.0-16.0-0.11","182","false","img/card_backs/set1/red.gif","img/card_backs/set1/yellow.gif","img/card_backs/set1/purple.gif","img/card_backs/set1/green.gif","img/card_backs/set2/pink.gif","img/card_backs/set2/gray.gif","img/card_backs/set2/blue.gif","img/card_backs/set2/orange.gif","""event"",""trial"",""time""
""fullscreenenter"",""1"",""3364""
","
","
","""event"",""trial"",""time""
""fullscreenenter"",""1"",""3364""
","
","","9244.79999999702","Before you play the game for real, you will play with practice decks. </br> The tokens you earn during practice won't count toward your total.","86","","instructions","2021-07-01 18:32:01.212","","","","","",""
"casino-keyboard-response","34","236000","0.0-16.0-0.12","182","false","img/card_backs/set1/red.gif","img/card_backs/set1/yellow.gif","img/card_backs/set1/purple.gif","img/card_backs/set1/green.gif","img/card_backs/set2/pink.gif","img/card_backs/set2/gray.gif","img/card_backs/set2/blue.gif","img/card_backs/set2/orange.gif","""event"",""trial"",""time""
""fullscreenenter"",""1"",""3364""
","
","
","""event"",""trial"",""time""
""fullscreenenter"",""1"",""3364""
","
","","11002.60000000894","Ready? Remember, use the '2', '4', '6', and '8' keys to select the decks. </br> Put your fingers on those keys now and then press '2' to begin.","50","","instructions","2021-07-01 18:32:12.216","","","","","",""
"casino-fixation","35","236506","0.0-17.0-0.0","182","false","img/card_backs/set1/red.gif","img/card_backs/set1/yellow.gif","img/card_backs/set1/purple.gif","img/card_backs/set1/green.gif","img/card_backs/set2/pink.gif","img/card_backs/set2/gray.gif","img/card_backs/set2/blue.gif","img/card_backs/set2/orange.gif","""event"",""trial"",""time""
""fullscreenenter"",""1"",""3364""
","
","
","""event"",""trial"",""time""
""fullscreenenter"",""1"",""3364""
","
","","null","","null","","fixation","2021-07-01 18:32:12.722","","","","","",""
"card-selection-trial","36","239393","0.0-17.0-1.0","182","false","img/card_backs/set1/red.gif","img/card_backs/set1/yellow.gif","img/card_backs/set1/purple.gif","img/card_backs/set1/green.gif","img/card_backs/set2/pink.gif","img/card_backs/set2/gray.gif","img/card_backs/set2/blue.gif","img/card_backs/set2/orange.gif","""event"",""trial"",""time""
""fullscreenenter"",""1"",""3364""
","
","
","""event"",""trial"",""time""
""fullscreenenter"",""1"",""3364""
","
","","875.1000000089407","","","","practice","2021-07-01 18:32:15.609","img/practice_cards/backs/dark_blue.gif","1","-200","0","",""
"casino-fixation","37","239898","0.0-17.0-0.1","182","false","img/card_backs/set1/red.gif","img/card_backs/set1/yellow.gif","img/card_backs/set1/purple.gif","img/card_backs/set1/green.gif","img/card_backs/set2/pink.gif","img/card_backs/set2/gray.gif","img/card_backs/set2/blue.gif","img/card_backs/set2/orange.gif","""event"",""trial"",""time""
""fullscreenenter"",""1"",""3364""
","
","
","""event"",""trial"",""time""
""fullscreenenter"",""1"",""3364""
","
","","null","","null","","fixation","2021-07-01 18:32:16.114","","","","","",""
"card-selection-trial","38","242663","0.0-17.0-1.1","182","false","img/card_backs/set1/red.gif","img/card_backs/set1/yellow.gif","img/card_backs/set1/purple.gif","img/card_backs/set1/green.gif","img/card_backs/set2/pink.gif","img/card_backs/set2/gray.gif","img/card_backs/set2/blue.gif","img/card_backs/set2/orange.gif","""event"",""trial"",""time""
""fullscreenenter"",""1"",""3364""
","
","
","""event"",""trial"",""time""
""fullscreenenter"",""1"",""3364""
","
","","756.7999999970198","","","","practice","2021-07-01 18:32:18.879","img/practice_cards/backs/brown.gif","3","100","0","",""
"casino-fixation","39","243170","0.0-17.0-0.2","182","false","img/card_backs/set1/red.gif","img/card_backs/set1/yellow.gif","img/card_backs/set1/purple.gif","img/card_backs/set1/green.gif","img/card_backs/set2/pink.gif","img/card_backs/set2/gray.gif","img/card_backs/set2/blue.gif","img/card_backs/set2/orange.gif","""event"",""trial"",""time""
""fullscreenenter"",""1"",""3364""
","
","
","""event"",""trial"",""time""
""fullscreenenter"",""1"",""3364""
","
","","null","","null","","fixation","2021-07-01 18:32:19.386","","","","","",""
"card-selection-trial","40","246000","0.0-17.0-1.2","182","false","img/card_backs/set1/red.gif","img/card_backs/set1/yellow.gif","img/card_backs/set1/purple.gif","img/card_backs/set1/green.gif","img/card_backs/set2/pink.gif","img/card_backs/set2/gray.gif","img/card_backs/set2/blue.gif","img/card_backs/set2/orange.gif","""event"",""trial"",""time""
""fullscreenenter"",""1"",""3364""
","
","
","""event"",""trial"",""time""
""fullscreenenter"",""1"",""3364""
","
","","818","","","","practice","2021-07-01 18:32:22.216","img/practice_cards/backs/brown.gif","0","-100","0","",""
"casino-fixation","41","246507","0.0-17.0-0.3","182","false","img/card_backs/set1/red.gif","img/card_backs/set1/yellow.gif","img/card_backs/set1/purple.gif","img/card_backs/set1/green.gif","img/card_backs/set2/pink.gif","img/card_backs/set2/gray.gif","img/card_backs/set2/blue.gif","img/card_backs/set2/orange.gif","""event"",""trial"",""time""
""fullscreenenter"",""1"",""3364""
","
","
","""event"",""trial"",""time""
""fullscreenenter"",""1"",""3364""
","
","","null","","null","","fixation","2021-07-01 18:32:22.723","","","","","",""
"card-selection-trial","42","249215","0.0-17.0-1.3","182","false","img/card_backs/set1/red.gif","img/card_backs/set1/yellow.gif","img/card_backs/set1/purple.gif","img/card_backs/set1/green.gif","img/card_backs/set2/pink.gif","img/card_backs/set2/gray.gif","img/card_backs/set2/blue.gif","img/card_backs/set2/orange.gif","""event"",""trial"",""time""
""fullscreenenter"",""1"",""3364""
","
","
","""event"",""trial"",""time""
""fullscreenenter"",""1"",""3364""
","
","","697.7000000029802","","","","practice","2021-07-01 18:32:25.431","img/practice_cards/backs/dark_green.gif","3","-200","0","",""
"casino-fixation","43","249722","0.0-17.0-0.4","182","false","img/card_backs/set1/red.gif","img/card_backs/set1/yellow.gif","img/card_backs/set1/purple.gif","img/card_backs/set1/green.gif","img/card_backs/set2/pink.gif","img/card_backs/set2/gray.gif","img/card_backs/set2/blue.gif","img/card_backs/set2/orange.gif","""event"",""trial"",""time""
""fullscreenenter"",""1"",""3364""
","
","
","""event"",""trial"",""time""
""fullscreenenter"",""1"",""3364""
","
","","null","","null","","fixation","2021-07-01 18:32:25.938","","","","","",""
"card-selection-trial","44","252858","0.0-17.0-1.4","182","false","img/card_backs/set1/red.gif","img/card_backs/set1/yellow.gif","img/card_backs/set1/purple.gif","img/card_backs/set1/green.gif","img/card_backs/set2/pink.gif","img/card_backs/set2/gray.gif","img/card_backs/set2/blue.gif","img/card_backs/set2/orange.gif","""event"",""trial"",""time""
""fullscreenenter"",""1"",""3364""
","
","
","""event"",""trial"",""time""
""fullscreenenter"",""1"",""3364""
","
","","1123.6000000089407","","","","practice","2021-07-01 18:32:29.074","img/practice_cards/backs/brown.gif","2","-100","0","",""
"casino-fixation","45","253361","0.0-17.0-0.5","182","false","img/card_backs/set1/red.gif","img/card_backs/set1/yellow.gif","img/card_backs/set1/purple.gif","img/card_backs/set1/green.gif","img/card_backs/set2/pink.gif","img/card_backs/set2/gray.gif","img/card_backs/set2/blue.gif","img/card_backs/set2/orange.gif","""event"",""trial"",""time""
""fullscreenenter"",""1"",""3364""
","
","
","""event"",""trial"",""time""
""fullscreenenter"",""1"",""3364""
","
","","null","","null","","fixation","2021-07-01 18:32:29.577","","","","","",""
"card-selection-trial","46","256703","0.0-17.0-1.5","182","false","img/card_backs/set1/red.gif","img/card_backs/set1/yellow.gif","img/card_backs/set1/purple.gif","img/card_backs/set1/green.gif","img/card_backs/set2/pink.gif","img/card_backs/set2/gray.gif","img/card_backs/set2/blue.gif","img/card_backs/set2/orange.gif","""event"",""trial"",""time""
""fullscreenenter"",""1"",""3364""
","
","
","""event"",""trial"",""time""
""fullscreenenter"",""1"",""3364""
","
","","1330.3999999910593","","","","practice","2021-07-01 18:32:32.920","img/practice_cards/backs/brown.gif","1","-100","0","",""
"casino-fixation","47","257207","0.0-17.0-0.6","182","false","img/card_backs/set1/red.gif","img/card_backs/set1/yellow.gif","img/card_backs/set1/purple.gif","img/card_backs/set1/green.gif","img/card_backs/set2/pink.gif","img/card_backs/set2/gray.gif","img/card_backs/set2/blue.gif","img/card_backs/set2/orange.gif","""event"",""trial"",""time""
""fullscreenenter"",""1"",""3364""
","
","
","""event"",""trial"",""time""
""fullscreenenter"",""1"",""3364""
","
","","null","","null","","fixation","2021-07-01 18:32:33.423","","","","","",""
"card-selection-trial","48","259878","0.0-17.0-1.6","182","false","img/card_backs/set1/red.gif","img/card_backs/set1/yellow.gif","img/card_backs/set1/purple.gif","img/card_backs/set1/green.gif","img/card_backs/set2/pink.gif","img/card_backs/set2/gray.gif","img/card_backs/set2/blue.gif","img/card_backs/set2/orange.gif","""event"",""trial"",""time""
""fullscreenenter"",""1"",""3364""
","
","
","""event"",""trial"",""time""
""fullscreenenter"",""1"",""3364""
","
","","659.3999999910593","","","","practice","2021-07-01 18:32:36.095","img/practice_cards/backs/dark_blue.gif","3","-200","0","",""
"casino-fixation","49","260381","0.0-17.0-0.7","182","false","img/card_backs/set1/red.gif","img/card_backs/set1/yellow.gif","img/card_backs/set1/purple.gif","img/card_backs/set1/green.gif","img/card_backs/set2/pink.gif","img/card_backs/set2/gray.gif","img/card_backs/set2/blue.gif","img/card_backs/set2/orange.gif","""event"",""trial"",""time""
""fullscreenenter"",""1"",""3364""
","
","
","""event"",""trial"",""time""
""fullscreenenter"",""1"",""3364""
","
","","null","","null","","fixation","2021-07-01 18:32:36.597","","","","","",""
"card-selection-trial","50","263164","0.0-17.0-1.7","182","false","img/card_backs/set1/red.gif","img/card_backs/set1/yellow.gif","img/card_backs/set1/purple.gif","img/card_backs/set1/green.gif","img/card_backs/set2/pink.gif","img/card_backs/set2/gray.gif","img/card_backs/set2/blue.gif","img/card_backs/set2/orange.gif","""event"",""trial"",""time""
""fullscreenenter"",""1"",""3364""
","
","
","""event"",""trial"",""time""
""fullscreenenter"",""1"",""3364""
","
","","772.1999999880791","","","","practice","2021-07-01 18:32:39.380","img/practice_cards/backs/brown.gif","2","100","0","",""
"casino-fixation","51","263671","0.0-17.0-0.8","182","false","img/card_backs/set1/red.gif","img/card_backs/set1/yellow.gif","img/card_backs/set1/purple.gif","img/card_backs/set1/green.gif","img/card_backs/set2/pink.gif","img/card_backs/set2/gray.gif","img/card_backs/set2/blue.gif","img/card_backs/set2/orange.gif","""event"",""trial"",""time""
""fullscreenenter"",""1"",""3364""
","
","
","""event"",""trial"",""time""
""fullscreenenter"",""1"",""3364""
","
","","null","","null","","fixation","2021-07-01 18:32:39.888","","","","","",""
"card-selection-trial","52","266214","0.0-17.0-1.8","182","false","img/card_backs/set1/red.gif","img/card_backs/set1/yellow.gif","img/card_backs/set1/purple.gif","img/card_backs/set1/green.gif","img/card_backs/set2/pink.gif","img/card_backs/set2/gray.gif","img/card_backs/set2/blue.gif","img/card_backs/set2/orange.gif","""event"",""trial"",""time""
""fullscreenenter"",""1"",""3364""
","
","
","""event"",""trial"",""time""
""fullscreenenter"",""1"",""3364""
","
","","531.2000000029802","","","","practice","2021-07-01 18:32:42.430","img/practice_cards/backs/dark_blue.gif","0","200","0","",""
"casino-fixation","53","266721","0.0-17.0-0.9","182","false","img/card_backs/set1/red.gif","img/card_backs/set1/yellow.gif","img/card_backs/set1/purple.gif","img/card_backs/set1/green.gif","img/card_backs/set2/pink.gif","img/card_backs/set2/gray.gif","img/card_backs/set2/blue.gif","img/card_backs/set2/orange.gif","""event"",""trial"",""time""
""fullscreenenter"",""1"",""3364""
","
","
","""event"",""trial"",""time""
""fullscreenenter"",""1"",""3364""
","
","","null","","null","","fixation","2021-07-01 18:32:42.938","","","","","",""
"card-selection-trial","54","269155","0.0-17.0-1.9","182","false","img/card_backs/set1/red.gif","img/card_backs/set1/yellow.gif","img/card_backs/set1/purple.gif","img/card_backs/set1/green.gif","img/card_backs/set2/pink.gif","img/card_backs/set2/gray.gif","img/card_backs/set2/blue.gif","img/card_backs/set2/orange.gif","""event"",""trial"",""time""
""fullscreenenter"",""1"",""3364""
","
","
","""event"",""trial"",""time""
""fullscreenenter"",""1"",""3364""
","
","","424.09999999403954","","","","practice","2021-07-01 18:32:45.371","img/practice_cards/backs/brown.gif","2","100","0","",""
"casino-keyboard-response","55","272770","0.0-18.0","182","false","img/card_backs/set1/red.gif","img/card_backs/set1/yellow.gif","img/card_backs/set1/purple.gif","img/card_backs/set1/green.gif","img/card_backs/set2/pink.gif","img/card_backs/set2/gray.gif","img/card_backs/set2/blue.gif","img/card_backs/set2/orange.gif","""event"",""trial"",""time""
""fullscreenenter"",""1"",""3364""
","
","
","""event"",""trial"",""time""
""fullscreenenter"",""1"",""3364""
","
","","3613","You earned -400 tokens during the practice round!","82","","","2021-07-01 18:32:48.987","","","","","",""
"casino-keyboard-response","56","277264","0.0-19.0-0.0","182","false","img/card_backs/set1/red.gif","img/card_backs/set1/yellow.gif","img/card_backs/set1/purple.gif","img/card_backs/set1/green.gif","img/card_backs/set2/pink.gif","img/card_backs/set2/gray.gif","img/card_backs/set2/blue.gif","img/card_backs/set2/orange.gif","""event"",""trial"",""time""
""fullscreenenter"",""1"",""3364""
","
","
","""event"",""trial"",""time""
""fullscreenenter"",""1"",""3364""
","
","","4491.70000000298","Nice job! You are almost ready to play the real game.","86","","instructions","2021-07-01 18:32:53.480","","","","","",""
"casino-keyboard-response","57","283648","0.0-19.0-0.1","182","false","img/card_backs/set1/red.gif","img/card_backs/set1/yellow.gif","img/card_backs/set1/purple.gif","img/card_backs/set1/green.gif","img/card_backs/set2/pink.gif","img/card_backs/set2/gray.gif","img/card_backs/set2/blue.gif","img/card_backs/set2/orange.gif","""event"",""trial"",""time""
""fullscreenenter"",""1"",""3364""
","
","
","""event"",""trial"",""time""
""fullscreenenter"",""1"",""3364""
","
","","6383.600000008941","You will play two rounds of the real game. In each round, you will pick 100 cards in total.","73","","instructions","2021-07-01 18:32:59.865","","","","","",""
"casino-keyboard-response","58","287928","0.0-19.0-0.2","182","false","img/card_backs/set1/red.gif","img/card_backs/set1/yellow.gif","img/card_backs/set1/purple.gif","img/card_backs/set1/green.gif","img/card_backs/set2/pink.gif","img/card_backs/set2/gray.gif","img/card_backs/set2/blue.gif","img/card_backs/set2/orange.gif","""event"",""trial"",""time""
""fullscreenenter"",""1"",""3364""
","
","
","""event"",""trial"",""time""
""fullscreenenter"",""1"",""3364""
","
","","4277.399999991059","We are now going to ask you some questions about how the game works.","66","","instructions","2021-07-01 18:33:04.144","","","","","",""
"casino-keyboard-response","59","294637","0.0-19.0-0.3","182","false","img/card_backs/set1/red.gif","img/card_backs/set1/yellow.gif","img/card_backs/set1/purple.gif","img/card_backs/set1/green.gif","img/card_backs/set2/pink.gif","img/card_backs/set2/gray.gif","img/card_backs/set2/blue.gif","img/card_backs/set2/orange.gif","""event"",""trial"",""time""
""fullscreenenter"",""1"",""3364""
","
","
","""event"",""trial"",""time""
""fullscreenenter"",""1"",""3364""
","
","","6706.29999999702","Answer carefully. You will not be able to begin the game until you answer them correctly.","67","","instructions","2021-07-01 18:33:10.853","","","","","",""
"casino-comp_q","60","302228","0.0-20.0-0.0","182","false","img/card_backs/set1/red.gif","img/card_backs/set1/yellow.gif","img/card_backs/set1/purple.gif","img/card_backs/set1/green.gif","img/card_backs/set2/pink.gif","img/card_backs/set2/gray.gif","img/card_backs/set2/blue.gif","img/card_backs/set2/orange.gif","""event"",""trial"",""time""
""fullscreenenter"",""1"",""3364""
","
","
","""event"",""trial"",""time""
""fullscreenenter"",""1"",""3364""
","
","","7587.79999999702","True or False: All the decks have some cards that cause you to win tokens and some cards that cause you to lose tokens.","84","","","2021-07-01 18:33:18.444","","","","","",""
"casino-keyboard-response","61","307063","0.0-20.0-1.0","182","false","img/card_backs/set1/red.gif","img/card_backs/set1/yellow.gif","img/card_backs/set1/purple.gif","img/card_backs/set1/green.gif","img/card_backs/set2/pink.gif","img/card_backs/set2/gray.gif","img/card_backs/set2/blue.gif","img/card_backs/set2/orange.gif","""event"",""trial"",""time""
""fullscreenenter"",""1"",""3364""
","
","
","""event"",""trial"",""time""
""fullscreenenter"",""1"",""3364""
","
","","4832.79999999702","True is correct! All the decks have a mix of winning and losing cards.","77","","","2021-07-01 18:33:23.280","","","","","true",""
"casino-comp_q","62","310080","0.0-21.0-0.0","182","false","img/card_backs/set1/red.gif","img/card_backs/set1/yellow.gif","img/card_backs/set1/purple.gif","img/card_backs/set1/green.gif","img/card_backs/set2/pink.gif","img/card_backs/set2/gray.gif","img/card_backs/set2/blue.gif","img/card_backs/set2/orange.gif","""event"",""trial"",""time""
""fullscreenenter"",""1"",""3364""
","
","
","""event"",""trial"",""time""
""fullscreenenter"",""1"",""3364""
","
","","3013.7999999970198","True or False: You will have as much time as you want to make your response.","70","","","2021-07-01 18:33:26.296","","","","","",""
"casino-keyboard-response","63","315158","0.0-21.0-1.0","182","false","img/card_backs/set1/red.gif","img/card_backs/set1/yellow.gif","img/card_backs/set1/purple.gif","img/card_backs/set1/green.gif","img/card_backs/set2/pink.gif","img/card_backs/set2/gray.gif","img/card_backs/set2/blue.gif","img/card_backs/set2/orange.gif","""event"",""trial"",""time""
""fullscreenenter"",""1"",""3364""
","
","
","""event"",""trial"",""time""
""fullscreenenter"",""1"",""3364""
","
","","5074.4000000059605","False is correct! You will only have 10 seconds to make each choice.","75","","","2021-07-01 18:33:31.374","","","","","true",""
"casino-comp_q","64","318266","0.0-22.0-0.0","182","false","img/card_backs/set1/red.gif","img/card_backs/set1/yellow.gif","img/card_backs/set1/purple.gif","img/card_backs/set1/green.gif","img/card_backs/set2/pink.gif","img/card_backs/set2/gray.gif","img/card_backs/set2/blue.gif","img/card_backs/set2/orange.gif","""event"",""trial"",""time""
""fullscreenenter"",""1"",""3364""
","
","
","""event"",""trial"",""time""
""fullscreenenter"",""1"",""3364""
","
","","3104.4000000059605","True or False: The location of the deck determines how lucky it is.","70","","","2021-07-01 18:33:34.482","","","","","",""
"casino-keyboard-response","65","322765","0.0-22.0-1.0","182","false","img/card_backs/set1/red.gif","img/card_backs/set1/yellow.gif","img/card_backs/set1/purple.gif","img/card_backs/set1/green.gif","img/card_backs/set2/pink.gif","img/card_backs/set2/gray.gif","img/card_backs/set2/blue.gif","img/card_backs/set2/orange.gif","""event"",""trial"",""time""
""fullscreenenter"",""1"",""3364""
","
","
","""event"",""trial"",""time""
""fullscreenenter"",""1"",""3364""
","
","","4496.29999999702","False is correct! The <i>color</i>  of the deck determines how lucky or unlucky it is.","68","","","2021-07-01 18:33:38.981","","","","","true",""
"casino-keyboard-response","66","328439","0.0-23.0-0.0","182","false","img/card_backs/set1/red.gif","img/card_backs/set1/yellow.gif","img/card_backs/set1/purple.gif","img/card_backs/set1/green.gif","img/card_backs/set2/pink.gif","img/card_backs/set2/gray.gif","img/card_backs/set2/blue.gif","img/card_backs/set2/orange.gif","""event"",""trial"",""time""
""fullscreenenter"",""1"",""3364""
","
","
","""event"",""trial"",""time""
""fullscreenenter"",""1"",""3364""
","
","","5672.5","Great job! Now it's time to start the real game.","82","","instructions","2021-07-01 18:33:44.655","","","","","",""
"casino-keyboard-response","67","333778","0.0-23.0-0.1","182","false","img/card_backs/set1/red.gif","img/card_backs/set1/yellow.gif","img/card_backs/set1/purple.gif","img/card_backs/set1/green.gif","img/card_backs/set2/pink.gif","img/card_backs/set2/gray.gif","img/card_backs/set2/blue.gif","img/card_backs/set2/orange.gif","""event"",""trial"",""time""
""fullscreenenter"",""1"",""3364""
","
","
","""event"",""trial"",""time""
""fullscreenenter"",""1"",""3364""
","
","","5337.699999988079","Before we start, we're going to head into a new room of the casino.","86","","instructions","2021-07-01 18:33:49.994","","","","","",""
"casino-keyboard-response","68","340089","0.0-24.0-0.0","182","false","img/card_backs/set1/red.gif","img/card_backs/set1/yellow.gif","img/card_backs/set1/purple.gif","img/card_backs/set1/green.gif","img/card_backs/set2/pink.gif","img/card_backs/set2/gray.gif","img/card_backs/set2/blue.gif","img/card_backs/set2/orange.gif","""event"",""trial"",""time""
""fullscreenenter"",""1"",""3364""
","
","
","""event"",""trial"",""time""
""fullscreenenter"",""1"",""3364""
","
","","6308.79999999702","Here we are! The real game will use different cards, but the rules will be the same.","71","","instructions","2021-07-01 18:33:56.305","","","","","",""
"casino-keyboard-response","69","343246","0.0-24.0-0.1","182","false","img/card_backs/set1/red.gif","img/card_backs/set1/yellow.gif","img/card_backs/set1/purple.gif","img/card_backs/set1/green.gif","img/card_backs/set2/pink.gif","img/card_backs/set2/gray.gif","img/card_backs/set2/blue.gif","img/card_backs/set2/orange.gif","""event"",""trial"",""time""
""fullscreenenter"",""1"",""3364""
","
","
","""event"",""trial"",""time""
""fullscreenenter"",""1"",""3364""
","
","","3154.800000011921","Ready? Put your fingers over the '2', '4', 6', and '8' keys so you are ready to play the game. </br> Then press 2 to start.","50","","instructions","2021-07-01 18:33:59.462","","","","","",""
"casino-fixation","70","343751","0.0-25.0-0.0","182","false","img/card_backs/set1/red.gif","img/card_backs/set1/yellow.gif","img/card_backs/set1/purple.gif","img/card_backs/set1/green.gif","img/card_backs/set2/pink.gif","img/card_backs/set2/gray.gif","img/card_backs/set2/blue.gif","img/card_backs/set2/orange.gif","""event"",""trial"",""time""
""fullscreenenter"",""1"",""3364""
","
","
","""event"",""trial"",""time""
""fullscreenenter"",""1"",""3364""
","
","","null","","null","","fixation","2021-07-01 18:33:59.967","","","","","",""
"card-selection-trial","71","346388","0.0-25.0-1.0","182","false","img/card_backs/set1/red.gif","img/card_backs/set1/yellow.gif","img/card_backs/set1/purple.gif","img/card_backs/set1/green.gif","img/card_backs/set2/pink.gif","img/card_backs/set2/gray.gif","img/card_backs/set2/blue.gif","img/card_backs/set2/orange.gif","""event"",""trial"",""time""
""fullscreenenter"",""1"",""3364""
","
","
","""event"",""trial"",""time""
""fullscreenenter"",""1"",""3364""
","
","","623.7000000029802","","","","real_trial","2021-07-01 18:34:02.604","img/card_backs/set1/red.gif","2","180","1","",""
"casino-fixation","72","346895","0.0-25.0-0.1","182","false","img/card_backs/set1/red.gif","img/card_backs/set1/yellow.gif","img/card_backs/set1/purple.gif","img/card_backs/set1/green.gif","img/card_backs/set2/pink.gif","img/card_backs/set2/gray.gif","img/card_backs/set2/blue.gif","img/card_backs/set2/orange.gif","""event"",""trial"",""time""
""fullscreenenter"",""1"",""3364""
","
","
","""event"",""trial"",""time""
""fullscreenenter"",""1"",""3364""
","
","","null","","null","","fixation","2021-07-01 18:34:03.111","","","","","",""
"card-selection-trial","73","349788","0.0-25.0-1.1","182","false","img/card_backs/set1/red.gif","img/card_backs/set1/yellow.gif","img/card_backs/set1/purple.gif","img/card_backs/set1/green.gif","img/card_backs/set2/pink.gif","img/card_backs/set2/gray.gif","img/card_backs/set2/blue.gif","img/card_backs/set2/orange.gif","""event"",""trial"",""time""
""fullscreenenter"",""1"",""3364""
","
","
","""event"",""trial"",""time""
""fullscreenenter"",""1"",""3364""
","
","","884.2999999970198","","","","real_trial","2021-07-01 18:34:06.004","img/card_backs/set1/yellow.gif","3","200","1","",""
"casino-fixation","74","350294","0.0-25.0-0.2","182","false","img/card_backs/set1/red.gif","img/card_backs/set1/yellow.gif","img/card_backs/set1/purple.gif","img/card_backs/set1/green.gif","img/card_backs/set2/pink.gif","img/card_backs/set2/gray.gif","img/card_backs/set2/blue.gif","img/card_backs/set2/orange.gif","""event"",""trial"",""time""
""fullscreenenter"",""1"",""3364""
","
","
","""event"",""trial"",""time""
""fullscreenenter"",""1"",""3364""
","
","","null","","null","","fixation","2021-07-01 18:34:06.510","","","","","",""
"card-selection-trial","75","352706","0.0-25.0-1.2","182","false","img/card_backs/set1/red.gif","img/card_backs/set1/yellow.gif","img/card_backs/set1/purple.gif","img/card_backs/set1/green.gif","img/card_backs/set2/pink.gif","img/card_backs/set2/gray.gif","img/card_backs/set2/blue.gif","img/card_backs/set2/orange.gif","""event"",""trial"",""time""
""fullscreenenter"",""1"",""3364""
","
","
","""event"",""trial"",""time""
""fullscreenenter"",""1"",""3364""
","
","","400.5","","","","real_trial","2021-07-01 18:34:08.922","img/card_backs/set1/green.gif","1","-70","1","",""
"casino-fixation","76","353213","0.0-25.0-0.3","182","false","img/card_backs/set1/red.gif","img/card_backs/set1/yellow.gif","img/card_backs/set1/purple.gif","img/card_backs/set1/green.gif","img/card_backs/set2/pink.gif","img/card_backs/set2/gray.gif","img/card_backs/set2/blue.gif","img/card_backs/set2/orange.gif","""event"",""trial"",""time""
""fullscreenenter"",""1"",""3364""
","
","
","""event"",""trial"",""time""
""fullscreenenter"",""1"",""3364""
","
","","null","","null","","fixation","2021-07-01 18:34:09.429","","","","","",""
"card-selection-trial","77","356098","0.0-25.0-1.3","182","false","img/card_backs/set1/red.gif","img/card_backs/set1/yellow.gif","img/card_backs/set1/purple.gif","img/card_backs/set1/green.gif","img/card_backs/set2/pink.gif","img/card_backs/set2/gray.gif","img/card_backs/set2/blue.gif","img/card_backs/set2/orange.gif","""event"",""trial"",""time""
""fullscreenenter"",""1"",""3364""
","
","
","""event"",""trial"",""time""
""fullscreenenter"",""1"",""3364""
","
","","875.7000000029802","","","","real_trial","2021-07-01 18:34:12.314","img/card_backs/set1/yellow.gif","2","-240","1","",""
"casino-fixation","78","356605","0.0-25.0-0.4","182","false","img/card_backs/set1/red.gif","img/card_backs/set1/yellow.gif","img/card_backs/set1/purple.gif","img/card_backs/set1/green.gif","img/card_backs/set2/pink.gif","img/card_backs/set2/gray.gif","img/card_backs/set2/blue.gif","img/card_backs/set2/orange.gif","""event"",""trial"",""time""
""fullscreenenter"",""1"",""3364""
","
","
","""event"",""trial"",""time""
""fullscreenenter"",""1"",""3364""
","
","","null","","null","","fixation","2021-07-01 18:34:12.821","","","","","",""
"card-selection-trial","79","359650","0.0-25.0-1.4","182","false","img/card_backs/set1/red.gif","img/card_backs/set1/yellow.gif","img/card_backs/set1/purple.gif","img/card_backs/set1/green.gif","img/card_backs/set2/pink.gif","img/card_backs/set2/gray.gif","img/card_backs/set2/blue.gif","img/card_backs/set2/orange.gif","""event"",""trial"",""time""
""fullscreenenter"",""1"",""3364""
","
","
","""event"",""trial"",""time""
""fullscreenenter"",""1"",""3364""
","
","","1033.9000000059605","","","","real_trial","2021-07-01 18:34:15.866","img/card_backs/set1/green.gif","3","110","1","",""
"casino-fixation","80","360155","0.0-25.0-0.5","182","false","img/card_backs/set1/red.gif","img/card_backs/set1/yellow.gif","img/card_backs/set1/purple.gif","img/card_backs/set1/green.gif","img/card_backs/set2/pink.gif","img/card_backs/set2/gray.gif","img/card_backs/set2/blue.gif","img/card_backs/set2/orange.gif","""event"",""trial"",""time""
""fullscreenenter"",""1"",""3364""
","
","
","""event"",""trial"",""time""
""fullscreenenter"",""1"",""3364""
","
","","null","","null","","fixation","2021-07-01 18:34:16.371","","","","","",""
"card-selection-trial","81","362838","0.0-25.0-1.5","182","false","img/card_backs/set1/red.gif","img/card_backs/set1/yellow.gif","img/card_backs/set1/purple.gif","img/card_backs/set1/green.gif","img/card_backs/set2/pink.gif","img/card_backs/set2/gray.gif","img/card_backs/set2/blue.gif","img/card_backs/set2/orange.gif","""event"",""trial"",""time""
""fullscreenenter"",""1"",""3364""
","
","
","""event"",""trial"",""time""
""fullscreenenter"",""1"",""3364""
","
","","675.1000000089407","","","","real_trial","2021-07-01 18:34:19.055","img/card_backs/set1/red.gif","0","180","1","",""
"casino-fixation","82","363341","0.0-25.0-0.6","182","false","img/card_backs/set1/red.gif","img/card_backs/set1/yellow.gif","img/card_backs/set1/purple.gif","img/card_backs/set1/green.gif","img/card_backs/set2/pink.gif","img/card_backs/set2/gray.gif","img/card_backs/set2/blue.gif","img/card_backs/set2/orange.gif","""event"",""trial"",""time""
""fullscreenenter"",""1"",""3364""
","
","
","""event"",""trial"",""time""
""fullscreenenter"",""1"",""3364""
","
","","null","","null","","fixation","2021-07-01 18:34:19.557","","","","","",""
"card-selection-trial","83","366126","0.0-25.0-1.6","182","false","img/card_backs/set1/red.gif","img/card_backs/set1/yellow.gif","img/card_backs/set1/purple.gif","img/card_backs/set1/green.gif","img/card_backs/set2/pink.gif","img/card_backs/set2/gray.gif","img/card_backs/set2/blue.gif","img/card_backs/set2/orange.gif","""event"",""trial"",""time""
""fullscreenenter"",""1"",""3364""
","
","
","""event"",""trial"",""time""
""fullscreenenter"",""1"",""3364""
","
","","775.3999999910593","","","","real_trial","2021-07-01 18:34:22.343","img/card_backs/set1/green.gif","2","-50","1","",""
"casino-fixation","84","366633","0.0-25.0-0.7","182","false","img/card_backs/set1/red.gif","img/card_backs/set1/yellow.gif","img/card_backs/set1/purple.gif","img/card_backs/set1/green.gif","img/card_backs/set2/pink.gif","img/card_backs/set2/gray.gif","img/card_backs/set2/blue.gif","img/card_backs/set2/orange.gif","""event"",""trial"",""time""
""fullscreenenter"",""1"",""3364""
","
","
","""event"",""trial"",""time""
""fullscreenenter"",""1"",""3364""
","
","","null","","null","","fixation","2021-07-01 18:34:22.849","","","","","",""
"card-selection-trial","85","369494","0.0-25.0-1.7","182","false","img/card_backs/set1/red.gif","img/card_backs/set1/yellow.gif","img/card_backs/set1/purple.gif","img/card_backs/set1/green.gif","img/card_backs/set2/pink.gif","img/card_backs/set2/gray.gif","img/card_backs/set2/blue.gif","img/card_backs/set2/orange.gif","""event"",""trial"",""time""
""fullscreenenter"",""1"",""3364""
","
","
","""event"",""trial"",""time""
""fullscreenenter"",""1"",""3364""
","
","","848.6000000089407","","","","real_trial","2021-07-01 18:34:25.711","img/card_backs/set1/purple.gif","3","100","1","",""
"casino-fixation","86","370001","0.0-25.0-0.8","182","false","img/card_backs/set1/red.gif","img/card_backs/set1/yellow.gif","img/card_backs/set1/purple.gif","img/card_backs/set1/green.gif","img/card_backs/set2/pink.gif","img/card_backs/set2/gray.gif","img/card_backs/set2/blue.gif","img/card_backs/set2/orange.gif","""event"",""trial"",""time""
""fullscreenenter"",""1"",""3364""
","
","
","""event"",""trial"",""time""
""fullscreenenter"",""1"",""3364""
","
","","null","","null","","fixation","2021-07-01 18:34:26.218","","","","","",""
"card-selection-trial","87","373449","0.0-25.0-1.8","182","false","img/card_backs/set1/red.gif","img/card_backs/set1/yellow.gif","img/card_backs/set1/purple.gif","img/card_backs/set1/green.gif","img/card_backs/set2/pink.gif","img/card_backs/set2/gray.gif","img/card_backs/set2/blue.gif","img/card_backs/set2/orange.gif","""event"",""trial"",""time""
""fullscreenenter"",""1"",""3364""
","
","
","""event"",""trial"",""time""
""fullscreenenter"",""1"",""3364""
","
","","1436.5","","","","real_trial","2021-07-01 18:34:29.665","img/card_backs/set1/green.gif","0","-50","1","",""
"casino-fixation","88","373955","0.0-25.0-0.9","182","false","img/card_backs/set1/red.gif","img/card_backs/set1/yellow.gif","img/card_backs/set1/purple.gif","img/card_backs/set1/green.gif","img/card_backs/set2/pink.gif","img/card_backs/set2/gray.gif","img/card_backs/set2/blue.gif","img/card_backs/set2/orange.gif","""event"",""trial"",""time""
""fullscreenenter"",""1"",""3364""
","
","
","""event"",""trial"",""time""
""fullscreenenter"",""1"",""3364""
","
","","null","","null","","fixation","2021-07-01 18:34:30.171","","","","","",""
"card-selection-trial","89","376948","0.0-25.0-1.9","182","false","img/card_backs/set1/red.gif","img/card_backs/set1/yellow.gif","img/card_backs/set1/purple.gif","img/card_backs/set1/green.gif","img/card_backs/set2/pink.gif","img/card_backs/set2/gray.gif","img/card_backs/set2/blue.gif","img/card_backs/set2/orange.gif","""event"",""trial"",""time""
""fullscreenenter"",""1"",""3364""
","
","
","""event"",""trial"",""time""
""fullscreenenter"",""1"",""3364""
","
","","980.0999999940395","","","","real_trial","2021-07-01 18:34:33.164","img/card_backs/set1/green.gif","1","120","1","",""
"casino-fixation","90","377454","0.0-25.0-0.10","182","false","img/card_backs/set1/red.gif","img/card_backs/set1/yellow.gif","img/card_backs/set1/purple.gif","img/card_backs/set1/green.gif","img/card_backs/set2/pink.gif","img/card_backs/set2/gray.gif","img/card_backs/set2/blue.gif","img/card_backs/set2/orange.gif","""event"",""trial"",""time""
""fullscreenenter"",""1"",""3364""
","
","
","""event"",""trial"",""time""
""fullscreenenter"",""1"",""3364""
","
","","null","","null","","fixation","2021-07-01 18:34:33.670","","","","","",""
"card-selection-trial","91","380324","0.0-25.0-1.10","182","false","img/card_backs/set1/red.gif","img/card_backs/set1/yellow.gif","img/card_backs/set1/purple.gif","img/card_backs/set1/green.gif","img/card_backs/set2/pink.gif","img/card_backs/set2/gray.gif","img/card_backs/set2/blue.gif","img/card_backs/set2/orange.gif","""event"",""trial"",""time""
""fullscreenenter"",""1"",""3364""
","
","
","""event"",""trial"",""time""
""fullscreenenter"",""1"",""3364""
","
","","858.5999999940395","","","","real_trial","2021-07-01 18:34:36.540","img/card_backs/set1/yellow.gif","2","-230","1","",""
"casino-fixation","92","380829","0.0-25.0-0.11","182","false","img/card_backs/set1/red.gif","img/card_backs/set1/yellow.gif","img/card_backs/set1/purple.gif","img/card_backs/set1/green.gif","img/card_backs/set2/pink.gif","img/card_backs/set2/gray.gif","img/card_backs/set2/blue.gif","img/card_backs/set2/orange.gif","""event"",""trial"",""time""
""fullscreenenter"",""1"",""3364""
","
","
","""event"",""trial"",""time""
""fullscreenenter"",""1"",""3364""
","
","","null","","null","","fixation","2021-07-01 18:34:37.045","","","","","",""
"card-selection-trial","93","383710","0.0-25.0-1.11","182","false","img/card_backs/set1/red.gif","img/card_backs/set1/yellow.gif","img/card_backs/set1/purple.gif","img/card_backs/set1/green.gif","img/card_backs/set2/pink.gif","img/card_backs/set2/gray.gif","img/card_backs/set2/blue.gif","img/card_backs/set2/orange.gif","""event"",""trial"",""time""
""fullscreenenter"",""1"",""3364""
","
","
","""event"",""trial"",""time""
""fullscreenenter"",""1"",""3364""
","
","","868.4000000059605","","","","real_trial","2021-07-01 18:34:39.926","img/card_backs/set1/green.gif","2","-70","1","",""
"casino-fixation","94","384211","0.0-25.0-0.12","182","false","img/card_backs/set1/red.gif","img/card_backs/set1/yellow.gif","img/card_backs/set1/purple.gif","img/card_backs/set1/green.gif","img/card_backs/set2/pink.gif","img/card_backs/set2/gray.gif","img/card_backs/set2/blue.gif","img/card_backs/set2/orange.gif","""event"",""trial"",""time""
""fullscreenenter"",""1"",""3364""
","
","
","""event"",""trial"",""time""
""fullscreenenter"",""1"",""3364""
","
","","null","","null","","fixation","2021-07-01 18:34:40.427","","","","","",""
"card-selection-trial","95","386629","0.0-25.0-1.12","182","false","img/card_backs/set1/red.gif","img/card_backs/set1/yellow.gif","img/card_backs/set1/purple.gif","img/card_backs/set1/green.gif","img/card_backs/set2/pink.gif","img/card_backs/set2/gray.gif","img/card_backs/set2/blue.gif","img/card_backs/set2/orange.gif","""event"",""trial"",""time""
""fullscreenenter"",""1"",""3364""
","
","
","""event"",""trial"",""time""
""fullscreenenter"",""1"",""3364""
","
","","408.69999998807907","","","","real_trial","2021-07-01 18:34:42.845","img/card_backs/set1/yellow.gif","3","190","1","",""
"casino-fixation","96","387134","0.0-25.0-0.13","182","false","img/card_backs/set1/red.gif","img/card_backs/set1/yellow.gif","img/card_backs/set1/purple.gif","img/card_backs/set1/green.gif","img/card_backs/set2/pink.gif","img/card_backs/set2/gray.gif","img/card_backs/set2/blue.gif","img/card_backs/set2/orange.gif","""event"",""trial"",""time""
""fullscreenenter"",""1"",""3364""
","
","
","""event"",""trial"",""time""
""fullscreenenter"",""1"",""3364""
","
","","null","","null","","fixation","2021-07-01 18:34:43.350","","","","","",""
"card-selection-trial","97","390210","0.0-25.0-1.13","182","false","img/card_backs/set1/red.gif","img/card_backs/set1/yellow.gif","img/card_backs/set1/purple.gif","img/card_backs/set1/green.gif","img/card_backs/set2/pink.gif","img/card_backs/set2/gray.gif","img/card_backs/set2/blue.gif","img/card_backs/set2/orange.gif","""event"",""trial"",""time""
""fullscreenenter"",""1"",""3364""
","
","
","""event"",""trial"",""time""
""fullscreenenter"",""1"",""3364""
","
","","1068.7000000029802","","","","real_trial","2021-07-01 18:34:46.426","img/card_backs/set1/green.gif","1","100","1","",""
"casino-fixation","98","390712","0.0-25.0-0.14","182","false","img/card_backs/set1/red.gif","img/card_backs/set1/yellow.gif","img/card_backs/set1/purple.gif","img/card_backs/set1/green.gif","img/card_backs/set2/pink.gif","img/card_backs/set2/gray.gif","img/card_backs/set2/blue.gif","img/card_backs/set2/orange.gif","""event"",""trial"",""time""
""fullscreenenter"",""1"",""3364""
","
","
","""event"",""trial"",""time""
""fullscreenenter"",""1"",""3364""
","
","","null","","null","","fixation","2021-07-01 18:34:46.928","","","","","",""
"card-selection-trial","99","393497","0.0-25.0-1.14","182","false","img/card_backs/set1/red.gif","img/card_backs/set1/yellow.gif","img/card_backs/set1/purple.gif","img/card_backs/set1/green.gif","img/card_backs/set2/pink.gif","img/card_backs/set2/gray.gif","img/card_backs/set2/blue.gif","img/card_backs/set2/orange.gif","""event"",""trial"",""time""
""fullscreenenter"",""1"",""3364""
","
","
","""event"",""trial"",""time""
""fullscreenenter"",""1"",""3364""
","
","","773.4000000059605","","","","real_trial","2021-07-01 18:34:49.713","img/card_backs/set1/yellow.gif","2","-240","1","",""
"casino-fixation","100","394003","0.0-25.0-0.15","182","false","img/card_backs/set1/red.gif","img/card_backs/set1/yellow.gif","img/card_backs/set1/purple.gif","img/card_backs/set1/green.gif","img/card_backs/set2/pink.gif","img/card_backs/set2/gray.gif","img/card_backs/set2/blue.gif","img/card_backs/set2/orange.gif","""event"",""trial"",""time""
""fullscreenenter"",""1"",""3364""
","
","
","""event"",""trial"",""time""
""fullscreenenter"",""1"",""3364""
","
","","null","","null","","fixation","2021-07-01 18:34:50.219","","","","","",""
"card-selection-trial","101","396483","0.0-25.0-1.15","182","false","img/card_backs/set1/red.gif","img/card_backs/set1/yellow.gif","img/card_backs/set1/purple.gif","img/card_backs/set1/green.gif","img/card_backs/set2/pink.gif","img/card_backs/set2/gray.gif","img/card_backs/set2/blue.gif","img/card_backs/set2/orange.gif","""event"",""trial"",""time""
""fullscreenenter"",""1"",""3364""
","
","
","""event"",""trial"",""time""
""fullscreenenter"",""1"",""3364""
","
","","468.70000000298023","","","","real_trial","2021-07-01 18:34:52.700","img/card_backs/set1/green.gif","3","100","1","",""
"casino-fixation","102","396990","0.0-25.0-0.16","182","false","img/card_backs/set1/red.gif","img/card_backs/set1/yellow.gif","img/card_backs/set1/purple.gif","img/card_backs/set1/green.gif","img/card_backs/set2/pink.gif","img/card_backs/set2/gray.gif","img/card_backs/set2/blue.gif","img/card_backs/set2/orange.gif","""event"",""trial"",""time""
""fullscreenenter"",""1"",""3364""
","
","
","""event"",""trial"",""time""
""fullscreenenter"",""1"",""3364""
","
","","null","","null","","fixation","2021-07-01 18:34:53.206","","","","","",""
"card-selection-trial","103","399587","0.0-25.0-1.16","182","false","img/card_backs/set1/red.gif","img/card_backs/set1/yellow.gif","img/card_backs/set1/purple.gif","img/card_backs/set1/green.gif","img/card_backs/set2/pink.gif","img/card_backs/set2/gray.gif","img/card_backs/set2/blue.gif","img/card_backs/set2/orange.gif","""event"",""trial"",""time""
""fullscreenenter"",""1"",""3364""
","
","
","""event"",""trial"",""time""
""fullscreenenter"",""1"",""3364""
","
","","589.1999999880791","","","","real_trial","2021-07-01 18:34:55.804","img/card_backs/set1/green.gif","0","120","1","",""
"casino-fixation","104","400094","0.0-25.0-0.17","182","false","img/card_backs/set1/red.gif","img/card_backs/set1/yellow.gif","img/card_backs/set1/purple.gif","img/card_backs/set1/green.gif","img/card_backs/set2/pink.gif","img/card_backs/set2/gray.gif","img/card_backs/set2/blue.gif","img/card_backs/set2/orange.gif","""event"",""trial"",""time""
""fullscreenenter"",""1"",""3364""
","
","
","""event"",""trial"",""time""
""fullscreenenter"",""1"",""3364""
","
","","null","","null","","fixation","2021-07-01 18:34:56.310","","","","","",""
"card-selection-trial","105","402851","0.0-25.0-1.17","182","false","img/card_backs/set1/red.gif","img/card_backs/set1/yellow.gif","img/card_backs/set1/purple.gif","img/card_backs/set1/green.gif","img/card_backs/set2/pink.gif","img/card_backs/set2/gray.gif","img/card_backs/set2/blue.gif","img/card_backs/set2/orange.gif","""event"",""trial"",""time""
""fullscreenenter"",""1"",""3364""
","
","
","""event"",""trial"",""time""
""fullscreenenter"",""1"",""3364""
","
","","744.8000000119209","","","","real_trial","2021-07-01 18:34:59.067","img/card_backs/set1/green.gif","3","-50","1","",""
"casino-fixation","106","403358","0.0-25.0-0.18","182","false","img/card_backs/set1/red.gif","img/card_backs/set1/yellow.gif","img/card_backs/set1/purple.gif","img/card_backs/set1/green.gif","img/card_backs/set2/pink.gif","img/card_backs/set2/gray.gif","img/card_backs/set2/blue.gif","img/card_backs/set2/orange.gif","""event"",""trial"",""time""
""fullscreenenter"",""1"",""3364""
","
","
","""event"",""trial"",""time""
""fullscreenenter"",""1"",""3364""
","
","","null","","null","","fixation","2021-07-01 18:34:59.574","","","","","",""
"card-selection-trial","107","405977","0.0-25.0-1.18","182","false","img/card_backs/set1/red.gif","img/card_backs/set1/yellow.gif","img/card_backs/set1/purple.gif","img/card_backs/set1/green.gif","img/card_backs/set2/pink.gif","img/card_backs/set2/gray.gif","img/card_backs/set2/blue.gif","img/card_backs/set2/orange.gif","""event"",""trial"",""time""
""fullscreenenter"",""1"",""3364""
","
","
","""event"",""trial"",""time""
""fullscreenenter"",""1"",""3364""
","
","","607.5","","","","real_trial","2021-07-01 18:35:02.193","img/card_backs/set1/green.gif","2","-50","1","",""
"casino-fixation","108","406483","0.0-25.0-0.19","182","false","img/card_backs/set1/red.gif","img/card_backs/set1/yellow.gif","img/card_backs/set1/purple.gif","img/card_backs/set1/green.gif","img/card_backs/set2/pink.gif","img/card_backs/set2/gray.gif","img/card_backs/set2/blue.gif","img/card_backs/set2/orange.gif","""event"",""trial"",""time""
""fullscreenenter"",""1"",""3364""
","
","
","""event"",""trial"",""time""
""fullscreenenter"",""1"",""3364""
","
","","null","","null","","fixation","2021-07-01 18:35:02.699","","","","","",""
"card-selection-trial","109","408953","0.0-25.0-1.19","182","false","img/card_backs/set1/red.gif","img/card_backs/set1/yellow.gif","img/card_backs/set1/purple.gif","img/card_backs/set1/green.gif","img/card_backs/set2/pink.gif","img/card_backs/set2/gray.gif","img/card_backs/set2/blue.gif","img/card_backs/set2/orange.gif","""event"",""trial"",""time""
""fullscreenenter"",""1"",""3364""
","
","
","""event"",""trial"",""time""
""fullscreenenter"",""1"",""3364""
","
","","460.1000000089407","","","","real_trial","2021-07-01 18:35:05.169","img/card_backs/set1/green.gif","2","120","1","",""
"casino-fixation","110","409459","0.0-25.0-0.20","182","false","img/card_backs/set1/red.gif","img/card_backs/set1/yellow.gif","img/card_backs/set1/purple.gif","img/card_backs/set1/green.gif","img/card_backs/set2/pink.gif","img/card_backs/set2/gray.gif","img/card_backs/set2/blue.gif","img/card_backs/set2/orange.gif","""event"",""trial"",""time""
""fullscreenenter"",""1"",""3364""
","
","
","""event"",""trial"",""time""
""fullscreenenter"",""1"",""3364""
","
","","null","","null","","fixation","2021-07-01 18:35:05.675","","","","","",""
"card-selection-trial","111","412835","0.0-25.0-1.20","182","false","img/card_backs/set1/red.gif","img/card_backs/set1/yellow.gif","img/card_backs/set1/purple.gif","img/card_backs/set1/green.gif","img/card_backs/set2/pink.gif","img/card_backs/set2/gray.gif","img/card_backs/set2/blue.gif","img/card_backs/set2/orange.gif","""event"",""trial"",""time""
""fullscreenenter"",""1"",""3364""
","
","
","""event"",""trial"",""time""
""fullscreenenter"",""1"",""3364""
","
","","1369","","","","real_trial","2021-07-01 18:35:09.052","img/card_backs/set1/purple.gif","1","-70","1","",""
"casino-fixation","112","413341","0.0-25.0-0.21","182","false","img/card_backs/set1/red.gif","img/card_backs/set1/yellow.gif","img/card_backs/set1/purple.gif","img/card_backs/set1/green.gif","img/card_backs/set2/pink.gif","img/card_backs/set2/gray.gif","img/card_backs/set2/blue.gif","img/card_backs/set2/orange.gif","""event"",""trial"",""time""
""fullscreenenter"",""1"",""3364""
","
","
","""event"",""trial"",""time""
""fullscreenenter"",""1"",""3364""
","
","","null","","null","","fixation","2021-07-01 18:35:09.558","","","","","",""
"card-selection-trial","113","415849","0.0-25.0-1.21","182","false","img/card_backs/set1/red.gif","img/card_backs/set1/yellow.gif","img/card_backs/set1/purple.gif","img/card_backs/set1/green.gif","img/card_backs/set2/pink.gif","img/card_backs/set2/gray.gif","img/card_backs/set2/blue.gif","img/card_backs/set2/orange.gif","""event"",""trial"",""time""
""fullscreenenter"",""1"",""3364""
","
","
","""event"",""trial"",""time""
""fullscreenenter"",""1"",""3364""
","
","","497.6000000089407","","","","real_trial","2021-07-01 18:35:12.065","img/card_backs/set1/purple.gif","3","-70","1","",""
"casino-fixation","114","416355","0.0-25.0-0.22","182","false","img/card_backs/set1/red.gif","img/card_backs/set1/yellow.gif","img/card_backs/set1/purple.gif","img/card_backs/set1/green.gif","img/card_backs/set2/pink.gif","img/card_backs/set2/gray.gif","img/card_backs/set2/blue.gif","img/card_backs/set2/orange.gif","""event"",""trial"",""time""
""fullscreenenter"",""1"",""3364""
","
","
","""event"",""trial"",""time""
""fullscreenenter"",""1"",""3364""
","
","","null","","null","","fixation","2021-07-01 18:35:12.571","","","","","",""
"card-selection-trial","115","418840","0.0-25.0-1.22","182","false","img/card_backs/set1/red.gif","img/card_backs/set1/yellow.gif","img/card_backs/set1/purple.gif","img/card_backs/set1/green.gif","img/card_backs/set2/pink.gif","img/card_backs/set2/gray.gif","img/card_backs/set2/blue.gif","img/card_backs/set2/orange.gif","""event"",""trial"",""time""
""fullscreenenter"",""1"",""3364""
","
","
","""event"",""trial"",""time""
""fullscreenenter"",""1"",""3364""
","
","","473.29999999701977","","","","real_trial","2021-07-01 18:35:15.057","img/card_backs/set1/purple.gif","2","110","1","",""
"casino-fixation","116","419347","0.0-25.0-0.23","182","false","img/card_backs/set1/red.gif","img/card_backs/set1/yellow.gif","img/card_backs/set1/purple.gif","img/card_backs/set1/green.gif","img/card_backs/set2/pink.gif","img/card_backs/set2/gray.gif","img/card_backs/set2/blue.gif","img/card_backs/set2/orange.gif","""event"",""trial"",""time""
""fullscreenenter"",""1"",""3364""
","
","
","""event"",""trial"",""time""
""fullscreenenter"",""1"",""3364""
","
","","null","","null","","fixation","2021-07-01 18:35:15.563","","","","","",""
"card-selection-trial","117","421923","0.0-25.0-1.23","182","false","img/card_backs/set1/red.gif","img/card_backs/set1/yellow.gif","img/card_backs/set1/purple.gif","img/card_backs/set1/green.gif","img/card_backs/set2/pink.gif","img/card_backs/set2/gray.gif","img/card_backs/set2/blue.gif","img/card_backs/set2/orange.gif","""event"",""trial"",""time""
""fullscreenenter"",""1"",""3364""
","
","
","""event"",""trial"",""time""
""fullscreenenter"",""1"",""3364""
","
","","568.1000000089407","","","","real_trial","2021-07-01 18:35:18.139","img/card_backs/set1/purple.gif","3","-70","1","",""
"casino-fixation","118","422429","0.0-25.0-0.24","182","false","img/card_backs/set1/red.gif","img/card_backs/set1/yellow.gif","img/card_backs/set1/purple.gif","img/card_backs/set1/green.gif","img/card_backs/set2/pink.gif","img/card_backs/set2/gray.gif","img/card_backs/set2/blue.gif","img/card_backs/set2/orange.gif","""event"",""trial"",""time""
""fullscreenenter"",""1"",""3364""
","
","
","""event"",""trial"",""time""
""fullscreenenter"",""1"",""3364""
","
","","null","","null","","fixation","2021-07-01 18:35:18.645","","","","","",""
"card-selection-trial","119","424846","0.0-25.0-1.24","182","false","img/card_backs/set1/red.gif","img/card_backs/set1/yellow.gif","img/card_backs/set1/purple.gif","img/card_backs/set1/green.gif","img/card_backs/set2/pink.gif","img/card_backs/set2/gray.gif","img/card_backs/set2/blue.gif","img/card_backs/set2/orange.gif","""event"",""trial"",""time""
""fullscreenenter"",""1"",""3364""
","
","
","""event"",""trial"",""time""
""fullscreenenter"",""1"",""3364""
","
","","403.29999999701977","","","","real_trial","2021-07-01 18:35:21.062","img/card_backs/set1/purple.gif","0","110","1","",""
"casino-fixation","120","425352","0.0-25.0-0.25","182","false","img/card_backs/set1/red.gif","img/card_backs/set1/yellow.gif","img/card_backs/set1/purple.gif","img/card_backs/set1/green.gif","img/card_backs/set2/pink.gif","img/card_backs/set2/gray.gif","img/card_backs/set2/blue.gif","img/card_backs/set2/orange.gif","""event"",""trial"",""time""
""fullscreenenter"",""1"",""3364""
","
","
","""event"",""trial"",""time""
""fullscreenenter"",""1"",""3364""
","
","","null","","null","","fixation","2021-07-01 18:35:21.568","","","","","",""
"card-selection-trial","121","428286","0.0-25.0-1.25","182","false","img/card_backs/set1/red.gif","img/card_backs/set1/yellow.gif","img/card_backs/set1/purple.gif","img/card_backs/set1/green.gif","img/card_backs/set2/pink.gif","img/card_backs/set2/gray.gif","img/card_backs/set2/blue.gif","img/card_backs/set2/orange.gif","""event"",""trial"",""time""
""fullscreenenter"",""1"",""3364""
","
","
","""event"",""trial"",""time""
""fullscreenenter"",""1"",""3364""
","
","","925.1000000089407","","","","real_trial","2021-07-01 18:35:24.502","img/card_backs/set1/red.gif","1","-230","1","",""
"casino-fixation","122","428792","0.0-25.0-0.26","182","false","img/card_backs/set1/red.gif","img/card_backs/set1/yellow.gif","img/card_backs/set1/purple.gif","img/card_backs/set1/green.gif","img/card_backs/set2/pink.gif","img/card_backs/set2/gray.gif","img/card_backs/set2/blue.gif","img/card_backs/set2/orange.gif","""event"",""trial"",""time""
""fullscreenenter"",""1"",""3364""
","
","
","""event"",""trial"",""time""
""fullscreenenter"",""1"",""3364""
","
","","null","","null","","fixation","2021-07-01 18:35:25.008","","","","","",""
"card-selection-trial","123","431640","0.0-25.0-1.26","182","false","img/card_backs/set1/red.gif","img/card_backs/set1/yellow.gif","img/card_backs/set1/purple.gif","img/card_backs/set1/green.gif","img/card_backs/set2/pink.gif","img/card_backs/set2/gray.gif","img/card_backs/set2/blue.gif","img/card_backs/set2/orange.gif","""event"",""trial"",""time""
""fullscreenenter"",""1"",""3364""
","
","
","""event"",""trial"",""time""
""fullscreenenter"",""1"",""3364""
","
","","837.7999999970198","","","","real_trial","2021-07-01 18:35:27.857","img/card_backs/set1/green.gif","3","120","1","",""
"casino-fixation","124","432147","0.0-25.0-0.27","182","false","img/card_backs/set1/red.gif","img/card_backs/set1/yellow.gif","img/card_backs/set1/purple.gif","img/card_backs/set1/green.gif","img/card_backs/set2/pink.gif","img/card_backs/set2/gray.gif","img/card_backs/set2/blue.gif","img/card_backs/set2/orange.gif","""event"",""trial"",""time""
""fullscreenenter"",""1"",""3364""
","
","
","""event"",""trial"",""time""
""fullscreenenter"",""1"",""3364""
","
","","null","","null","","fixation","2021-07-01 18:35:28.363","","","","","",""
"card-selection-trial","125","435549","0.0-25.0-1.27","182","false","img/card_backs/set1/red.gif","img/card_backs/set1/yellow.gif","img/card_backs/set1/purple.gif","img/card_backs/set1/green.gif","img/card_backs/set2/pink.gif","img/card_backs/set2/gray.gif","img/card_backs/set2/blue.gif","img/card_backs/set2/orange.gif","""event"",""trial"",""time""
""fullscreenenter"",""1"",""3364""
","
","
","""event"",""trial"",""time""
""fullscreenenter"",""1"",""3364""
","
","","1392.800000011921","","","","real_trial","2021-07-01 18:35:31.765","img/card_backs/set1/red.gif","3","190","1","",""
"casino-fixation","126","436056","0.0-25.0-0.28","182","false","img/card_backs/set1/red.gif","img/card_backs/set1/yellow.gif","img/card_backs/set1/purple.gif","img/card_backs/set1/green.gif","img/card_backs/set2/pink.gif","img/card_backs/set2/gray.gif","img/card_backs/set2/blue.gif","img/card_backs/set2/orange.gif","""event"",""trial"",""time""
""fullscreenenter"",""1"",""3364""
","
","
","""event"",""trial"",""time""
""fullscreenenter"",""1"",""3364""
","
","","null","","null","","fixation","2021-07-01 18:35:32.272","","","","","",""
"card-selection-trial","127","438739","0.0-25.0-1.28","182","false","img/card_backs/set1/red.gif","img/card_backs/set1/yellow.gif","img/card_backs/set1/purple.gif","img/card_backs/set1/green.gif","img/card_backs/set2/pink.gif","img/card_backs/set2/gray.gif","img/card_backs/set2/blue.gif","img/card_backs/set2/orange.gif","""event"",""trial"",""time""
""fullscreenenter"",""1"",""3364""
","
","
","""event"",""trial"",""time""
""fullscreenenter"",""1"",""3364""
","
","","674.5","","","","real_trial","2021-07-01 18:35:34.955","img/card_backs/set1/red.gif","0","-230","1","",""
"casino-fixation","128","439245","0.0-25.0-0.29","182","false","img/card_backs/set1/red.gif","img/card_backs/set1/yellow.gif","img/card_backs/set1/purple.gif","img/card_backs/set1/green.gif","img/card_backs/set2/pink.gif","img/card_backs/set2/gray.gif","img/card_backs/set2/blue.gif","img/card_backs/set2/orange.gif","""event"",""trial"",""time""
""fullscreenenter"",""1"",""3364""
","
","
","""event"",""trial"",""time""
""fullscreenenter"",""1"",""3364""
","
","","null","","null","","fixation","2021-07-01 18:35:35.461","","","","","",""
"card-selection-trial","129","442008","0.0-25.0-1.29","182","false","img/card_backs/set1/red.gif","img/card_backs/set1/yellow.gif","img/card_backs/set1/purple.gif","img/card_backs/set1/green.gif","img/card_backs/set2/pink.gif","img/card_backs/set2/gray.gif","img/card_backs/set2/blue.gif","img/card_backs/set2/orange.gif","""event"",""trial"",""time""
""fullscreenenter"",""1"",""3364""
","
","
","""event"",""trial"",""time""
""fullscreenenter"",""1"",""3364""
","
","","753.5","","","","real_trial","2021-07-01 18:35:38.224","img/card_backs/set1/yellow.gif","1","-240","1","",""
"casino-fixation","130","442514","0.0-25.0-0.30","182","false","img/card_backs/set1/red.gif","img/card_backs/set1/yellow.gif","img/card_backs/set1/purple.gif","img/card_backs/set1/green.gif","img/card_backs/set2/pink.gif","img/card_backs/set2/gray.gif","img/card_backs/set2/blue.gif","img/card_backs/set2/orange.gif","""event"",""trial"",""time""
""fullscreenenter"",""1"",""3364""
","
","
","""event"",""trial"",""time""
""fullscreenenter"",""1"",""3364""
","
","","null","","null","","fixation","2021-07-01 18:35:38.730","","","","","",""
"card-selection-trial","131","444870","0.0-25.0-1.30","182","false","img/card_backs/set1/red.gif","img/card_backs/set1/yellow.gif","img/card_backs/set1/purple.gif","img/card_backs/set1/green.gif","img/card_backs/set2/pink.gif","img/card_backs/set2/gray.gif","img/card_backs/set2/blue.gif","img/card_backs/set2/orange.gif","""event"",""trial"",""time""
""fullscreenenter"",""1"",""3364""
","
","
","""event"",""trial"",""time""
""fullscreenenter"",""1"",""3364""
","
","","344.40000000596046","","","","real_trial","2021-07-01 18:35:41.086","img/card_backs/set1/purple.gif","2","110","1","",""
"casino-fixation","132","445373","0.0-25.0-0.31","182","false","img/card_backs/set1/red.gif","img/card_backs/set1/yellow.gif","img/card_backs/set1/purple.gif","img/card_backs/set1/green.gif","img/card_backs/set2/pink.gif","img/card_backs/set2/gray.gif","img/card_backs/set2/blue.gif","img/card_backs/set2/orange.gif","""event"",""trial"",""time""
""fullscreenenter"",""1"",""3364""
","
","
","""event"",""trial"",""time""
""fullscreenenter"",""1"",""3364""
","
","","null","","null","","fixation","2021-07-01 18:35:41.589","","","","","",""
"card-selection-trial","133","447928","0.0-25.0-1.31","182","false","img/card_backs/set1/red.gif","img/card_backs/set1/yellow.gif","img/card_backs/set1/purple.gif","img/card_backs/set1/green.gif","img/card_backs/set2/pink.gif","img/card_backs/set2/gray.gif","img/card_backs/set2/blue.gif","img/card_backs/set2/orange.gif","""event"",""trial"",""time""
""fullscreenenter"",""1"",""3364""
","
","
","""event"",""trial"",""time""
""fullscreenenter"",""1"",""3364""
","
","","546","","","","real_trial","2021-07-01 18:35:44.144","img/card_backs/set1/purple.gif","2","120","1","",""
"casino-fixation","134","448434","0.0-25.0-0.32","182","false","img/card_backs/set1/red.gif","img/card_backs/set1/yellow.gif","img/card_backs/set1/purple.gif","img/card_backs/set1/green.gif","img/card_backs/set2/pink.gif","img/card_backs/set2/gray.gif","img/card_backs/set2/blue.gif","img/card_backs/set2/orange.gif","""event"",""trial"",""time""
""fullscreenenter"",""1"",""3364""
","
","
","""event"",""trial"",""time""
""fullscreenenter"",""1"",""3364""
","
","","null","","null","","fixation","2021-07-01 18:35:44.650","","","","","",""
"card-selection-trial","135","451021","0.0-25.0-1.32","182","false","img/card_backs/set1/red.gif","img/card_backs/set1/yellow.gif","img/card_backs/set1/purple.gif","img/card_backs/set1/green.gif","img/card_backs/set2/pink.gif","img/card_backs/set2/gray.gif","img/card_backs/set2/blue.gif","img/card_backs/set2/orange.gif","""event"",""trial"",""time""
""fullscreenenter"",""1"",""3364""
","
","
","""event"",""trial"",""time""
""fullscreenenter"",""1"",""3364""
","
","","576.8999999910593","","","","real_trial","2021-07-01 18:35:47.237","img/card_backs/set1/yellow.gif","3","-240","1","",""
"casino-fixation","136","451528","0.0-25.0-0.33","182","false","img/card_backs/set1/red.gif","img/card_backs/set1/yellow.gif","img/card_backs/set1/purple.gif","img/card_backs/set1/green.gif","img/card_backs/set2/pink.gif","img/card_backs/set2/gray.gif","img/card_backs/set2/blue.gif","img/card_backs/set2/orange.gif","""event"",""trial"",""time""
""fullscreenenter"",""1"",""3364""
","
","
","""event"",""trial"",""time""
""fullscreenenter"",""1"",""3364""
","
","","null","","null","","fixation","2021-07-01 18:35:47.744","","","","","",""
"card-selection-trial","137","454461","0.0-25.0-1.33","182","false","img/card_backs/set1/red.gif","img/card_backs/set1/yellow.gif","img/card_backs/set1/purple.gif","img/card_backs/set1/green.gif","img/card_backs/set2/pink.gif","img/card_backs/set2/gray.gif","img/card_backs/set2/blue.gif","img/card_backs/set2/orange.gif","""event"",""trial"",""time""
""fullscreenenter"",""1"",""3364""
","
","
","""event"",""trial"",""time""
""fullscreenenter"",""1"",""3364""
","
","","922.8999999910593","","","","real_trial","2021-07-01 18:35:50.677","img/card_backs/set1/green.gif","2","-50","1","",""
"casino-fixation","138","454967","0.0-25.0-0.34","182","false","img/card_backs/set1/red.gif","img/card_backs/set1/yellow.gif","img/card_backs/set1/purple.gif","img/card_backs/set1/green.gif","img/card_backs/set2/pink.gif","img/card_backs/set2/gray.gif","img/card_backs/set2/blue.gif","img/card_backs/set2/orange.gif","""event"",""trial"",""time""
""fullscreenenter"",""1"",""3364""
","
","
","""event"",""trial"",""time""
""fullscreenenter"",""1"",""3364""
","
","","null","","null","","fixation","2021-07-01 18:35:51.184","","","","","",""
"card-selection-trial","139","457752","0.0-25.0-1.34","182","false","img/card_backs/set1/red.gif","img/card_backs/set1/yellow.gif","img/card_backs/set1/purple.gif","img/card_backs/set1/green.gif","img/card_backs/set2/pink.gif","img/card_backs/set2/gray.gif","img/card_backs/set2/blue.gif","img/card_backs/set2/orange.gif","""event"",""trial"",""time""
""fullscreenenter"",""1"",""3364""
","
","
","""event"",""trial"",""time""
""fullscreenenter"",""1"",""3364""
","
","","771.5999999940395","","","","real_trial","2021-07-01 18:35:53.968","img/card_backs/set1/green.gif","0","-70","1","",""
"casino-fixation","140","458258","0.0-25.0-0.35","182","false","img/card_backs/set1/red.gif","img/card_backs/set1/yellow.gif","img/card_backs/set1/purple.gif","img/card_backs/set1/green.gif","img/card_backs/set2/pink.gif","img/card_backs/set2/gray.gif","img/card_backs/set2/blue.gif","img/card_backs/set2/orange.gif","""event"",""trial"",""time""
""fullscreenenter"",""1"",""3364""
","
","
","""event"",""trial"",""time""
""fullscreenenter"",""1"",""3364""
","
","","null","","null","","fixation","2021-07-01 18:35:54.474","","","","","",""
"card-selection-trial","141","460849","0.0-25.0-1.35","182","false","img/card_backs/set1/red.gif","img/card_backs/set1/yellow.gif","img/card_backs/set1/purple.gif","img/card_backs/set1/green.gif","img/card_backs/set2/pink.gif","img/card_backs/set2/gray.gif","img/card_backs/set2/blue.gif","img/card_backs/set2/orange.gif","""event"",""trial"",""time""
""fullscreenenter"",""1"",""3364""
","
","
","""event"",""trial"",""time""
""fullscreenenter"",""1"",""3364""
","
","","577.5","","","","real_trial","2021-07-01 18:35:57.065","img/card_backs/set1/green.gif","3","120","1","",""
"casino-fixation","142","461355","0.0-25.0-0.36","182","false","img/card_backs/set1/red.gif","img/card_backs/set1/yellow.gif","img/card_backs/set1/purple.gif","img/card_backs/set1/green.gif","img/card_backs/set2/pink.gif","img/card_backs/set2/gray.gif","img/card_backs/set2/blue.gif","img/card_backs/set2/orange.gif","""event"",""trial"",""time""
""fullscreenenter"",""1"",""3364""
","
","
","""event"",""trial"",""time""
""fullscreenenter"",""1"",""3364""
","
","","null","","null","","fixation","2021-07-01 18:35:57.571","","","","","",""
"card-selection-trial","143","464040","0.0-25.0-1.36","182","false","img/card_backs/set1/red.gif","img/card_backs/set1/yellow.gif","img/card_backs/set1/purple.gif","img/card_backs/set1/green.gif","img/card_backs/set2/pink.gif","img/card_backs/set2/gray.gif","img/card_backs/set2/blue.gif","img/card_backs/set2/orange.gif","""event"",""trial"",""time""
""fullscreenenter"",""1"",""3364""
","
","
","""event"",""trial"",""time""
""fullscreenenter"",""1"",""3364""
","
","","672.2999999970198","","","","real_trial","2021-07-01 18:36:00.256","img/card_backs/set1/green.gif","2","-50","1","",""
"casino-fixation","144","464546","0.0-25.0-0.37","182","false","img/card_backs/set1/red.gif","img/card_backs/set1/yellow.gif","img/card_backs/set1/purple.gif","img/card_backs/set1/green.gif","img/card_backs/set2/pink.gif","img/card_backs/set2/gray.gif","img/card_backs/set2/blue.gif","img/card_backs/set2/orange.gif","""event"",""trial"",""time""
""fullscreenenter"",""1"",""3364""
","
","
","""event"",""trial"",""time""
""fullscreenenter"",""1"",""3364""
","
","","null","","null","","fixation","2021-07-01 18:36:00.762","","","","","",""
"card-selection-trial","145","467176","0.0-25.0-1.37","182","false","img/card_backs/set1/red.gif","img/card_backs/set1/yellow.gif","img/card_backs/set1/purple.gif","img/card_backs/set1/green.gif","img/card_backs/set2/pink.gif","img/card_backs/set2/gray.gif","img/card_backs/set2/blue.gif","img/card_backs/set2/orange.gif","""event"",""trial"",""time""
""fullscreenenter"",""1"",""3364""
","
","
","""event"",""trial"",""time""
""fullscreenenter"",""1"",""3364""
","
","","617.2000000029802","","","","real_trial","2021-07-01 18:36:03.392","img/card_backs/set1/purple.gif","3","-60","1","",""
"casino-fixation","146","467682","0.0-25.0-0.38","182","false","img/card_backs/set1/red.gif","img/card_backs/set1/yellow.gif","img/card_backs/set1/purple.gif","img/card_backs/set1/green.gif","img/card_backs/set2/pink.gif","img/card_backs/set2/gray.gif","img/card_backs/set2/blue.gif","img/card_backs/set2/orange.gif","""event"",""trial"",""time""
""fullscreenenter"",""1"",""3364""
","
","
","""event"",""trial"",""time""
""fullscreenenter"",""1"",""3364""
","
","","null","","null","","fixation","2021-07-01 18:36:03.898","","","","","",""
"card-selection-trial","147","470418","0.0-25.0-1.38","182","false","img/card_backs/set1/red.gif","img/card_backs/set1/yellow.gif","img/card_backs/set1/purple.gif","img/card_backs/set1/green.gif","img/card_backs/set2/pink.gif","img/card_backs/set2/gray.gif","img/card_backs/set2/blue.gif","img/card_backs/set2/orange.gif","""event"",""trial"",""time""
""fullscreenenter"",""1"",""3364""
","
","
","""event"",""trial"",""time""
""fullscreenenter"",""1"",""3364""
","
","","727.2000000029802","","","","real_trial","2021-07-01 18:36:06.635","img/card_backs/set1/red.gif","0","-240","1","",""
"casino-fixation","148","470925","0.0-25.0-0.39","182","false","img/card_backs/set1/red.gif","img/card_backs/set1/yellow.gif","img/card_backs/set1/purple.gif","img/card_backs/set1/green.gif","img/card_backs/set2/pink.gif","img/card_backs/set2/gray.gif","img/card_backs/set2/blue.gif","img/card_backs/set2/orange.gif","""event"",""trial"",""time""
""fullscreenenter"",""1"",""3364""
","
","
","""event"",""trial"",""time""
""fullscreenenter"",""1"",""3364""
","
","","null","","null","","fixation","2021-07-01 18:36:07.141","","","","","",""
"card-selection-trial","149","473458","0.0-25.0-1.39","182","false","img/card_backs/set1/red.gif","img/card_backs/set1/yellow.gif","img/card_backs/set1/purple.gif","img/card_backs/set1/green.gif","img/card_backs/set2/pink.gif","img/card_backs/set2/gray.gif","img/card_backs/set2/blue.gif","img/card_backs/set2/orange.gif","""event"",""trial"",""time""
""fullscreenenter"",""1"",""3364""
","
","
","""event"",""trial"",""time""
""fullscreenenter"",""1"",""3364""
","
","","523.6000000089407","","","","real_trial","2021-07-01 18:36:09.674","img/card_backs/set1/red.gif","3","200","1","",""
"casino-fixation","150","473964","0.0-25.0-0.40","182","false","img/card_backs/set1/red.gif","img/card_backs/set1/yellow.gif","img/card_backs/set1/purple.gif","img/card_backs/set1/green.gif","img/card_backs/set2/pink.gif","img/card_backs/set2/gray.gif","img/card_backs/set2/blue.gif","img/card_backs/set2/orange.gif","""event"",""trial"",""time""
""fullscreenenter"",""1"",""3364""
","
","
","""event"",""trial"",""time""
""fullscreenenter"",""1"",""3364""
","
","","null","","null","","fixation","2021-07-01 18:36:10.180","","","","","",""
"card-selection-trial","151","476930","0.0-25.0-1.40","182","false","img/card_backs/set1/red.gif","img/card_backs/set1/yellow.gif","img/card_backs/set1/purple.gif","img/card_backs/set1/green.gif","img/card_backs/set2/pink.gif","img/card_backs/set2/gray.gif","img/card_backs/set2/blue.gif","img/card_backs/set2/orange.gif","""event"",""trial"",""time""
""fullscreenenter"",""1"",""3364""
","
","
","""event"",""trial"",""time""
""fullscreenenter"",""1"",""3364""
","
","","956.2000000029802","","","","real_trial","2021-07-01 18:36:13.147","img/card_backs/set1/purple.gif","3","100","1","",""
"casino-fixation","152","477437","0.0-25.0-0.41","182","false","img/card_backs/set1/red.gif","img/card_backs/set1/yellow.gif","img/card_backs/set1/purple.gif","img/card_backs/set1/green.gif","img/card_backs/set2/pink.gif","img/card_backs/set2/gray.gif","img/card_backs/set2/blue.gif","img/card_backs/set2/orange.gif","""event"",""trial"",""time""
""fullscreenenter"",""1"",""3364""
","
","
","""event"",""trial"",""time""
""fullscreenenter"",""1"",""3364""
","
","","null","","null","","fixation","2021-07-01 18:36:13.653","","","","","",""
"card-selection-trial","153","480846","0.0-25.0-1.41","182","false","img/card_backs/set1/red.gif","img/card_backs/set1/yellow.gif","img/card_backs/set1/purple.gif","img/card_backs/set1/green.gif","img/card_backs/set2/pink.gif","img/card_backs/set2/gray.gif","img/card_backs/set2/blue.gif","img/card_backs/set2/orange.gif","""event"",""trial"",""time""
""fullscreenenter"",""1"",""3364""
","
","
","""event"",""trial"",""time""
""fullscreenenter"",""1"",""3364""
","
","","1397.7000000029802","","","","real_trial","2021-07-01 18:36:17.062","img/card_backs/set1/yellow.gif","1","-230","1","",""
"casino-fixation","154","481351","0.0-25.0-0.42","182","false","img/card_backs/set1/red.gif","img/card_backs/set1/yellow.gif","img/card_backs/set1/purple.gif","img/card_backs/set1/green.gif","img/card_backs/set2/pink.gif","img/card_backs/set2/gray.gif","img/card_backs/set2/blue.gif","img/card_backs/set2/orange.gif","""event"",""trial"",""time""
""fullscreenenter"",""1"",""3364""
","
","
","""event"",""trial"",""time""
""fullscreenenter"",""1"",""3364""
","
","","null","","null","","fixation","2021-07-01 18:36:17.567","","","","","",""
"card-selection-trial","155","483906","0.0-25.0-1.42","182","false","img/card_backs/set1/red.gif","img/card_backs/set1/yellow.gif","img/card_backs/set1/purple.gif","img/card_backs/set1/green.gif","img/card_backs/set2/pink.gif","img/card_backs/set2/gray.gif","img/card_backs/set2/blue.gif","img/card_backs/set2/orange.gif","""event"",""trial"",""time""
""fullscreenenter"",""1"",""3364""
","
","
","""event"",""trial"",""time""
""fullscreenenter"",""1"",""3364""
","
","","542","","","","real_trial","2021-07-01 18:36:20.122","img/card_backs/set1/red.gif","3","190","1","",""
"casino-fixation","156","484412","0.0-25.0-0.43","182","false","img/card_backs/set1/red.gif","img/card_backs/set1/yellow.gif","img/card_backs/set1/purple.gif","img/card_backs/set1/green.gif","img/card_backs/set2/pink.gif","img/card_backs/set2/gray.gif","img/card_backs/set2/blue.gif","img/card_backs/set2/orange.gif","""event"",""trial"",""time""
""fullscreenenter"",""1"",""3364""
","
","
","""event"",""trial"",""time""
""fullscreenenter"",""1"",""3364""
","
","","null","","null","","fixation","2021-07-01 18:36:20.628","","","","","",""
"card-selection-trial","157","487154","0.0-25.0-1.43","182","false","img/card_backs/set1/red.gif","img/card_backs/set1/yellow.gif","img/card_backs/set1/purple.gif","img/card_backs/set1/green.gif","img/card_backs/set2/pink.gif","img/card_backs/set2/gray.gif","img/card_backs/set2/blue.gif","img/card_backs/set2/orange.gif","""event"",""trial"",""time""
""fullscreenenter"",""1"",""3364""
","
","
","""event"",""trial"",""time""
""fullscreenenter"",""1"",""3364""
","
","","730.2000000029802","","","","real_trial","2021-07-01 18:36:23.370","img/card_backs/set1/red.gif","3","180","1","",""
"casino-fixation","158","487660","0.0-25.0-0.44","182","false","img/card_backs/set1/red.gif","img/card_backs/set1/yellow.gif","img/card_backs/set1/purple.gif","img/card_backs/set1/green.gif","img/card_backs/set2/pink.gif","img/card_backs/set2/gray.gif","img/card_backs/set2/blue.gif","img/card_backs/set2/orange.gif","""event"",""trial"",""time""
""fullscreenenter"",""1"",""3364""
","
","
","""event"",""trial"",""time""
""fullscreenenter"",""1"",""3364""
","
","","null","","null","","fixation","2021-07-01 18:36:23.877","","","","","",""
"card-selection-trial","159","490487","0.0-25.0-1.44","182","false","img/card_backs/set1/red.gif","img/card_backs/set1/yellow.gif","img/card_backs/set1/purple.gif","img/card_backs/set1/green.gif","img/card_backs/set2/pink.gif","img/card_backs/set2/gray.gif","img/card_backs/set2/blue.gif","img/card_backs/set2/orange.gif","""event"",""trial"",""time""
""fullscreenenter"",""1"",""3364""
","
","
","""event"",""trial"",""time""
""fullscreenenter"",""1"",""3364""
","
","","815.7999999970198","","","","real_trial","2021-07-01 18:36:26.704","img/card_backs/set1/purple.gif","2","-70","1","",""
"casino-fixation","160","490994","0.0-25.0-0.45","182","false","img/card_backs/set1/red.gif","img/card_backs/set1/yellow.gif","img/card_backs/set1/purple.gif","img/card_backs/set1/green.gif","img/card_backs/set2/pink.gif","img/card_backs/set2/gray.gif","img/card_backs/set2/blue.gif","img/card_backs/set2/orange.gif","""event"",""trial"",""time""
""fullscreenenter"",""1"",""3364""
","
","
","""event"",""trial"",""time""
""fullscreenenter"",""1"",""3364""
","
","","null","","null","","fixation","2021-07-01 18:36:27.210","","","","","",""
"card-selection-trial","161","493783","0.0-25.0-1.45","182","false","img/card_backs/set1/red.gif","img/card_backs/set1/yellow.gif","img/card_backs/set1/purple.gif","img/card_backs/set1/green.gif","img/card_backs/set2/pink.gif","img/card_backs/set2/gray.gif","img/card_backs/set2/blue.gif","img/card_backs/set2/orange.gif","""event"",""trial"",""time""
""fullscreenenter"",""1"",""3364""
","
","
","""event"",""trial"",""time""
""fullscreenenter"",""1"",""3364""
","
","","777.6000000089407","","","","real_trial","2021-07-01 18:36:30.000","img/card_backs/set1/green.gif","0","120","1","",""
"casino-fixation","162","494289","0.0-25.0-0.46","182","false","img/card_backs/set1/red.gif","img/card_backs/set1/yellow.gif","img/card_backs/set1/purple.gif","img/card_backs/set1/green.gif","img/card_backs/set2/pink.gif","img/card_backs/set2/gray.gif","img/card_backs/set2/blue.gif","img/card_backs/set2/orange.gif","""event"",""trial"",""time""
""fullscreenenter"",""1"",""3364""
","
","
","""event"",""trial"",""time""
""fullscreenenter"",""1"",""3364""
","
","","null","","null","","fixation","2021-07-01 18:36:30.506","","","","","",""
"card-selection-trial","163","497250","0.0-25.0-1.46","182","false","img/card_backs/set1/red.gif","img/card_backs/set1/yellow.gif","img/card_backs/set1/purple.gif","img/card_backs/set1/green.gif","img/card_backs/set2/pink.gif","img/card_backs/set2/gray.gif","img/card_backs/set2/blue.gif","img/card_backs/set2/orange.gif","""event"",""trial"",""time""
""fullscreenenter"",""1"",""3364""
","
","
","""event"",""trial"",""time""
""fullscreenenter"",""1"",""3364""
","
","","951.3999999910593","","","","real_trial","2021-07-01 18:36:33.466","img/card_backs/set1/red.gif","1","-240","1","",""
"casino-fixation","164","497756","0.0-25.0-0.47","182","false","img/card_backs/set1/red.gif","img/card_backs/set1/yellow.gif","img/card_backs/set1/purple.gif","img/card_backs/set1/green.gif","img/card_backs/set2/pink.gif","img/card_backs/set2/gray.gif","img/card_backs/set2/blue.gif","img/card_backs/set2/orange.gif","""event"",""trial"",""time""
""fullscreenenter"",""1"",""3364""
","
","
","""event"",""trial"",""time""
""fullscreenenter"",""1"",""3364""
","
","","null","","null","","fixation","2021-07-01 18:36:33.972","","","","","",""
"card-selection-trial","165","500295","0.0-25.0-1.47","182","false","img/card_backs/set1/red.gif","img/card_backs/set1/yellow.gif","img/card_backs/set1/purple.gif","img/card_backs/set1/green.gif","img/card_backs/set2/pink.gif","img/card_backs/set2/gray.gif","img/card_backs/set2/blue.gif","img/card_backs/set2/orange.gif","""event"",""trial"",""time""
""fullscreenenter"",""1"",""3364""
","
","
","""event"",""trial"",""time""
""fullscreenenter"",""1"",""3364""
","
","","529.4000000059605","","","","real_trial","2021-07-01 18:36:36.512","img/card_backs/set1/yellow.gif","3","200","1","",""
"casino-fixation","166","500801","0.0-25.0-0.48","182","false","img/card_backs/set1/red.gif","img/card_backs/set1/yellow.gif","img/card_backs/set1/purple.gif","img/card_backs/set1/green.gif","img/card_backs/set2/pink.gif","img/card_backs/set2/gray.gif","img/card_backs/set2/blue.gif","img/card_backs/set2/orange.gif","""event"",""trial"",""time""
""fullscreenenter"",""1"",""3364""
","
","
","""event"",""trial"",""time""
""fullscreenenter"",""1"",""3364""
","
","","null","","null","","fixation","2021-07-01 18:36:37.018","","","","","",""
"card-selection-trial","167","503666","0.0-25.0-1.48","182","false","img/card_backs/set1/red.gif","img/card_backs/set1/yellow.gif","img/card_backs/set1/purple.gif","img/card_backs/set1/green.gif","img/card_backs/set2/pink.gif","img/card_backs/set2/gray.gif","img/card_backs/set2/blue.gif","img/card_backs/set2/orange.gif","""event"",""trial"",""time""
""fullscreenenter"",""1"",""3364""
","
","
","""event"",""trial"",""time""
""fullscreenenter"",""1"",""3364""
","
