"trial_type","trial_index","time_elapsed","internal_node_id","sub_id","risk_good_first","block1_A","block1_B","block1_C","block1_D","block2_A","block2_B","block2_C","block2_D","interactions","blur_events","focus_events","fullscreenenter_events","fullscreenexit_events","success","rt","stimulus","key_press","button_pressed","task_part","timestamp","card_choice","choice_position","points_earned","block","correct","response"
"pavlovia","0","6","0.0-0.0","900","true","img/card_backs/set1/green.gif","img/card_backs/set1/yellow.gif","img/card_backs/set1/purple.gif","img/card_backs/set1/red.gif","img/card_backs/set2/gray.gif","img/card_backs/set2/orange.gif","img/card_backs/set2/pink.gif","img/card_backs/set2/blue.gif","""event"",""trial"",""time""
""fullscreenenter"",""1"",""8679""
","
","
","""event"",""trial"",""time""
""fullscreenenter"",""1"",""8679""
","
","","","","","","","","","","","","",""
"fullscreen","1","9643","0.0-1.0","900","true","img/card_backs/set1/green.gif","img/card_backs/set1/yellow.gif","img/card_backs/set1/purple.gif","img/card_backs/set1/red.gif","img/card_backs/set2/gray.gif","img/card_backs/set2/orange.gif","img/card_backs/set2/pink.gif","img/card_backs/set2/blue.gif","""event"",""trial"",""time""
""fullscreenenter"",""1"",""8679""
","
","
","""event"",""trial"",""time""
""fullscreenenter"",""1"",""8679""
","
","true","","","","","","","","","","","",""
"audio-keyboard-response","2","12114","0.0-2.0","900","true","img/card_backs/set1/green.gif","img/card_backs/set1/yellow.gif","img/card_backs/set1/purple.gif","img/card_backs/set1/red.gif","img/card_backs/set2/gray.gif","img/card_backs/set2/orange.gif","img/card_backs/set2/pink.gif","img/card_backs/set2/blue.gif","""event"",""trial"",""time""
""fullscreenenter"",""1"",""8679""
","
","
","""event"",""trial"",""time""
""fullscreenenter"",""1"",""8679""
","
","","2432","audio/beep_loop.wav","32","","","","","","","","",""
"audio-button-response","3","14950","0.0-3.0","900","true","img/card_backs/set1/green.gif","img/card_backs/set1/yellow.gif","img/card_backs/set1/purple.gif","img/card_backs/set1/red.gif","img/card_backs/set2/gray.gif","img/card_backs/set2/orange.gif","img/card_backs/set2/pink.gif","img/card_backs/set2/blue.gif","""event"",""trial"",""time""
""fullscreenenter"",""1"",""8679""
","
","
","""event"",""trial"",""time""
""fullscreenenter"",""1"",""8679""
","
","","NaN","audio/turtle.mp3","","3","","","","","","","",""
"audio-button-response","4","17785","0.0-4.0","900","true","img/card_backs/set1/green.gif","img/card_backs/set1/yellow.gif","img/card_backs/set1/purple.gif","img/card_backs/set1/red.gif","img/card_backs/set2/gray.gif","img/card_backs/set2/orange.gif","img/card_backs/set2/pink.gif","img/card_backs/set2/blue.gif","""event"",""trial"",""time""
""fullscreenenter"",""1"",""8679""
","
","
","""event"",""trial"",""time""
""fullscreenenter"",""1"",""8679""
","
","","NaN","audio/shark.mp3","","2","","","","","","","",""
"fullscreen","5","22324","0.0-5.0","900","true","img/card_backs/set1/green.gif","img/card_backs/set1/yellow.gif","img/card_backs/set1/purple.gif","img/card_backs/set1/red.gif","img/card_backs/set2/gray.gif","img/card_backs/set2/orange.gif","img/card_backs/set2/pink.gif","img/card_backs/set2/blue.gif","""event"",""trial"",""time""
""fullscreenenter"",""1"",""8679""
","
","
","""event"",""trial"",""time""
""fullscreenenter"",""1"",""8679""
","
","true","","","","","","","","","","","",""
"casino-keyboard-response","6","26039","0.0-6.0-0.0","900","true","img/card_backs/set1/green.gif","img/card_backs/set1/yellow.gif","img/card_backs/set1/purple.gif","img/card_backs/set1/red.gif","img/card_backs/set2/gray.gif","img/card_backs/set2/orange.gif","img/card_backs/set2/pink.gif","img/card_backs/set2/blue.gif","""event"",""trial"",""time""
""fullscreenenter"",""1"",""8679""
","
","
","""event"",""trial"",""time""
""fullscreenenter"",""1"",""8679""
","
","","3707.7999999523163","Welcome to the casino!","71","","instructions","2021-07-08 00:18:24.206","","","","","",""
"casino-keyboard-response","7","35752","0.0-6.0-0.1","900","true","img/card_backs/set1/green.gif","img/card_backs/set1/yellow.gif","img/card_backs/set1/purple.gif","img/card_backs/set1/red.gif","img/card_backs/set2/gray.gif","img/card_backs/set2/orange.gif","img/card_backs/set2/pink.gif","img/card_backs/set2/blue.gif","""event"",""trial"",""time""
""fullscreenenter"",""1"",""8679""
","
","
","""event"",""trial"",""time""
""fullscreenenter"",""1"",""8679""
","
","","9709.800000071526","Today you will be playing a game to earn tokens. </br> At the end of the experiment, you will be paid a bonus based on how many tokens you win. ","69","","instructions","2021-07-08 00:18:33.919","","","","","",""
"casino-keyboard-response","8","51660","0.0-6.0-0.2","900","true","img/card_backs/set1/green.gif","img/card_backs/set1/yellow.gif","img/card_backs/set1/purple.gif","img/card_backs/set1/red.gif","img/card_backs/set2/gray.gif","img/card_backs/set2/orange.gif","img/card_backs/set2/pink.gif","img/card_backs/set2/blue.gif","""event"",""trial"",""time""
""fullscreenenter"",""1"",""8679""
","
","
","""event"",""trial"",""time""
""fullscreenenter"",""1"",""8679""
","
","","15905.300000071526","On every turn, you will be shown four different decks of cards. </br> You need to select a card from one of the four decks.  ","75","","instructions","2021-07-08 00:18:49.827","","","","","",""
"casino-keyboard-response","9","57344","0.0-6.0-0.3","900","true","img/card_backs/set1/green.gif","img/card_backs/set1/yellow.gif","img/card_backs/set1/purple.gif","img/card_backs/set1/red.gif","img/card_backs/set2/gray.gif","img/card_backs/set2/orange.gif","img/card_backs/set2/pink.gif","img/card_backs/set2/blue.gif","""event"",""trial"",""time""
""fullscreenenter"",""1"",""8679""
","
","
","""event"",""trial"",""time""
""fullscreenenter"",""1"",""8679""
","
","","5681.5","On the next screen, you will see what the decks will look like. ","66","","instructions","2021-07-08 00:18:55.511","","","","","",""
"card-selection-trial","10","61351","0.0-7.0-0.0","900","true","img/card_backs/set1/green.gif","img/card_backs/set1/yellow.gif","img/card_backs/set1/purple.gif","img/card_backs/set1/red.gif","img/card_backs/set2/gray.gif","img/card_backs/set2/orange.gif","img/card_backs/set2/pink.gif","img/card_backs/set2/blue.gif","""event"",""trial"",""time""
""fullscreenenter"",""1"",""8679""
","
","
","""event"",""trial"",""time""
""fullscreenenter"",""1"",""8679""
","
","","null","","","","practice","2021-07-08 00:18:59.519","null","null","null","0","",""
"casino-keyboard-response","11","69761","0.0-8.0-0.0","900","true","img/card_backs/set1/green.gif","img/card_backs/set1/yellow.gif","img/card_backs/set1/purple.gif","img/card_backs/set1/red.gif","img/card_backs/set2/gray.gif","img/card_backs/set2/orange.gif","img/card_backs/set2/pink.gif","img/card_backs/set2/blue.gif","""event"",""trial"",""time""
""fullscreenenter"",""1"",""8679""
","
","
","""event"",""trial"",""time""
""fullscreenenter"",""1"",""8679""
","
","","8406.399999976158","You should pick a card from a deck using the '2', '4', '6', and '8' keys at the top of the keyboard.","85","","instructions","2021-07-08 00:19:07.929","","","","","",""
"casino-keyboard-response","12","75278","0.0-8.0-0.1","900","true","img/card_backs/set1/green.gif","img/card_backs/set1/yellow.gif","img/card_backs/set1/purple.gif","img/card_backs/set1/red.gif","img/card_backs/set2/gray.gif","img/card_backs/set2/orange.gif","img/card_backs/set2/pink.gif","img/card_backs/set2/blue.gif","""event"",""trial"",""time""
""fullscreenenter"",""1"",""8679""
","
","
","""event"",""trial"",""time""
""fullscreenenter"",""1"",""8679""
","
","","5513.700000047684","Once you select a card, it will turn over and you will see how many tokens you earned.","83","","instructions","2021-07-08 00:19:13.445","","","","","",""
"casino-keyboard-response","13","90104","0.0-8.0-0.2","900","true","img/card_backs/set1/green.gif","img/card_backs/set1/yellow.gif","img/card_backs/set1/purple.gif","img/card_backs/set1/red.gif","img/card_backs/set2/gray.gif","img/card_backs/set2/orange.gif","img/card_backs/set2/pink.gif","img/card_backs/set2/blue.gif","""event"",""trial"",""time""
""fullscreenenter"",""1"",""8679""
","
","
","""event"",""trial"",""time""
""fullscreenenter"",""1"",""8679""
","
","","14823.900000095367","Let's try practicing that! </br> First, try to put your fingers over the '2', '4', '6', and '8' keys. </br>  You can use whatever fingers are most comfortable for you. Try to find a comfortable position now. ","50","","instructions","2021-07-08 00:19:28.271","","","","","",""
"casino-keyboard-response","14","96313","0.0-8.0-0.3","900","true","img/card_backs/set1/green.gif","img/card_backs/set1/yellow.gif","img/card_backs/set1/purple.gif","img/card_backs/set1/red.gif","img/card_backs/set2/gray.gif","img/card_backs/set2/orange.gif","img/card_backs/set2/pink.gif","img/card_backs/set2/blue.gif","""event"",""trial"",""time""
""fullscreenenter"",""1"",""8679""
","
","
","""event"",""trial"",""time""
""fullscreenenter"",""1"",""8679""
","
","","6207.700000047684","Okay ready? </br> On the next screen, press '2' to select the left deck. ","50","","instructions","2021-07-08 00:19:34.480","","","","","",""
"card-selection-trial","15","99932","0.0-9.0-0.0","900","true","img/card_backs/set1/green.gif","img/card_backs/set1/yellow.gif","img/card_backs/set1/purple.gif","img/card_backs/set1/red.gif","img/card_backs/set2/gray.gif","img/card_backs/set2/orange.gif","img/card_backs/set2/pink.gif","img/card_backs/set2/blue.gif","""event"",""trial"",""time""
""fullscreenenter"",""1"",""8679""
","
","
","""event"",""trial"",""time""
""fullscreenenter"",""1"",""8679""
","
","","1598.2000000476837","","","","practice_card_selection","2021-07-08 00:19:38.100","img/practice_cards/backs/black.gif","0","100","","",""
"casino-keyboard-response","16","106101","0.0-10.0-0.0","900","true","img/card_backs/set1/green.gif","img/card_backs/set1/yellow.gif","img/card_backs/set1/purple.gif","img/card_backs/set1/red.gif","img/card_backs/set2/gray.gif","img/card_backs/set2/orange.gif","img/card_backs/set2/pink.gif","img/card_backs/set2/blue.gif","""event"",""trial"",""time""
""fullscreenenter"",""1"",""8679""
","
","
","""event"",""trial"",""time""
""fullscreenenter"",""1"",""8679""
","
","","6166.799999952316","Great! Now on the next screen, try pressing '6' to select the third deck.","54","","instructions","2021-07-08 00:19:44.268","","","","","",""
"card-selection-trial","17","108921","0.0-11.0-0.0","900","true","img/card_backs/set1/green.gif","img/card_backs/set1/yellow.gif","img/card_backs/set1/purple.gif","img/card_backs/set1/red.gif","img/card_backs/set2/gray.gif","img/card_backs/set2/orange.gif","img/card_backs/set2/pink.gif","img/card_backs/set2/blue.gif","""event"",""trial"",""time""
""fullscreenenter"",""1"",""8679""
","
","
","""event"",""trial"",""time""
""fullscreenenter"",""1"",""8679""
","
","","805.8999999761581","","","","practice_card_selection","2021-07-08 00:19:47.089","img/practice_cards/backs/brown.gif","2","-100","","",""
"casino-keyboard-response","18","113678","0.0-12.0-0.0","900","true","img/card_backs/set1/green.gif","img/card_backs/set1/yellow.gif","img/card_backs/set1/purple.gif","img/card_backs/set1/red.gif","img/card_backs/set2/gray.gif","img/card_backs/set2/orange.gif","img/card_backs/set2/pink.gif","img/card_backs/set2/blue.gif","""event"",""trial"",""time""
""fullscreenenter"",""1"",""8679""
","
","
","""event"",""trial"",""time""
""fullscreenenter"",""1"",""8679""
","
","","4753.600000023842","Now on the next screen, try pressing '4' to select the second deck.","52","","instructions","2021-07-08 00:19:51.845","","","","","",""
"card-selection-trial","19","116091","0.0-13.0-0.0","900","true","img/card_backs/set1/green.gif","img/card_backs/set1/yellow.gif","img/card_backs/set1/purple.gif","img/card_backs/set1/red.gif","img/card_backs/set2/gray.gif","img/card_backs/set2/orange.gif","img/card_backs/set2/pink.gif","img/card_backs/set2/blue.gif","""event"",""trial"",""time""
""fullscreenenter"",""1"",""8679""
","
","
","""event"",""trial"",""time""
""fullscreenenter"",""1"",""8679""
","
","","404.39999997615814","","","","practice_card_selection","2021-07-08 00:19:54.258","img/practice_cards/backs/black.gif","1","100","","",""
"casino-keyboard-response","20","120619","0.0-14.0-0.0","900","true","img/card_backs/set1/green.gif","img/card_backs/set1/yellow.gif","img/card_backs/set1/purple.gif","img/card_backs/set1/red.gif","img/card_backs/set2/gray.gif","img/card_backs/set2/orange.gif","img/card_backs/set2/pink.gif","img/card_backs/set2/blue.gif","""event"",""trial"",""time""
""fullscreenenter"",""1"",""8679""
","
","
","""event"",""trial"",""time""
""fullscreenenter"",""1"",""8679""
","
","","4526.100000023842","Finally, try pressing '8' to select the deck all the way on the right.","56","","instructions","2021-07-08 00:19:58.786","","","","","",""
"card-selection-trial","21","123660","0.0-15.0-0.0","900","true","img/card_backs/set1/green.gif","img/card_backs/set1/yellow.gif","img/card_backs/set1/purple.gif","img/card_backs/set1/red.gif","img/card_backs/set2/gray.gif","img/card_backs/set2/orange.gif","img/card_backs/set2/pink.gif","img/card_backs/set2/blue.gif","""event"",""trial"",""time""
""fullscreenenter"",""1"",""8679""
","
","
","""event"",""trial"",""time""
""fullscreenenter"",""1"",""8679""
","
","","1030.6999999284744","","","","practice_card_selection","2021-07-08 00:20:01.827","img/practice_cards/backs/black.gif","3","-100","","",""
"casino-keyboard-response","22","127279","0.0-16.0-0.0","900","true","img/card_backs/set1/green.gif","img/card_backs/set1/yellow.gif","img/card_backs/set1/purple.gif","img/card_backs/set1/red.gif","img/card_backs/set2/gray.gif","img/card_backs/set2/orange.gif","img/card_backs/set2/pink.gif","img/card_backs/set2/blue.gif","""event"",""trial"",""time""
""fullscreenenter"",""1"",""8679""
","
","
","""event"",""trial"",""time""
""fullscreenenter"",""1"",""8679""
","
","","3617.7999999523163","Great! It seems like you are getting the hang of this.","80","","instructions","2021-07-08 00:20:05.446","","","","","",""
"casino-keyboard-response","23","134913","0.0-16.0-0.1","900","true","img/card_backs/set1/green.gif","img/card_backs/set1/yellow.gif","img/card_backs/set1/purple.gif","img/card_backs/set1/red.gif","img/card_backs/set2/gray.gif","img/card_backs/set2/orange.gif","img/card_backs/set2/pink.gif","img/card_backs/set2/blue.gif","""event"",""trial"",""time""
""fullscreenenter"",""1"",""8679""
","
","
","""event"",""trial"",""time""
""fullscreenenter"",""1"",""8679""
","
","","7631.600000023842","You may have noticed that some cards will cause you to <b> win </b> tokens while other cards will cause you to <b> lose </b>  tokens.","70","","instructions","2021-07-08 00:20:13.080","","","","","",""
"casino-keyboard-response","24","144791","0.0-16.0-0.2","900","true","img/card_backs/set1/green.gif","img/card_backs/set1/yellow.gif","img/card_backs/set1/purple.gif","img/card_backs/set1/red.gif","img/card_backs/set2/gray.gif","img/card_backs/set2/orange.gif","img/card_backs/set2/pink.gif","img/card_backs/set2/blue.gif","""event"",""trial"",""time""
""fullscreenenter"",""1"",""8679""
","
","
","""event"",""trial"",""time""
""fullscreenenter"",""1"",""8679""
","
","","9876.799999952316","Each deck has a mix of cards that will cause you to win and lose tokens. </br> However, the cards in each colored deck are different.","73","","instructions","2021-07-08 00:20:22.958","","","","","",""
"casino-keyboard-response","25","153618","0.0-16.0-0.3","900","true","img/card_backs/set1/green.gif","img/card_backs/set1/yellow.gif","img/card_backs/set1/purple.gif","img/card_backs/set1/red.gif","img/card_backs/set2/gray.gif","img/card_backs/set2/orange.gif","img/card_backs/set2/pink.gif","img/card_backs/set2/blue.gif","""event"",""trial"",""time""
""fullscreenenter"",""1"",""8679""
","
","
","""event"",""trial"",""time""
""fullscreenenter"",""1"",""8679""
","
","","8825.300000071526","Some colored decks are luckier than others. </br> If you choose the lucky decks, you will earn more tokens than if you choose the unlucky decks.","69","","instructions","2021-07-08 00:20:31.785","","","","","",""
"casino-keyboard-response","26","160967","0.0-16.0-0.4","900","true","img/card_backs/set1/green.gif","img/card_backs/set1/yellow.gif","img/card_backs/set1/purple.gif","img/card_backs/set1/red.gif","img/card_backs/set2/gray.gif","img/card_backs/set2/orange.gif","img/card_backs/set2/pink.gif","img/card_backs/set2/blue.gif","""event"",""trial"",""time""
""fullscreenenter"",""1"",""8679""
","
","
","""event"",""trial"",""time""
""fullscreenenter"",""1"",""8679""
","
","","7347.100000023842","You should try to figure out which decks are lucky. </br> Then, try to choose the lucky decks so you can win the most tokens.","87","","instructions","2021-07-08 00:20:39.134","","","","","",""
"casino-keyboard-response","27","172253","0.0-16.0-0.5","900","true","img/card_backs/set1/green.gif","img/card_backs/set1/yellow.gif","img/card_backs/set1/purple.gif","img/card_backs/set1/red.gif","img/card_backs/set2/gray.gif","img/card_backs/set2/orange.gif","img/card_backs/set2/pink.gif","img/card_backs/set2/blue.gif","""event"",""trial"",""time""
""fullscreenenter"",""1"",""8679""
","
","
","""event"",""trial"",""time""
""fullscreenenter"",""1"",""8679""
","
","","11282.700000047684","To make it trickier, the casino dealer will switch the locations of the decks on every turn. </br> The color of the deck determines how lucky it is. The location does not matter.","88","","instructions","2021-07-08 00:20:50.420","","","","","",""
"casino-keyboard-response","28","182134","0.0-16.0-0.6","900","true","img/card_backs/set1/green.gif","img/card_backs/set1/yellow.gif","img/card_backs/set1/purple.gif","img/card_backs/set1/red.gif","img/card_backs/set2/gray.gif","img/card_backs/set2/orange.gif","img/card_backs/set2/pink.gif","img/card_backs/set2/blue.gif","""event"",""trial"",""time""
""fullscreenenter"",""1"",""8679""
","
","
","""event"",""trial"",""time""
""fullscreenenter"",""1"",""8679""
","
","","9879","The mix of cards in each colored deck will stay the same throughout the game. </br> That means that a deck that is lucky early on will stay lucky.","79","","instructions","2021-07-08 00:21:00.301","","","","","",""
"casino-keyboard-response","29","190333","0.0-16.0-0.7","900","true","img/card_backs/set1/green.gif","img/card_backs/set1/yellow.gif","img/card_backs/set1/purple.gif","img/card_backs/set1/red.gif","img/card_backs/set2/gray.gif","img/card_backs/set2/orange.gif","img/card_backs/set2/pink.gif","img/card_backs/set2/blue.gif","""event"",""trial"",""time""
""fullscreenenter"",""1"",""8679""
","
","
","""event"",""trial"",""time""
""fullscreenenter"",""1"",""8679""
","
","","8196.200000047684","Remember though, all the decks have a <b> mix </b> of both <b> good </b> and <b> bad </b> cards so it may take a couple of turns to figure out if a deck is lucky.","69","","instructions","2021-07-08 00:21:08.500","","","","","",""
"casino-keyboard-response","30","202829","0.0-16.0-0.8","900","true","img/card_backs/set1/green.gif","img/card_backs/set1/yellow.gif","img/card_backs/set1/purple.gif","img/card_backs/set1/red.gif","img/card_backs/set2/gray.gif","img/card_backs/set2/orange.gif","img/card_backs/set2/pink.gif","img/card_backs/set2/blue.gif","""event"",""trial"",""time""
""fullscreenenter"",""1"",""8679""
","
","
","""event"",""trial"",""time""
""fullscreenenter"",""1"",""8679""
","
","","12494","At the end of the game, you will be paid bonus money based on how many tokens you win. </br> If you win more tokens, you will earn more money!","72","","instructions","2021-07-08 00:21:20.996","","","","","",""
"casino-keyboard-response","31","213754","0.0-16.0-0.9","900","true","img/card_backs/set1/green.gif","img/card_backs/set1/yellow.gif","img/card_backs/set1/purple.gif","img/card_backs/set1/red.gif","img/card_backs/set2/gray.gif","img/card_backs/set2/orange.gif","img/card_backs/set2/pink.gif","img/card_backs/set2/blue.gif","""event"",""trial"",""time""
""fullscreenenter"",""1"",""8679""
","
","
","""event"",""trial"",""time""
""fullscreenenter"",""1"",""8679""
","
","","10923.199999928474","You will never <b> lose </b> money. </br> If you end up with fewer than 0 tokens, you will earn $0 of bonus money, but you will still be paid for playing the game.","83","","instructions","2021-07-08 00:21:31.921","","","","","",""
"casino-keyboard-response","32","217945","0.0-16.0-0.10","900","true","img/card_backs/set1/green.gif","img/card_backs/set1/yellow.gif","img/card_backs/set1/purple.gif","img/card_backs/set1/red.gif","img/card_backs/set2/gray.gif","img/card_backs/set2/orange.gif","img/card_backs/set2/pink.gif","img/card_backs/set2/blue.gif","""event"",""trial"",""time""
""fullscreenenter"",""1"",""8679""
","
","
","""event"",""trial"",""time""
""fullscreenenter"",""1"",""8679""
","
","","4188.800000071526","You will have 10 seconds to make each choice.","82","","instructions","2021-07-08 00:21:36.112","","","","","",""
"casino-keyboard-response","33","226800","0.0-16.0-0.11","900","true","img/card_backs/set1/green.gif","img/card_backs/set1/yellow.gif","img/card_backs/set1/purple.gif","img/card_backs/set1/red.gif","img/card_backs/set2/gray.gif","img/card_backs/set2/orange.gif","img/card_backs/set2/pink.gif","img/card_backs/set2/blue.gif","""event"",""trial"",""time""
""fullscreenenter"",""1"",""8679""
","
","
","""event"",""trial"",""time""
""fullscreenenter"",""1"",""8679""
","
","","8850.100000023842","Before you play the game for real, you will play with practice decks. </br> The tokens you earn during practice won't count toward your total.","86","","instructions","2021-07-08 00:21:44.967","","","","","",""
"casino-keyboard-response","34","238703","0.0-16.0-0.12","900","true","img/card_backs/set1/green.gif","img/card_backs/set1/yellow.gif","img/card_backs/set1/purple.gif","img/card_backs/set1/red.gif","img/card_backs/set2/gray.gif","img/card_backs/set2/orange.gif","img/card_backs/set2/pink.gif","img/card_backs/set2/blue.gif","""event"",""trial"",""time""
""fullscreenenter"",""1"",""8679""
","
","
","""event"",""trial"",""time""
""fullscreenenter"",""1"",""8679""
","
","","11901","Ready? Remember, use the '2', '4', '6', and '8' keys to select the decks. </br> Put your fingers on those keys now and then press '2' to begin.","50","","instructions","2021-07-08 00:21:56.870","","","","","",""
"casino-fixation","35","239206","0.0-17.0-0.0","900","true","img/card_backs/set1/green.gif","img/card_backs/set1/yellow.gif","img/card_backs/set1/purple.gif","img/card_backs/set1/red.gif","img/card_backs/set2/gray.gif","img/card_backs/set2/orange.gif","img/card_backs/set2/pink.gif","img/card_backs/set2/blue.gif","""event"",""trial"",""time""
""fullscreenenter"",""1"",""8679""
","
","
","""event"",""trial"",""time""
""fullscreenenter"",""1"",""8679""
","
","","null","","null","","fixation","2021-07-08 00:21:57.373","","","","","",""
"card-selection-trial","36","242499","0.0-17.0-1.0","900","true","img/card_backs/set1/green.gif","img/card_backs/set1/yellow.gif","img/card_backs/set1/purple.gif","img/card_backs/set1/red.gif","img/card_backs/set2/gray.gif","img/card_backs/set2/orange.gif","img/card_backs/set2/pink.gif","img/card_backs/set2/blue.gif","""event"",""trial"",""time""
""fullscreenenter"",""1"",""8679""
","
","
","""event"",""trial"",""time""
""fullscreenenter"",""1"",""8679""
","
","","1283.6999999284744","","","","practice","2021-07-08 00:22:00.666","img/practice_cards/backs/dark_green.gif","2","200","0","",""
"casino-fixation","37","243005","0.0-17.0-0.1","900","true","img/card_backs/set1/green.gif","img/card_backs/set1/yellow.gif","img/card_backs/set1/purple.gif","img/card_backs/set1/red.gif","img/card_backs/set2/gray.gif","img/card_backs/set2/orange.gif","img/card_backs/set2/pink.gif","img/card_backs/set2/blue.gif","""event"",""trial"",""time""
""fullscreenenter"",""1"",""8679""
","
","
","""event"",""trial"",""time""
""fullscreenenter"",""1"",""8679""
","
","","null","","null","","fixation","2021-07-08 00:22:01.172","","","","","",""
"card-selection-trial","38","246315","0.0-17.0-1.1","900","true","img/card_backs/set1/green.gif","img/card_backs/set1/yellow.gif","img/card_backs/set1/purple.gif","img/card_backs/set1/red.gif","img/card_backs/set2/gray.gif","img/card_backs/set2/orange.gif","img/card_backs/set2/pink.gif","img/card_backs/set2/blue.gif","""event"",""trial"",""time""
""fullscreenenter"",""1"",""8679""
","
","
","""event"",""trial"",""time""
""fullscreenenter"",""1"",""8679""
","
","","1298.6000000238419","","","","practice","2021-07-08 00:22:04.483","img/practice_cards/backs/brown.gif","3","-100","0","",""
"casino-fixation","39","246821","0.0-17.0-0.2","900","true","img/card_backs/set1/green.gif","img/card_backs/set1/yellow.gif","img/card_backs/set1/purple.gif","img/card_backs/set1/red.gif","img/card_backs/set2/gray.gif","img/card_backs/set2/orange.gif","img/card_backs/set2/pink.gif","img/card_backs/set2/blue.gif","""event"",""trial"",""time""
""fullscreenenter"",""1"",""8679""
","
","
","""event"",""trial"",""time""
""fullscreenenter"",""1"",""8679""
","
","","null","","null","","fixation","2021-07-08 00:22:04.988","","","","","",""
"card-selection-trial","40","250069","0.0-17.0-1.2","900","true","img/card_backs/set1/green.gif","img/card_backs/set1/yellow.gif","img/card_backs/set1/purple.gif","img/card_backs/set1/red.gif","img/card_backs/set2/gray.gif","img/card_backs/set2/orange.gif","img/card_backs/set2/pink.gif","img/card_backs/set2/blue.gif","""event"",""trial"",""time""
""fullscreenenter"",""1"",""8679""
","
","
","""event"",""trial"",""time""
""fullscreenenter"",""1"",""8679""
","
","","1235.7000000476837","","","","practice","2021-07-08 00:22:08.236","img/practice_cards/backs/dark_green.gif","0","-200","0","",""
"casino-fixation","41","250571","0.0-17.0-0.3","900","true","img/card_backs/set1/green.gif","img/card_backs/set1/yellow.gif","img/card_backs/set1/purple.gif","img/card_backs/set1/red.gif","img/card_backs/set2/gray.gif","img/card_backs/set2/orange.gif","img/card_backs/set2/pink.gif","img/card_backs/set2/blue.gif","""event"",""trial"",""time""
""fullscreenenter"",""1"",""8679""
","
","
","""event"",""trial"",""time""
""fullscreenenter"",""1"",""8679""
","
","","null","","null","","fixation","2021-07-08 00:22:08.739","","","","","",""
"card-selection-trial","42","253424","0.0-17.0-1.3","900","true","img/card_backs/set1/green.gif","img/card_backs/set1/yellow.gif","img/card_backs/set1/purple.gif","img/card_backs/set1/red.gif","img/card_backs/set2/gray.gif","img/card_backs/set2/orange.gif","img/card_backs/set2/pink.gif","img/card_backs/set2/blue.gif","""event"",""trial"",""time""
""fullscreenenter"",""1"",""8679""
","
","
","""event"",""trial"",""time""
""fullscreenenter"",""1"",""8679""
","
","","838.4000000953674","","","","practice","2021-07-08 00:22:11.591","img/practice_cards/backs/black.gif","2","100","0","",""
"casino-fixation","43","253930","0.0-17.0-0.4","900","true","img/card_backs/set1/green.gif","img/card_backs/set1/yellow.gif","img/card_backs/set1/purple.gif","img/card_backs/set1/red.gif","img/card_backs/set2/gray.gif","img/card_backs/set2/orange.gif","img/card_backs/set2/pink.gif","img/card_backs/set2/blue.gif","""event"",""trial"",""time""
""fullscreenenter"",""1"",""8679""
","
","
","""event"",""trial"",""time""
""fullscreenenter"",""1"",""8679""
","
","","null","","null","","fixation","2021-07-08 00:22:12.098","","","","","",""
"card-selection-trial","44","256687","0.0-17.0-1.4","900","true","img/card_backs/set1/green.gif","img/card_backs/set1/yellow.gif","img/card_backs/set1/purple.gif","img/card_backs/set1/red.gif","img/card_backs/set2/gray.gif","img/card_backs/set2/orange.gif","img/card_backs/set2/pink.gif","img/card_backs/set2/blue.gif","""event"",""trial"",""time""
""fullscreenenter"",""1"",""8679""
","
","
","""event"",""trial"",""time""
""fullscreenenter"",""1"",""8679""
","
","","745.2999999523163","","","","practice","2021-07-08 00:22:14.855","img/practice_cards/backs/brown.gif","2","100","0","",""
"casino-fixation","45","257194","0.0-17.0-0.5","900","true","img/card_backs/set1/green.gif","img/card_backs/set1/yellow.gif","img/card_backs/set1/purple.gif","img/card_backs/set1/red.gif","img/card_backs/set2/gray.gif","img/card_backs/set2/orange.gif","img/card_backs/set2/pink.gif","img/card_backs/set2/blue.gif","""event"",""trial"",""time""
""fullscreenenter"",""1"",""8679""
","
","
","""event"",""trial"",""time""
""fullscreenenter"",""1"",""8679""
","
","","null","","null","","fixation","2021-07-08 00:22:15.362","","","","","",""
"card-selection-trial","46","260721","0.0-17.0-1.5","900","true","img/card_backs/set1/green.gif","img/card_backs/set1/yellow.gif","img/card_backs/set1/purple.gif","img/card_backs/set1/red.gif","img/card_backs/set2/gray.gif","img/card_backs/set2/orange.gif","img/card_backs/set2/pink.gif","img/card_backs/set2/blue.gif","""event"",""trial"",""time""
""fullscreenenter"",""1"",""8679""
","
","
","""event"",""trial"",""time""
""fullscreenenter"",""1"",""8679""
","
","","1511.6000000238419","","","","practice","2021-07-08 00:22:18.888","img/practice_cards/backs/dark_green.gif","2","-200","0","",""
"casino-fixation","47","261228","0.0-17.0-0.6","900","true","img/card_backs/set1/green.gif","img/card_backs/set1/yellow.gif","img/card_backs/set1/purple.gif","img/card_backs/set1/red.gif","img/card_backs/set2/gray.gif","img/card_backs/set2/orange.gif","img/card_backs/set2/pink.gif","img/card_backs/set2/blue.gif","""event"",""trial"",""time""
""fullscreenenter"",""1"",""8679""
","
","
","""event"",""trial"",""time""
""fullscreenenter"",""1"",""8679""
","
","","null","","null","","fixation","2021-07-08 00:22:19.395","","","","","",""
"card-selection-trial","48","265263","0.0-17.0-1.6","900","true","img/card_backs/set1/green.gif","img/card_backs/set1/yellow.gif","img/card_backs/set1/purple.gif","img/card_backs/set1/red.gif","img/card_backs/set2/gray.gif","img/card_backs/set2/orange.gif","img/card_backs/set2/pink.gif","img/card_backs/set2/blue.gif","""event"",""trial"",""time""
""fullscreenenter"",""1"",""8679""
","
","
","""event"",""trial"",""time""
""fullscreenenter"",""1"",""8679""
","
","","2024.1000000238419","","","","practice","2021-07-08 00:22:23.430","img/practice_cards/backs/brown.gif","3","100","0","",""
"casino-fixation","49","265769","0.0-17.0-0.7","900","true","img/card_backs/set1/green.gif","img/card_backs/set1/yellow.gif","img/card_backs/set1/purple.gif","img/card_backs/set1/red.gif","img/card_backs/set2/gray.gif","img/card_backs/set2/orange.gif","img/card_backs/set2/pink.gif","img/card_backs/set2/blue.gif","""event"",""trial"",""time""
""fullscreenenter"",""1"",""8679""
","
","
","""event"",""trial"",""time""
""fullscreenenter"",""1"",""8679""
","
","","null","","null","","fixation","2021-07-08 00:22:23.937","","","","","",""
"card-selection-trial","50","270938","0.0-17.0-1.7","900","true","img/card_backs/set1/green.gif","img/card_backs/set1/yellow.gif","img/card_backs/set1/purple.gif","img/card_backs/set1/red.gif","img/card_backs/set2/gray.gif","img/card_backs/set2/orange.gif","img/card_backs/set2/pink.gif","img/card_backs/set2/blue.gif","""event"",""trial"",""time""
""fullscreenenter"",""1"",""8679""
","
","
","""event"",""trial"",""time""
""fullscreenenter"",""1"",""8679""
","
","","3158.8000000715256","","","","practice","2021-07-08 00:22:29.106","img/practice_cards/backs/brown.gif","2","-100","0","",""
"casino-fixation","51","271445","0.0-17.0-0.8","900","true","img/card_backs/set1/green.gif","img/card_backs/set1/yellow.gif","img/card_backs/set1/purple.gif","img/card_backs/set1/red.gif","img/card_backs/set2/gray.gif","img/card_backs/set2/orange.gif","img/card_backs/set2/pink.gif","img/card_backs/set2/blue.gif","""event"",""trial"",""time""
""fullscreenenter"",""1"",""8679""
","
","
","""event"",""trial"",""time""
""fullscreenenter"",""1"",""8679""
","
","","null","","null","","fixation","2021-07-08 00:22:29.612","","","","","",""
"card-selection-trial","52","276160","0.0-17.0-1.8","900","true","img/card_backs/set1/green.gif","img/card_backs/set1/yellow.gif","img/card_backs/set1/purple.gif","img/card_backs/set1/red.gif","img/card_backs/set2/gray.gif","img/card_backs/set2/orange.gif","img/card_backs/set2/pink.gif","img/card_backs/set2/blue.gif","""event"",""trial"",""time""
""fullscreenenter"",""1"",""8679""
","
","
","""event"",""trial"",""time""
""fullscreenenter"",""1"",""8679""
","
","","2703.7999999523163","","","","practice","2021-07-08 00:22:34.327","img/practice_cards/backs/brown.gif","3","100","0","",""
"casino-fixation","53","276665","0.0-17.0-0.9","900","true","img/card_backs/set1/green.gif","img/card_backs/set1/yellow.gif","img/card_backs/set1/purple.gif","img/card_backs/set1/red.gif","img/card_backs/set2/gray.gif","img/card_backs/set2/orange.gif","img/card_backs/set2/pink.gif","img/card_backs/set2/blue.gif","""event"",""trial"",""time""
""fullscreenenter"",""1"",""8679""
","
","
","""event"",""trial"",""time""
""fullscreenenter"",""1"",""8679""
","
","","null","","null","","fixation","2021-07-08 00:22:34.832","","","","","",""
"card-selection-trial","54","280133","0.0-17.0-1.9","900","true","img/card_backs/set1/green.gif","img/card_backs/set1/yellow.gif","img/card_backs/set1/purple.gif","img/card_backs/set1/red.gif","img/card_backs/set2/gray.gif","img/card_backs/set2/orange.gif","img/card_backs/set2/pink.gif","img/card_backs/set2/blue.gif","""event"",""trial"",""time""
""fullscreenenter"",""1"",""8679""
","
","
","""event"",""trial"",""time""
""fullscreenenter"",""1"",""8679""
","
","","1460.0999999046326","","","","practice","2021-07-08 00:22:38.300","img/practice_cards/backs/brown.gif","0","-100","0","",""
"casino-keyboard-response","55","284465","0.0-18.0","900","true","img/card_backs/set1/green.gif","img/card_backs/set1/yellow.gif","img/card_backs/set1/purple.gif","img/card_backs/set1/red.gif","img/card_backs/set2/gray.gif","img/card_backs/set2/orange.gif","img/card_backs/set2/pink.gif","img/card_backs/set2/blue.gif","""event"",""trial"",""time""
""fullscreenenter"",""1"",""8679""
","
","
","""event"",""trial"",""time""
""fullscreenenter"",""1"",""8679""
","
","","4329.799999952316","You earned -100 tokens during the practice round!","82","","","2021-07-08 00:22:42.633","","","","","",""
"casino-keyboard-response","56","289093","0.0-19.0-0.0","900","true","img/card_backs/set1/green.gif","img/card_backs/set1/yellow.gif","img/card_backs/set1/purple.gif","img/card_backs/set1/red.gif","img/card_backs/set2/gray.gif","img/card_backs/set2/orange.gif","img/card_backs/set2/pink.gif","img/card_backs/set2/blue.gif","""event"",""trial"",""time""
""fullscreenenter"",""1"",""8679""
","
","
","""event"",""trial"",""time""
""fullscreenenter"",""1"",""8679""
","
","","4625.600000023842","Nice job! You are almost ready to play the real game.","86","","instructions","2021-07-08 00:22:47.260","","","","","",""
"casino-keyboard-response","57","295572","0.0-19.0-0.1","900","true","img/card_backs/set1/green.gif","img/card_backs/set1/yellow.gif","img/card_backs/set1/purple.gif","img/card_backs/set1/red.gif","img/card_backs/set2/gray.gif","img/card_backs/set2/orange.gif","img/card_backs/set2/pink.gif","img/card_backs/set2/blue.gif","""event"",""trial"",""time""
""fullscreenenter"",""1"",""8679""
","
","
","""event"",""trial"",""time""
""fullscreenenter"",""1"",""8679""
","
","","6477.299999952316","You will play two rounds of the real game. In each round, you will pick 100 cards in total.","73","","instructions","2021-07-08 00:22:53.739","","","","","",""
"casino-keyboard-response","58","299950","0.0-19.0-0.2","900","true","img/card_backs/set1/green.gif","img/card_backs/set1/yellow.gif","img/card_backs/set1/purple.gif","img/card_backs/set1/red.gif","img/card_backs/set2/gray.gif","img/card_backs/set2/orange.gif","img/card_backs/set2/pink.gif","img/card_backs/set2/blue.gif","""event"",""trial"",""time""
""fullscreenenter"",""1"",""8679""
","
","
","""event"",""trial"",""time""
""fullscreenenter"",""1"",""8679""
","
","","4375.699999928474","We are now going to ask you some questions about how the game works.","66","","instructions","2021-07-08 00:22:58.117","","","","","",""
"casino-keyboard-response","59","306151","0.0-19.0-0.3","900","true","img/card_backs/set1/green.gif","img/card_backs/set1/yellow.gif","img/card_backs/set1/purple.gif","img/card_backs/set1/red.gif","img/card_backs/set2/gray.gif","img/card_backs/set2/orange.gif","img/card_backs/set2/pink.gif","img/card_backs/set2/blue.gif","""event"",""trial"",""time""
""fullscreenenter"",""1"",""8679""
","
","
","""event"",""trial"",""time""
""fullscreenenter"",""1"",""8679""
","
","","6198.5","Answer carefully. You will not be able to begin the game until you answer them correctly.","67","","instructions","2021-07-08 00:23:04.318","","","","","",""
"casino-comp_q","60","317142","0.0-20.0-0.0","900","true","img/card_backs/set1/green.gif","img/card_backs/set1/yellow.gif","img/card_backs/set1/purple.gif","img/card_backs/set1/red.gif","img/card_backs/set2/gray.gif","img/card_backs/set2/orange.gif","img/card_backs/set2/pink.gif","img/card_backs/set2/blue.gif","""event"",""trial"",""time""
""fullscreenenter"",""1"",""8679""
","
","
","""event"",""trial"",""time""
""fullscreenenter"",""1"",""8679""
","
","","10988.799999952316","True or False: All the decks have some cards that cause you to win tokens and some cards that cause you to lose tokens.","70","","","2021-07-08 00:23:15.309","","","","","",""
"casino-keyboard-response","61","320797","0.0-20.0-1.0","900","true","img/card_backs/set1/green.gif","img/card_backs/set1/yellow.gif","img/card_backs/set1/purple.gif","img/card_backs/set1/red.gif","img/card_backs/set2/gray.gif","img/card_backs/set2/orange.gif","img/card_backs/set2/pink.gif","img/card_backs/set2/blue.gif","""event"",""trial"",""time""
""fullscreenenter"",""1"",""8679""
","
","
","""event"",""trial"",""time""
""fullscreenenter"",""1"",""8679""
","
","","3652","False is incorrect. All the decks have a mix of winning and losing cards.","77","","","2021-07-08 00:23:18.964","","","","","false",""
"casino-comp_q","62","324976","0.0-20.1-0.1","900","true","img/card_backs/set1/green.gif","img/card_backs/set1/yellow.gif","img/card_backs/set1/purple.gif","img/card_backs/set1/red.gif","img/card_backs/set2/gray.gif","img/card_backs/set2/orange.gif","img/card_backs/set2/pink.gif","img/card_backs/set2/blue.gif","""event"",""trial"",""time""
""fullscreenenter"",""1"",""8679""
","
","
","""event"",""trial"",""time""
""fullscreenenter"",""1"",""8679""
","
","","4176.600000023842","True or False: All the decks have some cards that cause you to win tokens and some cards that cause you to lose tokens.","84","","","2021-07-08 00:23:23.143","","","","","",""
"casino-keyboard-response","63","329603","0.0-20.1-1.1","900","true","img/card_backs/set1/green.gif","img/card_backs/set1/yellow.gif","img/card_backs/set1/purple.gif","img/card_backs/set1/red.gif","img/card_backs/set2/gray.gif","img/card_backs/set2/orange.gif","img/card_backs/set2/pink.gif","img/card_backs/set2/blue.gif","""event"",""trial"",""time""
""fullscreenenter"",""1"",""8679""
","
","
","""event"",""trial"",""time""
""fullscreenenter"",""1"",""8679""
","
","","4623.300000071526","True is correct! All the decks have a mix of winning and losing cards.","77","","","2021-07-08 00:23:27.770","","","","","true",""
"casino-comp_q","64","334182","0.0-21.0-0.0","900","true","img/card_backs/set1/green.gif","img/card_backs/set1/yellow.gif","img/card_backs/set1/purple.gif","img/card_backs/set1/red.gif","img/card_backs/set2/gray.gif","img/card_backs/set2/orange.gif","img/card_backs/set2/pink.gif","img/card_backs/set2/blue.gif","""event"",""trial"",""time""
""fullscreenenter"",""1"",""8679""
","
","
","""event"",""trial"",""time""
""fullscreenenter"",""1"",""8679""
","
","","4576.699999928474","True or False: You will have as much time as you want to make your response.","70","","","2021-07-08 00:23:32.350","","","","","",""
"casino-keyboard-response","65","337868","0.0-21.0-1.0","900","true","img/card_backs/set1/green.gif","img/card_backs/set1/yellow.gif","img/card_backs/set1/purple.gif","img/card_backs/set1/red.gif","img/card_backs/set2/gray.gif","img/card_backs/set2/orange.gif","img/card_backs/set2/pink.gif","img/card_backs/set2/blue.gif","""event"",""trial"",""time""
""fullscreenenter"",""1"",""8679""
","
","
","""event"",""trial"",""time""
""fullscreenenter"",""1"",""8679""
","
","","3682.899999976158","False is correct! You will only have 10 seconds to make each choice.","75","","","2021-07-08 00:23:36.035","","","","","true",""
"casino-comp_q","66","343375","0.0-22.0-0.0","900","true","img/card_backs/set1/green.gif","img/card_backs/set1/yellow.gif","img/card_backs/set1/purple.gif","img/card_backs/set1/red.gif","img/card_backs/set2/gray.gif","img/card_backs/set2/orange.gif","img/card_backs/set2/pink.gif","img/card_backs/set2/blue.gif","""event"",""trial"",""time""
""fullscreenenter"",""1"",""8679""
","
","
","""event"",""trial"",""time""
""fullscreenenter"",""1"",""8679""
","
","","5504.799999952316","True or False: The location of the deck determines how lucky it is.","70","","","2021-07-08 00:23:41.542","","","","","",""
"casino-keyboard-response","67","349582","0.0-22.0-1.0","900","true","img/card_backs/set1/green.gif","img/card_backs/set1/yellow.gif","img/card_backs/set1/purple.gif","img/card_backs/set1/red.gif","img/card_backs/set2/gray.gif","img/card_backs/set2/orange.gif","img/card_backs/set2/pink.gif","img/card_backs/set2/blue.gif","""event"",""trial"",""time""
""fullscreenenter"",""1"",""8679""
","
","
","""event"",""trial"",""time""
""fullscreenenter"",""1"",""8679""
","
","","6205.400000095367","False is correct! The <i>color</i>  of the deck determines how lucky or unlucky it is.","68","","","2021-07-08 00:23:47.749","","","","","true",""
"casino-keyboard-response","68","353983","0.0-23.0-0.0","900","true","img/card_backs/set1/green.gif","img/card_backs/set1/yellow.gif","img/card_backs/set1/purple.gif","img/card_backs/set1/red.gif","img/card_backs/set2/gray.gif","img/card_backs/set2/orange.gif","img/card_backs/set2/pink.gif","img/card_backs/set2/blue.gif","""event"",""trial"",""time""
""fullscreenenter"",""1"",""8679""
","
","
","""event"",""trial"",""time""
""fullscreenenter"",""1"",""8679""
","
","","4399.099999904633","Great job! Now it's time to start the real game.","82","","instructions","2021-07-08 00:23:52.151","","","","","",""
"casino-keyboard-response","69","359623","0.0-23.0-0.1","900","true","img/card_backs/set1/green.gif","img/card_backs/set1/yellow.gif","img/card_backs/set1/purple.gif","img/card_backs/set1/red.gif","img/card_backs/set2/gray.gif","img/card_backs/set2/orange.gif","img/card_backs/set2/pink.gif","img/card_backs/set2/blue.gif","""event"",""trial"",""time""
""fullscreenenter"",""1"",""8679""
","
","
","""event"",""trial"",""time""
""fullscreenenter"",""1"",""8679""
","
","","5638","Before we start, we're going to head into a new room of the casino.","86","","instructions","2021-07-08 00:23:57.791","","","","","",""
"casino-keyboard-response","70","366940","0.0-24.0-0.0","900","true","img/card_backs/set1/green.gif","img/card_backs/set1/yellow.gif","img/card_backs/set1/purple.gif","img/card_backs/set1/red.gif","img/card_backs/set2/gray.gif","img/card_backs/set2/orange.gif","img/card_backs/set2/pink.gif","img/card_backs/set2/blue.gif","""event"",""trial"",""time""
""fullscreenenter"",""1"",""8679""
","
","
","""event"",""trial"",""time""
""fullscreenenter"",""1"",""8679""
","
","","7313.299999952316","Here we are! The real game will use different cards, but the rules will be the same.","71","","instructions","2021-07-08 00:24:05.107","","","","","",""
"casino-keyboard-response","71","376398","0.0-24.0-0.1","900","true","img/card_backs/set1/green.gif","img/card_backs/set1/yellow.gif","img/card_backs/set1/purple.gif","img/card_backs/set1/red.gif","img/card_backs/set2/gray.gif","img/card_backs/set2/orange.gif","img/card_backs/set2/pink.gif","img/card_backs/set2/blue.gif","""event"",""trial"",""time""
""fullscreenenter"",""1"",""8679""
","
","
","""event"",""trial"",""time""
""fullscreenenter"",""1"",""8679""
","
","","9457","Ready? Put your fingers over the '2', '4', 6', and '8' keys so you are ready to play the game. </br> Then press 2 to start.","50","","instructions","2021-07-08 00:24:14.565","","","","","",""
"casino-fixation","72","376901","0.0-25.0-0.0","900","true","img/card_backs/set1/green.gif","img/card_backs/set1/yellow.gif","img/card_backs/set1/purple.gif","img/card_backs/set1/red.gif","img/card_backs/set2/gray.gif","img/card_backs/set2/orange.gif","img/card_backs/set2/pink.gif","img/card_backs/set2/blue.gif","""event"",""trial"",""time""
""fullscreenenter"",""1"",""8679""
","
","
","""event"",""trial"",""time""
""fullscreenenter"",""1"",""8679""
","
","","null","","null","","fixation","2021-07-08 00:24:15.068","","","","","",""
"card-selection-trial","73","380068","0.0-25.0-1.0","900","true","img/card_backs/set1/green.gif","img/card_backs/set1/yellow.gif","img/card_backs/set1/purple.gif","img/card_backs/set1/red.gif","img/card_backs/set2/gray.gif","img/card_backs/set2/orange.gif","img/card_backs/set2/pink.gif","img/card_backs/set2/blue.gif","""event"",""trial"",""time""
""fullscreenenter"",""1"",""8679""
","
","
","""event"",""trial"",""time""
""fullscreenenter"",""1"",""8679""
","
","","1148.6000000238419","","","","real_trial","2021-07-08 00:24:18.235","img/card_backs/set1/green.gif","1","250","1","",""
"casino-fixation","74","380572","0.0-25.0-0.1","900","true","img/card_backs/set1/green.gif","img/card_backs/set1/yellow.gif","img/card_backs/set1/purple.gif","img/card_backs/set1/red.gif","img/card_backs/set2/gray.gif","img/card_backs/set2/orange.gif","img/card_backs/set2/pink.gif","img/card_backs/set2/blue.gif","""event"",""trial"",""time""
""fullscreenenter"",""1"",""8679""
","
","
","""event"",""trial"",""time""
""fullscreenenter"",""1"",""8679""
","
","","null","","null","","fixation","2021-07-08 00:24:18.739","","","","","",""
"card-selection-trial","75","383622","0.0-25.0-1.1","900","true","img/card_backs/set1/green.gif","img/card_backs/set1/yellow.gif","img/card_backs/set1/purple.gif","img/card_backs/set1/red.gif","img/card_backs/set2/gray.gif","img/card_backs/set2/orange.gif","img/card_backs/set2/pink.gif","img/card_backs/set2/blue.gif","""event"",""trial"",""time""
""fullscreenenter"",""1"",""8679""
","
","
","""event"",""trial"",""time""
""fullscreenenter"",""1"",""8679""
","
","","1037","","","","real_trial","2021-07-08 00:24:21.789","img/card_backs/set1/green.gif","0","250","1","",""
"casino-fixation","76","384125","0.0-25.0-0.2","900","true","img/card_backs/set1/green.gif","img/card_backs/set1/yellow.gif","img/card_backs/set1/purple.gif","img/card_backs/set1/red.gif","img/card_backs/set2/gray.gif","img/card_backs/set2/orange.gif","img/card_backs/set2/pink.gif","img/card_backs/set2/blue.gif","""event"",""trial"",""time""
""fullscreenenter"",""1"",""8679""
","
","
","""event"",""trial"",""time""
""fullscreenenter"",""1"",""8679""
","
","","null","","null","","fixation","2021-07-08 00:24:22.292","","","","","",""
"card-selection-trial","77","387144","0.0-25.0-1.2","900","true","img/card_backs/set1/green.gif","img/card_backs/set1/yellow.gif","img/card_backs/set1/purple.gif","img/card_backs/set1/red.gif","img/card_backs/set2/gray.gif","img/card_backs/set2/orange.gif","img/card_backs/set2/pink.gif","img/card_backs/set2/blue.gif","""event"",""trial"",""time""
""fullscreenenter"",""1"",""8679""
","
","
","""event"",""trial"",""time""
""fullscreenenter"",""1"",""8679""
","
","","1009.6999999284744","","","","real_trial","2021-07-08 00:24:25.311","img/card_backs/set1/green.gif","2","240","1","",""
"casino-fixation","78","387649","0.0-25.0-0.3","900","true","img/card_backs/set1/green.gif","img/card_backs/set1/yellow.gif","img/card_backs/set1/purple.gif","img/card_backs/set1/red.gif","img/card_backs/set2/gray.gif","img/card_backs/set2/orange.gif","img/card_backs/set2/pink.gif","img/card_backs/set2/blue.gif","""event"",""trial"",""time""
""fullscreenenter"",""1"",""8679""
","
","
","""event"",""trial"",""time""
""fullscreenenter"",""1"",""8679""
","
","","null","","null","","fixation","2021-07-08 00:24:25.816","","","","","",""
"card-selection-trial","79","390633","0.0-25.0-1.3","900","true","img/card_backs/set1/green.gif","img/card_backs/set1/yellow.gif","img/card_backs/set1/purple.gif","img/card_backs/set1/red.gif","img/card_backs/set2/gray.gif","img/card_backs/set2/orange.gif","img/card_backs/set2/pink.gif","img/card_backs/set2/blue.gif","""event"",""trial"",""time""
""fullscreenenter"",""1"",""8679""
","
","
","""event"",""trial"",""time""
""fullscreenenter"",""1"",""8679""
","
","","975.6999999284744","","","","real_trial","2021-07-08 00:24:28.801","img/card_backs/set1/green.gif","0","-200","1","",""
"casino-fixation","80","391137","0.0-25.0-0.4","900","true","img/card_backs/set1/green.gif","img/card_backs/set1/yellow.gif","img/card_backs/set1/purple.gif","img/card_backs/set1/red.gif","img/card_backs/set2/gray.gif","img/card_backs/set2/orange.gif","img/card_backs/set2/pink.gif","img/card_backs/set2/blue.gif","""event"",""trial"",""time""
""fullscreenenter"",""1"",""8679""
","
","
","""event"",""trial"",""time""
""fullscreenenter"",""1"",""8679""
","
","","null","","null","","fixation","2021-07-08 00:24:29.305","","","","","",""
"card-selection-trial","81","394289","0.0-25.0-1.4","900","true","img/card_backs/set1/green.gif","img/card_backs/set1/yellow.gif","img/card_backs/set1/purple.gif","img/card_backs/set1/red.gif","img/card_backs/set2/gray.gif","img/card_backs/set2/orange.gif","img/card_backs/set2/pink.gif","img/card_backs/set2/blue.gif","""event"",""trial"",""time""
""fullscreenenter"",""1"",""8679""
","
","
","""event"",""trial"",""time""
""fullscreenenter"",""1"",""8679""
","
","","1137.5","","","","real_trial","2021-07-08 00:24:32.457","img/card_backs/set1/green.gif","2","-210","1","",""
"casino-fixation","82","394794","0.0-25.0-0.5","900","true","img/card_backs/set1/green.gif","img/card_backs/set1/yellow.gif","img/card_backs/set1/purple.gif","img/card_backs/set1/red.gif","img/card_backs/set2/gray.gif","img/card_backs/set2/orange.gif","img/card_backs/set2/pink.gif","img/card_backs/set2/blue.gif","""event"",""trial"",""time""
""fullscreenenter"",""1"",""8679""
","
","
","""event"",""trial"",""time""
""fullscreenenter"",""1"",""8679""
","
","","null","","null","","fixation","2021-07-08 00:24:32.961","","","","","",""
"card-selection-trial","83","397918","0.0-25.0-1.5","900","true","img/card_backs/set1/green.gif","img/card_backs/set1/yellow.gif","img/card_backs/set1/purple.gif","img/card_backs/set1/red.gif","img/card_backs/set2/gray.gif","img/card_backs/set2/orange.gif","img/card_backs/set2/pink.gif","img/card_backs/set2/blue.gif","""event"",""trial"",""time""
""fullscreenenter"",""1"",""8679""
","
","
","""event"",""trial"",""time""
""fullscreenenter"",""1"",""8679""
","
","","1111.3000000715256","","","","real_trial","2021-07-08 00:24:36.085","img/card_backs/set1/yellow.gif","3","-210","1","",""
"casino-fixation","84","398424","0.0-25.0-0.6","900","true","img/card_backs/set1/green.gif","img/card_backs/set1/yellow.gif","img/card_backs/set1/purple.gif","img/card_backs/set1/red.gif","img/card_backs/set2/gray.gif","img/card_backs/set2/orange.gif","img/card_backs/set2/pink.gif","img/card_backs/set2/blue.gif","""event"",""trial"",""time""
""fullscreenenter"",""1"",""8679""
","
","
","""event"",""trial"",""time""
""fullscreenenter"",""1"",""8679""
","
","","null","","null","","fixation","2021-07-08 00:24:36.591","","","","","",""
"card-selection-trial","85","401644","0.0-25.0-1.6","900","true","img/card_backs/set1/green.gif","img/card_backs/set1/yellow.gif","img/card_backs/set1/purple.gif","img/card_backs/set1/red.gif","img/card_backs/set2/gray.gif","img/card_backs/set2/orange.gif","img/card_backs/set2/pink.gif","img/card_backs/set2/blue.gif","""event"",""trial"",""time""
""fullscreenenter"",""1"",""8679""
","
","
","""event"",""trial"",""time""
""fullscreenenter"",""1"",""8679""
","
","","1207.9000000953674","","","","real_trial","2021-07-08 00:24:39.811","img/card_backs/set1/yellow.gif","1","-200","1","",""
"casino-fixation","86","402150","0.0-25.0-0.7","900","true","img/card_backs/set1/green.gif","img/card_backs/set1/yellow.gif","img/card_backs/set1/purple.gif","img/card_backs/set1/red.gif","img/card_backs/set2/gray.gif","img/card_backs/set2/orange.gif","img/card_backs/set2/pink.gif","img/card_backs/set2/blue.gif","""event"",""trial"",""time""
""fullscreenenter"",""1"",""8679""
","
","
","""event"",""trial"",""time""
""fullscreenenter"",""1"",""8679""
","
","","null","","null","","fixation","2021-07-08 00:24:40.317","","","","","",""
"card-selection-trial","87","405250","0.0-25.0-1.7","900","true","img/card_backs/set1/green.gif","img/card_backs/set1/yellow.gif","img/card_backs/set1/purple.gif","img/card_backs/set1/red.gif","img/card_backs/set2/gray.gif","img/card_backs/set2/orange.gif","img/card_backs/set2/pink.gif","img/card_backs/set2/blue.gif","""event"",""trial"",""time""
""fullscreenenter"",""1"",""8679""
","
","
","""event"",""trial"",""time""
""fullscreenenter"",""1"",""8679""
","
","","1087.6000000238419","","","","real_trial","2021-07-08 00:24:43.417","img/card_backs/set1/red.gif","2","-100","1","",""
"casino-fixation","88","405755","0.0-25.0-0.8","900","true","img/card_backs/set1/green.gif","img/card_backs/set1/yellow.gif","img/card_backs/set1/purple.gif","img/card_backs/set1/red.gif","img/card_backs/set2/gray.gif","img/card_backs/set2/orange.gif","img/card_backs/set2/pink.gif","img/card_backs/set2/blue.gif","""event"",""trial"",""time""
""fullscreenenter"",""1"",""8679""
","
","
","""event"",""trial"",""time""
""fullscreenenter"",""1"",""8679""
","
","","null","","null","","fixation","2021-07-08 00:24:43.922","","","","","",""
"card-selection-trial","89","408903","0.0-25.0-1.8","900","true","img/card_backs/set1/green.gif","img/card_backs/set1/yellow.gif","img/card_backs/set1/purple.gif","img/card_backs/set1/red.gif","img/card_backs/set2/gray.gif","img/card_backs/set2/orange.gif","img/card_backs/set2/pink.gif","img/card_backs/set2/blue.gif","""event"",""trial"",""time""
""fullscreenenter"",""1"",""8679""
","
","
","""event"",""trial"",""time""
""fullscreenenter"",""1"",""8679""
","
","","1136.5","","","","real_trial","2021-07-08 00:24:47.070","img/card_backs/set1/green.gif","3","260","1","",""
"casino-fixation","90","409409","0.0-25.0-0.9","900","true","img/card_backs/set1/green.gif","img/card_backs/set1/yellow.gif","img/card_backs/set1/purple.gif","img/card_backs/set1/red.gif","img/card_backs/set2/gray.gif","img/card_backs/set2/orange.gif","img/card_backs/set2/pink.gif","img/card_backs/set2/blue.gif","""event"",""trial"",""time""
""fullscreenenter"",""1"",""8679""
","
","
","""event"",""trial"",""time""
""fullscreenenter"",""1"",""8679""
","
","","null","","null","","fixation","2021-07-08 00:24:47.576","","","","","",""
"card-selection-trial","91","412343","0.0-25.0-1.9","900","true","img/card_backs/set1/green.gif","img/card_backs/set1/yellow.gif","img/card_backs/set1/purple.gif","img/card_backs/set1/red.gif","img/card_backs/set2/gray.gif","img/card_backs/set2/orange.gif","img/card_backs/set2/pink.gif","img/card_backs/set2/blue.gif","""event"",""trial"",""time""
""fullscreenenter"",""1"",""8679""
","
","
","""event"",""trial"",""time""
""fullscreenenter"",""1"",""8679""
","
","","922","","","","real_trial","2021-07-08 00:24:50.510","img/card_backs/set1/green.gif","3","-190","1","",""
"casino-fixation","92","412849","0.0-25.0-0.10","900","true","img/card_backs/set1/green.gif","img/card_backs/set1/yellow.gif","img/card_backs/set1/purple.gif","img/card_backs/set1/red.gif","img/card_backs/set2/gray.gif","img/card_backs/set2/orange.gif","img/card_backs/set2/pink.gif","img/card_backs/set2/blue.gif","""event"",""trial"",""time""
""fullscreenenter"",""1"",""8679""
","
","
","""event"",""trial"",""time""
""fullscreenenter"",""1"",""8679""
","
","","null","","null","","fixation","2021-07-08 00:24:51.016","","","","","",""
"card-selection-trial","93","416076","0.0-25.0-1.10","900","true","img/card_backs/set1/green.gif","img/card_backs/set1/yellow.gif","img/card_backs/set1/purple.gif","img/card_backs/set1/red.gif","img/card_backs/set2/gray.gif","img/card_backs/set2/orange.gif","img/card_backs/set2/pink.gif","img/card_backs/set2/blue.gif","""event"",""trial"",""time""
""fullscreenenter"",""1"",""8679""
","
","
","""event"",""trial"",""time""
""fullscreenenter"",""1"",""8679""
","
","","1217.3999999761581","","","","real_trial","2021-07-08 00:24:54.243","img/card_backs/set1/red.gif","0","50","1","",""
"casino-fixation","94","416583","0.0-25.0-0.11","900","true","img/card_backs/set1/green.gif","img/card_backs/set1/yellow.gif","img/card_backs/set1/purple.gif","img/card_backs/set1/red.gif","img/card_backs/set2/gray.gif","img/card_backs/set2/orange.gif","img/card_backs/set2/pink.gif","img/card_backs/set2/blue.gif","""event"",""trial"",""time""
""fullscreenenter"",""1"",""8679""
","
","
","""event"",""trial"",""time""
""fullscreenenter"",""1"",""8679""
","
","","null","","null","","fixation","2021-07-08 00:24:54.750","","","","","",""
"card-selection-trial","95","419623","0.0-25.0-1.11","900","true","img/card_backs/set1/green.gif","img/card_backs/set1/yellow.gif","img/card_backs/set1/purple.gif","img/card_backs/set1/red.gif","img/card_backs/set2/gray.gif","img/card_backs/set2/orange.gif","img/card_backs/set2/pink.gif","img/card_backs/set2/blue.gif","""event"",""trial"",""time""
""fullscreenenter"",""1"",""8679""
","
","
","""event"",""trial"",""time""
""fullscreenenter"",""1"",""8679""
","
","","1028.1000000238419","","","","real_trial","2021-07-08 00:24:57.790","img/card_backs/set1/yellow.gif","2","250","1","",""
"casino-fixation","96","420129","0.0-25.0-0.12","900","true","img/card_backs/set1/green.gif","img/card_backs/set1/yellow.gif","img/card_backs/set1/purple.gif","img/card_backs/set1/red.gif","img/card_backs/set2/gray.gif","img/card_backs/set2/orange.gif","img/card_backs/set2/pink.gif","img/card_backs/set2/blue.gif","""event"",""trial"",""time""
""fullscreenenter"",""1"",""8679""
","
","
","""event"",""trial"",""time""
""fullscreenenter"",""1"",""8679""
","
","","null","","null","","fixation","2021-07-08 00:24:58.296","","","","","",""
"card-selection-trial","97","423052","0.0-25.0-1.12","900","true","img/card_backs/set1/green.gif","img/card_backs/set1/yellow.gif","img/card_backs/set1/purple.gif","img/card_backs/set1/red.gif","img/card_backs/set2/gray.gif","img/card_backs/set2/orange.gif","img/card_backs/set2/pink.gif","img/card_backs/set2/blue.gif","""event"",""trial"",""time""
""fullscreenenter"",""1"",""8679""
","
","
","""event"",""trial"",""time""
""fullscreenenter"",""1"",""8679""
","
","","911.2000000476837","","","","real_trial","2021-07-08 00:25:01.219","img/card_backs/set1/yellow.gif","3","260","1","",""
"casino-fixation","98","423558","0.0-25.0-0.13","900","true","img/card_backs/set1/green.gif","img/card_backs/set1/yellow.gif","img/card_backs/set1/purple.gif","img/card_backs/set1/red.gif","img/card_backs/set2/gray.gif","img/card_backs/set2/orange.gif","img/card_backs/set2/pink.gif","img/card_backs/set2/blue.gif","""event"",""trial"",""time""
""fullscreenenter"",""1"",""8679""
","
","
","""event"",""trial"",""time""
""fullscreenenter"",""1"",""8679""
","
","","null","","null","","fixation","2021-07-08 00:25:01.725","","","","","",""
"card-selection-trial","99","426548","0.0-25.0-1.13","900","true","img/card_backs/set1/green.gif","img/card_backs/set1/yellow.gif","img/card_backs/set1/purple.gif","img/card_backs/set1/red.gif","img/card_backs/set2/gray.gif","img/card_backs/set2/orange.gif","img/card_backs/set2/pink.gif","img/card_backs/set2/blue.gif","""event"",""trial"",""time""
""fullscreenenter"",""1"",""8679""
","
","
","""event"",""trial"",""time""
""fullscreenenter"",""1"",""8679""
","
","","979.2000000476837","","","","real_trial","2021-07-08 00:25:04.715","img/card_backs/set1/yellow.gif","2","260","1","",""
"casino-fixation","100","427051","0.0-25.0-0.14","900","true","img/card_backs/set1/green.gif","img/card_backs/set1/yellow.gif","img/card_backs/set1/purple.gif","img/card_backs/set1/red.gif","img/card_backs/set2/gray.gif","img/card_backs/set2/orange.gif","img/card_backs/set2/pink.gif","img/card_backs/set2/blue.gif","""event"",""trial"",""time""
""fullscreenenter"",""1"",""8679""
","
","
","""event"",""trial"",""time""
""fullscreenenter"",""1"",""8679""
","
","","null","","null","","fixation","2021-07-08 00:25:05.219","","","","","",""
"card-selection-trial","101","430374","0.0-25.0-1.14","900","true","img/card_backs/set1/green.gif","img/card_backs/set1/yellow.gif","img/card_backs/set1/purple.gif","img/card_backs/set1/red.gif","img/card_backs/set2/gray.gif","img/card_backs/set2/orange.gif","img/card_backs/set2/pink.gif","img/card_backs/set2/blue.gif","""event"",""trial"",""time""
""fullscreenenter"",""1"",""8679""
","
","
","""event"",""trial"",""time""
""fullscreenenter"",""1"",""8679""
","
","","1309.2999999523163","","","","real_trial","2021-07-08 00:25:08.542","img/card_backs/set1/red.gif","2","-100","1","",""
"casino-fixation","102","430881","0.0-25.0-0.15","900","true","img/card_backs/set1/green.gif","img/card_backs/set1/yellow.gif","img/card_backs/set1/purple.gif","img/card_backs/set1/red.gif","img/card_backs/set2/gray.gif","img/card_backs/set2/orange.gif","img/card_backs/set2/pink.gif","img/card_backs/set2/blue.gif","""event"",""trial"",""time""
""fullscreenenter"",""1"",""8679""
","
","
","""event"",""trial"",""time""
""fullscreenenter"",""1"",""8679""
","
","","null","","null","","fixation","2021-07-08 00:25:09.048","","","","","",""
"card-selection-trial","103","434268","0.0-25.0-1.15","900","true","img/card_backs/set1/green.gif","img/card_backs/set1/yellow.gif","img/card_backs/set1/purple.gif","img/card_backs/set1/red.gif","img/card_backs/set2/gray.gif","img/card_backs/set2/orange.gif","img/card_backs/set2/pink.gif","img/card_backs/set2/blue.gif","""event"",""trial"",""time""
""fullscreenenter"",""1"",""8679""
","
","
","""event"",""trial"",""time""
""fullscreenenter"",""1"",""8679""
","
","","1379.5","","","","real_trial","2021-07-08 00:25:12.435","img/card_backs/set1/green.gif","1","-190","1","",""
"casino-fixation","104","434774","0.0-25.0-0.16","900","true","img/card_backs/set1/green.gif","img/card_backs/set1/yellow.gif","img/card_backs/set1/purple.gif","img/card_backs/set1/red.gif","img/card_backs/set2/gray.gif","img/card_backs/set2/orange.gif","img/card_backs/set2/pink.gif","img/card_backs/set2/blue.gif","""event"",""trial"",""time""
""fullscreenenter"",""1"",""8679""
","
","
","""event"",""trial"",""time""
""fullscreenenter"",""1"",""8679""
","
","","null","","null","","fixation","2021-07-08 00:25:12.941","","","","","",""
"card-selection-trial","105","438044","0.0-25.0-1.16","900","true","img/card_backs/set1/green.gif","img/card_backs/set1/yellow.gif","img/card_backs/set1/purple.gif","img/card_backs/set1/red.gif","img/card_backs/set2/gray.gif","img/card_backs/set2/orange.gif","img/card_backs/set2/pink.gif","img/card_backs/set2/blue.gif","""event"",""trial"",""time""
""fullscreenenter"",""1"",""8679""
","
","
","""event"",""trial"",""time""
""fullscreenenter"",""1"",""8679""
","
","","1257.5","","","","real_trial","2021-07-08 00:25:16.211","img/card_backs/set1/yellow.gif","3","-190","1","",""
"casino-fixation","106","438550","0.0-25.0-0.17","900","true","img/card_backs/set1/green.gif","img/card_backs/set1/yellow.gif","img/card_backs/set1/purple.gif","img/card_backs/set1/red.gif","img/card_backs/set2/gray.gif","img/card_backs/set2/orange.gif","img/card_backs/set2/pink.gif","img/card_backs/set2/blue.gif","""event"",""trial"",""time""
""fullscreenenter"",""1"",""8679""
","
","
","""event"",""trial"",""time""
""fullscreenenter"",""1"",""8679""
","
","","null","","null","","fixation","2021-07-08 00:25:16.717","","","","","",""
"card-selection-trial","107","441553","0.0-25.0-1.17","900","true","img/card_backs/set1/green.gif","img/card_backs/set1/yellow.gif","img/card_backs/set1/purple.gif","img/card_backs/set1/red.gif","img/card_backs/set2/gray.gif","img/card_backs/set2/orange.gif","img/card_backs/set2/pink.gif","img/card_backs/set2/blue.gif","""event"",""trial"",""time""
""fullscreenenter"",""1"",""8679""
","
","
","""event"",""trial"",""time""
""fullscreenenter"",""1"",""8679""
","
","","988.5","","","","real_trial","2021-07-08 00:25:19.720","img/card_backs/set1/green.gif","2","-190","1","",""
"casino-fixation","108","442059","0.0-25.0-0.18","900","true","img/card_backs/set1/green.gif","img/card_backs/set1/yellow.gif","img/card_backs/set1/purple.gif","img/card_backs/set1/red.gif","img/card_backs/set2/gray.gif","img/card_backs/set2/orange.gif","img/card_backs/set2/pink.gif","img/card_backs/set2/blue.gif","""event"",""trial"",""time""
""fullscreenenter"",""1"",""8679""
","
","
","""event"",""trial"",""time""
""fullscreenenter"",""1"",""8679""
","
","","null","","null","","fixation","2021-07-08 00:25:20.226","","","","","",""
"card-selection-trial","109","445125","0.0-25.0-1.18","900","true","img/card_backs/set1/green.gif","img/card_backs/set1/yellow.gif","img/card_backs/set1/purple.gif","img/card_backs/set1/red.gif","img/card_backs/set2/gray.gif","img/card_backs/set2/orange.gif","img/card_backs/set2/pink.gif","img/card_backs/set2/blue.gif","""event"",""trial"",""time""
""fullscreenenter"",""1"",""8679""
","
","
","""event"",""trial"",""time""
""fullscreenenter"",""1"",""8679""
","
","","1058.8999999761581","","","","real_trial","2021-07-08 00:25:23.292","img/card_backs/set1/yellow.gif","1","250","1","",""
"casino-fixation","110","445632","0.0-25.0-0.19","900","true","img/card_backs/set1/green.gif","img/card_backs/set1/yellow.gif","img/card_backs/set1/purple.gif","img/card_backs/set1/red.gif","img/card_backs/set2/gray.gif","img/card_backs/set2/orange.gif","img/card_backs/set2/pink.gif","img/card_backs/set2/blue.gif","""event"",""trial"",""time""
""fullscreenenter"",""1"",""8679""
","
","
","""event"",""trial"",""time""
""fullscreenenter"",""1"",""8679""
","
","","null","","null","","fixation","2021-07-08 00:25:23.799","","","","","",""
"card-selection-trial","111","448673","0.0-25.0-1.19","900","true","img/card_backs/set1/green.gif","img/card_backs/set1/yellow.gif","img/card_backs/set1/purple.gif","img/card_backs/set1/red.gif","img/card_backs/set2/gray.gif","img/card_backs/set2/orange.gif","img/card_backs/set2/pink.gif","img/card_backs/set2/blue.gif","""event"",""trial"",""time""
""fullscreenenter"",""1"",""8679""
","
","
","""event"",""trial"",""time""
""fullscreenenter"",""1"",""8679""
","
","","1027.7000000476837","","","","real_trial","2021-07-08 00:25:26.840","img/card_backs/set1/yellow.gif","2","240","1","",""
"casino-fixation","112","449179","0.0-25.0-0.20","900","true","img/card_backs/set1/green.gif","img/card_backs/set1/yellow.gif","img/card_backs/set1/purple.gif","img/card_backs/set1/red.gif","img/card_backs/set2/gray.gif","img/card_backs/set2/orange.gif","img/card_backs/set2/pink.gif","img/card_backs/set2/blue.gif","""event"",""trial"",""time""
""fullscreenenter"",""1"",""8679""
","
","
","""event"",""trial"",""time""
""fullscreenenter"",""1"",""8679""
","
","","null","","null","","fixation","2021-07-08 00:25:27.346","","","","","",""
"card-selection-trial","113","452491","0.0-25.0-1.20","900","true","img/card_backs/set1/green.gif","img/card_backs/set1/yellow.gif","img/card_backs/set1/purple.gif","img/card_backs/set1/red.gif","img/card_backs/set2/gray.gif","img/card_backs/set2/orange.gif","img/card_backs/set2/pink.gif","img/card_backs/set2/blue.gif","""event"",""trial"",""time""
""fullscreenenter"",""1"",""8679""
","
","
","""event"",""trial"",""time""
""fullscreenenter"",""1"",""8679""
","
","","1300.3999999761581","","","","real_trial","2021-07-08 00:25:30.658","img/card_backs/set1/yellow.gif","1","-210","1","",""
"casino-fixation","114","452997","0.0-25.0-0.21","900","true","img/card_backs/set1/green.gif","img/card_backs/set1/yellow.gif","img/card_backs/set1/purple.gif","img/card_backs/set1/red.gif","img/card_backs/set2/gray.gif","img/card_backs/set2/orange.gif","img/card_backs/set2/pink.gif","img/card_backs/set2/blue.gif","""event"",""trial"",""time""
""fullscreenenter"",""1"",""8679""
","
","
","""event"",""trial"",""time""
""fullscreenenter"",""1"",""8679""
","
","","null","","null","","fixation","2021-07-08 00:25:31.164","","","","","",""
"card-selection-trial","115","456225","0.0-25.0-1.21","900","true","img/card_backs/set1/green.gif","img/card_backs/set1/yellow.gif","img/card_backs/set1/purple.gif","img/card_backs/set1/red.gif","img/card_backs/set2/gray.gif","img/card_backs/set2/orange.gif","img/card_backs/set2/pink.gif","img/card_backs/set2/blue.gif","""event"",""trial"",""time""
""fullscreenenter"",""1"",""8679""
","
","
","""event"",""trial"",""time""
""fullscreenenter"",""1"",""8679""
","
","","1216.1000000238419","","","","real_trial","2021-07-08 00:25:34.393","img/card_backs/set1/green.gif","0","-210","1","",""
"casino-fixation","116","456731","0.0-25.0-0.22","900","true","img/card_backs/set1/green.gif","img/card_backs/set1/yellow.gif","img/card_backs/set1/purple.gif","img/card_backs/set1/red.gif","img/card_backs/set2/gray.gif","img/card_backs/set2/orange.gif","img/card_backs/set2/pink.gif","img/card_backs/set2/blue.gif","""event"",""trial"",""time""
""fullscreenenter"",""1"",""8679""
","
","
","""event"",""trial"",""time""
""fullscreenenter"",""1"",""8679""
","
","","null","","null","","fixation","2021-07-08 00:25:34.898","","","","","",""
"card-selection-trial","117","459867","0.0-25.0-1.22","900","true","img/card_backs/set1/green.gif","img/card_backs/set1/yellow.gif","img/card_backs/set1/purple.gif","img/card_backs/set1/red.gif","img/card_backs/set2/gray.gif","img/card_backs/set2/orange.gif","img/card_backs/set2/pink.gif","img/card_backs/set2/blue.gif","""event"",""trial"",""time""
""fullscreenenter"",""1"",""8679""
","
","
","""event"",""trial"",""time""
""fullscreenenter"",""1"",""8679""
","
","","1124.2000000476837","","","","real_trial","2021-07-08 00:25:38.034","img/card_backs/set1/green.gif","3","250","1","",""
"casino-fixation","118","460373","0.0-25.0-0.23","900","true","img/card_backs/set1/green.gif","img/card_backs/set1/yellow.gif","img/card_backs/set1/purple.gif","img/card_backs/set1/red.gif","img/card_backs/set2/gray.gif","img/card_backs/set2/orange.gif","img/card_backs/set2/pink.gif","img/card_backs/set2/blue.gif","""event"",""trial"",""time""
""fullscreenenter"",""1"",""8679""
","
","
","""event"",""trial"",""time""
""fullscreenenter"",""1"",""8679""
","
","","null","","null","","fixation","2021-07-08 00:25:38.540","","","","","",""
"card-selection-trial","119","463417","0.0-25.0-1.23","900","true","img/card_backs/set1/green.gif","img/card_backs/set1/yellow.gif","img/card_backs/set1/purple.gif","img/card_backs/set1/red.gif","img/card_backs/set2/gray.gif","img/card_backs/set2/orange.gif","img/card_backs/set2/pink.gif","img/card_backs/set2/blue.gif","""event"",""trial"",""time""
""fullscreenenter"",""1"",""8679""
","
","
","""event"",""trial"",""time""
""fullscreenenter"",""1"",""8679""
","
","","1032.0999999046326","","","","real_trial","2021-07-08 00:25:41.584","img/card_backs/set1/green.gif","2","-190","1","",""
"casino-fixation","120","463919","0.0-25.0-0.24","900","true","img/card_backs/set1/green.gif","img/card_backs/set1/yellow.gif","img/card_backs/set1/purple.gif","img/card_backs/set1/red.gif","img/card_backs/set2/gray.gif","img/card_backs/set2/orange.gif","img/card_backs/set2/pink.gif","img/card_backs/set2/blue.gif","""event"",""trial"",""time""
""fullscreenenter"",""1"",""8679""
","
","
","""event"",""trial"",""time""
""fullscreenenter"",""1"",""8679""
","
","","null","","null","","fixation","2021-07-08 00:25:42.086","","","","","",""
"card-selection-trial","121","467345","0.0-25.0-1.24","900","true","img/card_backs/set1/green.gif","img/card_backs/set1/yellow.gif","img/card_backs/set1/purple.gif","img/card_backs/set1/red.gif","img/card_backs/set2/gray.gif","img/card_backs/set2/orange.gif","img/card_backs/set2/pink.gif","img/card_backs/set2/blue.gif","""event"",""trial"",""time""
""fullscreenenter"",""1"",""8679""
","
","
","""event"",""trial"",""time""
""fullscreenenter"",""1"",""8679""
","
","","1418","","","","real_trial","2021-07-08 00:25:45.512","img/card_backs/set1/red.gif","1","40","1","",""
"casino-fixation","122","467850","0.0-25.0-0.25","900","true","img/card_backs/set1/green.gif","img/card_backs/set1/yellow.gif","img/card_backs/set1/purple.gif","img/card_backs/set1/red.gif","img/card_backs/set2/gray.gif","img/card_backs/set2/orange.gif","img/card_backs/set2/pink.gif","img/card_backs/set2/blue.gif","""event"",""trial"",""time""
""fullscreenenter"",""1"",""8679""
","
","
","""event"",""trial"",""time""
""fullscreenenter"",""1"",""8679""
","
","","null","","null","","fixation","2021-07-08 00:25:46.017","","","","","",""
"card-selection-trial","123","470965","0.0-25.0-1.25","900","true","img/card_backs/set1/green.gif","img/card_backs/set1/yellow.gif","img/card_backs/set1/purple.gif","img/card_backs/set1/red.gif","img/card_backs/set2/gray.gif","img/card_backs/set2/orange.gif","img/card_backs/set2/pink.gif","img/card_backs/set2/blue.gif","""event"",""trial"",""time""
""fullscreenenter"",""1"",""8679""
","
","
","""event"",""trial"",""time""
""fullscreenenter"",""1"",""8679""
","
","","1104.5","","","","real_trial","2021-07-08 00:25:49.132","img/card_backs/set1/red.gif","3","40","1","",""
"casino-fixation","124","471471","0.0-25.0-0.26","900","true","img/card_backs/set1/green.gif","img/card_backs/set1/yellow.gif","img/card_backs/set1/purple.gif","img/card_backs/set1/red.gif","img/card_backs/set2/gray.gif","img/card_backs/set2/orange.gif","img/card_backs/set2/pink.gif","img/card_backs/set2/blue.gif","""event"",""trial"",""time""
""fullscreenenter"",""1"",""8679""
","
","
","""event"",""trial"",""time""
""fullscreenenter"",""1"",""8679""
","
","","null","","null","","fixation","2021-07-08 00:25:49.638","","","","","",""
"card-selection-trial","125","474629","0.0-25.0-1.26","900","true","img/card_backs/set1/green.gif","img/card_backs/set1/yellow.gif","img/card_backs/set1/purple.gif","img/card_backs/set1/red.gif","img/card_backs/set2/gray.gif","img/card_backs/set2/orange.gif","img/card_backs/set2/pink.gif","img/card_backs/set2/blue.gif","""event"",""trial"",""time""
""fullscreenenter"",""1"",""8679""
","
","
","""event"",""trial"",""time""
""fullscreenenter"",""1"",""8679""
","
","","1145.2000000476837","","","","real_trial","2021-07-08 00:25:52.796","img/card_backs/set1/red.gif","1","-100","1","",""
"casino-fixation","126","475135","0.0-25.0-0.27","900","true","img/card_backs/set1/green.gif","img/card_backs/set1/yellow.gif","img/card_backs/set1/purple.gif","img/card_backs/set1/red.gif","img/card_backs/set2/gray.gif","img/card_backs/set2/orange.gif","img/card_backs/set2/pink.gif","img/card_backs/set2/blue.gif","""event"",""trial"",""time""
""fullscreenenter"",""1"",""8679""
","
","
","""event"",""trial"",""time""
""fullscreenenter"",""1"",""8679""
","
","","null","","null","","fixation","2021-07-08 00:25:53.302","","","","","",""
"card-selection-trial","127","479189","0.0-25.0-1.27","900","true","img/card_backs/set1/green.gif","img/card_backs/set1/yellow.gif","img/card_backs/set1/purple.gif","img/card_backs/set1/red.gif","img/card_backs/set2/gray.gif","img/card_backs/set2/orange.gif","img/card_backs/set2/pink.gif","img/card_backs/set2/blue.gif","""event"",""trial"",""time""
""fullscreenenter"",""1"",""8679""
","
","
","""event"",""trial"",""time""
""fullscreenenter"",""1"",""8679""
","
","","2041.5","","","","real_trial","2021-07-08 00:25:57.356","img/card_backs/set1/purple.gif","1","-110","1","",""
"casino-fixation","128","479694","0.0-25.0-0.28","900","true","img/card_backs/set1/green.gif","img/card_backs/set1/yellow.gif","img/card_backs/set1/purple.gif","img/card_backs/set1/red.gif","img/card_backs/set2/gray.gif","img/card_backs/set2/orange.gif","img/card_backs/set2/pink.gif","img/card_backs/set2/blue.gif","""event"",""trial"",""time""
""fullscreenenter"",""1"",""8679""
","
","
","""event"",""trial"",""time""
""fullscreenenter"",""1"",""8679""
","
","","null","","null","","fixation","2021-07-08 00:25:57.862","","","","","",""
"card-selection-trial","129","482703","0.0-25.0-1.28","900","true","img/card_backs/set1/green.gif","img/card_backs/set1/yellow.gif","img/card_backs/set1/purple.gif","img/card_backs/set1/red.gif","img/card_backs/set2/gray.gif","img/card_backs/set2/orange.gif","img/card_backs/set2/pink.gif","img/card_backs/set2/blue.gif","""event"",""trial"",""time""
""fullscreenenter"",""1"",""8679""
","
","
","""event"",""trial"",""time""
""fullscreenenter"",""1"",""8679""
","
","","996.8000000715256","","","","real_trial","2021-07-08 00:26:00.870","img/card_backs/set1/purple.gif","3","60","1","",""
"casino-fixation","130","483206","0.0-25.0-0.29","900","true","img/card_backs/set1/green.gif","img/card_backs/set1/yellow.gif","img/card_backs/set1/purple.gif","img/card_backs/set1/red.gif","img/card_backs/set2/gray.gif","img/card_backs/set2/orange.gif","img/card_backs/set2/pink.gif","img/card_backs/set2/blue.gif","""event"",""trial"",""time""
""fullscreenenter"",""1"",""8679""
","
","
","""event"",""trial"",""time""
""fullscreenenter"",""1"",""8679""
","
","","null","","null","","fixation","2021-07-08 00:26:01.373","","","","","",""
"card-selection-trial","131","486229","0.0-25.0-1.29","900","true","img/card_backs/set1/green.gif","img/card_backs/set1/yellow.gif","img/card_backs/set1/purple.gif","img/card_backs/set1/red.gif","img/card_backs/set2/gray.gif","img/card_backs/set2/orange.gif","img/card_backs/set2/pink.gif","img/card_backs/set2/blue.gif","""event"",""trial"",""time""
""fullscreenenter"",""1"",""8679""
","
","
","""event"",""trial"",""time""
""fullscreenenter"",""1"",""8679""
","
","","1011.8999999761581","","","","real_trial","2021-07-08 00:26:04.396","img/card_backs/set1/yellow.gif","0","-210","1","",""
"casino-fixation","132","486735","0.0-25.0-0.30","900","true","img/card_backs/set1/green.gif","img/card_backs/set1/yellow.gif","img/card_backs/set1/purple.gif","img/card_backs/set1/red.gif","img/card_backs/set2/gray.gif","img/card_backs/set2/orange.gif","img/card_backs/set2/pink.gif","img/card_backs/set2/blue.gif","""event"",""trial"",""time""
""fullscreenenter"",""1"",""8679""
","
","
","""event"",""trial"",""time""
""fullscreenenter"",""1"",""8679""
","
","","null","","null","","fixation","2021-07-08 00:26:04.902","","","","","",""
"card-selection-trial","133","489700","0.0-25.0-1.30","900","true","img/card_backs/set1/green.gif","img/card_backs/set1/yellow.gif","img/card_backs/set1/purple.gif","img/card_backs/set1/red.gif","img/card_backs/set2/gray.gif","img/card_backs/set2/orange.gif","img/card_backs/set2/pink.gif","img/card_backs/set2/blue.gif","""event"",""trial"",""time""
""fullscreenenter"",""1"",""8679""
","
","
","""event"",""trial"",""time""
""fullscreenenter"",""1"",""8679""
","
","","955.8000000715256","","","","real_trial","2021-07-08 00:26:07.867","img/card_backs/set1/yellow.gif","1","-200","1","",""
"casino-fixation","134","490207","0.0-25.0-0.31","900","true","img/card_backs/set1/green.gif","img/card_backs/set1/yellow.gif","img/card_backs/set1/purple.gif","img/card_backs/set1/red.gif","img/card_backs/set2/gray.gif","img/card_backs/set2/orange.gif","img/card_backs/set2/pink.gif","img/card_backs/set2/blue.gif","""event"",""trial"",""time""
""fullscreenenter"",""1"",""8679""
","
","
","""event"",""trial"",""time""
""fullscreenenter"",""1"",""8679""
","
","","null","","null","","fixation","2021-07-08 00:26:08.374","","","","","",""
"card-selection-trial","135","493193","0.0-25.0-1.31","900","true","img/card_backs/set1/green.gif","img/card_backs/set1/yellow.gif","img/card_backs/set1/purple.gif","img/card_backs/set1/red.gif","img/card_backs/set2/gray.gif","img/card_backs/set2/orange.gif","img/card_backs/set2/pink.gif","img/card_backs/set2/blue.gif","""event"",""trial"",""time""
""fullscreenenter"",""1"",""8679""
","
","
","""event"",""trial"",""time""
""fullscreenenter"",""1"",""8679""
","
","","974.6999999284744","","","","real_trial","2021-07-08 00:26:11.360","img/card_backs/set1/yellow.gif","1","240","1","",""
"casino-fixation","136","493700","0.0-25.0-0.32","900","true","img/card_backs/set1/green.gif","img/card_backs/set1/yellow.gif","img/card_backs/set1/purple.gif","img/card_backs/set1/red.gif","img/card_backs/set2/gray.gif","img/card_backs/set2/orange.gif","img/card_backs/set2/pink.gif","img/card_backs/set2/blue.gif","""event"",""trial"",""time""
""fullscreenenter"",""1"",""8679""
","
","
","""event"",""trial"",""time""
""fullscreenenter"",""1"",""8679""
","
","","null","","null","","fixation","2021-07-08 00:26:11.867","","","","","",""
"card-selection-trial","137","497151","0.0-25.0-1.32","900","true","img/card_backs/set1/green.gif","img/card_backs/set1/yellow.gif","img/card_backs/set1/purple.gif","img/card_backs/set1/red.gif","img/card_backs/set2/gray.gif","img/card_backs/set2/orange.gif","img/card_backs/set2/pink.gif","img/card_backs/set2/blue.gif","""event"",""trial"",""time""
""fullscreenenter"",""1"",""8679""
","
","
","""event"",""trial"",""time""
""fullscreenenter"",""1"",""8679""
","
","","1441.3999999761581","","","","real_trial","2021-07-08 00:26:15.318","img/card_backs/set1/yellow.gif","2","250","1","",""
"casino-fixation","138","497657","0.0-25.0-0.33","900","true","img/card_backs/set1/green.gif","img/card_backs/set1/yellow.gif","img/card_backs/set1/purple.gif","img/card_backs/set1/red.gif","img/card_backs/set2/gray.gif","img/card_backs/set2/orange.gif","img/card_backs/set2/pink.gif","img/card_backs/set2/blue.gif","""event"",""trial"",""time""
""fullscreenenter"",""1"",""8679""
","
","
","""event"",""trial"",""time""
""fullscreenenter"",""1"",""8679""
","
","","null","","null","","fixation","2021-07-08 00:26:15.824","","","","","",""
"card-selection-trial","139","500692","0.0-25.0-1.33","900","true","img/card_backs/set1/green.gif","img/card_backs/set1/yellow.gif","img/card_backs/set1/purple.gif","img/card_backs/set1/red.gif","img/card_backs/set2/gray.gif","img/card_backs/set2/orange.gif","img/card_backs/set2/pink.gif","img/card_backs/set2/blue.gif","""event"",""trial"",""time""
""fullscreenenter"",""1"",""8679""
","
","
","""event"",""trial"",""time""
""fullscreenenter"",""1"",""8679""
","
","","1026.8000000715256","","","","real_trial","2021-07-08 00:26:18.859","img/card_backs/set1/yellow.gif","3","250","1","",""
"casino-fixation","140","501198","0.0-25.0-0.34","900","true","img/card_backs/set1/green.gif","img/card_backs/set1/yellow.gif","img/card_backs/set1/purple.gif","img/card_backs/set1/red.gif","img/card_backs/set2/gray.gif","img/card_backs/set2/orange.gif","img/card_backs/set2/pink.gif","img/card_backs/set2/blue.gif","""event"",""trial"",""time""
""fullscreenenter"",""1"",""8679""
","
","
","""event"",""trial"",""time""
""fullscreenenter"",""1"",""8679""
","
","","null","","null","","fixation","2021-07-08 00:26:19.365","","","","","",""
"card-selection-trial","141","504247","0.0-25.0-1.34","900","true","img/card_backs/set1/green.gif","img/card_backs/set1/yellow.gif","img/card_backs/set1/purple.gif","img/card_backs/set1/red.gif","img/card_backs/set2/gray.gif","img/card_backs/set2/orange.gif","img/card_backs/set2/pink.gif","img/card_backs/set2/blue.gif","""event"",""trial"",""time""
""fullscreenenter"",""1"",""8679""
","
","
","""event"",""trial"",""time""
""fullscreenenter"",""1"",""8679""
","
","","1037.5","","","","real_trial","2021-07-08 00:26:22.414","img/card_backs/set1/yellow.gif","0","-200","1","",""
"casino-fixation","142","504750","0.0-25.0-0.35","900","true","img/card_backs/set1/green.gif","img/card_backs/set1/yellow.gif","img/card_backs/set1/purple.gif","img/card_backs/set1/red.gif","img/card_backs/set2/gray.gif","img/card_backs/set2/orange.gif","img/card_backs/set2/pink.gif","img/card_backs/set2/blue.gif","""event"",""trial"",""time""
""fullscreenenter"",""1"",""8679""
","
","
","""event"",""trial"",""time""
""fullscreenenter"",""1"",""8679""
","
","","null","","null","","fixation","2021-07-08 00:26:22.917","","","","","",""
"card-selection-trial","143","508174","0.0-25.0-1.35","900","true","img/card_backs/set1/green.gif","img/card_backs/set1/yellow.gif","img/card_backs/set1/purple.gif","img/card_backs/set1/red.gif","img/card_backs/set2/gray.gif","img/card_backs/set2/orange.gif","img/card_backs/set2/pink.gif","img/card_backs/set2/blue.gif","""event"",""trial"",""time""
""fullscreenenter"",""1"",""8679""
","
","
","""event"",""trial"",""time""
""fullscreenenter"",""1"",""8679""
","
","","1414.2999999523163","","","","real_trial","2021-07-08 00:26:26.341","img/card_backs/set1/purple.gif","2","-110","1","",""
"casino-fixation","144","508680","0.0-25.0-0.36","900","true","img/card_backs/set1/green.gif","img/card_backs/set1/yellow.gif","img/card_backs/set1/purple.gif","img/card_backs/set1/red.gif","img/card_backs/set2/gray.gif","img/card_backs/set2/orange.gif","img/card_backs/set2/pink.gif","img/card_backs/set2/blue.gif","""event"",""trial"",""time""
""fullscreenenter"",""1"",""8679""
","
","
","""event"",""trial"",""time""
""fullscreenenter"",""1"",""8679""
","
","","null","","null","","fixation","2021-07-08 00:26:26.847","","","","","",""
"card-selection-trial","145","511411","0.0-25.0-1.36","900","true","img/card_backs/set1/green.gif","img/card_backs/set1/yellow.gif","img/card_backs/set1/purple.gif","img/card_backs/set1/red.gif","img/card_backs/set2/gray.gif","img/card_backs/set2/orange.gif","img/card_backs/set2/pink.gif","img/card_backs/set2/blue.gif","""event"",""trial"",""time""
""fullscreenenter"",""1"",""8679""
","
","
","""event"",""trial"",""time""
""fullscreenenter"",""1"",""8679""
","
","","724","","","","real_trial","2021-07-08 00:26:29.578","img/card_backs/set1/green.gif","1","-210","1","",""
"casino-fixation","146","511917","0.0-25.0-0.37","900","true","img/card_backs/set1/green.gif","img/card_backs/set1/yellow.gif","img/card_backs/set1/purple.gif","img/card_backs/set1/red.gif","img/card_backs/set2/gray.gif","img/card_backs/set2/orange.gif","img/card_backs/set2/pink.gif","img/card_backs/set2/blue.gif","""event"",""trial"",""time""
""fullscreenenter"",""1"",""8679""
","
","
","""event"",""trial"",""time""
""fullscreenenter"",""1"",""8679""
","
","","null","","null","","fixation","2021-07-08 00:26:30.084","","","","","",""
"card-selection-trial","147","514782","0.0-25.0-1.37","900","true","img/card_backs/set1/green.gif","img/card_backs/set1/yellow.gif","img/card_backs/set1/purple.gif","img/card_backs/set1/red.gif","img/card_backs/set2/gray.gif","img/card_backs/set2/orange.gif","img/card_backs/set2/pink.gif","img/card_backs/set2/blue.gif","""event"",""trial"",""time""
""fullscreenenter"",""1"",""8679""
","
","
","""event"",""trial"",""time""
""fullscreenenter"",""1"",""8679""
","
","","856.2000000476837","","","","real_trial","2021-07-08 00:26:32.949","img/card_backs/set1/green.gif","1","250","1","",""
"casino-fixation","148","515285","0.0-25.0-0.38","900","true","img/card_backs/set1/green.gif","img/card_backs/set1/yellow.gif","img/card_backs/set1/purple.gif","img/card_backs/set1/red.gif","img/card_backs/set2/gray.gif","img/card_backs/set2/orange.gif","img/card_backs/set2/pink.gif","img/card_backs/set2/blue.gif","""event"",""trial"",""time""
""fullscreenenter"",""1"",""8679""
","
","
","""event"",""trial"",""time""
""fullscreenenter"",""1"",""8679""
","
","","null","","null","","fixation","2021-07-08 00:26:33.453","","","","","",""
"card-selection-trial","149","517892","0.0-25.0-1.38","900","true","img/card_backs/set1/green.gif","img/card_backs/set1/yellow.gif","img/card_backs/set1/purple.gif","img/card_backs/set1/red.gif","img/card_backs/set2/gray.gif","img/card_backs/set2/orange.gif","img/card_backs/set2/pink.gif","img/card_backs/set2/blue.gif","""event"",""trial"",""time""
""fullscreenenter"",""1"",""8679""
","
","
","""event"",""trial"",""time""
""fullscreenenter"",""1"",""8679""
","
","","595.6999999284744","","","","real_trial","2021-07-08 00:26:36.059","img/card_backs/set1/purple.gif","1","-100","1","",""
"casino-fixation","150","518398","0.0-25.0-0.39","900","true","img/card_backs/set1/green.gif","img/card_backs/set1/yellow.gif","img/card_backs/set1/purple.gif","img/card_backs/set1/red.gif","img/card_backs/set2/gray.gif","img/card_backs/set2/orange.gif","img/card_backs/set2/pink.gif","img/card_backs/set2/blue.gif","""event"",""trial"",""time""
""fullscreenenter"",""1"",""8679""
","
","
","""event"",""trial"",""time""
""fullscreenenter"",""1"",""8679""
","
","","null","","null","","fixation","2021-07-08 00:26:36.565","","","","","",""
"card-selection-trial","151","521054","0.0-25.0-1.39","900","true","img/card_backs/set1/green.gif","img/card_backs/set1/yellow.gif","img/card_backs/set1/purple.gif","img/card_backs/set1/red.gif","img/card_backs/set2/gray.gif","img/card_backs/set2/orange.gif","img/card_backs/set2/pink.gif","img/card_backs/set2/blue.gif","""event"",""trial"",""time""
""fullscreenenter"",""1"",""8679""
","
","
","""event"",""trial"",""time""
""fullscreenenter"",""1"",""8679""
","
","","645","","","","real_trial","2021-07-08 00:26:39.221","img/card_backs/set1/red.gif","3","-90","1","",""
"casino-fixation","152","521560","0.0-25.0-0.40","900","true","img/card_backs/set1/green.gif","img/card_backs/set1/yellow.gif","img/card_backs/set1/purple.gif","img/card_backs/set1/red.gif","img/card_backs/set2/gray.gif","img/card_backs/set2/orange.gif","img/card_backs/set2/pink.gif","img/card_backs/set2/blue.gif","""event"",""trial"",""time""
""fullscreenenter"",""1"",""8679""
","
","
","""event"",""trial"",""time""
""fullscreenenter"",""1"",""8679""
","
","","null","","null","","fixation","2021-07-08 00:26:39.728","","","","","",""
"card-selection-trial","153","524602","0.0-25.0-1.40","900","true","img/card_backs/set1/green.gif","img/card_backs/set1/yellow.gif","img/card_backs/set1/purple.gif","img/card_backs/set1/red.gif","img/card_backs/set2/gray.gif","img/card_backs/set2/orange.gif","img/card_backs/set2/pink.gif","img/card_backs/set2/blue.gif","""event"",""trial"",""time""
""fullscreenenter"",""1"",""8679""
","
","
","""event"",""trial"",""time""
""fullscreenenter"",""1"",""8679""
","
","","1030.2999999523163","","","","real_trial","2021-07-08 00:26:42.769","img/card_backs/set1/green.gif","2","-190","1","",""
"casino-fixation","154","525107","0.0-25.0-0.41","900","true","img/card_backs/set1/green.gif","img/card_backs/set1/yellow.gif","img/card_backs/set1/purple.gif","img/card_backs/set1/red.gif","img/card_backs/set2/gray.gif","img/card_backs/set2/orange.gif","img/card_backs/set2/pink.gif","img/card_backs/set2/blue.gif","""event"",""trial"",""time""
""fullscreenenter"",""1"",""8679""
","
","
","""event"",""trial"",""time""
""fullscreenenter"",""1"",""8679""
","
","","null","","null","","fixation","2021-07-08 00:26:43.274","","","","","",""
"card-selection-trial","155","527587","0.0-25.0-1.41","900","true","img/card_backs/set1/green.gif","img/card_backs/set1/yellow.gif","img/card_backs/set1/purple.gif","img/card_backs/set1/red.gif","img/card_backs/set2/gray.gif","img/card_backs/set2/orange.gif","img/card_backs/set2/pink.gif","img/card_backs/set2/blue.gif","""event"",""trial"",""time""
""fullscreenenter"",""1"",""8679""
","
","
","""event"",""trial"",""time""
""fullscreenenter"",""1"",""8679""
","
","","472.3000000715256","","","","real_trial","2021-07-08 00:26:45.754","img/card_backs/set1/green.gif","0","240","1","",""
"casino-fixation","156","528093","0.0-25.0-0.42","900","true","img/card_backs/set1/green.gif","img/card_backs/set1/yellow.gif","img/card_backs/set1/purple.gif","img/card_backs/set1/red.gif","img/card_backs/set2/gray.gif","img/card_backs/set2/orange.gif","img/card_backs/set2/pink.gif","img/card_backs/set2/blue.gif","""event"",""trial"",""time""
""fullscreenenter"",""1"",""8679""
","
","
","""event"",""trial"",""time""
""fullscreenenter"",""1"",""8679""
","
","","null","","null","","fixation","2021-07-08 00:26:46.260","","","","","",""
"card-selection-trial","157","531129","0.0-25.0-1.42","900","true","img/card_backs/set1/green.gif","img/card_backs/set1/yellow.gif","img/card_backs/set1/purple.gif","img/card_backs/set1/red.gif","img/card_backs/set2/gray.gif","img/card_backs/set2/orange.gif","img/card_backs/set2/pink.gif","img/card_backs/set2/blue.gif","""event"",""trial"",""time""
""fullscreenenter"",""1"",""8679""
","
","
","""event"",""trial"",""time""
""fullscreenenter"",""1"",""8679""
","
","","1024.0999999046326","","","","real_trial","2021-07-08 00:26:49.296","img/card_backs/set1/green.gif","0","260","1","",""
"casino-fixation","158","531634","0.0-25.0-0.43","900","true","img/card_backs/set1/green.gif","img/card_backs/set1/yellow.gif","img/card_backs/set1/purple.gif","img/card_backs/set1/red.gif","img/card_backs/set2/gray.gif","img/card_backs/set2/orange.gif","img/card_backs/set2/pink.gif","img/card_backs/set2/blue.gif","""event"",""trial"",""time""
""fullscreenenter"",""1"",""8679""
","
","
","""event"",""trial"",""time""
""fullscreenenter"",""1"",""8679""
","
","","null","","null","","fixation","2021-07-08 00:26:49.801","","","","","",""
"card-selection-trial","159","534664","0.0-25.0-1.43","900","true","img/card_backs/set1/green.gif","img/card_backs/set1/yellow.gif","img/card_backs/set1/purple.gif","img/card_backs/set1/red.gif","img/card_backs/set2/gray.gif","img/card_backs/set2/orange.gif","img/card_backs/set2/pink.gif","img/card_backs/set2/blue.gif","""event"",""trial"",""time""
""fullscreenenter"",""1"",""8679""
","
","
","""event"",""trial"",""time""
""fullscreenenter"",""1"",""8679""
","
","","1017.5","","","","real_trial","2021-07-08 00:26:52.831","img/card_backs/set1/green.gif","3","-190","1","",""
"casino-fixation","160","535170","0.0-25.0-0.44","900","true","img/card_backs/set1/green.gif","img/card_backs/set1/yellow.gif","img/card_backs/set1/purple.gif","img/card_backs/set1/red.gif","img/card_backs/set2/gray.gif","img/card_backs/set2/orange.gif","img/card_backs/set2/pink.gif","img/card_backs/set2/blue.gif","""event"",""trial"",""time""
""fullscreenenter"",""1"",""8679""
","
","
","""event"",""trial"",""time""
""fullscreenenter"",""1"",""8679""
","
","","null","","null","","fixation","2021-07-08 00:26:53.337","","","","","",""
"card-selection-trial","161","538472","0.0-25.0-1.44","900","true","img/card_backs/set1/green.gif","img/card_backs/set1/yellow.gif","img/card_backs/set1/purple.gif","img/card_backs/set1/red.gif","img/card_backs/set2/gray.gif","img/card_backs/set2/orange.gif","img/card_backs/set2/pink.gif","img/card_backs/set2/blue.gif","""event"",""trial"",""time""
""fullscreenenter"",""1"",""8679""
","
","
","""event"",""trial"",""time""
""fullscreenenter"",""1"",""8679""
","
","","1293.3999999761581","","","","real_trial","2021-07-08 00:26:56.639","img/card_backs/set1/green.gif","1","-200","1","",""
"casino-fixation","162","538978","0.0-25.0-0.45","900","true","img/card_backs/set1/green.gif","img/card_backs/set1/yellow.gif","img/card_backs/set1/purple.gif","img/card_backs/set1/red.gif","img/card_backs/set2/gray.gif","img/card_backs/set2/orange.gif","img/card_backs/set2/pink.gif","img/card_backs/set2/blue.gif","""event"",""trial"",""time""
""fullscreenenter"",""1"",""8679""
","
","
","""event"",""trial"",""time""
""fullscreenenter"",""1"",""8679""
","
","","null","","null","","fixation","2021-07-08 00:26:57.145","","","","","",""
"card-selection-trial","163","542029","0.0-25.0-1.45","900","true","img/card_backs/set1/green.gif","img/card_backs/set1/yellow.gif","img/card_backs/set1/purple.gif","img/card_backs/set1/red.gif","img/card_backs/set2/gray.gif","img/card_backs/set2/orange.gif","img/card_backs/set2/pink.gif","img/card_backs/set2/blue.gif","""event"",""trial"",""time""
""fullscreenenter"",""1"",""8679""
","
","
","""event"",""trial"",""time""
""fullscreenenter"",""1"",""8679""
","
","","1041.1000000238419","","","","real_trial","2021-07-08 00:27:00.196","img/card_backs/set1/green.gif","3","-190","1","",""
"casino-fixation","164","542535","0.0-25.0-0.46","900","true","img/card_backs/set1/green.gif","img/card_backs/set1/yellow.gif","img/card_backs/set1/purple.gif","img/card_backs/set1/red.gif","img/card_backs/set2/gray.gif","img/card_backs/set2/orange.gif","img/card_backs/set2/pink.gif","img/card_backs/set2/blue.gif","""event"",""trial"",""time""
""fullscreenenter"",""1"",""8679""
","
","
","""event"",""trial"",""time""
""fullscreenenter"",""1"",""8679""
","
","","null","","null","","fixation","2021-07-08 00:27:00.702","","","","","",""
"card-selection-trial","165","545789","0.0-25.0-1.46","900","true","img/card_backs/set1/green.gif","img/card_backs/set1/yellow.gif","img/card_backs/set1/purple.gif","img/card_backs/set1/red.gif","img/card_backs/set2/gray.gif","img/card_backs/set2/orange.gif","img/card_backs/set2/pink.gif","img/card_backs/set2/blue.gif","""event"",""trial"",""time""
""fullscreenenter"",""1"",""8679""
","
","
","""event"",""trial"",""time""
""fullscreenenter"",""1"",""8679""
","
","","1241.8999999761581","","","","real_trial","2021-07-08 00:27:03.956","img/card_backs/set1/green.gif","1","250","1","",""
"casino-fixation","166","546295","0.0-25.0-0.47","900","true","img/card_backs/set1/green.gif","img/card_backs/set1/yellow.gif","img/card_backs/set1/purple.gif","img/card_backs/set1/red.gif","img/card_backs/set2/gray.gif","img/card_backs/set2/orange.gif","img/card_backs/set2/pink.gif","img/card_backs/set2/blue.gif","""event"",""trial"",""time""
""fullscreenenter"",""1"",""8679""
","
","
","""event"",""trial"",""time""
""fullscreenenter"",""1"",""8679""
","
","","null","","null","","fixation","2021-07-08 00:27:04.462","","","","","",""
"card-selection-trial","167","549416","0.0-25.0-1.47","900","true","img/card_backs/set1/green.gif","img/card_backs/set1/yellow.gif","img/card_backs/set1/purple.gif","img/card_backs/set1/red.gif","img/card_backs/set2/gray.gif","img/card_backs/set2/orange.gif","img/card_backs/set2/pink.gif","img/card_backs/set2/blue.gif","""event"",""trial"",""time""
""fullscreenenter"",""1"",""8679""
","
","
","""event"",""trial"",""time""
""fullscreenenter"",""1"",""8679""
","
