"trial_type","trial_index","time_elapsed","internal_node_id","sub_id","risk_good_first","block1_A","block1_B","block1_C","block1_D","block2_A","block2_B","block2_C","block2_D","interactions","blur_events","focus_events","fullscreenenter_events","fullscreenexit_events","success","rt","stimulus","key_press","button_pressed","task_part","timestamp","card_choice","choice_position","points_earned","block","correct","response"
"pavlovia","0","4","0.0-0.0","871","false","img/card_backs/set1/purple.gif","img/card_backs/set1/red.gif","img/card_backs/set1/yellow.gif","img/card_backs/set1/green.gif","img/card_backs/set2/pink.gif","img/card_backs/set2/gray.gif","img/card_backs/set2/blue.gif","img/card_backs/set2/orange.gif","""event"",""trial"",""time""
""fullscreenenter"",""1"",""10982""
","
","
","""event"",""trial"",""time""
""fullscreenenter"",""1"",""10982""
","
","","","","","","","","","","","","",""
"fullscreen","1","11951","0.0-1.0","871","false","img/card_backs/set1/purple.gif","img/card_backs/set1/red.gif","img/card_backs/set1/yellow.gif","img/card_backs/set1/green.gif","img/card_backs/set2/pink.gif","img/card_backs/set2/gray.gif","img/card_backs/set2/blue.gif","img/card_backs/set2/orange.gif","""event"",""trial"",""time""
""fullscreenenter"",""1"",""10982""
","
","
","""event"",""trial"",""time""
""fullscreenenter"",""1"",""10982""
","
","true","","","","","","","","","","","",""
"audio-keyboard-response","2","30928","0.0-2.0","871","false","img/card_backs/set1/purple.gif","img/card_backs/set1/red.gif","img/card_backs/set1/yellow.gif","img/card_backs/set1/green.gif","img/card_backs/set2/pink.gif","img/card_backs/set2/gray.gif","img/card_backs/set2/blue.gif","img/card_backs/set2/orange.gif","""event"",""trial"",""time""
""fullscreenenter"",""1"",""10982""
","
","
","""event"",""trial"",""time""
""fullscreenenter"",""1"",""10982""
","
","","18977","audio/beep_loop.wav","32","","","","","","","","",""
"audio-button-response","3","33562","0.0-3.0","871","false","img/card_backs/set1/purple.gif","img/card_backs/set1/red.gif","img/card_backs/set1/yellow.gif","img/card_backs/set1/green.gif","img/card_backs/set2/pink.gif","img/card_backs/set2/gray.gif","img/card_backs/set2/blue.gif","img/card_backs/set2/orange.gif","""event"",""trial"",""time""
""fullscreenenter"",""1"",""10982""
","
","
","""event"",""trial"",""time""
""fullscreenenter"",""1"",""10982""
","
","","NaN","audio/turtle.mp3","","3","","","","","","","",""
"audio-button-response","4","36557","0.0-4.0","871","false","img/card_backs/set1/purple.gif","img/card_backs/set1/red.gif","img/card_backs/set1/yellow.gif","img/card_backs/set1/green.gif","img/card_backs/set2/pink.gif","img/card_backs/set2/gray.gif","img/card_backs/set2/blue.gif","img/card_backs/set2/orange.gif","""event"",""trial"",""time""
""fullscreenenter"",""1"",""10982""
","
","
","""event"",""trial"",""time""
""fullscreenenter"",""1"",""10982""
","
","","NaN","audio/shark.mp3","","2","","","","","","","",""
"fullscreen","5","40922","0.0-5.0","871","false","img/card_backs/set1/purple.gif","img/card_backs/set1/red.gif","img/card_backs/set1/yellow.gif","img/card_backs/set1/green.gif","img/card_backs/set2/pink.gif","img/card_backs/set2/gray.gif","img/card_backs/set2/blue.gif","img/card_backs/set2/orange.gif","""event"",""trial"",""time""
""fullscreenenter"",""1"",""10982""
","
","
","""event"",""trial"",""time""
""fullscreenenter"",""1"",""10982""
","
","true","","","","","","","","","","","",""
"casino-keyboard-response","6","44310","0.0-6.0-0.0","871","false","img/card_backs/set1/purple.gif","img/card_backs/set1/red.gif","img/card_backs/set1/yellow.gif","img/card_backs/set1/green.gif","img/card_backs/set2/pink.gif","img/card_backs/set2/gray.gif","img/card_backs/set2/blue.gif","img/card_backs/set2/orange.gif","""event"",""trial"",""time""
""fullscreenenter"",""1"",""10982""
","
","
","""event"",""trial"",""time""
""fullscreenenter"",""1"",""10982""
","
","","3384.8000000044703","Welcome to the casino!","71","","instructions","2021-07-01 22:08:02.291","","","","","",""
"casino-keyboard-response","7","54199","0.0-6.0-0.1","871","false","img/card_backs/set1/purple.gif","img/card_backs/set1/red.gif","img/card_backs/set1/yellow.gif","img/card_backs/set1/green.gif","img/card_backs/set2/pink.gif","img/card_backs/set2/gray.gif","img/card_backs/set2/blue.gif","img/card_backs/set2/orange.gif","""event"",""trial"",""time""
""fullscreenenter"",""1"",""10982""
","
","
","""event"",""trial"",""time""
""fullscreenenter"",""1"",""10982""
","
","","9888.39999999851","Today you will be playing a game to earn tokens. </br> At the end of the experiment, you will be paid a bonus based on how many tokens you win. ","69","","instructions","2021-07-01 22:08:12.180","","","","","",""
"casino-keyboard-response","8","62879","0.0-6.0-0.2","871","false","img/card_backs/set1/purple.gif","img/card_backs/set1/red.gif","img/card_backs/set1/yellow.gif","img/card_backs/set1/green.gif","img/card_backs/set2/pink.gif","img/card_backs/set2/gray.gif","img/card_backs/set2/blue.gif","img/card_backs/set2/orange.gif","""event"",""trial"",""time""
""fullscreenenter"",""1"",""10982""
","
","
","""event"",""trial"",""time""
""fullscreenenter"",""1"",""10982""
","
","","8679.10000000149","On every turn, you will be shown four different decks of cards. </br> You need to select a card from one of the four decks.  ","75","","instructions","2021-07-01 22:08:20.861","","","","","",""
"casino-keyboard-response","9","67628","0.0-6.0-0.3","871","false","img/card_backs/set1/purple.gif","img/card_backs/set1/red.gif","img/card_backs/set1/yellow.gif","img/card_backs/set1/green.gif","img/card_backs/set2/pink.gif","img/card_backs/set2/gray.gif","img/card_backs/set2/blue.gif","img/card_backs/set2/orange.gif","""event"",""trial"",""time""
""fullscreenenter"",""1"",""10982""
","
","
","""event"",""trial"",""time""
""fullscreenenter"",""1"",""10982""
","
","","4747.30000000447","On the next screen, you will see what the decks will look like. ","66","","instructions","2021-07-01 22:08:25.609","","","","","",""
"card-selection-trial","10","71633","0.0-7.0-0.0","871","false","img/card_backs/set1/purple.gif","img/card_backs/set1/red.gif","img/card_backs/set1/yellow.gif","img/card_backs/set1/green.gif","img/card_backs/set2/pink.gif","img/card_backs/set2/gray.gif","img/card_backs/set2/blue.gif","img/card_backs/set2/orange.gif","""event"",""trial"",""time""
""fullscreenenter"",""1"",""10982""
","
","
","""event"",""trial"",""time""
""fullscreenenter"",""1"",""10982""
","
","","null","","","","practice","2021-07-01 22:08:29.614","null","null","null","0","",""
"casino-keyboard-response","11","80609","0.0-8.0-0.0","871","false","img/card_backs/set1/purple.gif","img/card_backs/set1/red.gif","img/card_backs/set1/yellow.gif","img/card_backs/set1/green.gif","img/card_backs/set2/pink.gif","img/card_backs/set2/gray.gif","img/card_backs/set2/blue.gif","img/card_backs/set2/orange.gif","""event"",""trial"",""time""
""fullscreenenter"",""1"",""10982""
","
","
","""event"",""trial"",""time""
""fullscreenenter"",""1"",""10982""
","
","","8975.10000000149","You should pick a card from a deck using the '2', '4', '6', and '8' keys at the top of the keyboard.","85","","instructions","2021-07-01 22:08:38.590","","","","","",""
"casino-keyboard-response","12","85996","0.0-8.0-0.1","871","false","img/card_backs/set1/purple.gif","img/card_backs/set1/red.gif","img/card_backs/set1/yellow.gif","img/card_backs/set1/green.gif","img/card_backs/set2/pink.gif","img/card_backs/set2/gray.gif","img/card_backs/set2/blue.gif","img/card_backs/set2/orange.gif","""event"",""trial"",""time""
""fullscreenenter"",""1"",""10982""
","
","
","""event"",""trial"",""time""
""fullscreenenter"",""1"",""10982""
","
","","5385.5","Once you select a card, it will turn over and you will see how many tokens you earned.","83","","instructions","2021-07-01 22:08:43.977","","","","","",""
"casino-keyboard-response","13","101551","0.0-8.0-0.2","871","false","img/card_backs/set1/purple.gif","img/card_backs/set1/red.gif","img/card_backs/set1/yellow.gif","img/card_backs/set1/green.gif","img/card_backs/set2/pink.gif","img/card_backs/set2/gray.gif","img/card_backs/set2/blue.gif","img/card_backs/set2/orange.gif","""event"",""trial"",""time""
""fullscreenenter"",""1"",""10982""
","
","
","""event"",""trial"",""time""
""fullscreenenter"",""1"",""10982""
","
","","15555","Let's try practicing that! </br> First, try to put your fingers over the '2', '4', '6', and '8' keys. </br>  You can use whatever fingers are most comfortable for you. Try to find a comfortable position now. ","50","","instructions","2021-07-01 22:08:59.532","","","","","",""
"casino-keyboard-response","14","107449","0.0-8.0-0.3","871","false","img/card_backs/set1/purple.gif","img/card_backs/set1/red.gif","img/card_backs/set1/yellow.gif","img/card_backs/set1/green.gif","img/card_backs/set2/pink.gif","img/card_backs/set2/gray.gif","img/card_backs/set2/blue.gif","img/card_backs/set2/orange.gif","""event"",""trial"",""time""
""fullscreenenter"",""1"",""10982""
","
","
","""event"",""trial"",""time""
""fullscreenenter"",""1"",""10982""
","
","","5896.39999999851","Okay ready? </br> On the next screen, press '2' to select the left deck. ","50","","instructions","2021-07-01 22:09:05.430","","","","","",""
"card-selection-trial","15","110345","0.0-9.0-0.0","871","false","img/card_backs/set1/purple.gif","img/card_backs/set1/red.gif","img/card_backs/set1/yellow.gif","img/card_backs/set1/green.gif","img/card_backs/set2/pink.gif","img/card_backs/set2/gray.gif","img/card_backs/set2/blue.gif","img/card_backs/set2/orange.gif","""event"",""trial"",""time""
""fullscreenenter"",""1"",""10982""
","
","
","""event"",""trial"",""time""
""fullscreenenter"",""1"",""10982""
","
","","887.1999999955297","","","","practice_card_selection","2021-07-01 22:09:08.327","img/practice_cards/backs/dark_green.gif","0","200","","",""
"casino-keyboard-response","16","116312","0.0-10.0-0.0","871","false","img/card_backs/set1/purple.gif","img/card_backs/set1/red.gif","img/card_backs/set1/yellow.gif","img/card_backs/set1/green.gif","img/card_backs/set2/pink.gif","img/card_backs/set2/gray.gif","img/card_backs/set2/blue.gif","img/card_backs/set2/orange.gif","""event"",""trial"",""time""
""fullscreenenter"",""1"",""10982""
","
","
","""event"",""trial"",""time""
""fullscreenenter"",""1"",""10982""
","
","","5965.20000000298","Great! Now on the next screen, try pressing '6' to select the third deck.","54","","instructions","2021-07-01 22:09:14.293","","","","","",""
"card-selection-trial","17","119395","0.0-11.0-0.0","871","false","img/card_backs/set1/purple.gif","img/card_backs/set1/red.gif","img/card_backs/set1/yellow.gif","img/card_backs/set1/green.gif","img/card_backs/set2/pink.gif","img/card_backs/set2/gray.gif","img/card_backs/set2/blue.gif","img/card_backs/set2/orange.gif","""event"",""trial"",""time""
""fullscreenenter"",""1"",""10982""
","
","
","""event"",""trial"",""time""
""fullscreenenter"",""1"",""10982""
","
","","1074.3999999985099","","","","practice_card_selection","2021-07-01 22:09:17.376","img/practice_cards/backs/brown.gif","2","-100","","",""
"casino-keyboard-response","18","124062","0.0-12.0-0.0","871","false","img/card_backs/set1/purple.gif","img/card_backs/set1/red.gif","img/card_backs/set1/yellow.gif","img/card_backs/set1/green.gif","img/card_backs/set2/pink.gif","img/card_backs/set2/gray.gif","img/card_backs/set2/blue.gif","img/card_backs/set2/orange.gif","""event"",""trial"",""time""
""fullscreenenter"",""1"",""10982""
","
","
","""event"",""trial"",""time""
""fullscreenenter"",""1"",""10982""
","
","","4665.89999999851","Now on the next screen, try pressing '4' to select the second deck.","52","","instructions","2021-07-01 22:09:22.043","","","","","",""
"card-selection-trial","19","126730","0.0-13.0-0.0","871","false","img/card_backs/set1/purple.gif","img/card_backs/set1/red.gif","img/card_backs/set1/yellow.gif","img/card_backs/set1/green.gif","img/card_backs/set2/pink.gif","img/card_backs/set2/gray.gif","img/card_backs/set2/blue.gif","img/card_backs/set2/orange.gif","""event"",""trial"",""time""
""fullscreenenter"",""1"",""10982""
","
","
","""event"",""trial"",""time""
""fullscreenenter"",""1"",""10982""
","
","","657.8999999985099","","","","practice_card_selection","2021-07-01 22:09:24.711","img/practice_cards/backs/brown.gif","1","100","","",""
"casino-keyboard-response","20","133711","0.0-14.0-0.0","871","false","img/card_backs/set1/purple.gif","img/card_backs/set1/red.gif","img/card_backs/set1/yellow.gif","img/card_backs/set1/green.gif","img/card_backs/set2/pink.gif","img/card_backs/set2/gray.gif","img/card_backs/set2/blue.gif","img/card_backs/set2/orange.gif","""event"",""trial"",""time""
""fullscreenenter"",""1"",""10982""
","
","
","""event"",""trial"",""time""
""fullscreenenter"",""1"",""10982""
","
","","6980.79999999702","Finally, try pressing '8' to select the deck all the way on the right.","56","","instructions","2021-07-01 22:09:31.693","","","","","",""
"card-selection-trial","21","136808","0.0-15.0-0.0","871","false","img/card_backs/set1/purple.gif","img/card_backs/set1/red.gif","img/card_backs/set1/yellow.gif","img/card_backs/set1/green.gif","img/card_backs/set2/pink.gif","img/card_backs/set2/gray.gif","img/card_backs/set2/blue.gif","img/card_backs/set2/orange.gif","""event"",""trial"",""time""
""fullscreenenter"",""1"",""10982""
","
","
","""event"",""trial"",""time""
""fullscreenenter"",""1"",""10982""
","
","","1088.8999999985099","","","","practice_card_selection","2021-07-01 22:09:34.789","img/practice_cards/backs/black.gif","3","100","","",""
"casino-keyboard-response","22","140448","0.0-16.0-0.0","871","false","img/card_backs/set1/purple.gif","img/card_backs/set1/red.gif","img/card_backs/set1/yellow.gif","img/card_backs/set1/green.gif","img/card_backs/set2/pink.gif","img/card_backs/set2/gray.gif","img/card_backs/set2/blue.gif","img/card_backs/set2/orange.gif","""event"",""trial"",""time""
""fullscreenenter"",""1"",""10982""
","
","
","""event"",""trial"",""time""
""fullscreenenter"",""1"",""10982""
","
","","3639.5","Great! It seems like you are getting the hang of this.","80","","instructions","2021-07-01 22:09:38.429","","","","","",""
"casino-keyboard-response","23","147701","0.0-16.0-0.1","871","false","img/card_backs/set1/purple.gif","img/card_backs/set1/red.gif","img/card_backs/set1/yellow.gif","img/card_backs/set1/green.gif","img/card_backs/set2/pink.gif","img/card_backs/set2/gray.gif","img/card_backs/set2/blue.gif","img/card_backs/set2/orange.gif","""event"",""trial"",""time""
""fullscreenenter"",""1"",""10982""
","
","
","""event"",""trial"",""time""
""fullscreenenter"",""1"",""10982""
","
","","7252.30000000447","You may have noticed that some cards will cause you to <b> win </b> tokens while other cards will cause you to <b> lose </b>  tokens.","70","","instructions","2021-07-01 22:09:45.682","","","","","",""
"casino-keyboard-response","24","155857","0.0-16.0-0.2","871","false","img/card_backs/set1/purple.gif","img/card_backs/set1/red.gif","img/card_backs/set1/yellow.gif","img/card_backs/set1/green.gif","img/card_backs/set2/pink.gif","img/card_backs/set2/gray.gif","img/card_backs/set2/blue.gif","img/card_backs/set2/orange.gif","""event"",""trial"",""time""
""fullscreenenter"",""1"",""10982""
","
","
","""event"",""trial"",""time""
""fullscreenenter"",""1"",""10982""
","
","","8154.39999999851","Each deck has a mix of cards that will cause you to win and lose tokens. </br> However, the cards in each colored deck are different.","73","","instructions","2021-07-01 22:09:53.838","","","","","",""
"casino-keyboard-response","25","164821","0.0-16.0-0.3","871","false","img/card_backs/set1/purple.gif","img/card_backs/set1/red.gif","img/card_backs/set1/yellow.gif","img/card_backs/set1/green.gif","img/card_backs/set2/pink.gif","img/card_backs/set2/gray.gif","img/card_backs/set2/blue.gif","img/card_backs/set2/orange.gif","""event"",""trial"",""time""
""fullscreenenter"",""1"",""10982""
","
","
","""event"",""trial"",""time""
""fullscreenenter"",""1"",""10982""
","
","","8964","Some colored decks are luckier than others. </br> If you choose the lucky decks, you will earn more tokens than if you choose the unlucky decks.","69","","instructions","2021-07-01 22:10:02.802","","","","","",""
"casino-keyboard-response","26","172189","0.0-16.0-0.4","871","false","img/card_backs/set1/purple.gif","img/card_backs/set1/red.gif","img/card_backs/set1/yellow.gif","img/card_backs/set1/green.gif","img/card_backs/set2/pink.gif","img/card_backs/set2/gray.gif","img/card_backs/set2/blue.gif","img/card_backs/set2/orange.gif","""event"",""trial"",""time""
""fullscreenenter"",""1"",""10982""
","
","
","""event"",""trial"",""time""
""fullscreenenter"",""1"",""10982""
","
","","7366.20000000298","You should try to figure out which decks are lucky. </br> Then, try to choose the lucky decks so you can win the most tokens.","87","","instructions","2021-07-01 22:10:10.170","","","","","",""
"casino-keyboard-response","27","183556","0.0-16.0-0.5","871","false","img/card_backs/set1/purple.gif","img/card_backs/set1/red.gif","img/card_backs/set1/yellow.gif","img/card_backs/set1/green.gif","img/card_backs/set2/pink.gif","img/card_backs/set2/gray.gif","img/card_backs/set2/blue.gif","img/card_backs/set2/orange.gif","""event"",""trial"",""time""
""fullscreenenter"",""1"",""10982""
","
","
","""event"",""trial"",""time""
""fullscreenenter"",""1"",""10982""
","
","","11366.60000000149","To make it trickier, the casino dealer will switch the locations of the decks on every turn. </br> The color of the deck determines how lucky it is. The location does not matter.","88","","instructions","2021-07-01 22:10:21.537","","","","","",""
"casino-keyboard-response","28","193116","0.0-16.0-0.6","871","false","img/card_backs/set1/purple.gif","img/card_backs/set1/red.gif","img/card_backs/set1/yellow.gif","img/card_backs/set1/green.gif","img/card_backs/set2/pink.gif","img/card_backs/set2/gray.gif","img/card_backs/set2/blue.gif","img/card_backs/set2/orange.gif","""event"",""trial"",""time""
""fullscreenenter"",""1"",""10982""
","
","
","""event"",""trial"",""time""
""fullscreenenter"",""1"",""10982""
","
","","9559.29999999702","The mix of cards in each colored deck will stay the same throughout the game. </br> That means that a deck that is lucky early on will stay lucky.","79","","instructions","2021-07-01 22:10:31.097","","","","","",""
"casino-keyboard-response","29","201356","0.0-16.0-0.7","871","false","img/card_backs/set1/purple.gif","img/card_backs/set1/red.gif","img/card_backs/set1/yellow.gif","img/card_backs/set1/green.gif","img/card_backs/set2/pink.gif","img/card_backs/set2/gray.gif","img/card_backs/set2/blue.gif","img/card_backs/set2/orange.gif","""event"",""trial"",""time""
""fullscreenenter"",""1"",""10982""
","
","
","""event"",""trial"",""time""
""fullscreenenter"",""1"",""10982""
","
","","8239.20000000298","Remember though, all the decks have a <b> mix </b> of both <b> good </b> and <b> bad </b> cards so it may take a couple of turns to figure out if a deck is lucky.","69","","instructions","2021-07-01 22:10:39.337","","","","","",""
"casino-keyboard-response","30","211563","0.0-16.0-0.8","871","false","img/card_backs/set1/purple.gif","img/card_backs/set1/red.gif","img/card_backs/set1/yellow.gif","img/card_backs/set1/green.gif","img/card_backs/set2/pink.gif","img/card_backs/set2/gray.gif","img/card_backs/set2/blue.gif","img/card_backs/set2/orange.gif","""event"",""trial"",""time""
""fullscreenenter"",""1"",""10982""
","
","
","""event"",""trial"",""time""
""fullscreenenter"",""1"",""10982""
","
","","10205.80000000447","At the end of the game, you will be paid bonus money based on how many tokens you win. </br> If you win more tokens, you will earn more money!","72","","instructions","2021-07-01 22:10:49.544","","","","","",""
"casino-keyboard-response","31","223588","0.0-16.0-0.9","871","false","img/card_backs/set1/purple.gif","img/card_backs/set1/red.gif","img/card_backs/set1/yellow.gif","img/card_backs/set1/green.gif","img/card_backs/set2/pink.gif","img/card_backs/set2/gray.gif","img/card_backs/set2/blue.gif","img/card_backs/set2/orange.gif","""event"",""trial"",""time""
""fullscreenenter"",""1"",""10982""
","
","
","""event"",""trial"",""time""
""fullscreenenter"",""1"",""10982""
","
","","12023.79999999702","You will never <b> lose </b> money. </br> If you end up with fewer than 0 tokens, you will earn $0 of bonus money, but you will still be paid for playing the game.","83","","instructions","2021-07-01 22:11:01.569","","","","","",""
"casino-keyboard-response","32","227826","0.0-16.0-0.10","871","false","img/card_backs/set1/purple.gif","img/card_backs/set1/red.gif","img/card_backs/set1/yellow.gif","img/card_backs/set1/green.gif","img/card_backs/set2/pink.gif","img/card_backs/set2/gray.gif","img/card_backs/set2/blue.gif","img/card_backs/set2/orange.gif","""event"",""trial"",""time""
""fullscreenenter"",""1"",""10982""
","
","
","""event"",""trial"",""time""
""fullscreenenter"",""1"",""10982""
","
","","4237.5999999940395","You will have 10 seconds to make each choice.","82","","instructions","2021-07-01 22:11:05.807","","","","","",""
"casino-keyboard-response","33","236702","0.0-16.0-0.11","871","false","img/card_backs/set1/purple.gif","img/card_backs/set1/red.gif","img/card_backs/set1/yellow.gif","img/card_backs/set1/green.gif","img/card_backs/set2/pink.gif","img/card_backs/set2/gray.gif","img/card_backs/set2/blue.gif","img/card_backs/set2/orange.gif","""event"",""trial"",""time""
""fullscreenenter"",""1"",""10982""
","
","
","""event"",""trial"",""time""
""fullscreenenter"",""1"",""10982""
","
","","8874.10000000149","Before you play the game for real, you will play with practice decks. </br> The tokens you earn during practice won't count toward your total.","86","","instructions","2021-07-01 22:11:14.683","","","","","",""
"casino-keyboard-response","34","248285","0.0-16.0-0.12","871","false","img/card_backs/set1/purple.gif","img/card_backs/set1/red.gif","img/card_backs/set1/yellow.gif","img/card_backs/set1/green.gif","img/card_backs/set2/pink.gif","img/card_backs/set2/gray.gif","img/card_backs/set2/blue.gif","img/card_backs/set2/orange.gif","""event"",""trial"",""time""
""fullscreenenter"",""1"",""10982""
","
","
","""event"",""trial"",""time""
""fullscreenenter"",""1"",""10982""
","
","","11582.29999999702","Ready? Remember, use the '2', '4', '6', and '8' keys to select the decks. </br> Put your fingers on those keys now and then press '2' to begin.","50","","instructions","2021-07-01 22:11:26.266","","","","","",""
"casino-fixation","35","248786","0.0-17.0-0.0","871","false","img/card_backs/set1/purple.gif","img/card_backs/set1/red.gif","img/card_backs/set1/yellow.gif","img/card_backs/set1/green.gif","img/card_backs/set2/pink.gif","img/card_backs/set2/gray.gif","img/card_backs/set2/blue.gif","img/card_backs/set2/orange.gif","""event"",""trial"",""time""
""fullscreenenter"",""1"",""10982""
","
","
","""event"",""trial"",""time""
""fullscreenenter"",""1"",""10982""
","
","","null","","null","","fixation","2021-07-01 22:11:26.768","","","","","",""
"card-selection-trial","36","252085","0.0-17.0-1.0","871","false","img/card_backs/set1/purple.gif","img/card_backs/set1/red.gif","img/card_backs/set1/yellow.gif","img/card_backs/set1/green.gif","img/card_backs/set2/pink.gif","img/card_backs/set2/gray.gif","img/card_backs/set2/blue.gif","img/card_backs/set2/orange.gif","""event"",""trial"",""time""
""fullscreenenter"",""1"",""10982""
","
","
","""event"",""trial"",""time""
""fullscreenenter"",""1"",""10982""
","
","","1291.5","","","","practice","2021-07-01 22:11:30.066","img/practice_cards/backs/dark_green.gif","0","-200","0","",""
"casino-fixation","37","252590","0.0-17.0-0.1","871","false","img/card_backs/set1/purple.gif","img/card_backs/set1/red.gif","img/card_backs/set1/yellow.gif","img/card_backs/set1/green.gif","img/card_backs/set2/pink.gif","img/card_backs/set2/gray.gif","img/card_backs/set2/blue.gif","img/card_backs/set2/orange.gif","""event"",""trial"",""time""
""fullscreenenter"",""1"",""10982""
","
","
","""event"",""trial"",""time""
""fullscreenenter"",""1"",""10982""
","
","","null","","null","","fixation","2021-07-01 22:11:30.571","","","","","",""
"card-selection-trial","38","256061","0.0-17.0-1.1","871","false","img/card_backs/set1/purple.gif","img/card_backs/set1/red.gif","img/card_backs/set1/yellow.gif","img/card_backs/set1/green.gif","img/card_backs/set2/pink.gif","img/card_backs/set2/gray.gif","img/card_backs/set2/blue.gif","img/card_backs/set2/orange.gif","""event"",""trial"",""time""
""fullscreenenter"",""1"",""10982""
","
","
","""event"",""trial"",""time""
""fullscreenenter"",""1"",""10982""
","
","","1463.8999999985099","","","","practice","2021-07-01 22:11:34.042","img/practice_cards/backs/black.gif","1","-100","0","",""
"casino-fixation","39","256566","0.0-17.0-0.2","871","false","img/card_backs/set1/purple.gif","img/card_backs/set1/red.gif","img/card_backs/set1/yellow.gif","img/card_backs/set1/green.gif","img/card_backs/set2/pink.gif","img/card_backs/set2/gray.gif","img/card_backs/set2/blue.gif","img/card_backs/set2/orange.gif","""event"",""trial"",""time""
""fullscreenenter"",""1"",""10982""
","
","
","""event"",""trial"",""time""
""fullscreenenter"",""1"",""10982""
","
","","null","","null","","fixation","2021-07-01 22:11:34.547","","","","","",""
"card-selection-trial","40","260616","0.0-17.0-1.2","871","false","img/card_backs/set1/purple.gif","img/card_backs/set1/red.gif","img/card_backs/set1/yellow.gif","img/card_backs/set1/green.gif","img/card_backs/set2/pink.gif","img/card_backs/set2/gray.gif","img/card_backs/set2/blue.gif","img/card_backs/set2/orange.gif","""event"",""trial"",""time""
""fullscreenenter"",""1"",""10982""
","
","
","""event"",""trial"",""time""
""fullscreenenter"",""1"",""10982""
","
","","2041.6000000014901","","","","practice","2021-07-01 22:11:38.597","img/practice_cards/backs/dark_blue.gif","2","-200","0","",""
"casino-fixation","41","261123","0.0-17.0-0.3","871","false","img/card_backs/set1/purple.gif","img/card_backs/set1/red.gif","img/card_backs/set1/yellow.gif","img/card_backs/set1/green.gif","img/card_backs/set2/pink.gif","img/card_backs/set2/gray.gif","img/card_backs/set2/blue.gif","img/card_backs/set2/orange.gif","""event"",""trial"",""time""
""fullscreenenter"",""1"",""10982""
","
","
","""event"",""trial"",""time""
""fullscreenenter"",""1"",""10982""
","
","","null","","null","","fixation","2021-07-01 22:11:39.104","","","","","",""
"card-selection-trial","42","264356","0.0-17.0-1.3","871","false","img/card_backs/set1/purple.gif","img/card_backs/set1/red.gif","img/card_backs/set1/yellow.gif","img/card_backs/set1/green.gif","img/card_backs/set2/pink.gif","img/card_backs/set2/gray.gif","img/card_backs/set2/blue.gif","img/card_backs/set2/orange.gif","""event"",""trial"",""time""
""fullscreenenter"",""1"",""10982""
","
","
","""event"",""trial"",""time""
""fullscreenenter"",""1"",""10982""
","
","","1225.3999999985099","","","","practice","2021-07-01 22:11:42.337","img/practice_cards/backs/dark_green.gif","3","-200","0","",""
"casino-fixation","43","264861","0.0-17.0-0.4","871","false","img/card_backs/set1/purple.gif","img/card_backs/set1/red.gif","img/card_backs/set1/yellow.gif","img/card_backs/set1/green.gif","img/card_backs/set2/pink.gif","img/card_backs/set2/gray.gif","img/card_backs/set2/blue.gif","img/card_backs/set2/orange.gif","""event"",""trial"",""time""
""fullscreenenter"",""1"",""10982""
","
","
","""event"",""trial"",""time""
""fullscreenenter"",""1"",""10982""
","
","","null","","null","","fixation","2021-07-01 22:11:42.842","","","","","",""
"card-selection-trial","44","268922","0.0-17.0-1.4","871","false","img/card_backs/set1/purple.gif","img/card_backs/set1/red.gif","img/card_backs/set1/yellow.gif","img/card_backs/set1/green.gif","img/card_backs/set2/pink.gif","img/card_backs/set2/gray.gif","img/card_backs/set2/blue.gif","img/card_backs/set2/orange.gif","""event"",""trial"",""time""
""fullscreenenter"",""1"",""10982""
","
","
","""event"",""trial"",""time""
""fullscreenenter"",""1"",""10982""
","
","","2055.60000000149","","","","practice","2021-07-01 22:11:46.903","img/practice_cards/backs/dark_blue.gif","1","200","0","",""
"casino-fixation","45","269426","0.0-17.0-0.5","871","false","img/card_backs/set1/purple.gif","img/card_backs/set1/red.gif","img/card_backs/set1/yellow.gif","img/card_backs/set1/green.gif","img/card_backs/set2/pink.gif","img/card_backs/set2/gray.gif","img/card_backs/set2/blue.gif","img/card_backs/set2/orange.gif","""event"",""trial"",""time""
""fullscreenenter"",""1"",""10982""
","
","
","""event"",""trial"",""time""
""fullscreenenter"",""1"",""10982""
","
","","null","","null","","fixation","2021-07-01 22:11:47.407","","","","","",""
"card-selection-trial","46","273893","0.0-17.0-1.5","871","false","img/card_backs/set1/purple.gif","img/card_backs/set1/red.gif","img/card_backs/set1/yellow.gif","img/card_backs/set1/green.gif","img/card_backs/set2/pink.gif","img/card_backs/set2/gray.gif","img/card_backs/set2/blue.gif","img/card_backs/set2/orange.gif","""event"",""trial"",""time""
""fullscreenenter"",""1"",""10982""
","
","
","""event"",""trial"",""time""
""fullscreenenter"",""1"",""10982""
","
","","2458.89999999851","","","","practice","2021-07-01 22:11:51.874","img/practice_cards/backs/brown.gif","2","-100","0","",""
"casino-fixation","47","274398","0.0-17.0-0.6","871","false","img/card_backs/set1/purple.gif","img/card_backs/set1/red.gif","img/card_backs/set1/yellow.gif","img/card_backs/set1/green.gif","img/card_backs/set2/pink.gif","img/card_backs/set2/gray.gif","img/card_backs/set2/blue.gif","img/card_backs/set2/orange.gif","""event"",""trial"",""time""
""fullscreenenter"",""1"",""10982""
","
","
","""event"",""trial"",""time""
""fullscreenenter"",""1"",""10982""
","
","","null","","null","","fixation","2021-07-01 22:11:52.379","","","","","",""
"card-selection-trial","48","277690","0.0-17.0-1.6","871","false","img/card_backs/set1/purple.gif","img/card_backs/set1/red.gif","img/card_backs/set1/yellow.gif","img/card_backs/set1/green.gif","img/card_backs/set2/pink.gif","img/card_backs/set2/gray.gif","img/card_backs/set2/blue.gif","img/card_backs/set2/orange.gif","""event"",""trial"",""time""
""fullscreenenter"",""1"",""10982""
","
","
","""event"",""trial"",""time""
""fullscreenenter"",""1"",""10982""
","
","","1281.6000000014901","","","","practice","2021-07-01 22:11:55.671","img/practice_cards/backs/dark_green.gif","1","200","0","",""
"casino-fixation","49","278195","0.0-17.0-0.7","871","false","img/card_backs/set1/purple.gif","img/card_backs/set1/red.gif","img/card_backs/set1/yellow.gif","img/card_backs/set1/green.gif","img/card_backs/set2/pink.gif","img/card_backs/set2/gray.gif","img/card_backs/set2/blue.gif","img/card_backs/set2/orange.gif","""event"",""trial"",""time""
""fullscreenenter"",""1"",""10982""
","
","
","""event"",""trial"",""time""
""fullscreenenter"",""1"",""10982""
","
","","null","","null","","fixation","2021-07-01 22:11:56.177","","","","","",""
"card-selection-trial","50","281737","0.0-17.0-1.7","871","false","img/card_backs/set1/purple.gif","img/card_backs/set1/red.gif","img/card_backs/set1/yellow.gif","img/card_backs/set1/green.gif","img/card_backs/set2/pink.gif","img/card_backs/set2/gray.gif","img/card_backs/set2/blue.gif","img/card_backs/set2/orange.gif","""event"",""trial"",""time""
""fullscreenenter"",""1"",""10982""
","
","
","""event"",""trial"",""time""
""fullscreenenter"",""1"",""10982""
","
","","1534.6999999955297","","","","practice","2021-07-01 22:11:59.718","img/practice_cards/backs/dark_blue.gif","3","-200","0","",""
"casino-fixation","51","282242","0.0-17.0-0.8","871","false","img/card_backs/set1/purple.gif","img/card_backs/set1/red.gif","img/card_backs/set1/yellow.gif","img/card_backs/set1/green.gif","img/card_backs/set2/pink.gif","img/card_backs/set2/gray.gif","img/card_backs/set2/blue.gif","img/card_backs/set2/orange.gif","""event"",""trial"",""time""
""fullscreenenter"",""1"",""10982""
","
","
","""event"",""trial"",""time""
""fullscreenenter"",""1"",""10982""
","
","","null","","null","","fixation","2021-07-01 22:12:00.223","","","","","",""
"card-selection-trial","52","284941","0.0-17.0-1.8","871","false","img/card_backs/set1/purple.gif","img/card_backs/set1/red.gif","img/card_backs/set1/yellow.gif","img/card_backs/set1/green.gif","img/card_backs/set2/pink.gif","img/card_backs/set2/gray.gif","img/card_backs/set2/blue.gif","img/card_backs/set2/orange.gif","""event"",""trial"",""time""
""fullscreenenter"",""1"",""10982""
","
","
","""event"",""trial"",""time""
""fullscreenenter"",""1"",""10982""
","
","","689.2999999970198","","","","practice","2021-07-01 22:12:02.922","img/practice_cards/backs/dark_green.gif","1","200","0","",""
"casino-fixation","53","285446","0.0-17.0-0.9","871","false","img/card_backs/set1/purple.gif","img/card_backs/set1/red.gif","img/card_backs/set1/yellow.gif","img/card_backs/set1/green.gif","img/card_backs/set2/pink.gif","img/card_backs/set2/gray.gif","img/card_backs/set2/blue.gif","img/card_backs/set2/orange.gif","""event"",""trial"",""time""
""fullscreenenter"",""1"",""10982""
","
","
","""event"",""trial"",""time""
""fullscreenenter"",""1"",""10982""
","
","","null","","null","","fixation","2021-07-01 22:12:03.427","","","","","",""
"card-selection-trial","54","288946","0.0-17.0-1.9","871","false","img/card_backs/set1/purple.gif","img/card_backs/set1/red.gif","img/card_backs/set1/yellow.gif","img/card_backs/set1/green.gif","img/card_backs/set2/pink.gif","img/card_backs/set2/gray.gif","img/card_backs/set2/blue.gif","img/card_backs/set2/orange.gif","""event"",""trial"",""time""
""fullscreenenter"",""1"",""10982""
","
","
","""event"",""trial"",""time""
""fullscreenenter"",""1"",""10982""
","
","","1489.4000000059605","","","","practice","2021-07-01 22:12:06.927","img/practice_cards/backs/dark_green.gif","3","-200","0","",""
"casino-keyboard-response","55","292060","0.0-18.0","871","false","img/card_backs/set1/purple.gif","img/card_backs/set1/red.gif","img/card_backs/set1/yellow.gif","img/card_backs/set1/green.gif","img/card_backs/set2/pink.gif","img/card_backs/set2/gray.gif","img/card_backs/set2/blue.gif","img/card_backs/set2/orange.gif","""event"",""trial"",""time""
""fullscreenenter"",""1"",""10982""
","
","
","""event"",""trial"",""time""
""fullscreenenter"",""1"",""10982""
","
","","3112.8000000044703","You earned -600 tokens during the practice round!","82","","","2021-07-01 22:12:10.041","","","","","",""
"casino-keyboard-response","56","296439","0.0-19.0-0.0","871","false","img/card_backs/set1/purple.gif","img/card_backs/set1/red.gif","img/card_backs/set1/yellow.gif","img/card_backs/set1/green.gif","img/card_backs/set2/pink.gif","img/card_backs/set2/gray.gif","img/card_backs/set2/blue.gif","img/card_backs/set2/orange.gif","""event"",""trial"",""time""
""fullscreenenter"",""1"",""10982""
","
","
","""event"",""trial"",""time""
""fullscreenenter"",""1"",""10982""
","
","","4378","Nice job! You are almost ready to play the real game.","86","","instructions","2021-07-01 22:12:14.420","","","","","",""
"casino-keyboard-response","57","302981","0.0-19.0-0.1","871","false","img/card_backs/set1/purple.gif","img/card_backs/set1/red.gif","img/card_backs/set1/yellow.gif","img/card_backs/set1/green.gif","img/card_backs/set2/pink.gif","img/card_backs/set2/gray.gif","img/card_backs/set2/blue.gif","img/card_backs/set2/orange.gif","""event"",""trial"",""time""
""fullscreenenter"",""1"",""10982""
","
","
","""event"",""trial"",""time""
""fullscreenenter"",""1"",""10982""
","
","","6540.29999999702","You will play two rounds of the real game. In each round, you will pick 100 cards in total.","73","","instructions","2021-07-01 22:12:20.962","","","","","",""
"casino-keyboard-response","58","307144","0.0-19.0-0.2","871","false","img/card_backs/set1/purple.gif","img/card_backs/set1/red.gif","img/card_backs/set1/yellow.gif","img/card_backs/set1/green.gif","img/card_backs/set2/pink.gif","img/card_backs/set2/gray.gif","img/card_backs/set2/blue.gif","img/card_backs/set2/orange.gif","""event"",""trial"",""time""
""fullscreenenter"",""1"",""10982""
","
","
","""event"",""trial"",""time""
""fullscreenenter"",""1"",""10982""
","
","","4162.5999999940395","We are now going to ask you some questions about how the game works.","66","","instructions","2021-07-01 22:12:25.125","","","","","",""
"casino-keyboard-response","59","313314","0.0-19.0-0.3","871","false","img/card_backs/set1/purple.gif","img/card_backs/set1/red.gif","img/card_backs/set1/yellow.gif","img/card_backs/set1/green.gif","img/card_backs/set2/pink.gif","img/card_backs/set2/gray.gif","img/card_backs/set2/blue.gif","img/card_backs/set2/orange.gif","""event"",""trial"",""time""
""fullscreenenter"",""1"",""10982""
","
","
","""event"",""trial"",""time""
""fullscreenenter"",""1"",""10982""
","
","","6169.20000000298","Answer carefully. You will not be able to begin the game until you answer them correctly.","67","","instructions","2021-07-01 22:12:31.295","","","","","",""
"casino-comp_q","60","321215","0.0-20.0-0.0","871","false","img/card_backs/set1/purple.gif","img/card_backs/set1/red.gif","img/card_backs/set1/yellow.gif","img/card_backs/set1/green.gif","img/card_backs/set2/pink.gif","img/card_backs/set2/gray.gif","img/card_backs/set2/blue.gif","img/card_backs/set2/orange.gif","""event"",""trial"",""time""
""fullscreenenter"",""1"",""10982""
","
","
","""event"",""trial"",""time""
""fullscreenenter"",""1"",""10982""
","
","","7899.10000000149","True or False: All the decks have some cards that cause you to win tokens and some cards that cause you to lose tokens.","84","","","2021-07-01 22:12:39.196","","","","","",""
"casino-keyboard-response","61","326358","0.0-20.0-1.0","871","false","img/card_backs/set1/purple.gif","img/card_backs/set1/red.gif","img/card_backs/set1/yellow.gif","img/card_backs/set1/green.gif","img/card_backs/set2/pink.gif","img/card_backs/set2/gray.gif","img/card_backs/set2/blue.gif","img/card_backs/set2/orange.gif","""event"",""trial"",""time""
""fullscreenenter"",""1"",""10982""
","
","
","""event"",""trial"",""time""
""fullscreenenter"",""1"",""10982""
","
","","5141.70000000298","True is correct! All the decks have a mix of winning and losing cards.","77","","","2021-07-01 22:12:44.339","","","","","true",""
"casino-comp_q","62","331462","0.0-21.0-0.0","871","false","img/card_backs/set1/purple.gif","img/card_backs/set1/red.gif","img/card_backs/set1/yellow.gif","img/card_backs/set1/green.gif","img/card_backs/set2/pink.gif","img/card_backs/set2/gray.gif","img/card_backs/set2/blue.gif","img/card_backs/set2/orange.gif","""event"",""trial"",""time""
""fullscreenenter"",""1"",""10982""
","
","
","""event"",""trial"",""time""
""fullscreenenter"",""1"",""10982""
","
","","5102.79999999702","True or False: You will have as much time as you want to make your response.","70","","","2021-07-01 22:12:49.443","","","","","",""
"casino-keyboard-response","63","336189","0.0-21.0-1.0","871","false","img/card_backs/set1/purple.gif","img/card_backs/set1/red.gif","img/card_backs/set1/yellow.gif","img/card_backs/set1/green.gif","img/card_backs/set2/pink.gif","img/card_backs/set2/gray.gif","img/card_backs/set2/blue.gif","img/card_backs/set2/orange.gif","""event"",""trial"",""time""
""fullscreenenter"",""1"",""10982""
","
","
","""event"",""trial"",""time""
""fullscreenenter"",""1"",""10982""
","
","","4724.80000000447","False is correct! You will only have 10 seconds to make each choice.","75","","","2021-07-01 22:12:54.170","","","","","true",""
"casino-comp_q","64","344349","0.0-22.0-0.0","871","false","img/card_backs/set1/purple.gif","img/card_backs/set1/red.gif","img/card_backs/set1/yellow.gif","img/card_backs/set1/green.gif","img/card_backs/set2/pink.gif","img/card_backs/set2/gray.gif","img/card_backs/set2/blue.gif","img/card_backs/set2/orange.gif","""event"",""trial"",""time""
""fullscreenenter"",""1"",""10982""
","
","
","""event"",""trial"",""time""
""fullscreenenter"",""1"",""10982""
","
","","8159.5999999940395","True or False: The location of the deck determines how lucky it is.","70","","","2021-07-01 22:13:02.330","","","","","",""
"casino-keyboard-response","65","349857","0.0-22.0-1.0","871","false","img/card_backs/set1/purple.gif","img/card_backs/set1/red.gif","img/card_backs/set1/yellow.gif","img/card_backs/set1/green.gif","img/card_backs/set2/pink.gif","img/card_backs/set2/gray.gif","img/card_backs/set2/blue.gif","img/card_backs/set2/orange.gif","""event"",""trial"",""time""
""fullscreenenter"",""1"",""10982""
","
","
","""event"",""trial"",""time""
""fullscreenenter"",""1"",""10982""
","
","","5506.19999999553","False is correct! The <i>color</i>  of the deck determines how lucky or unlucky it is.","68","","","2021-07-01 22:13:07.838","","","","","true",""
"casino-keyboard-response","66","354776","0.0-23.0-0.0","871","false","img/card_backs/set1/purple.gif","img/card_backs/set1/red.gif","img/card_backs/set1/yellow.gif","img/card_backs/set1/green.gif","img/card_backs/set2/pink.gif","img/card_backs/set2/gray.gif","img/card_backs/set2/blue.gif","img/card_backs/set2/orange.gif","""event"",""trial"",""time""
""fullscreenenter"",""1"",""10982""
","
","
","""event"",""trial"",""time""
""fullscreenenter"",""1"",""10982""
","
","","4917.9000000059605","Great job! Now it's time to start the real game.","82","","instructions","2021-07-01 22:13:12.757","","","","","",""
"casino-keyboard-response","67","359903","0.0-23.0-0.1","871","false","img/card_backs/set1/purple.gif","img/card_backs/set1/red.gif","img/card_backs/set1/yellow.gif","img/card_backs/set1/green.gif","img/card_backs/set2/pink.gif","img/card_backs/set2/gray.gif","img/card_backs/set2/blue.gif","img/card_backs/set2/orange.gif","""event"",""trial"",""time""
""fullscreenenter"",""1"",""10982""
","
","
","""event"",""trial"",""time""
""fullscreenenter"",""1"",""10982""
","
","","5126.30000000447","Before we start, we're going to head into a new room of the casino.","86","","instructions","2021-07-01 22:13:17.884","","","","","",""
"casino-keyboard-response","68","366110","0.0-24.0-0.0","871","false","img/card_backs/set1/purple.gif","img/card_backs/set1/red.gif","img/card_backs/set1/yellow.gif","img/card_backs/set1/green.gif","img/card_backs/set2/pink.gif","img/card_backs/set2/gray.gif","img/card_backs/set2/blue.gif","img/card_backs/set2/orange.gif","""event"",""trial"",""time""
""fullscreenenter"",""1"",""10982""
","
","
","""event"",""trial"",""time""
""fullscreenenter"",""1"",""10982""
","
","","6205.60000000149","Here we are! The real game will use different cards, but the rules will be the same.","71","","instructions","2021-07-01 22:13:24.091","","","","","",""
"casino-keyboard-response","69","376477","0.0-24.0-0.1","871","false","img/card_backs/set1/purple.gif","img/card_backs/set1/red.gif","img/card_backs/set1/yellow.gif","img/card_backs/set1/green.gif","img/card_backs/set2/pink.gif","img/card_backs/set2/gray.gif","img/card_backs/set2/blue.gif","img/card_backs/set2/orange.gif","""event"",""trial"",""time""
""fullscreenenter"",""1"",""10982""
","
","
","""event"",""trial"",""time""
""fullscreenenter"",""1"",""10982""
","
","","10366.89999999851","Ready? Put your fingers over the '2', '4', 6', and '8' keys so you are ready to play the game. </br> Then press 2 to start.","50","","instructions","2021-07-01 22:13:34.458","","","","","",""
"casino-fixation","70","376980","0.0-25.0-0.0","871","false","img/card_backs/set1/purple.gif","img/card_backs/set1/red.gif","img/card_backs/set1/yellow.gif","img/card_backs/set1/green.gif","img/card_backs/set2/pink.gif","img/card_backs/set2/gray.gif","img/card_backs/set2/blue.gif","img/card_backs/set2/orange.gif","""event"",""trial"",""time""
""fullscreenenter"",""1"",""10982""
","
","
","""event"",""trial"",""time""
""fullscreenenter"",""1"",""10982""
","
","","null","","null","","fixation","2021-07-01 22:13:34.961","","","","","",""
"card-selection-trial","71","380726","0.0-25.0-1.0","871","false","img/card_backs/set1/purple.gif","img/card_backs/set1/red.gif","img/card_backs/set1/yellow.gif","img/card_backs/set1/green.gif","img/card_backs/set2/pink.gif","img/card_backs/set2/gray.gif","img/card_backs/set2/blue.gif","img/card_backs/set2/orange.gif","""event"",""trial"",""time""
""fullscreenenter"",""1"",""10982""
","
","
","""event"",""trial"",""time""
""fullscreenenter"",""1"",""10982""
","
","","1738.7999999970198","","","","real_trial","2021-07-01 22:13:38.707","img/card_backs/set1/purple.gif","1","-250","1","",""
"casino-fixation","72","381229","0.0-25.0-0.1","871","false","img/card_backs/set1/purple.gif","img/card_backs/set1/red.gif","img/card_backs/set1/yellow.gif","img/card_backs/set1/green.gif","img/card_backs/set2/pink.gif","img/card_backs/set2/gray.gif","img/card_backs/set2/blue.gif","img/card_backs/set2/orange.gif","""event"",""trial"",""time""
""fullscreenenter"",""1"",""10982""
","
","
","""event"",""trial"",""time""
""fullscreenenter"",""1"",""10982""
","
","","null","","null","","fixation","2021-07-01 22:13:39.210","","","","","",""
"card-selection-trial","73","384880","0.0-25.0-1.1","871","false","img/card_backs/set1/purple.gif","img/card_backs/set1/red.gif","img/card_backs/set1/yellow.gif","img/card_backs/set1/green.gif","img/card_backs/set2/pink.gif","img/card_backs/set2/gray.gif","img/card_backs/set2/blue.gif","img/card_backs/set2/orange.gif","""event"",""trial"",""time""
""fullscreenenter"",""1"",""10982""
","
","
","""event"",""trial"",""time""
""fullscreenenter"",""1"",""10982""
","
","","1641.5","","","","real_trial","2021-07-01 22:13:42.861","img/card_backs/set1/green.gif","3","110","1","",""
"casino-fixation","74","385385","0.0-25.0-0.2","871","false","img/card_backs/set1/purple.gif","img/card_backs/set1/red.gif","img/card_backs/set1/yellow.gif","img/card_backs/set1/green.gif","img/card_backs/set2/pink.gif","img/card_backs/set2/gray.gif","img/card_backs/set2/blue.gif","img/card_backs/set2/orange.gif","""event"",""trial"",""time""
""fullscreenenter"",""1"",""10982""
","
","
","""event"",""trial"",""time""
""fullscreenenter"",""1"",""10982""
","
","","null","","null","","fixation","2021-07-01 22:13:43.366","","","","","",""
"card-selection-trial","75","389402","0.0-25.0-1.2","871","false","img/card_backs/set1/purple.gif","img/card_backs/set1/red.gif","img/card_backs/set1/yellow.gif","img/card_backs/set1/green.gif","img/card_backs/set2/pink.gif","img/card_backs/set2/gray.gif","img/card_backs/set2/blue.gif","img/card_backs/set2/orange.gif","""event"",""trial"",""time""
""fullscreenenter"",""1"",""10982""
","
","
","""event"",""trial"",""time""
""fullscreenenter"",""1"",""10982""
","
","","2005.7000000029802","","","","real_trial","2021-07-01 22:13:47.383","img/card_backs/set1/purple.gif","1","200","1","",""
"casino-fixation","76","389907","0.0-25.0-0.3","871","false","img/card_backs/set1/purple.gif","img/card_backs/set1/red.gif","img/card_backs/set1/yellow.gif","img/card_backs/set1/green.gif","img/card_backs/set2/pink.gif","img/card_backs/set2/gray.gif","img/card_backs/set2/blue.gif","img/card_backs/set2/orange.gif","""event"",""trial"",""time""
""fullscreenenter"",""1"",""10982""
","
","
","""event"",""trial"",""time""
""fullscreenenter"",""1"",""10982""
","
","","null","","null","","fixation","2021-07-01 22:13:47.888","","","","","",""
"card-selection-trial","77","394173","0.0-25.0-1.3","871","false","img/card_backs/set1/purple.gif","img/card_backs/set1/red.gif","img/card_backs/set1/yellow.gif","img/card_backs/set1/green.gif","img/card_backs/set2/pink.gif","img/card_backs/set2/gray.gif","img/card_backs/set2/blue.gif","img/card_backs/set2/orange.gif","""event"",""trial"",""time""
""fullscreenenter"",""1"",""10982""
","
","
","""event"",""trial"",""time""
""fullscreenenter"",""1"",""10982""
","
","","2259.2999999970198","","","","real_trial","2021-07-01 22:13:52.154","img/card_backs/set1/yellow.gif","2","110","1","",""
"casino-fixation","78","394678","0.0-25.0-0.4","871","false","img/card_backs/set1/purple.gif","img/card_backs/set1/red.gif","img/card_backs/set1/yellow.gif","img/card_backs/set1/green.gif","img/card_backs/set2/pink.gif","img/card_backs/set2/gray.gif","img/card_backs/set2/blue.gif","img/card_backs/set2/orange.gif","""event"",""trial"",""time""
""fullscreenenter"",""1"",""10982""
","
","
","""event"",""trial"",""time""
""fullscreenenter"",""1"",""10982""
","
","","null","","null","","fixation","2021-07-01 22:13:52.659","","","","","",""
"card-selection-trial","79","397677","0.0-25.0-1.4","871","false","img/card_backs/set1/purple.gif","img/card_backs/set1/red.gif","img/card_backs/set1/yellow.gif","img/card_backs/set1/green.gif","img/card_backs/set2/pink.gif","img/card_backs/set2/gray.gif","img/card_backs/set2/blue.gif","img/card_backs/set2/orange.gif","""event"",""trial"",""time""
""fullscreenenter"",""1"",""10982""
","
","
","""event"",""trial"",""time""
""fullscreenenter"",""1"",""10982""
","
","","989.2000000029802","","","","real_trial","2021-07-01 22:13:55.658","img/card_backs/set1/yellow.gif","0","-50","1","",""
"casino-fixation","80","398181","0.0-25.0-0.5","871","false","img/card_backs/set1/purple.gif","img/card_backs/set1/red.gif","img/card_backs/set1/yellow.gif","img/card_backs/set1/green.gif","img/card_backs/set2/pink.gif","img/card_backs/set2/gray.gif","img/card_backs/set2/blue.gif","img/card_backs/set2/orange.gif","""event"",""trial"",""time""
""fullscreenenter"",""1"",""10982""
","
","
","""event"",""trial"",""time""
""fullscreenenter"",""1"",""10982""
","
","","null","","null","","fixation","2021-07-01 22:13:56.162","","","","","",""
"card-selection-trial","81","401047","0.0-25.0-1.5","871","false","img/card_backs/set1/purple.gif","img/card_backs/set1/red.gif","img/card_backs/set1/yellow.gif","img/card_backs/set1/green.gif","img/card_backs/set2/pink.gif","img/card_backs/set2/gray.gif","img/card_backs/set2/blue.gif","img/card_backs/set2/orange.gif","""event"",""trial"",""time""
""fullscreenenter"",""1"",""10982""
","
","
","""event"",""trial"",""time""
""fullscreenenter"",""1"",""10982""
","
","","856","","","","real_trial","2021-07-01 22:13:59.028","img/card_backs/set1/purple.gif","1","200","1","",""
"casino-fixation","82","401551","0.0-25.0-0.6","871","false","img/card_backs/set1/purple.gif","img/card_backs/set1/red.gif","img/card_backs/set1/yellow.gif","img/card_backs/set1/green.gif","img/card_backs/set2/pink.gif","img/card_backs/set2/gray.gif","img/card_backs/set2/blue.gif","img/card_backs/set2/orange.gif","""event"",""trial"",""time""
""fullscreenenter"",""1"",""10982""
","
","
","""event"",""trial"",""time""
""fullscreenenter"",""1"",""10982""
","
","","null","","null","","fixation","2021-07-01 22:13:59.533","","","","","",""
"card-selection-trial","83","405959","0.0-25.0-1.6","871","false","img/card_backs/set1/purple.gif","img/card_backs/set1/red.gif","img/card_backs/set1/yellow.gif","img/card_backs/set1/green.gif","img/card_backs/set2/pink.gif","img/card_backs/set2/gray.gif","img/card_backs/set2/blue.gif","img/card_backs/set2/orange.gif","""event"",""trial"",""time""
""fullscreenenter"",""1"",""10982""
","
","
","""event"",""trial"",""time""
""fullscreenenter"",""1"",""10982""
","
","","2398.3000000044703","","","","real_trial","2021-07-01 22:14:03.940","img/card_backs/set1/purple.gif","2","-240","1","",""
"casino-fixation","84","406463","0.0-25.0-0.7","871","false","img/card_backs/set1/purple.gif","img/card_backs/set1/red.gif","img/card_backs/set1/yellow.gif","img/card_backs/set1/green.gif","img/card_backs/set2/pink.gif","img/card_backs/set2/gray.gif","img/card_backs/set2/blue.gif","img/card_backs/set2/orange.gif","""event"",""trial"",""time""
""fullscreenenter"",""1"",""10982""
","
","
","""event"",""trial"",""time""
""fullscreenenter"",""1"",""10982""
","
","","null","","null","","fixation","2021-07-01 22:14:04.444","","","","","",""
"card-selection-trial","85","410318","0.0-25.0-1.7","871","false","img/card_backs/set1/purple.gif","img/card_backs/set1/red.gif","img/card_backs/set1/yellow.gif","img/card_backs/set1/green.gif","img/card_backs/set2/pink.gif","img/card_backs/set2/gray.gif","img/card_backs/set2/blue.gif","img/card_backs/set2/orange.gif","""event"",""trial"",""time""
""fullscreenenter"",""1"",""10982""
","
","
","""event"",""trial"",""time""
""fullscreenenter"",""1"",""10982""
","
","","1845.6999999955297","","","","real_trial","2021-07-01 22:14:08.299","img/card_backs/set1/purple.gif","1","-230","1","",""
"casino-fixation","86","410823","0.0-25.0-0.8","871","false","img/card_backs/set1/purple.gif","img/card_backs/set1/red.gif","img/card_backs/set1/yellow.gif","img/card_backs/set1/green.gif","img/card_backs/set2/pink.gif","img/card_backs/set2/gray.gif","img/card_backs/set2/blue.gif","img/card_backs/set2/orange.gif","""event"",""trial"",""time""
""fullscreenenter"",""1"",""10982""
","
","
","""event"",""trial"",""time""
""fullscreenenter"",""1"",""10982""
","
","","null","","null","","fixation","2021-07-01 22:14:08.804","","","","","",""
"card-selection-trial","87","415508","0.0-25.0-1.8","871","false","img/card_backs/set1/purple.gif","img/card_backs/set1/red.gif","img/card_backs/set1/yellow.gif","img/card_backs/set1/green.gif","img/card_backs/set2/pink.gif","img/card_backs/set2/gray.gif","img/card_backs/set2/blue.gif","img/card_backs/set2/orange.gif","""event"",""trial"",""time""
""fullscreenenter"",""1"",""10982""
","
","
","""event"",""trial"",""time""
""fullscreenenter"",""1"",""10982""
","
","","2678.5999999940395","","","","real_trial","2021-07-01 22:14:13.489","img/card_backs/set1/red.gif","0","180","1","",""
"casino-fixation","88","416012","0.0-25.0-0.9","871","false","img/card_backs/set1/purple.gif","img/card_backs/set1/red.gif","img/card_backs/set1/yellow.gif","img/card_backs/set1/green.gif","img/card_backs/set2/pink.gif","img/card_backs/set2/gray.gif","img/card_backs/set2/blue.gif","img/card_backs/set2/orange.gif","""event"",""trial"",""time""
""fullscreenenter"",""1"",""10982""
","
","
","""event"",""trial"",""time""
""fullscreenenter"",""1"",""10982""
","
","","null","","null","","fixation","2021-07-01 22:14:13.993","","","","","",""
"card-selection-trial","89","418712","0.0-25.0-1.9","871","false","img/card_backs/set1/purple.gif","img/card_backs/set1/red.gif","img/card_backs/set1/yellow.gif","img/card_backs/set1/green.gif","img/card_backs/set2/pink.gif","img/card_backs/set2/gray.gif","img/card_backs/set2/blue.gif","img/card_backs/set2/orange.gif","""event"",""trial"",""time""
""fullscreenenter"",""1"",""10982""
","
","
","""event"",""trial"",""time""
""fullscreenenter"",""1"",""10982""
","
","","688.6000000014901","","","","real_trial","2021-07-01 22:14:16.693","img/card_backs/set1/red.gif","0","-250","1","",""
"casino-fixation","90","419216","0.0-25.0-0.10","871","false","img/card_backs/set1/purple.gif","img/card_backs/set1/red.gif","img/card_backs/set1/yellow.gif","img/card_backs/set1/green.gif","img/card_backs/set2/pink.gif","img/card_backs/set2/gray.gif","img/card_backs/set2/blue.gif","img/card_backs/set2/orange.gif","""event"",""trial"",""time""
""fullscreenenter"",""1"",""10982""
","
","
","""event"",""trial"",""time""
""fullscreenenter"",""1"",""10982""
","
","","null","","null","","fixation","2021-07-01 22:14:17.198","","","","","",""
"card-selection-trial","91","421773","0.0-25.0-1.10","871","false","img/card_backs/set1/purple.gif","img/card_backs/set1/red.gif","img/card_backs/set1/yellow.gif","img/card_backs/set1/green.gif","img/card_backs/set2/pink.gif","img/card_backs/set2/gray.gif","img/card_backs/set2/blue.gif","img/card_backs/set2/orange.gif","""event"",""trial"",""time""
""fullscreenenter"",""1"",""10982""
","
","
","""event"",""trial"",""time""
""fullscreenenter"",""1"",""10982""
","
","","548.7999999970198","","","","real_trial","2021-07-01 22:14:19.754","img/card_backs/set1/purple.gif","2","-230","1","",""
"casino-fixation","92","422276","0.0-25.0-0.11","871","false","img/card_backs/set1/purple.gif","img/card_backs/set1/red.gif","img/card_backs/set1/yellow.gif","img/card_backs/set1/green.gif","img/card_backs/set2/pink.gif","img/card_backs/set2/gray.gif","img/card_backs/set2/blue.gif","img/card_backs/set2/orange.gif","""event"",""trial"",""time""
""fullscreenenter"",""1"",""10982""
","
","
","""event"",""trial"",""time""
""fullscreenenter"",""1"",""10982""
","
","","null","","null","","fixation","2021-07-01 22:14:20.257","","","","","",""
"card-selection-trial","93","425302","0.0-25.0-1.11","871","false","img/card_backs/set1/purple.gif","img/card_backs/set1/red.gif","img/card_backs/set1/yellow.gif","img/card_backs/set1/green.gif","img/card_backs/set2/pink.gif","img/card_backs/set2/gray.gif","img/card_backs/set2/blue.gif","img/card_backs/set2/orange.gif","""event"",""trial"",""time""
""fullscreenenter"",""1"",""10982""
","
","
","""event"",""trial"",""time""
""fullscreenenter"",""1"",""10982""
","
","","1016.8000000044703","","","","real_trial","2021-07-01 22:14:23.283","img/card_backs/set1/green.gif","1","-50","1","",""
"casino-fixation","94","425805","0.0-25.0-0.12","871","false","img/card_backs/set1/purple.gif","img/card_backs/set1/red.gif","img/card_backs/set1/yellow.gif","img/card_backs/set1/green.gif","img/card_backs/set2/pink.gif","img/card_backs/set2/gray.gif","img/card_backs/set2/blue.gif","img/card_backs/set2/orange.gif","""event"",""trial"",""time""
""fullscreenenter"",""1"",""10982""
","
","
","""event"",""trial"",""time""
""fullscreenenter"",""1"",""10982""
","
","","null","","null","","fixation","2021-07-01 22:14:23.786","","","","","",""
"card-selection-trial","95","429671","0.0-25.0-1.12","871","false","img/card_backs/set1/purple.gif","img/card_backs/set1/red.gif","img/card_backs/set1/yellow.gif","img/card_backs/set1/green.gif","img/card_backs/set2/pink.gif","img/card_backs/set2/gray.gif","img/card_backs/set2/blue.gif","img/card_backs/set2/orange.gif","""event"",""trial"",""time""
""fullscreenenter"",""1"",""10982""
","
","
","""event"",""trial"",""time""
""fullscreenenter"",""1"",""10982""
","
","","1856.3999999985099","","","","real_trial","2021-07-01 22:14:27.652","img/card_backs/set1/purple.gif","3","-230","1","",""
"casino-fixation","96","430176","0.0-25.0-0.13","871","false","img/card_backs/set1/purple.gif","img/card_backs/set1/red.gif","img/card_backs/set1/yellow.gif","img/card_backs/set1/green.gif","img/card_backs/set2/pink.gif","img/card_backs/set2/gray.gif","img/card_backs/set2/blue.gif","img/card_backs/set2/orange.gif","""event"",""trial"",""time""
""fullscreenenter"",""1"",""10982""
","
","
","""event"",""trial"",""time""
""fullscreenenter"",""1"",""10982""
","
","","null","","null","","fixation","2021-07-01 22:14:28.157","","","","","",""
"card-selection-trial","97","434077","0.0-25.0-1.13","871","false","img/card_backs/set1/purple.gif","img/card_backs/set1/red.gif","img/card_backs/set1/yellow.gif","img/card_backs/set1/green.gif","img/card_backs/set2/pink.gif","img/card_backs/set2/gray.gif","img/card_backs/set2/blue.gif","img/card_backs/set2/orange.gif","""event"",""trial"",""time""
""fullscreenenter"",""1"",""10982""
","
","
","""event"",""trial"",""time""
""fullscreenenter"",""1"",""10982""
","
","","1893.3999999985099","","","","real_trial","2021-07-01 22:14:32.058","img/card_backs/set1/green.gif","1","-50","1","",""
"casino-fixation","98","434582","0.0-25.0-0.14","871","false","img/card_backs/set1/purple.gif","img/card_backs/set1/red.gif","img/card_backs/set1/yellow.gif","img/card_backs/set1/green.gif","img/card_backs/set2/pink.gif","img/card_backs/set2/gray.gif","img/card_backs/set2/blue.gif","img/card_backs/set2/orange.gif","""event"",""trial"",""time""
""fullscreenenter"",""1"",""10982""
","
","
","""event"",""trial"",""time""
""fullscreenenter"",""1"",""10982""
","
","","null","","null","","fixation","2021-07-01 22:14:32.563","","","","","",""
"card-selection-trial","99","437133","0.0-25.0-1.14","871","false","img/card_backs/set1/purple.gif","img/card_backs/set1/red.gif","img/card_backs/set1/yellow.gif","img/card_backs/set1/green.gif","img/card_backs/set2/pink.gif","img/card_backs/set2/gray.gif","img/card_backs/set2/blue.gif","img/card_backs/set2/orange.gif","""event"",""trial"",""time""
""fullscreenenter"",""1"",""10982""
","
","
","""event"",""trial"",""time""
""fullscreenenter"",""1"",""10982""
","
","","542.5","","","","real_trial","2021-07-01 22:14:35.114","img/card_backs/set1/green.gif","0","-50","1","",""
"casino-fixation","100","437635","0.0-25.0-0.15","871","false","img/card_backs/set1/purple.gif","img/card_backs/set1/red.gif","img/card_backs/set1/yellow.gif","img/card_backs/set1/green.gif","img/card_backs/set2/pink.gif","img/card_backs/set2/gray.gif","img/card_backs/set2/blue.gif","img/card_backs/set2/orange.gif","""event"",""trial"",""time""
""fullscreenenter"",""1"",""10982""
","
","
","""event"",""trial"",""time""
""fullscreenenter"",""1"",""10982""
","
","","null","","null","","fixation","2021-07-01 22:14:35.616","","","","","",""
"card-selection-trial","101","440735","0.0-25.0-1.15","871","false","img/card_backs/set1/purple.gif","img/card_backs/set1/red.gif","img/card_backs/set1/yellow.gif","img/card_backs/set1/green.gif","img/card_backs/set2/pink.gif","img/card_backs/set2/gray.gif","img/card_backs/set2/blue.gif","img/card_backs/set2/orange.gif","""event"",""trial"",""time""
""fullscreenenter"",""1"",""10982""
","
","
","""event"",""trial"",""time""
""fullscreenenter"",""1"",""10982""
","
","","1089.8000000044703","","","","real_trial","2021-07-01 22:14:38.716","img/card_backs/set1/red.gif","2","180","1","",""
"casino-fixation","102","441240","0.0-25.0-0.16","871","false","img/card_backs/set1/purple.gif","img/card_backs/set1/red.gif","img/card_backs/set1/yellow.gif","img/card_backs/set1/green.gif","img/card_backs/set2/pink.gif","img/card_backs/set2/gray.gif","img/card_backs/set2/blue.gif","img/card_backs/set2/orange.gif","""event"",""trial"",""time""
""fullscreenenter"",""1"",""10982""
","
","
","""event"",""trial"",""time""
""fullscreenenter"",""1"",""10982""
","
","","null","","null","","fixation","2021-07-01 22:14:39.221","","","","","",""
"card-selection-trial","103","445849","0.0-25.0-1.16","871","false","img/card_backs/set1/purple.gif","img/card_backs/set1/red.gif","img/card_backs/set1/yellow.gif","img/card_backs/set1/green.gif","img/card_backs/set2/pink.gif","img/card_backs/set2/gray.gif","img/card_backs/set2/blue.gif","img/card_backs/set2/orange.gif","""event"",""trial"",""time""
""fullscreenenter"",""1"",""10982""
","
","
","""event"",""trial"",""time""
""fullscreenenter"",""1"",""10982""
","
","","2601","","","","real_trial","2021-07-01 22:14:43.830","img/card_backs/set1/green.gif","2","100","1","",""
"casino-fixation","104","446354","0.0-25.0-0.17","871","false","img/card_backs/set1/purple.gif","img/card_backs/set1/red.gif","img/card_backs/set1/yellow.gif","img/card_backs/set1/green.gif","img/card_backs/set2/pink.gif","img/card_backs/set2/gray.gif","img/card_backs/set2/blue.gif","img/card_backs/set2/orange.gif","""event"",""trial"",""time""
""fullscreenenter"",""1"",""10982""
","
","
","""event"",""trial"",""time""
""fullscreenenter"",""1"",""10982""
","
","","null","","null","","fixation","2021-07-01 22:14:44.335","","","","","",""
"card-selection-trial","105","449163","0.0-25.0-1.17","871","false","img/card_backs/set1/purple.gif","img/card_backs/set1/red.gif","img/card_backs/set1/yellow.gif","img/card_backs/set1/green.gif","img/card_backs/set2/pink.gif","img/card_backs/set2/gray.gif","img/card_backs/set2/blue.gif","img/card_backs/set2/orange.gif","""event"",""trial"",""time""
""fullscreenenter"",""1"",""10982""
","
","
","""event"",""trial"",""time""
""fullscreenenter"",""1"",""10982""
","
","","798.8999999985099","","","","real_trial","2021-07-01 22:14:47.144","img/card_backs/set1/yellow.gif","0","110","1","",""
"casino-fixation","106","449668","0.0-25.0-0.18","871","false","img/card_backs/set1/purple.gif","img/card_backs/set1/red.gif","img/card_backs/set1/yellow.gif","img/card_backs/set1/green.gif","img/card_backs/set2/pink.gif","img/card_backs/set2/gray.gif","img/card_backs/set2/blue.gif","img/card_backs/set2/orange.gif","""event"",""trial"",""time""
""fullscreenenter"",""1"",""10982""
","
","
","""event"",""trial"",""time""
""fullscreenenter"",""1"",""10982""
","
","","null","","null","","fixation","2021-07-01 22:14:47.649","","","","","",""
"card-selection-trial","107","452559","0.0-25.0-1.18","871","false","img/card_backs/set1/purple.gif","img/card_backs/set1/red.gif","img/card_backs/set1/yellow.gif","img/card_backs/set1/green.gif","img/card_backs/set2/pink.gif","img/card_backs/set2/gray.gif","img/card_backs/set2/blue.gif","img/card_backs/set2/orange.gif","""event"",""trial"",""time""
""fullscreenenter"",""1"",""10982""
","
","
","""event"",""trial"",""time""
""fullscreenenter"",""1"",""10982""
","
","","883.4000000059605","","","","real_trial","2021-07-01 22:14:50.540","img/card_backs/set1/purple.gif","0","200","1","",""
"casino-fixation","108","453064","0.0-25.0-0.19","871","false","img/card_backs/set1/purple.gif","img/card_backs/set1/red.gif","img/card_backs/set1/yellow.gif","img/card_backs/set1/green.gif","img/card_backs/set2/pink.gif","img/card_backs/set2/gray.gif","img/card_backs/set2/blue.gif","img/card_backs/set2/orange.gif","""event"",""trial"",""time""
""fullscreenenter"",""1"",""10982""
","
","
","""event"",""trial"",""time""
""fullscreenenter"",""1"",""10982""
","
","","null","","null","","fixation","2021-07-01 22:14:51.045","","","","","",""
"card-selection-trial","109","457023","0.0-25.0-1.19","871","false","img/card_backs/set1/purple.gif","img/card_backs/set1/red.gif","img/card_backs/set1/yellow.gif","img/card_backs/set1/green.gif","img/card_backs/set2/pink.gif","img/card_backs/set2/gray.gif","img/card_backs/set2/blue.gif","img/card_backs/set2/orange.gif","""event"",""trial"",""time""
""fullscreenenter"",""1"",""10982""
","
","
","""event"",""trial"",""time""
""fullscreenenter"",""1"",""10982""
","
","","1949.3999999985099","","","","real_trial","2021-07-01 22:14:55.004","img/card_backs/set1/red.gif","2","180","1","",""
"casino-fixation","110","457528","0.0-25.0-0.20","871","false","img/card_backs/set1/purple.gif","img/card_backs/set1/red.gif","img/card_backs/set1/yellow.gif","img/card_backs/set1/green.gif","img/card_backs/set2/pink.gif","img/card_backs/set2/gray.gif","img/card_backs/set2/blue.gif","img/card_backs/set2/orange.gif","""event"",""trial"",""time""
""fullscreenenter"",""1"",""10982""
","
","
","""event"",""trial"",""time""
""fullscreenenter"",""1"",""10982""
","
","","null","","null","","fixation","2021-07-01 22:14:55.509","","","","","",""
"card-selection-trial","111","461457","0.0-25.0-1.20","871","false","img/card_backs/set1/purple.gif","img/card_backs/set1/red.gif","img/card_backs/set1/yellow.gif","img/card_backs/set1/green.gif","img/card_backs/set2/pink.gif","img/card_backs/set2/gray.gif","img/card_backs/set2/blue.gif","img/card_backs/set2/orange.gif","""event"",""trial"",""time""
""fullscreenenter"",""1"",""10982""
","
","
","""event"",""trial"",""time""
""fullscreenenter"",""1"",""10982""
","
","","1919.1999999955297","","","","real_trial","2021-07-01 22:14:59.438","img/card_backs/set1/green.gif","1","100","1","",""
"casino-fixation","112","461962","0.0-25.0-0.21","871","false","img/card_backs/set1/purple.gif","img/card_backs/set1/red.gif","img/card_backs/set1/yellow.gif","img/card_backs/set1/green.gif","img/card_backs/set2/pink.gif","img/card_backs/set2/gray.gif","img/card_backs/set2/blue.gif","img/card_backs/set2/orange.gif","""event"",""trial"",""time""
""fullscreenenter"",""1"",""10982""
","
","
","""event"",""trial"",""time""
""fullscreenenter"",""1"",""10982""
","
","","null","","null","","fixation","2021-07-01 22:14:59.943","","","","","",""
"card-selection-trial","113","465312","0.0-25.0-1.21","871","false","img/card_backs/set1/purple.gif","img/card_backs/set1/red.gif","img/card_backs/set1/yellow.gif","img/card_backs/set1/green.gif","img/card_backs/set2/pink.gif","img/card_backs/set2/gray.gif","img/card_backs/set2/blue.gif","img/card_backs/set2/orange.gif","""event"",""trial"",""time""
""fullscreenenter"",""1"",""10982""
","
","
","""event"",""trial"",""time""
""fullscreenenter"",""1"",""10982""
","
","","1341","","","","real_trial","2021-07-01 22:15:03.293","img/card_backs/set1/yellow.gif","2","110","1","",""
"casino-fixation","114","465817","0.0-25.0-0.22","871","false","img/card_backs/set1/purple.gif","img/card_backs/set1/red.gif","img/card_backs/set1/yellow.gif","img/card_backs/set1/green.gif","img/card_backs/set2/pink.gif","img/card_backs/set2/gray.gif","img/card_backs/set2/blue.gif","img/card_backs/set2/orange.gif","""event"",""trial"",""time""
""fullscreenenter"",""1"",""10982""
","
","
","""event"",""trial"",""time""
""fullscreenenter"",""1"",""10982""
","
","","null","","null","","fixation","2021-07-01 22:15:03.798","","","","","",""
"card-selection-trial","115","468789","0.0-25.0-1.22","871","false","img/card_backs/set1/purple.gif","img/card_backs/set1/red.gif","img/card_backs/set1/yellow.gif","img/card_backs/set1/green.gif","img/card_backs/set2/pink.gif","img/card_backs/set2/gray.gif","img/card_backs/set2/blue.gif","img/card_backs/set2/orange.gif","""event"",""trial"",""time""
""fullscreenenter"",""1"",""10982""
","
","
","""event"",""trial"",""time""
""fullscreenenter"",""1"",""10982""
","
","","963.6999999955297","","","","real_trial","2021-07-01 22:15:06.770","img/card_backs/set1/purple.gif","1","-230","1","",""
"casino-fixation","116","469294","0.0-25.0-0.23","871","false","img/card_backs/set1/purple.gif","img/card_backs/set1/red.gif","img/card_backs/set1/yellow.gif","img/card_backs/set1/green.gif","img/card_backs/set2/pink.gif","img/card_backs/set2/gray.gif","img/card_backs/set2/blue.gif","img/card_backs/set2/orange.gif","""event"",""trial"",""time""
""fullscreenenter"",""1"",""10982""
","
","
","""event"",""trial"",""time""
""fullscreenenter"",""1"",""10982""
","
","","null","","null","","fixation","2021-07-01 22:15:07.275","","","","","",""
"card-selection-trial","117","473525","0.0-25.0-1.23","871","false","img/card_backs/set1/purple.gif","img/card_backs/set1/red.gif","img/card_backs/set1/yellow.gif","img/card_backs/set1/green.gif","img/card_backs/set2/pink.gif","img/card_backs/set2/gray.gif","img/card_backs/set2/blue.gif","img/card_backs/set2/orange.gif","""event"",""trial"",""time""
""fullscreenenter"",""1"",""10982""
","
","
","""event"",""trial"",""time""
""fullscreenenter"",""1"",""10982""
","
","","2220","","","","real_trial","2021-07-01 22:15:11.506","img/card_backs/set1/yellow.gif","3","-60","1","",""
"casino-fixation","118","474030","0.0-25.0-0.24","871","false","img/card_backs/set1/purple.gif","img/card_backs/set1/red.gif","img/card_backs/set1/yellow.gif","img/card_backs/set1/green.gif","img/card_backs/set2/pink.gif","img/card_backs/set2/gray.gif","img/card_backs/set2/blue.gif","img/card_backs/set2/orange.gif","""event"",""trial"",""time""
""fullscreenenter"",""1"",""10982""
","
","
","""event"",""trial"",""time""
""fullscreenenter"",""1"",""10982""
","
","","null","","null","","fixation","2021-07-01 22:15:12.011","","","","","",""
"card-selection-trial","119","477490","0.0-25.0-1.24","871","false","img/card_backs/set1/purple.gif","img/card_backs/set1/red.gif","img/card_backs/set1/yellow.gif","img/card_backs/set1/green.gif","img/card_backs/set2/pink.gif","img/card_backs/set2/gray.gif","img/card_backs/set2/blue.gif","img/card_backs/set2/orange.gif","""event"",""trial"",""time""
""fullscreenenter"",""1"",""10982""
","
","
","""event"",""trial"",""time""
""fullscreenenter"",""1"",""10982""
","
","","1454.5","","","","real_trial","2021-07-01 22:15:15.471","img/card_backs/set1/red.gif","1","-230","1","",""
"casino-fixation","120","477995","0.0-25.0-0.25","871","false","img/card_backs/set1/purple.gif","img/card_backs/set1/red.gif","img/card_backs/set1/yellow.gif","img/card_backs/set1/green.gif","img/card_backs/set2/pink.gif","img/card_backs/set2/gray.gif","img/card_backs/set2/blue.gif","img/card_backs/set2/orange.gif","""event"",""trial"",""time""
""fullscreenenter"",""1"",""10982""
","
","
","""event"",""trial"",""time""
""fullscreenenter"",""1"",""10982""
","
","","null","","null","","fixation","2021-07-01 22:15:15.976","","","","","",""
"card-selection-trial","121","483516","0.0-25.0-1.25","871","false","img/card_backs/set1/purple.gif","img/card_backs/set1/red.gif","img/card_backs/set1/yellow.gif","img/card_backs/set1/green.gif","img/card_backs/set2/pink.gif","img/card_backs/set2/gray.gif","img/card_backs/set2/blue.gif","img/card_backs/set2/orange.gif","""event"",""trial"",""time""
""fullscreenenter"",""1"",""10982""
","
","
","""event"",""trial"",""time""
""fullscreenenter"",""1"",""10982""
","
","","3511.10000000149","","","","real_trial","2021-07-01 22:15:21.497","img/card_backs/set1/purple.gif","2","-240","1","",""
"casino-fixation","122","484022","0.0-25.0-0.26","871","false","img/card_backs/set1/purple.gif","img/card_backs/set1/red.gif","img/card_backs/set1/yellow.gif","img/card_backs/set1/green.gif","img/card_backs/set2/pink.gif","img/card_backs/set2/gray.gif","img/card_backs/set2/blue.gif","img/card_backs/set2/orange.gif","""event"",""trial"",""time""
""fullscreenenter"",""1"",""10982""
","
","
","""event"",""trial"",""time""
""fullscreenenter"",""1"",""10982""
","
","","null","","null","","fixation","2021-07-01 22:15:22.003","","","","","",""
"card-selection-trial","123","487237","0.0-25.0-1.26","871","false","img/card_backs/set1/purple.gif","img/card_backs/set1/red.gif","img/card_backs/set1/yellow.gif","img/card_backs/set1/green.gif","img/card_backs/set2/pink.gif","img/card_backs/set2/gray.gif","img/card_backs/set2/blue.gif","img/card_backs/set2/orange.gif","""event"",""trial"",""time""
""fullscreenenter"",""1"",""10982""
","
","
","""event"",""trial"",""time""
""fullscreenenter"",""1"",""10982""
","
","","1208","","","","real_trial","2021-07-01 22:15:25.218","img/card_backs/set1/purple.gif","2","-250","1","",""
"casino-fixation","124","487741","0.0-25.0-0.27","871","false","img/card_backs/set1/purple.gif","img/card_backs/set1/red.gif","img/card_backs/set1/yellow.gif","img/card_backs/set1/green.gif","img/card_backs/set2/pink.gif","img/card_backs/set2/gray.gif","img/card_backs/set2/blue.gif","img/card_backs/set2/orange.gif","""event"",""trial"",""time""
""fullscreenenter"",""1"",""10982""
","
","
","""event"",""trial"",""time""
""fullscreenenter"",""1"",""10982""
","
","","null","","null","","fixation","2021-07-01 22:15:25.722","","","","","",""
"card-selection-trial","125","490551","0.0-25.0-1.27","871","false","img/card_backs/set1/purple.gif","img/card_backs/set1/red.gif","img/card_backs/set1/yellow.gif","img/card_backs/set1/green.gif","img/card_backs/set2/pink.gif","img/card_backs/set2/gray.gif","img/card_backs/set2/blue.gif","img/card_backs/set2/orange.gif","""event"",""trial"",""time""
""fullscreenenter"",""1"",""10982""
","
","
","""event"",""trial"",""time""
""fullscreenenter"",""1"",""10982""
","
","","800","","","","real_trial","2021-07-01 22:15:28.532","img/card_backs/set1/green.gif","2","120","1","",""
"casino-fixation","126","491056","0.0-25.0-0.28","871","false","img/card_backs/set1/purple.gif","img/card_backs/set1/red.gif","img/card_backs/set1/yellow.gif","img/card_backs/set1/green.gif","img/card_backs/set2/pink.gif","img/card_backs/set2/gray.gif","img/card_backs/set2/blue.gif","img/card_backs/set2/orange.gif","""event"",""trial"",""time""
""fullscreenenter"",""1"",""10982""
","
","
","""event"",""trial"",""time""
""fullscreenenter"",""1"",""10982""
","
","","null","","null","","fixation","2021-07-01 22:15:29.037","","","","","",""
"card-selection-trial","127","494470","0.0-25.0-1.28","871","false","img/card_backs/set1/purple.gif","img/card_backs/set1/red.gif","img/card_backs/set1/yellow.gif","img/card_backs/set1/green.gif","img/card_backs/set2/pink.gif","img/card_backs/set2/gray.gif","img/card_backs/set2/blue.gif","img/card_backs/set2/orange.gif","""event"",""trial"",""time""
""fullscreenenter"",""1"",""10982""
","
","
","""event"",""trial"",""time""
""fullscreenenter"",""1"",""10982""
","
","","1405.2999999970198","","","","real_trial","2021-07-01 22:15:32.451","img/card_backs/set1/yellow.gif","3","-60","1","",""
"casino-fixation","128","494974","0.0-25.0-0.29","871","false","img/card_backs/set1/purple.gif","img/card_backs/set1/red.gif","img/card_backs/set1/yellow.gif","img/card_backs/set1/green.gif","img/card_backs/set2/pink.gif","img/card_backs/set2/gray.gif","img/card_backs/set2/blue.gif","img/card_backs/set2/orange.gif","""event"",""trial"",""time""
""fullscreenenter"",""1"",""10982""
","
","
","""event"",""trial"",""time""
""fullscreenenter"",""1"",""10982""
","
","","null","","null","","fixation","2021-07-01 22:15:32.955","","","","","",""
"card-selection-trial","129","500100","0.0-25.0-1.29","871","false","img/card_backs/set1/purple.gif","img/card_backs/set1/red.gif","img/card_backs/set1/yellow.gif","img/card_backs/set1/green.gif","img/card_backs/set2/pink.gif","img/card_backs/set2/gray.gif","img/card_backs/set2/blue.gif","img/card_backs/set2/orange.gif","""event"",""trial"",""time""
""fullscreenenter"",""1"",""10982""
","
","
","""event"",""trial"",""time""
""fullscreenenter"",""1"",""10982""
","
","","3118.60000000149","","","","real_trial","2021-07-01 22:15:38.081","img/card_backs/set1/red.gif","2","-230","1","",""
"casino-fixation","130","500605","0.0-25.0-0.30","871","false","img/card_backs/set1/purple.gif","img/card_backs/set1/red.gif","img/card_backs/set1/yellow.gif","img/card_backs/set1/green.gif","img/card_backs/set2/pink.gif","img/card_backs/set2/gray.gif","img/card_backs/set2/blue.gif","img/card_backs/set2/orange.gif","""event"",""trial"",""time""
""fullscreenenter"",""1"",""10982""
","
","
","""event"",""trial"",""time""
""fullscreenenter"",""1"",""10982""
","
","","null","","null","","fixation","2021-07-01 22:15:38.586","","","","","",""
"card-selection-trial","131","503240","0.0-25.0-1.30","871","false","img/card_backs/set1/purple.gif","img/card_backs/set1/red.gif","img/card_backs/set1/yellow.gif","img/card_backs/set1/green.gif","img/card_backs/set2/pink.gif","img/card_backs/set2/gray.gif","img/card_backs/set2/blue.gif","img/card_backs/set2/orange.gif","""event"",""trial"",""time""
""fullscreenenter"",""1"",""10982""
","
","
","""event"",""trial"",""time""
""fullscreenenter"",""1"",""10982""
","
","","624.6000000014901","","","","real_trial","2021-07-01 22:15:41.221","img/card_backs/set1/green.gif","1","-60","1","",""
"casino-fixation","132","503745","0.0-25.0-0.31","871","false","img/card_backs/set1/purple.gif","img/card_backs/set1/red.gif","img/card_backs/set1/yellow.gif","img/card_backs/set1/green.gif","img/card_backs/set2/pink.gif","img/card_backs/set2/gray.gif","img/card_backs/set2/blue.gif","img/card_backs/set2/orange.gif","""event"",""trial"",""time""
""fullscreenenter"",""1"",""10982""
","
","
","""event"",""trial"",""time""
""fullscreenenter"",""1"",""10982""
","
","","null","","null","","fixation","2021-07-01 22:15:41.726","","","","","",""
"card-selection-trial","133","507147","0.0-25.0-1.31","871","false","img/card_backs/set1/purple.gif","img/card_backs/set1/red.gif","img/card_backs/set1/yellow.gif","img/card_backs/set1/green.gif","img/card_backs/set2/pink.gif","img/card_backs/set2/gray.gif","img/card_backs/set2/blue.gif","img/card_backs/set2/orange.gif","""event"",""trial"",""time""
""fullscreenenter"",""1"",""10982""
","
","
","""event"",""trial"",""time""
""fullscreenenter"",""1"",""10982""
","
","","1393.6000000014901","","","","real_trial","2021-07-01 22:15:45.128","img/card_backs/set1/red.gif","2","-250","1","",""
"casino-fixation","134","507651","0.0-25.0-0.32","871","false","img/card_backs/set1/purple.gif","img/card_backs/set1/red.gif","img/card_backs/set1/yellow.gif","img/card_backs/set1/green.gif","img/card_backs/set2/pink.gif","img/card_backs/set2/gray.gif","img/card_backs/set2/blue.gif","img/card_backs/set2/orange.gif","""event"",""trial"",""time""
""fullscreenenter"",""1"",""10982""
","
","
","""event"",""trial"",""time""
""fullscreenenter"",""1"",""10982""
","
","","null","","null","","fixation","2021-07-01 22:15:45.632","","","","","",""
"card-selection-trial","135","510241","0.0-25.0-1.32","871","false","img/card_backs/set1/purple.gif","img/card_backs/set1/red.gif","img/card_backs/set1/yellow.gif","img/card_backs/set1/green.gif","img/card_backs/set2/pink.gif","img/card_backs/set2/gray.gif","img/card_backs/set2/blue.gif","img/card_backs/set2/orange.gif","""event"",""trial"",""time""
""fullscreenenter"",""1"",""10982""
","
","
","""event"",""trial"",""time""
""fullscreenenter"",""1"",""10982""
","
","","583.2999999970198","","","","real_trial","2021-07-01 22:15:48.222","img/card_backs/set1/yellow.gif","3","-70","1","",""
"casino-fixation","136","510746","0.0-25.0-0.33","871","false","img/card_backs/set1/purple.gif","img/card_backs/set1/red.gif","img/card_backs/set1/yellow.gif","img/card_backs/set1/green.gif","img/card_backs/set2/pink.gif","img/card_backs/set2/gray.gif","img/card_backs/set2/blue.gif","img/card_backs/set2/orange.gif","""event"",""trial"",""time""
""fullscreenenter"",""1"",""10982""
","
","
","""event"",""trial"",""time""
""fullscreenenter"",""1"",""10982""
","
","","null","","null","","fixation","2021-07-01 22:15:48.727","","","","","",""
"card-selection-trial","137","515703","0.0-25.0-1.33","871","false","img/card_backs/set1/purple.gif","img/card_backs/set1/red.gif","img/card_backs/set1/yellow.gif","img/card_backs/set1/green.gif","img/card_backs/set2/pink.gif","img/card_backs/set2/gray.gif","img/card_backs/set2/blue.gif","img/card_backs/set2/orange.gif","""event"",""trial"",""time""
""fullscreenenter"",""1"",""10982""
","
","
","""event"",""trial"",""time""
""fullscreenenter"",""1"",""10982""
","
","","2948.7999999970198","","","","real_trial","2021-07-01 22:15:53.684","img/card_backs/set1/purple.gif","0","180","1","",""
"casino-fixation","138","516208","0.0-25.0-0.34","871","false","img/card_backs/set1/purple.gif","img/card_backs/set1/red.gif","img/card_backs/set1/yellow.gif","img/card_backs/set1/green.gif","img/card_backs/set2/pink.gif","img/card_backs/set2/gray.gif","img/card_backs/set2/blue.gif","img/card_backs/set2/orange.gif","""event"",""trial"",""time""
""fullscreenenter"",""1"",""10982""
","
","
","""event"",""trial"",""time""
""fullscreenenter"",""1"",""10982""
","
","","null","","null","","fixation","2021-07-01 22:15:54.189","","","","","",""
"card-selection-trial","139","519481","0.0-25.0-1.34","871","false","img/card_backs/set1/purple.gif","img/card_backs/set1/red.gif","img/card_backs/set1/yellow.gif","img/card_backs/set1/green.gif","img/card_backs/set2/pink.gif","img/card_backs/set2/gray.gif","img/card_backs/set2/blue.gif","img/card_backs/set2/orange.gif","""event"",""trial"",""time""
""fullscreenenter"",""1"",""10982""
","
","
","""event"",""trial"",""time""
""fullscreenenter"",""1"",""10982""
","
","","1265.6999999955297","","","","real_trial","2021-07-01 22:15:57.462","img/card_backs/set1/yellow.gif","3","120","1","",""
"casino-fixation","140","519987","0.0-25.0-0.35","871","false","img/card_backs/set1/purple.gif","img/card_backs/set1/red.gif","img/card_backs/set1/yellow.gif","img/card_backs/set1/green.gif","img/card_backs/set2/pink.gif","img/card_backs/set2/gray.gif","img/card_backs/set2/blue.gif","img/card_backs/set2/orange.gif","""event"",""trial"",""time""
""fullscreenenter"",""1"",""10982""
","
","
","""event"",""trial"",""time""
""fullscreenenter"",""1"",""10982""
","
","","null","","null","","fixation","2021-07-01 22:15:57.968","","","","","",""
"card-selection-trial","141","523394","0.0-25.0-1.35","871","false","img/card_backs/set1/purple.gif","img/card_backs/set1/red.gif","img/card_backs/set1/yellow.gif","img/card_backs/set1/green.gif","img/card_backs/set2/pink.gif","img/card_backs/set2/gray.gif","img/card_backs/set2/blue.gif","img/card_backs/set2/orange.gif","""event"",""trial"",""time""
""fullscreenenter"",""1"",""10982""
","
","
","""event"",""trial"",""time""
""fullscreenenter"",""1"",""10982""
","
","","1398","","","","real_trial","2021-07-01 22:16:01.375","img/card_backs/set1/green.gif","0","-60","1","",""
"casino-fixation","142","523899","0.0-25.0-0.36","871","false","img/card_backs/set1/purple.gif","img/card_backs/set1/red.gif","img/card_backs/set1/yellow.gif","img/card_backs/set1/green.gif","img/card_backs/set2/pink.gif","img/card_backs/set2/gray.gif","img/card_backs/set2/blue.gif","img/card_backs/set2/orange.gif","""event"",""trial"",""time""
""fullscreenenter"",""1"",""10982""
","
","
","""event"",""trial"",""time""
""fullscreenenter"",""1"",""10982""
","
","","null","","null","","fixation","2021-07-01 22:16:01.880","","","","","",""
"card-selection-trial","143","527260","0.0-25.0-1.36","871","false","img/card_backs/set1/purple.gif","img/card_backs/set1/red.gif","img/card_backs/set1/yellow.gif","img/card_backs/set1/green.gif","img/card_backs/set2/pink.gif","img/card_backs/set2/gray.gif","img/card_backs/set2/blue.gif","img/card_backs/set2/orange.gif","""event"",""trial"",""time""
""fullscreenenter"",""1"",""10982""
","
","
","""event"",""trial"",""time""
""fullscreenenter"",""1"",""10982""
","
","","1353.2999999970198","","","","real_trial","2021-07-01 22:16:05.241","img/card_backs/set1/red.gif","1","190","1","",""
"casino-fixation","144","527765","0.0-25.0-0.37","871","false","img/card_backs/set1/purple.gif","img/card_backs/set1/red.gif","img/card_backs/set1/yellow.gif","img/card_backs/set1/green.gif","img/card_backs/set2/pink.gif","img/card_backs/set2/gray.gif","img/card_backs/set2/blue.gif","img/card_backs/set2/orange.gif","""event"",""trial"",""time""
""fullscreenenter"",""1"",""10982""
","
","
","""event"",""trial"",""time""
""fullscreenenter"",""1"",""10982""
","
","","null","","null","","fixation","2021-07-01 22:16:05.746","","","","","",""
"card-selection-trial","145","531991","0.0-25.0-1.37","871","false","img/card_backs/set1/purple.gif","img/card_backs/set1/red.gif","img/card_backs/set1/yellow.gif","img/card_backs/set1/green.gif","img/card_backs/set2/pink.gif","img/card_backs/set2/gray.gif","img/card_backs/set2/blue.gif","img/card_backs/set2/orange.gif","""event"",""trial"",""time""
""fullscreenenter"",""1"",""10982""
","
","
","""event"",""trial"",""time""
""fullscreenenter"",""1"",""10982""
","
","","2217.7000000029802","","","","real_trial","2021-07-01 22:16:09.972","img/card_backs/set1/green.gif","3","-50","1","",""
"casino-fixation","146","532496","0.0-25.0-0.38","871","false","img/card_backs/set1/purple.gif","img/card_backs/set1/red.gif","img/card_backs/set1/yellow.gif","img/card_backs/set1/green.gif","img/card_backs/set2/pink.gif","img/card_backs/set2/gray.gif","img/card_backs/set2/blue.gif","img/card_backs/set2/orange.gif","""event"",""trial"",""time""
""fullscreenenter"",""1"",""10982""
","
","
","""event"",""trial"",""time""
""fullscreenenter"",""1"",""10982""
","
","","null","","null","","fixation","2021-07-01 22:16:10.477","","","","","",""
"card-selection-trial","147","535927","0.0-25.0-1.38","871","false","img/card_backs/set1/purple.gif","img/card_backs/set1/red.gif","img/card_backs/set1/yellow.gif","img/card_backs/set1/green.gif","img/card_backs/set2/pink.gif","img/card_backs/set2/gray.gif","img/card_backs/set2/blue.gif","img/card_backs/set2/orange.gif","""event"",""trial"",""time""
""fullscreenenter"",""1"",""10982""
","
","
","""event"",""trial"",""time""
""fullscreenenter"",""1"",""10982""
","
","","1423.3000000044703","","","","real_trial","2021-07-01 22:16:13.908","img/card_backs/set1/yellow.gif","2","120","1","",""
"casino-fixation","148","536431","0.0-25.0-0.39","871","false","img/card_backs/set1/purple.gif","img/card_backs/set1/red.gif","img/card_backs/set1/yellow.gif","img/card_backs/set1/green.gif","img/card_backs/set2/pink.gif","img/card_backs/set2/gray.gif","img/card_backs/set2/blue.gif","img/card_backs/set2/orange.gif","""event"",""trial"",""time""
""fullscreenenter"",""1"",""10982""
","
","
","""event"",""trial"",""time""
""fullscreenenter"",""1"",""10982""
","
","","null","","null","","fixation","2021-07-01 22:16:14.412","","","","","",""
"card-selection-trial","149","539903","0.0-25.0-1.39","871","false","img/card_backs/set1/purple.gif","img/card_backs/set1/red.gif","img/card_backs/set1/yellow.gif","img/card_backs/set1/green.gif","img/card_backs/set2/pink.gif","img/card_backs/set2/gray.gif","img/card_backs/set2/blue.gif","img/card_backs/set2/orange.gif","""event"",""trial"",""time""
""fullscreenenter"",""1"",""10982""
","
","
","""event"",""trial"",""time""
""fullscreenenter"",""1"",""10982""
","
","","1462.7000000029802","","","","real_trial","2021-07-01 22:16:17.884","img/card_backs/set1/green.gif","3","120","1","",""
"casino-fixation","150","540408","0.0-25.0-0.40","871","false","img/card_backs/set1/purple.gif","img/card_backs/set1/red.gif","img/card_backs/set1/yellow.gif","img/card_backs/set1/green.gif","img/card_backs/set2/pink.gif","img/card_backs/set2/gray.gif","img/card_backs/set2/blue.gif","img/card_backs/set2/orange.gif","""event"",""trial"",""time""
""fullscreenenter"",""1"",""10982""
","
","
","""event"",""trial"",""time""
""fullscreenenter"",""1"",""10982""
","
","","null","","null","","fixation","2021-07-01 22:16:18.389","","","","","",""
"card-selection-trial","151","544065","0.0-25.0-1.40","871","false","img/card_backs/set1/purple.gif","img/card_backs/set1/red.gif","img/card_backs/set1/yellow.gif","img/card_backs/set1/green.gif","img/card_backs/set2/pink.gif","img/card_backs/set2/gray.gif","img/card_backs/set2/blue.gif","img/card_backs/set2/orange.gif","""event"",""trial"",""time""
""fullscreenenter"",""1"",""10982""
","
","
","""event"",""trial"",""time""
""fullscreenenter"",""1"",""10982""
","
","","1651.3999999985099","","","","real_trial","2021-07-01 22:16:22.046","img/card_backs/set1/yellow.gif","1","100","1","",""
"casino-fixation","152","544569","0.0-25.0-0.41","871","false","img/card_backs/set1/purple.gif","img/card_backs/set1/red.gif","img/card_backs/set1/yellow.gif","img/card_backs/set1/green.gif","img/card_backs/set2/pink.gif","img/card_backs/set2/gray.gif","img/card_backs/set2/blue.gif","img/card_backs/set2/orange.gif","""event"",""trial"",""time""
""fullscreenenter"",""1"",""10982""
","
","
","""event"",""trial"",""time""
""fullscreenenter"",""1"",""10982""
","
","","null","","null","","fixation","2021-07-01 22:16:22.550","","","","","",""
"card-selection-trial","153","547728","0.0-25.0-1.41","871","false","img/card_backs/set1/purple.gif","img/card_backs/set1/red.gif","img/card_backs/set1/yellow.gif","img/card_backs/set1/green.gif","img/card_backs/set2/pink.gif","img/card_backs/set2/gray.gif","img/card_backs/set2/blue.gif","img/card_backs/set2/orange.gif","""event"",""trial"",""time""
""fullscreenenter"",""1"",""10982""
","
","
","""event"",""trial"",""time""
""fullscreenenter"",""1"",""10982""
","
","","1148.8000000044703","","","","real_trial","2021-07-01 22:16:25.709","img/card_backs/set1/red.gif","1","180","1","",""
"casino-fixation","154","548232","0.0-25.0-0.42","871","false","img/card_backs/set1/purple.gif","img/card_backs/set1/red.gif","img/card_backs/set1/yellow.gif","img/card_backs/set1/green.gif","img/card_backs/set2/pink.gif","img/card_backs/set2/gray.gif","img/card_backs/set2/blue.gif","img/card_backs/set2/orange.gif","""event"",""trial"",""time""
""fullscreenenter"",""1"",""10982""
","
","
","""event"",""trial"",""time""
""fullscreenenter"",""1"",""10982""
","
","","null","","null","","fixation","2021-07-01 22:16:26.213","","","","","",""
"card-selection-trial","155","554716","0.0-25.0-1.42","871","false","img/card_backs/set1/purple.gif","img/card_backs/set1/red.gif","img/card_backs/set1/yellow.gif","img/card_backs/set1/green.gif","img/card_backs/set2/pink.gif","img/card_backs/set2/gray.gif","img/card_backs/set2/blue.gif","img/card_backs/set2/orange.gif","""event"",""trial"",""time""
""fullscreenenter"",""1"",""10982""
","
","
","""event"",""trial"",""time""
""fullscreenenter"",""1"",""10982""
","
","","4474.60000000149","","","","real_trial","2021-07-01 22:16:32.698","img/card_backs/set1/green.gif","2","110","1","",""
"casino-fixation","156","555221","0.0-25.0-0.43","871","false","img/card_backs/set1/purple.gif","img/card_backs/set1/red.gif","img/card_backs/set1/yellow.gif","img/card_backs/set1/green.gif","img/card_backs/set2/pink.gif","img/card_backs/set2/gray.gif","img/card_backs/set2/blue.gif","img/card_backs/set2/orange.gif","""event"",""trial"",""time""
""fullscreenenter"",""1"",""10982""
","
","
","""event"",""trial"",""time""
""fullscreenenter"",""1"",""10982""
","
","","null","","null","","fixation","2021-07-01 22:16:33.202","","","","","",""
"card-selection-trial","157","560387","0.0-25.0-1.43","871","false","img/card_backs/set1/purple.gif","img/card_backs/set1/red.gif","img/card_backs/set1/yellow.gif","img/card_backs/set1/green.gif","img/card_backs/set2/pink.gif","img/card_backs/set2/gray.gif","img/card_backs/set2/blue.gif","img/card_backs/set2/orange.gif","""event"",""trial"",""time""
""fullscreenenter"",""1"",""10982""
","
","
","""event"",""trial"",""time""
""fullscreenenter"",""1"",""10982""
","
","","3155.1999999955297","","","","real_trial","2021-07-01 22:16:38.368","img/card_backs/set1/green.gif","1","120","1","",""
"casino-fixation","158","560892","0.0-25.0-0.44","871","false","img/card_backs/set1/purple.gif","img/card_backs/set1/red.gif","img/card_backs/set1/yellow.gif","img/card_backs/set1/green.gif","img/card_backs/set2/pink.gif","img/card_backs/set2/gray.gif","img/card_backs/set2/blue.gif","img/card_backs/set2/orange.gif","""event"",""trial"",""time""
""fullscreenenter"",""1"",""10982""
","
","
","""event"",""trial"",""time""
""fullscreenenter"",""1"",""10982""
","
","","null","","null","","fixation","2021-07-01 22:16:38.874","","","","","",""
"card-selection-trial","159","564416","0.0-25.0-1.44","871","false","img/card_backs/set1/purple.gif","img/card_backs/set1/red.gif","img/card_backs/set1/yellow.gif","img/card_backs/set1/green.gif","img/card_backs/set2/pink.gif","img/card_backs/set2/gray.gif","img/card_backs/set2/blue.gif","img/card_backs/set2/orange.gif","""event"",""trial"",""time""
""fullscreenenter"",""1"",""10982""
","
","
","""event"",""trial"",""time""
""fullscreenenter"",""1"",""10982""
","
","","1515.7999999970198","","","","real_trial","2021-07-01 22:16:42.397","img/card_backs/set1/purple.gif","2","180","1","",""
"casino-fixation","160","564921","0.0-25.0-0.45","871","false","img/card_backs/set1/purple.gif","img/card_backs/set1/red.gif","img/card_backs/set1/yellow.gif","img/card_backs/set1/green.gif","img/card_backs/set2/pink.gif","img/card_backs/set2/gray.gif","img/card_backs/set2/blue.gif","img/card_backs/set2/orange.gif","""event"",""trial"",""time""
""fullscreenenter"",""1"",""10982""
","
","
","""event"",""trial"",""time""
""fullscreenenter"",""1"",""10982""
","
","","null","","null","","fixation","2021-07-01 22:16:42.902","","","","","",""
"card-selection-trial","161","569170","0.0-25.0-1.45","871","false","img/card_backs/set1/purple.gif","img/card_backs/set1/red.gif","img/card_backs/set1/yellow.gif","img/card_backs/set1/green.gif","img/card_backs/set2/pink.gif","img/card_backs/set2/gray.gif","img/card_backs/set2/blue.gif","img/card_backs/set2/orange.gif","""event"",""trial"",""time""
""fullscreenenter"",""1"",""10982""
","
","
","""event"",""trial"",""time""
""fullscreenenter"",""1"",""10982""
","
","","2238.2999999970198","","","","real_trial","2021-07-01 22:16:47.151","img/card_backs/set1/red.gif","0","-250","1","",""
"casino-fixation","162","569675","0.0-25.0-0.46","871","false","img/card_backs/set1/purple.gif","img/card_backs/set1/red.gif","img/card_backs/set1/yellow.gif","img/card_backs/set1/green.gif","img/card_backs/set2/pink.gif","img/card_backs/set2/gray.gif","img/card_backs/set2/blue.gif","img/card_backs/set2/orange.gif","""event"",""trial"",""time""
""fullscreenenter"",""1"",""10982""
","
","
","""event"",""trial"",""time""
""fullscreenenter"",""1"",""10982""
","
","","null","","null","","fixation","2021-07-01 22:16:47.656","","","","","",""
"card-selection-trial","163","573036","0.0-25.0-1.46","871","false","img/card_backs/set1/purple.gif","img/card_backs/set1/red.gif","img/card_backs/set1/yellow.gif","img/card_backs/set1/green.gif","img/card_backs/set2/pink.gif","img/card_backs/set2/gray.gif","img/card_backs/set2/blue.gif","img/card_backs/set2/orange.gif","""event"",""trial"",""time""
""fullscreenenter"",""1"",""10982""
","
","
","""event"",""trial"",""time""
""fullscreenenter"",""1"",""10982""
","
","","1354.2999999970198","","","","real_trial","2021-07-01 22:16:51.017","img/card_backs/set1/red.gif","0","-250","1","",""
"casino-fixation","164","573541","0.0-25.0-0.47","871","false","img/card_backs/set1/purple.gif","img/card_backs/set1/red.gif","img/card_backs/set1/yellow.gif","img/card_backs/set1/green.gif","img/card_backs/set2/pink.gif","img/card_backs/set2/gray.gif","img/card_backs/set2/blue.gif","img/card_backs/set2/orange.gif","""event"",""trial"",""time""
""fullscreenenter"",""1"",""10982""
","
","
","""event"",""trial"",""time""
""fullscreenenter"",""1"",""10982""
","
","","null","","null","","fixation","2021-07-01 22:16:51.522","","","","","",""
"card-selection-trial","165","577355","0.0-25.0-1.47","871","false","img/card_backs/set1/purple.gif","img/card_backs/set1/red.gif","img/card_backs/set1/yellow.gif","img/card_backs/set1/green.gif","img/card_backs/set2/pink.gif","img/card_backs/set2/gray.gif","img/card_backs/set2/blue.gif","img/card_backs/set2/orange.gif","""event"",""trial"",""time""
""fullscreenenter"",""1"",""10982""
","
","
","""event"",""trial"",""time""
""fullscreenenter"",""1"",""10982""
","
","","1805.1999999955297","","","","real_trial","2021-07-01 22:16:55.336","img/card_backs/set1/green.gif","1","-50","1","",""
"casino-fixation","166","577860","0.0-25.0-0.48","871","false","img/card_backs/set1/purple.gif","img/card_backs/set1/red.gif","img/card_backs/set1/yellow.gif","img/card_backs/set1/green.gif","img/card_backs/set2/pink.gif","img/card_backs/set2/gray.gif","img/card_backs/set2/blue.gif","img/card_backs/set2/orange.gif","""event"",""trial"",""time""
""fullscreenenter"",""1"",""10982""
","
","
","""event"",""trial"",""time""
""fullscreenenter"",""1"",""10982""
","
","","null","","null","","fixation","2021-07-01 22:16:55.841","","","","","",""
