"trial_type","trial_index","time_elapsed","internal_node_id","sub_id","risk_good_first","block1_A","block1_B","block1_C","block1_D","block2_A","block2_B","block2_C","block2_D","interactions","blur_events","focus_events","fullscreenenter_events","fullscreenexit_events","success","rt","stimulus","key_press","button_pressed","task_part","timestamp","card_choice","choice_position","points_earned","block","correct","response"
"pavlovia","0","8","0.0-0.0","A1353","false","img/card_backs/set1/yellow.gif","img/card_backs/set1/green.gif","img/card_backs/set1/purple.gif","img/card_backs/set1/red.gif","img/card_backs/set2/gray.gif","img/card_backs/set2/pink.gif","img/card_backs/set2/orange.gif","img/card_backs/set2/blue.gif","""event"",""trial"",""time""
""fullscreenenter"",""1"",""5074""
","
","
","""event"",""trial"",""time""
""fullscreenenter"",""1"",""5074""
","
","","","","","","","","","","","","",""
"fullscreen","1","5975","0.0-1.0","A1353","false","img/card_backs/set1/yellow.gif","img/card_backs/set1/green.gif","img/card_backs/set1/purple.gif","img/card_backs/set1/red.gif","img/card_backs/set2/gray.gif","img/card_backs/set2/pink.gif","img/card_backs/set2/orange.gif","img/card_backs/set2/blue.gif","""event"",""trial"",""time""
""fullscreenenter"",""1"",""5074""
","
","
","""event"",""trial"",""time""
""fullscreenenter"",""1"",""5074""
","
","true","","","","","","","","","","","",""
"audio-keyboard-response","2","8731","0.0-2.0","A1353","false","img/card_backs/set1/yellow.gif","img/card_backs/set1/green.gif","img/card_backs/set1/purple.gif","img/card_backs/set1/red.gif","img/card_backs/set2/gray.gif","img/card_backs/set2/pink.gif","img/card_backs/set2/orange.gif","img/card_backs/set2/blue.gif","""event"",""trial"",""time""
""fullscreenenter"",""1"",""5074""
","
","
","""event"",""trial"",""time""
""fullscreenenter"",""1"",""5074""
","
","","0","audio/beep_loop.wav","32","","","","","","","","",""
"audio-button-response","3","12020","0.0-3.0","A1353","false","img/card_backs/set1/yellow.gif","img/card_backs/set1/green.gif","img/card_backs/set1/purple.gif","img/card_backs/set1/red.gif","img/card_backs/set2/gray.gif","img/card_backs/set2/pink.gif","img/card_backs/set2/orange.gif","img/card_backs/set2/blue.gif","""event"",""trial"",""time""
""fullscreenenter"",""1"",""5074""
","
","
","""event"",""trial"",""time""
""fullscreenenter"",""1"",""5074""
","
","","NaN","audio/turtle.mp3","","3","","","","","","","",""
"audio-button-response","4","14692","0.0-4.0","A1353","false","img/card_backs/set1/yellow.gif","img/card_backs/set1/green.gif","img/card_backs/set1/purple.gif","img/card_backs/set1/red.gif","img/card_backs/set2/gray.gif","img/card_backs/set2/pink.gif","img/card_backs/set2/orange.gif","img/card_backs/set2/blue.gif","""event"",""trial"",""time""
""fullscreenenter"",""1"",""5074""
","
","
","""event"",""trial"",""time""
""fullscreenenter"",""1"",""5074""
","
","","NaN","audio/shark.mp3","","2","","","","","","","",""
"fullscreen","5","18840","0.0-5.0","A1353","false","img/card_backs/set1/yellow.gif","img/card_backs/set1/green.gif","img/card_backs/set1/purple.gif","img/card_backs/set1/red.gif","img/card_backs/set2/gray.gif","img/card_backs/set2/pink.gif","img/card_backs/set2/orange.gif","img/card_backs/set2/blue.gif","""event"",""trial"",""time""
""fullscreenenter"",""1"",""5074""
","
","
","""event"",""trial"",""time""
""fullscreenenter"",""1"",""5074""
","
","true","","","","","","","","","","","",""
"casino-keyboard-response","6","23694","0.0-6.0-0.0","A1353","false","img/card_backs/set1/yellow.gif","img/card_backs/set1/green.gif","img/card_backs/set1/purple.gif","img/card_backs/set1/red.gif","img/card_backs/set2/gray.gif","img/card_backs/set2/pink.gif","img/card_backs/set2/orange.gif","img/card_backs/set2/blue.gif","""event"",""trial"",""time""
""fullscreenenter"",""1"",""5074""
","
","
","""event"",""trial"",""time""
""fullscreenenter"",""1"",""5074""
","
","","4853","Welcome to the casino!","71","","instructions","2021-07-19 22:06:18.107","","","","","",""
"casino-keyboard-response","7","33531","0.0-6.0-0.1","A1353","false","img/card_backs/set1/yellow.gif","img/card_backs/set1/green.gif","img/card_backs/set1/purple.gif","img/card_backs/set1/red.gif","img/card_backs/set2/gray.gif","img/card_backs/set2/pink.gif","img/card_backs/set2/orange.gif","img/card_backs/set2/blue.gif","""event"",""trial"",""time""
""fullscreenenter"",""1"",""5074""
","
","
","""event"",""trial"",""time""
""fullscreenenter"",""1"",""5074""
","
","","9836","Today you will be playing a game to earn tokens. </br> At the end of the experiment, you will be paid a bonus based on how many tokens you win. ","69","","instructions","2021-07-19 22:06:27.943","","","","","",""
"casino-keyboard-response","8","76886","0.0-6.0-0.2","A1353","false","img/card_backs/set1/yellow.gif","img/card_backs/set1/green.gif","img/card_backs/set1/purple.gif","img/card_backs/set1/red.gif","img/card_backs/set2/gray.gif","img/card_backs/set2/pink.gif","img/card_backs/set2/orange.gif","img/card_backs/set2/blue.gif","""event"",""trial"",""time""
""fullscreenenter"",""1"",""5074""
","
","
","""event"",""trial"",""time""
""fullscreenenter"",""1"",""5074""
","
","","43331","On every turn, you will be shown four different decks of cards. </br> You need to select a card from one of the four decks.  ","75","","instructions","2021-07-19 22:07:11.298","","","","","",""
"casino-keyboard-response","9","81663","0.0-6.0-0.3","A1353","false","img/card_backs/set1/yellow.gif","img/card_backs/set1/green.gif","img/card_backs/set1/purple.gif","img/card_backs/set1/red.gif","img/card_backs/set2/gray.gif","img/card_backs/set2/pink.gif","img/card_backs/set2/orange.gif","img/card_backs/set2/blue.gif","""event"",""trial"",""time""
""fullscreenenter"",""1"",""5074""
","
","
","""event"",""trial"",""time""
""fullscreenenter"",""1"",""5074""
","
","","4774","On the next screen, you will see what the decks will look like. ","66","","instructions","2021-07-19 22:07:16.075","","","","","",""
"card-selection-trial","10","85667","0.0-7.0-0.0","A1353","false","img/card_backs/set1/yellow.gif","img/card_backs/set1/green.gif","img/card_backs/set1/purple.gif","img/card_backs/set1/red.gif","img/card_backs/set2/gray.gif","img/card_backs/set2/pink.gif","img/card_backs/set2/orange.gif","img/card_backs/set2/blue.gif","""event"",""trial"",""time""
""fullscreenenter"",""1"",""5074""
","
","
","""event"",""trial"",""time""
""fullscreenenter"",""1"",""5074""
","
","","null","","","","practice","2021-07-19 22:07:20.079","null","null","null","0","",""
"casino-keyboard-response","11","93367","0.0-8.0-0.0","A1353","false","img/card_backs/set1/yellow.gif","img/card_backs/set1/green.gif","img/card_backs/set1/purple.gif","img/card_backs/set1/red.gif","img/card_backs/set2/gray.gif","img/card_backs/set2/pink.gif","img/card_backs/set2/orange.gif","img/card_backs/set2/blue.gif","""event"",""trial"",""time""
""fullscreenenter"",""1"",""5074""
","
","
","""event"",""trial"",""time""
""fullscreenenter"",""1"",""5074""
","
","","7698","You should pick a card from a deck using the '2', '4', '6', and '8' keys at the top of the keyboard.","85","","instructions","2021-07-19 22:07:27.779","","","","","",""
"casino-keyboard-response","12","98898","0.0-8.0-0.1","A1353","false","img/card_backs/set1/yellow.gif","img/card_backs/set1/green.gif","img/card_backs/set1/purple.gif","img/card_backs/set1/red.gif","img/card_backs/set2/gray.gif","img/card_backs/set2/pink.gif","img/card_backs/set2/orange.gif","img/card_backs/set2/blue.gif","""event"",""trial"",""time""
""fullscreenenter"",""1"",""5074""
","
","
","""event"",""trial"",""time""
""fullscreenenter"",""1"",""5074""
","
","","5530","Once you select a card, it will turn over and you will see how many tokens you earned.","83","","instructions","2021-07-19 22:07:33.310","","","","","",""
"casino-keyboard-response","13","113853","0.0-8.0-0.2","A1353","false","img/card_backs/set1/yellow.gif","img/card_backs/set1/green.gif","img/card_backs/set1/purple.gif","img/card_backs/set1/red.gif","img/card_backs/set2/gray.gif","img/card_backs/set2/pink.gif","img/card_backs/set2/orange.gif","img/card_backs/set2/blue.gif","""event"",""trial"",""time""
""fullscreenenter"",""1"",""5074""
","
","
","""event"",""trial"",""time""
""fullscreenenter"",""1"",""5074""
","
","","14954","Let's try practicing that! </br> First, try to put your fingers over the '2', '4', '6', and '8' keys. </br>  You can use whatever fingers are most comfortable for you. Try to find a comfortable position now. ","50","","instructions","2021-07-19 22:07:48.265","","","","","",""
"casino-keyboard-response","14","119356","0.0-8.0-0.3","A1353","false","img/card_backs/set1/yellow.gif","img/card_backs/set1/green.gif","img/card_backs/set1/purple.gif","img/card_backs/set1/red.gif","img/card_backs/set2/gray.gif","img/card_backs/set2/pink.gif","img/card_backs/set2/orange.gif","img/card_backs/set2/blue.gif","""event"",""trial"",""time""
""fullscreenenter"",""1"",""5074""
","
","
","""event"",""trial"",""time""
""fullscreenenter"",""1"",""5074""
","
","","5501","Okay ready? </br> On the next screen, press '2' to select the left deck. ","50","","instructions","2021-07-19 22:07:53.768","","","","","",""
"card-selection-trial","15","125313","0.0-9.0-0.0","A1353","false","img/card_backs/set1/yellow.gif","img/card_backs/set1/green.gif","img/card_backs/set1/purple.gif","img/card_backs/set1/red.gif","img/card_backs/set2/gray.gif","img/card_backs/set2/pink.gif","img/card_backs/set2/orange.gif","img/card_backs/set2/blue.gif","""event"",""trial"",""time""
""fullscreenenter"",""1"",""5074""
","
","
","""event"",""trial"",""time""
""fullscreenenter"",""1"",""5074""
","
","","3935.0000000000146","","","","practice_card_selection","2021-07-19 22:07:59.725","img/practice_cards/backs/brown.gif","0","100","","",""
"casino-keyboard-response","16","131919","0.0-10.0-0.0","A1353","false","img/card_backs/set1/yellow.gif","img/card_backs/set1/green.gif","img/card_backs/set1/purple.gif","img/card_backs/set1/red.gif","img/card_backs/set2/gray.gif","img/card_backs/set2/pink.gif","img/card_backs/set2/orange.gif","img/card_backs/set2/blue.gif","""event"",""trial"",""time""
""fullscreenenter"",""1"",""5074""
","
","
","""event"",""trial"",""time""
""fullscreenenter"",""1"",""5074""
","
","","6605","Great! Now on the next screen, try pressing '6' to select the third deck.","54","","instructions","2021-07-19 22:08:06.331","","","","","",""
"card-selection-trial","17","134718","0.0-11.0-0.0","A1353","false","img/card_backs/set1/yellow.gif","img/card_backs/set1/green.gif","img/card_backs/set1/purple.gif","img/card_backs/set1/red.gif","img/card_backs/set2/gray.gif","img/card_backs/set2/pink.gif","img/card_backs/set2/orange.gif","img/card_backs/set2/blue.gif","""event"",""trial"",""time""
""fullscreenenter"",""1"",""5074""
","
","
","""event"",""trial"",""time""
""fullscreenenter"",""1"",""5074""
","
","","739.0000000000291","","","","practice_card_selection","2021-07-19 22:08:09.130","img/practice_cards/backs/brown.gif","2","-100","","",""
"casino-keyboard-response","18","139393","0.0-12.0-0.0","A1353","false","img/card_backs/set1/yellow.gif","img/card_backs/set1/green.gif","img/card_backs/set1/purple.gif","img/card_backs/set1/red.gif","img/card_backs/set2/gray.gif","img/card_backs/set2/pink.gif","img/card_backs/set2/orange.gif","img/card_backs/set2/blue.gif","""event"",""trial"",""time""
""fullscreenenter"",""1"",""5074""
","
","
","""event"",""trial"",""time""
""fullscreenenter"",""1"",""5074""
","
","","4675","Now on the next screen, try pressing '4' to select the second deck.","52","","instructions","2021-07-19 22:08:13.805","","","","","",""
"card-selection-trial","19","142472","0.0-13.0-0.0","A1353","false","img/card_backs/set1/yellow.gif","img/card_backs/set1/green.gif","img/card_backs/set1/purple.gif","img/card_backs/set1/red.gif","img/card_backs/set2/gray.gif","img/card_backs/set2/pink.gif","img/card_backs/set2/orange.gif","img/card_backs/set2/blue.gif","""event"",""trial"",""time""
""fullscreenenter"",""1"",""5074""
","
","
","""event"",""trial"",""time""
""fullscreenenter"",""1"",""5074""
","
","","1067","","","","practice_card_selection","2021-07-19 22:08:16.884","img/practice_cards/backs/dark_green.gif","1","200","","",""
"casino-keyboard-response","20","147355","0.0-14.0-0.0","A1353","false","img/card_backs/set1/yellow.gif","img/card_backs/set1/green.gif","img/card_backs/set1/purple.gif","img/card_backs/set1/red.gif","img/card_backs/set2/gray.gif","img/card_backs/set2/pink.gif","img/card_backs/set2/orange.gif","img/card_backs/set2/blue.gif","""event"",""trial"",""time""
""fullscreenenter"",""1"",""5074""
","
","
","""event"",""trial"",""time""
""fullscreenenter"",""1"",""5074""
","
","","4881","Finally, try pressing '8' to select the deck all the way on the right.","56","","instructions","2021-07-19 22:08:21.767","","","","","",""
"card-selection-trial","21","149837","0.0-15.0-0.0","A1353","false","img/card_backs/set1/yellow.gif","img/card_backs/set1/green.gif","img/card_backs/set1/purple.gif","img/card_backs/set1/red.gif","img/card_backs/set2/gray.gif","img/card_backs/set2/pink.gif","img/card_backs/set2/orange.gif","img/card_backs/set2/blue.gif","""event"",""trial"",""time""
""fullscreenenter"",""1"",""5074""
","
","
","""event"",""trial"",""time""
""fullscreenenter"",""1"",""5074""
","
","","472.0000000000291","","","","practice_card_selection","2021-07-19 22:08:24.249","img/practice_cards/backs/brown.gif","3","100","","",""
"casino-keyboard-response","22","153494","0.0-16.0-0.0","A1353","false","img/card_backs/set1/yellow.gif","img/card_backs/set1/green.gif","img/card_backs/set1/purple.gif","img/card_backs/set1/red.gif","img/card_backs/set2/gray.gif","img/card_backs/set2/pink.gif","img/card_backs/set2/orange.gif","img/card_backs/set2/blue.gif","""event"",""trial"",""time""
""fullscreenenter"",""1"",""5074""
","
","
","""event"",""trial"",""time""
""fullscreenenter"",""1"",""5074""
","
","","3656","Great! It seems like you are getting the hang of this.","80","","instructions","2021-07-19 22:08:27.906","","","","","",""
"casino-keyboard-response","23","160722","0.0-16.0-0.1","A1353","false","img/card_backs/set1/yellow.gif","img/card_backs/set1/green.gif","img/card_backs/set1/purple.gif","img/card_backs/set1/red.gif","img/card_backs/set2/gray.gif","img/card_backs/set2/pink.gif","img/card_backs/set2/orange.gif","img/card_backs/set2/blue.gif","""event"",""trial"",""time""
""fullscreenenter"",""1"",""5074""
","
","
","""event"",""trial"",""time""
""fullscreenenter"",""1"",""5074""
","
","","7227","You may have noticed that some cards will cause you to <b> win </b> tokens while other cards will cause you to <b> lose </b>  tokens.","70","","instructions","2021-07-19 22:08:35.135","","","","","",""
"casino-keyboard-response","24","169271","0.0-16.0-0.2","A1353","false","img/card_backs/set1/yellow.gif","img/card_backs/set1/green.gif","img/card_backs/set1/purple.gif","img/card_backs/set1/red.gif","img/card_backs/set2/gray.gif","img/card_backs/set2/pink.gif","img/card_backs/set2/orange.gif","img/card_backs/set2/blue.gif","""event"",""trial"",""time""
""fullscreenenter"",""1"",""5074""
","
","
","""event"",""trial"",""time""
""fullscreenenter"",""1"",""5074""
","
","","8547","Each deck has a mix of cards that will cause you to win and lose tokens. </br> However, the cards in each colored deck are different.","73","","instructions","2021-07-19 22:08:43.683","","","","","",""
"casino-keyboard-response","25","178177","0.0-16.0-0.3","A1353","false","img/card_backs/set1/yellow.gif","img/card_backs/set1/green.gif","img/card_backs/set1/purple.gif","img/card_backs/set1/red.gif","img/card_backs/set2/gray.gif","img/card_backs/set2/pink.gif","img/card_backs/set2/orange.gif","img/card_backs/set2/blue.gif","""event"",""trial"",""time""
""fullscreenenter"",""1"",""5074""
","
","
","""event"",""trial"",""time""
""fullscreenenter"",""1"",""5074""
","
","","8905","Some colored decks are luckier than others. </br> If you choose the lucky decks, you will earn more tokens than if you choose the unlucky decks.","69","","instructions","2021-07-19 22:08:52.589","","","","","",""
"casino-keyboard-response","26","185627","0.0-16.0-0.4","A1353","false","img/card_backs/set1/yellow.gif","img/card_backs/set1/green.gif","img/card_backs/set1/purple.gif","img/card_backs/set1/red.gif","img/card_backs/set2/gray.gif","img/card_backs/set2/pink.gif","img/card_backs/set2/orange.gif","img/card_backs/set2/blue.gif","""event"",""trial"",""time""
""fullscreenenter"",""1"",""5074""
","
","
","""event"",""trial"",""time""
""fullscreenenter"",""1"",""5074""
","
","","7450","You should try to figure out which decks are lucky. </br> Then, try to choose the lucky decks so you can win the most tokens.","87","","instructions","2021-07-19 22:09:00.039","","","","","",""
"casino-keyboard-response","27","198844","0.0-16.0-0.5","A1353","false","img/card_backs/set1/yellow.gif","img/card_backs/set1/green.gif","img/card_backs/set1/purple.gif","img/card_backs/set1/red.gif","img/card_backs/set2/gray.gif","img/card_backs/set2/pink.gif","img/card_backs/set2/orange.gif","img/card_backs/set2/blue.gif","""event"",""trial"",""time""
""fullscreenenter"",""1"",""5074""
","
","
","""event"",""trial"",""time""
""fullscreenenter"",""1"",""5074""
","
","","13216","To make it trickier, the casino dealer will switch the locations of the decks on every turn. </br> The color of the deck determines how lucky it is. The location does not matter.","88","","instructions","2021-07-19 22:09:13.256","","","","","",""
"casino-keyboard-response","28","218234","0.0-16.0-0.6","A1353","false","img/card_backs/set1/yellow.gif","img/card_backs/set1/green.gif","img/card_backs/set1/purple.gif","img/card_backs/set1/red.gif","img/card_backs/set2/gray.gif","img/card_backs/set2/pink.gif","img/card_backs/set2/orange.gif","img/card_backs/set2/blue.gif","""event"",""trial"",""time""
""fullscreenenter"",""1"",""5074""
","
","
","""event"",""trial"",""time""
""fullscreenenter"",""1"",""5074""
","
","","19388.99999999997","The mix of cards in each colored deck will stay the same throughout the game. </br> That means that a deck that is lucky early on will stay lucky.","79","","instructions","2021-07-19 22:09:32.646","","","","","",""
"casino-keyboard-response","29","226810","0.0-16.0-0.7","A1353","false","img/card_backs/set1/yellow.gif","img/card_backs/set1/green.gif","img/card_backs/set1/purple.gif","img/card_backs/set1/red.gif","img/card_backs/set2/gray.gif","img/card_backs/set2/pink.gif","img/card_backs/set2/orange.gif","img/card_backs/set2/blue.gif","""event"",""trial"",""time""
""fullscreenenter"",""1"",""5074""
","
","
","""event"",""trial"",""time""
""fullscreenenter"",""1"",""5074""
","
","","8576","Remember though, all the decks have a <b> mix </b> of both <b> good </b> and <b> bad </b> cards so it may take a couple of turns to figure out if a deck is lucky.","69","","instructions","2021-07-19 22:09:41.222","","","","","",""
"casino-keyboard-response","30","235337","0.0-16.0-0.8","A1353","false","img/card_backs/set1/yellow.gif","img/card_backs/set1/green.gif","img/card_backs/set1/purple.gif","img/card_backs/set1/red.gif","img/card_backs/set2/gray.gif","img/card_backs/set2/pink.gif","img/card_backs/set2/orange.gif","img/card_backs/set2/blue.gif","""event"",""trial"",""time""
""fullscreenenter"",""1"",""5074""
","
","
","""event"",""trial"",""time""
""fullscreenenter"",""1"",""5074""
","
","","8526","At the end of the game, you will be paid bonus money based on how many tokens you win. </br> If you win more tokens, you will earn more money!","72","","instructions","2021-07-19 22:09:49.749","","","","","",""
"casino-keyboard-response","31","245803","0.0-16.0-0.9","A1353","false","img/card_backs/set1/yellow.gif","img/card_backs/set1/green.gif","img/card_backs/set1/purple.gif","img/card_backs/set1/red.gif","img/card_backs/set2/gray.gif","img/card_backs/set2/pink.gif","img/card_backs/set2/orange.gif","img/card_backs/set2/blue.gif","""event"",""trial"",""time""
""fullscreenenter"",""1"",""5074""
","
","
","""event"",""trial"",""time""
""fullscreenenter"",""1"",""5074""
","
","","10464.99999999997","You will never <b> lose </b> money. </br> If you end up with fewer than 0 tokens, you will earn $0 of bonus money, but you will still be paid for playing the game.","83","","instructions","2021-07-19 22:10:00.216","","","","","",""
"casino-keyboard-response","32","250234","0.0-16.0-0.10","A1353","false","img/card_backs/set1/yellow.gif","img/card_backs/set1/green.gif","img/card_backs/set1/purple.gif","img/card_backs/set1/red.gif","img/card_backs/set2/gray.gif","img/card_backs/set2/pink.gif","img/card_backs/set2/orange.gif","img/card_backs/set2/blue.gif","""event"",""trial"",""time""
""fullscreenenter"",""1"",""5074""
","
","
","""event"",""trial"",""time""
""fullscreenenter"",""1"",""5074""
","
","","4429","You will have 10 seconds to make each choice.","82","","instructions","2021-07-19 22:10:04.646","","","","","",""
"casino-keyboard-response","33","258568","0.0-16.0-0.11","A1353","false","img/card_backs/set1/yellow.gif","img/card_backs/set1/green.gif","img/card_backs/set1/purple.gif","img/card_backs/set1/red.gif","img/card_backs/set2/gray.gif","img/card_backs/set2/pink.gif","img/card_backs/set2/orange.gif","img/card_backs/set2/blue.gif","""event"",""trial"",""time""
""fullscreenenter"",""1"",""5074""
","
","
","""event"",""trial"",""time""
""fullscreenenter"",""1"",""5074""
","
","","8333","Before you play the game for real, you will play with practice decks. </br> The tokens you earn during practice won't count toward your total.","86","","instructions","2021-07-19 22:10:12.980","","","","","",""
"casino-keyboard-response","34","270316","0.0-16.0-0.12","A1353","false","img/card_backs/set1/yellow.gif","img/card_backs/set1/green.gif","img/card_backs/set1/purple.gif","img/card_backs/set1/red.gif","img/card_backs/set2/gray.gif","img/card_backs/set2/pink.gif","img/card_backs/set2/orange.gif","img/card_backs/set2/blue.gif","""event"",""trial"",""time""
""fullscreenenter"",""1"",""5074""
","
","
","""event"",""trial"",""time""
""fullscreenenter"",""1"",""5074""
","
","","11748.000000000058","Ready? Remember, use the '2', '4', '6', and '8' keys to select the decks. </br> Put your fingers on those keys now and then press '2' to begin.","50","","instructions","2021-07-19 22:10:24.728","","","","","",""
"casino-fixation","35","270818","0.0-17.0-0.0","A1353","false","img/card_backs/set1/yellow.gif","img/card_backs/set1/green.gif","img/card_backs/set1/purple.gif","img/card_backs/set1/red.gif","img/card_backs/set2/gray.gif","img/card_backs/set2/pink.gif","img/card_backs/set2/orange.gif","img/card_backs/set2/blue.gif","""event"",""trial"",""time""
""fullscreenenter"",""1"",""5074""
","
","
","""event"",""trial"",""time""
""fullscreenenter"",""1"",""5074""
","
","","null","","null","","fixation","2021-07-19 22:10:25.230","","","","","",""
"card-selection-trial","36","276551","0.0-17.0-1.0","A1353","false","img/card_backs/set1/yellow.gif","img/card_backs/set1/green.gif","img/card_backs/set1/purple.gif","img/card_backs/set1/red.gif","img/card_backs/set2/gray.gif","img/card_backs/set2/pink.gif","img/card_backs/set2/orange.gif","img/card_backs/set2/blue.gif","""event"",""trial"",""time""
""fullscreenenter"",""1"",""5074""
","
","
","""event"",""trial"",""time""
""fullscreenenter"",""1"",""5074""
","
","","3729","","","","practice","2021-07-19 22:10:30.964","img/practice_cards/backs/black.gif","1","-100","0","",""
"casino-fixation","37","277054","0.0-17.0-0.1","A1353","false","img/card_backs/set1/yellow.gif","img/card_backs/set1/green.gif","img/card_backs/set1/purple.gif","img/card_backs/set1/red.gif","img/card_backs/set2/gray.gif","img/card_backs/set2/pink.gif","img/card_backs/set2/orange.gif","img/card_backs/set2/blue.gif","""event"",""trial"",""time""
""fullscreenenter"",""1"",""5074""
","
","
","""event"",""trial"",""time""
""fullscreenenter"",""1"",""5074""
","
","","null","","null","","fixation","2021-07-19 22:10:31.466","","","","","",""
"card-selection-trial","38","282636","0.0-17.0-1.1","A1353","false","img/card_backs/set1/yellow.gif","img/card_backs/set1/green.gif","img/card_backs/set1/purple.gif","img/card_backs/set1/red.gif","img/card_backs/set2/gray.gif","img/card_backs/set2/pink.gif","img/card_backs/set2/orange.gif","img/card_backs/set2/blue.gif","""event"",""trial"",""time""
""fullscreenenter"",""1"",""5074""
","
","
","""event"",""trial"",""time""
""fullscreenenter"",""1"",""5074""
","
","","3579","","","","practice","2021-07-19 22:10:37.049","img/practice_cards/backs/dark_green.gif","1","200","0","",""
"casino-fixation","39","283139","0.0-17.0-0.2","A1353","false","img/card_backs/set1/yellow.gif","img/card_backs/set1/green.gif","img/card_backs/set1/purple.gif","img/card_backs/set1/red.gif","img/card_backs/set2/gray.gif","img/card_backs/set2/pink.gif","img/card_backs/set2/orange.gif","img/card_backs/set2/blue.gif","""event"",""trial"",""time""
""fullscreenenter"",""1"",""5074""
","
","
","""event"",""trial"",""time""
""fullscreenenter"",""1"",""5074""
","
","","null","","null","","fixation","2021-07-19 22:10:37.551","","","","","",""
"card-selection-trial","40","288593","0.0-17.0-1.2","A1353","false","img/card_backs/set1/yellow.gif","img/card_backs/set1/green.gif","img/card_backs/set1/purple.gif","img/card_backs/set1/red.gif","img/card_backs/set2/gray.gif","img/card_backs/set2/pink.gif","img/card_backs/set2/orange.gif","img/card_backs/set2/blue.gif","""event"",""trial"",""time""
""fullscreenenter"",""1"",""5074""
","
","
","""event"",""trial"",""time""
""fullscreenenter"",""1"",""5074""
","
","","3450","","","","practice","2021-07-19 22:10:43.005","img/practice_cards/backs/dark_green.gif","0","200","0","",""
"casino-fixation","41","289095","0.0-17.0-0.3","A1353","false","img/card_backs/set1/yellow.gif","img/card_backs/set1/green.gif","img/card_backs/set1/purple.gif","img/card_backs/set1/red.gif","img/card_backs/set2/gray.gif","img/card_backs/set2/pink.gif","img/card_backs/set2/orange.gif","img/card_backs/set2/blue.gif","""event"",""trial"",""time""
""fullscreenenter"",""1"",""5074""
","
","
","""event"",""trial"",""time""
""fullscreenenter"",""1"",""5074""
","
","","null","","null","","fixation","2021-07-19 22:10:43.507","","","","","",""
"card-selection-trial","42","294108","0.0-17.0-1.3","A1353","false","img/card_backs/set1/yellow.gif","img/card_backs/set1/green.gif","img/card_backs/set1/purple.gif","img/card_backs/set1/red.gif","img/card_backs/set2/gray.gif","img/card_backs/set2/pink.gif","img/card_backs/set2/orange.gif","img/card_backs/set2/blue.gif","""event"",""trial"",""time""
""fullscreenenter"",""1"",""5074""
","
","
","""event"",""trial"",""time""
""fullscreenenter"",""1"",""5074""
","
","","3009","","","","practice","2021-07-19 22:10:48.520","img/practice_cards/backs/dark_green.gif","2","-200","0","",""
"casino-fixation","43","294609","0.0-17.0-0.4","A1353","false","img/card_backs/set1/yellow.gif","img/card_backs/set1/green.gif","img/card_backs/set1/purple.gif","img/card_backs/set1/red.gif","img/card_backs/set2/gray.gif","img/card_backs/set2/pink.gif","img/card_backs/set2/orange.gif","img/card_backs/set2/blue.gif","""event"",""trial"",""time""
""fullscreenenter"",""1"",""5074""
","
","
","""event"",""trial"",""time""
""fullscreenenter"",""1"",""5074""
","
","","null","","null","","fixation","2021-07-19 22:10:49.021","","","","","",""
"card-selection-trial","44","297561","0.0-17.0-1.4","A1353","false","img/card_backs/set1/yellow.gif","img/card_backs/set1/green.gif","img/card_backs/set1/purple.gif","img/card_backs/set1/red.gif","img/card_backs/set2/gray.gif","img/card_backs/set2/pink.gif","img/card_backs/set2/orange.gif","img/card_backs/set2/blue.gif","""event"",""trial"",""time""
""fullscreenenter"",""1"",""5074""
","
","
","""event"",""trial"",""time""
""fullscreenenter"",""1"",""5074""
","
","","948","","","","practice","2021-07-19 22:10:51.973","img/practice_cards/backs/dark_blue.gif","3","200","0","",""
"casino-fixation","45","298062","0.0-17.0-0.5","A1353","false","img/card_backs/set1/yellow.gif","img/card_backs/set1/green.gif","img/card_backs/set1/purple.gif","img/card_backs/set1/red.gif","img/card_backs/set2/gray.gif","img/card_backs/set2/pink.gif","img/card_backs/set2/orange.gif","img/card_backs/set2/blue.gif","""event"",""trial"",""time""
""fullscreenenter"",""1"",""5074""
","
","
","""event"",""trial"",""time""
""fullscreenenter"",""1"",""5074""
","
","","null","","null","","fixation","2021-07-19 22:10:52.474","","","","","",""
"card-selection-trial","46","300884","0.0-17.0-1.5","A1353","false","img/card_backs/set1/yellow.gif","img/card_backs/set1/green.gif","img/card_backs/set1/purple.gif","img/card_backs/set1/red.gif","img/card_backs/set2/gray.gif","img/card_backs/set2/pink.gif","img/card_backs/set2/orange.gif","img/card_backs/set2/blue.gif","""event"",""trial"",""time""
""fullscreenenter"",""1"",""5074""
","
","
","""event"",""trial"",""time""
""fullscreenenter"",""1"",""5074""
","
","","818","","","","practice","2021-07-19 22:10:55.296","img/practice_cards/backs/dark_blue.gif","3","200","0","",""
"casino-fixation","47","301386","0.0-17.0-0.6","A1353","false","img/card_backs/set1/yellow.gif","img/card_backs/set1/green.gif","img/card_backs/set1/purple.gif","img/card_backs/set1/red.gif","img/card_backs/set2/gray.gif","img/card_backs/set2/pink.gif","img/card_backs/set2/orange.gif","img/card_backs/set2/blue.gif","""event"",""trial"",""time""
""fullscreenenter"",""1"",""5074""
","
","
","""event"",""trial"",""time""
""fullscreenenter"",""1"",""5074""
","
","","null","","null","","fixation","2021-07-19 22:10:55.798","","","","","",""
"card-selection-trial","48","304502","0.0-17.0-1.6","A1353","false","img/card_backs/set1/yellow.gif","img/card_backs/set1/green.gif","img/card_backs/set1/purple.gif","img/card_backs/set1/red.gif","img/card_backs/set2/gray.gif","img/card_backs/set2/pink.gif","img/card_backs/set2/orange.gif","img/card_backs/set2/blue.gif","""event"",""trial"",""time""
""fullscreenenter"",""1"",""5074""
","
","
","""event"",""trial"",""time""
""fullscreenenter"",""1"",""5074""
","
","","1111.0000000000582","","","","practice","2021-07-19 22:10:58.914","img/practice_cards/backs/dark_green.gif","2","200","0","",""
"casino-fixation","49","305003","0.0-17.0-0.7","A1353","false","img/card_backs/set1/yellow.gif","img/card_backs/set1/green.gif","img/card_backs/set1/purple.gif","img/card_backs/set1/red.gif","img/card_backs/set2/gray.gif","img/card_backs/set2/pink.gif","img/card_backs/set2/orange.gif","img/card_backs/set2/blue.gif","""event"",""trial"",""time""
""fullscreenenter"",""1"",""5074""
","
","
","""event"",""trial"",""time""
""fullscreenenter"",""1"",""5074""
","
","","null","","null","","fixation","2021-07-19 22:10:59.415","","","","","",""
"card-selection-trial","50","309321","0.0-17.0-1.7","A1353","false","img/card_backs/set1/yellow.gif","img/card_backs/set1/green.gif","img/card_backs/set1/purple.gif","img/card_backs/set1/red.gif","img/card_backs/set2/gray.gif","img/card_backs/set2/pink.gif","img/card_backs/set2/orange.gif","img/card_backs/set2/blue.gif","""event"",""trial"",""time""
""fullscreenenter"",""1"",""5074""
","
","
","""event"",""trial"",""time""
""fullscreenenter"",""1"",""5074""
","
","","2313","","","","practice","2021-07-19 22:11:03.733","img/practice_cards/backs/dark_blue.gif","2","-200","0","",""
"casino-fixation","51","309822","0.0-17.0-0.8","A1353","false","img/card_backs/set1/yellow.gif","img/card_backs/set1/green.gif","img/card_backs/set1/purple.gif","img/card_backs/set1/red.gif","img/card_backs/set2/gray.gif","img/card_backs/set2/pink.gif","img/card_backs/set2/orange.gif","img/card_backs/set2/blue.gif","""event"",""trial"",""time""
""fullscreenenter"",""1"",""5074""
","
","
","""event"",""trial"",""time""
""fullscreenenter"",""1"",""5074""
","
","","null","","null","","fixation","2021-07-19 22:11:04.234","","","","","",""
"card-selection-trial","52","312544","0.0-17.0-1.8","A1353","false","img/card_backs/set1/yellow.gif","img/card_backs/set1/green.gif","img/card_backs/set1/purple.gif","img/card_backs/set1/red.gif","img/card_backs/set2/gray.gif","img/card_backs/set2/pink.gif","img/card_backs/set2/orange.gif","img/card_backs/set2/blue.gif","""event"",""trial"",""time""
""fullscreenenter"",""1"",""5074""
","
","
","""event"",""trial"",""time""
""fullscreenenter"",""1"",""5074""
","
","","718","","","","practice","2021-07-19 22:11:06.956","img/practice_cards/backs/brown.gif","3","100","0","",""
"casino-fixation","53","313045","0.0-17.0-0.9","A1353","false","img/card_backs/set1/yellow.gif","img/card_backs/set1/green.gif","img/card_backs/set1/purple.gif","img/card_backs/set1/red.gif","img/card_backs/set2/gray.gif","img/card_backs/set2/pink.gif","img/card_backs/set2/orange.gif","img/card_backs/set2/blue.gif","""event"",""trial"",""time""
""fullscreenenter"",""1"",""5074""
","
","
","""event"",""trial"",""time""
""fullscreenenter"",""1"",""5074""
","
","","null","","null","","fixation","2021-07-19 22:11:07.458","","","","","",""
"card-selection-trial","54","315727","0.0-17.0-1.9","A1353","false","img/card_backs/set1/yellow.gif","img/card_backs/set1/green.gif","img/card_backs/set1/purple.gif","img/card_backs/set1/red.gif","img/card_backs/set2/gray.gif","img/card_backs/set2/pink.gif","img/card_backs/set2/orange.gif","img/card_backs/set2/blue.gif","""event"",""trial"",""time""
""fullscreenenter"",""1"",""5074""
","
","
","""event"",""trial"",""time""
""fullscreenenter"",""1"",""5074""
","
","","678","","","","practice","2021-07-19 22:11:10.139","img/practice_cards/backs/brown.gif","3","-100","0","",""
"casino-keyboard-response","55","320025","0.0-18.0","A1353","false","img/card_backs/set1/yellow.gif","img/card_backs/set1/green.gif","img/card_backs/set1/purple.gif","img/card_backs/set1/red.gif","img/card_backs/set2/gray.gif","img/card_backs/set2/pink.gif","img/card_backs/set2/orange.gif","img/card_backs/set2/blue.gif","""event"",""trial"",""time""
""fullscreenenter"",""1"",""5074""
","
","
","""event"",""trial"",""time""
""fullscreenenter"",""1"",""5074""
","
","","4296","You earned 500 tokens during the practice round!","82","","","2021-07-19 22:11:14.438","","","","","",""
"casino-keyboard-response","56","324225","0.0-19.0-0.0","A1353","false","img/card_backs/set1/yellow.gif","img/card_backs/set1/green.gif","img/card_backs/set1/purple.gif","img/card_backs/set1/red.gif","img/card_backs/set2/gray.gif","img/card_backs/set2/pink.gif","img/card_backs/set2/orange.gif","img/card_backs/set2/blue.gif","""event"",""trial"",""time""
""fullscreenenter"",""1"",""5074""
","
","
","""event"",""trial"",""time""
""fullscreenenter"",""1"",""5074""
","
","","4197","Nice job! You are almost ready to play the real game.","86","","instructions","2021-07-19 22:11:18.637","","","","","",""
"casino-keyboard-response","57","330727","0.0-19.0-0.1","A1353","false","img/card_backs/set1/yellow.gif","img/card_backs/set1/green.gif","img/card_backs/set1/purple.gif","img/card_backs/set1/red.gif","img/card_backs/set2/gray.gif","img/card_backs/set2/pink.gif","img/card_backs/set2/orange.gif","img/card_backs/set2/blue.gif","""event"",""trial"",""time""
""fullscreenenter"",""1"",""5074""
","
","
","""event"",""trial"",""time""
""fullscreenenter"",""1"",""5074""
","
","","6500","You will play two rounds of the real game. In each round, you will pick 100 cards in total.","73","","instructions","2021-07-19 22:11:25.139","","","","","",""
"casino-keyboard-response","58","335048","0.0-19.0-0.2","A1353","false","img/card_backs/set1/yellow.gif","img/card_backs/set1/green.gif","img/card_backs/set1/purple.gif","img/card_backs/set1/red.gif","img/card_backs/set2/gray.gif","img/card_backs/set2/pink.gif","img/card_backs/set2/orange.gif","img/card_backs/set2/blue.gif","""event"",""trial"",""time""
""fullscreenenter"",""1"",""5074""
","
","
","""event"",""trial"",""time""
""fullscreenenter"",""1"",""5074""
","
","","4319.000000000058","We are now going to ask you some questions about how the game works.","66","","instructions","2021-07-19 22:11:29.460","","","","","",""
"casino-keyboard-response","59","341059","0.0-19.0-0.3","A1353","false","img/card_backs/set1/yellow.gif","img/card_backs/set1/green.gif","img/card_backs/set1/purple.gif","img/card_backs/set1/red.gif","img/card_backs/set2/gray.gif","img/card_backs/set2/pink.gif","img/card_backs/set2/orange.gif","img/card_backs/set2/blue.gif","""event"",""trial"",""time""
""fullscreenenter"",""1"",""5074""
","
","
","""event"",""trial"",""time""
""fullscreenenter"",""1"",""5074""
","
","","6010","Answer carefully. You will not be able to begin the game until you answer them correctly.","67","","instructions","2021-07-19 22:11:35.471","","","","","",""
"casino-comp_q","60","348222","0.0-20.0-0.0","A1353","false","img/card_backs/set1/yellow.gif","img/card_backs/set1/green.gif","img/card_backs/set1/purple.gif","img/card_backs/set1/red.gif","img/card_backs/set2/gray.gif","img/card_backs/set2/pink.gif","img/card_backs/set2/orange.gif","img/card_backs/set2/blue.gif","""event"",""trial"",""time""
""fullscreenenter"",""1"",""5074""
","
","
","""event"",""trial"",""time""
""fullscreenenter"",""1"",""5074""
","
","","7162","True or False: All the decks have some cards that cause you to win tokens and some cards that cause you to lose tokens.","84","","","2021-07-19 22:11:42.635","","","","","",""
"casino-keyboard-response","61","354001","0.0-20.0-1.0","A1353","false","img/card_backs/set1/yellow.gif","img/card_backs/set1/green.gif","img/card_backs/set1/purple.gif","img/card_backs/set1/red.gif","img/card_backs/set2/gray.gif","img/card_backs/set2/pink.gif","img/card_backs/set2/orange.gif","img/card_backs/set2/blue.gif","""event"",""trial"",""time""
""fullscreenenter"",""1"",""5074""
","
","
","""event"",""trial"",""time""
""fullscreenenter"",""1"",""5074""
","
","","5777","True is correct! All the decks have a mix of winning and losing cards.","77","","","2021-07-19 22:11:48.413","","","","","true",""
"casino-comp_q","62","358832","0.0-21.0-0.0","A1353","false","img/card_backs/set1/yellow.gif","img/card_backs/set1/green.gif","img/card_backs/set1/purple.gif","img/card_backs/set1/red.gif","img/card_backs/set2/gray.gif","img/card_backs/set2/pink.gif","img/card_backs/set2/orange.gif","img/card_backs/set2/blue.gif","""event"",""trial"",""time""
""fullscreenenter"",""1"",""5074""
","
","
","""event"",""trial"",""time""
""fullscreenenter"",""1"",""5074""
","
","","4829","True or False: You will have as much time as you want to make your response.","70","","","2021-07-19 22:11:53.244","","","","","",""
"casino-keyboard-response","63","361662","0.0-21.0-1.0","A1353","false","img/card_backs/set1/yellow.gif","img/card_backs/set1/green.gif","img/card_backs/set1/purple.gif","img/card_backs/set1/red.gif","img/card_backs/set2/gray.gif","img/card_backs/set2/pink.gif","img/card_backs/set2/orange.gif","img/card_backs/set2/blue.gif","""event"",""trial"",""time""
""fullscreenenter"",""1"",""5074""
","
","
","""event"",""trial"",""time""
""fullscreenenter"",""1"",""5074""
","
","","2829.999999999942","False is correct! You will only have 10 seconds to make each choice.","75","","","2021-07-19 22:11:56.075","","","","","true",""
"casino-comp_q","64","365830","0.0-22.0-0.0","A1353","false","img/card_backs/set1/yellow.gif","img/card_backs/set1/green.gif","img/card_backs/set1/purple.gif","img/card_backs/set1/red.gif","img/card_backs/set2/gray.gif","img/card_backs/set2/pink.gif","img/card_backs/set2/orange.gif","img/card_backs/set2/blue.gif","""event"",""trial"",""time""
""fullscreenenter"",""1"",""5074""
","
","
","""event"",""trial"",""time""
""fullscreenenter"",""1"",""5074""
","
","","4166","True or False: The location of the deck determines how lucky it is.","70","","","2021-07-19 22:12:00.242","","","","","",""
"casino-keyboard-response","65","371089","0.0-22.0-1.0","A1353","false","img/card_backs/set1/yellow.gif","img/card_backs/set1/green.gif","img/card_backs/set1/purple.gif","img/card_backs/set1/red.gif","img/card_backs/set2/gray.gif","img/card_backs/set2/pink.gif","img/card_backs/set2/orange.gif","img/card_backs/set2/blue.gif","""event"",""trial"",""time""
""fullscreenenter"",""1"",""5074""
","
","
","""event"",""trial"",""time""
""fullscreenenter"",""1"",""5074""
","
","","5258","False is correct! The <i>color</i>  of the deck determines how lucky or unlucky it is.","68","","","2021-07-19 22:12:05.501","","","","","true",""
"casino-keyboard-response","66","375178","0.0-23.0-0.0","A1353","false","img/card_backs/set1/yellow.gif","img/card_backs/set1/green.gif","img/card_backs/set1/purple.gif","img/card_backs/set1/red.gif","img/card_backs/set2/gray.gif","img/card_backs/set2/pink.gif","img/card_backs/set2/orange.gif","img/card_backs/set2/blue.gif","""event"",""trial"",""time""
""fullscreenenter"",""1"",""5074""
","
","
","""event"",""trial"",""time""
""fullscreenenter"",""1"",""5074""
","
","","4088","Great job! Now it's time to start the real game.","82","","instructions","2021-07-19 22:12:09.590","","","","","",""
"casino-keyboard-response","67","380263","0.0-23.0-0.1","A1353","false","img/card_backs/set1/yellow.gif","img/card_backs/set1/green.gif","img/card_backs/set1/purple.gif","img/card_backs/set1/red.gif","img/card_backs/set2/gray.gif","img/card_backs/set2/pink.gif","img/card_backs/set2/orange.gif","img/card_backs/set2/blue.gif","""event"",""trial"",""time""
""fullscreenenter"",""1"",""5074""
","
","
","""event"",""trial"",""time""
""fullscreenenter"",""1"",""5074""
","
","","5084","Before we start, we're going to head into a new room of the casino.","86","","instructions","2021-07-19 22:12:14.675","","","","","",""
"casino-keyboard-response","68","386374","0.0-24.0-0.0","A1353","false","img/card_backs/set1/yellow.gif","img/card_backs/set1/green.gif","img/card_backs/set1/purple.gif","img/card_backs/set1/red.gif","img/card_backs/set2/gray.gif","img/card_backs/set2/pink.gif","img/card_backs/set2/orange.gif","img/card_backs/set2/blue.gif","""event"",""trial"",""time""
""fullscreenenter"",""1"",""5074""
","
","
","""event"",""trial"",""time""
""fullscreenenter"",""1"",""5074""
","
","","6110","Here we are! The real game will use different cards, but the rules will be the same.","71","","instructions","2021-07-19 22:12:20.786","","","","","",""
"casino-keyboard-response","69","389101","0.0-24.0-0.1","A1353","false","img/card_backs/set1/yellow.gif","img/card_backs/set1/green.gif","img/card_backs/set1/purple.gif","img/card_backs/set1/red.gif","img/card_backs/set2/gray.gif","img/card_backs/set2/pink.gif","img/card_backs/set2/orange.gif","img/card_backs/set2/blue.gif","""event"",""trial"",""time""
""fullscreenenter"",""1"",""5074""
","
","
","""event"",""trial"",""time""
""fullscreenenter"",""1"",""5074""
","
","","2726","Ready? Put your fingers over the '2', '4', 6', and '8' keys so you are ready to play the game. </br> Then press 2 to start.","50","","instructions","2021-07-19 22:12:23.513","","","","","",""
"casino-fixation","70","389602","0.0-25.0-0.0","A1353","false","img/card_backs/set1/yellow.gif","img/card_backs/set1/green.gif","img/card_backs/set1/purple.gif","img/card_backs/set1/red.gif","img/card_backs/set2/gray.gif","img/card_backs/set2/pink.gif","img/card_backs/set2/orange.gif","img/card_backs/set2/blue.gif","""event"",""trial"",""time""
""fullscreenenter"",""1"",""5074""
","
","
","""event"",""trial"",""time""
""fullscreenenter"",""1"",""5074""
","
","","null","","null","","fixation","2021-07-19 22:12:24.014","","","","","",""
"card-selection-trial","71","393455","0.0-25.0-1.0","A1353","false","img/card_backs/set1/yellow.gif","img/card_backs/set1/green.gif","img/card_backs/set1/purple.gif","img/card_backs/set1/red.gif","img/card_backs/set2/gray.gif","img/card_backs/set2/pink.gif","img/card_backs/set2/orange.gif","img/card_backs/set2/blue.gif","""event"",""trial"",""time""
""fullscreenenter"",""1"",""5074""
","
","
","""event"",""trial"",""time""
""fullscreenenter"",""1"",""5074""
","
","","1848","","","","real_trial","2021-07-19 22:12:27.867","img/card_backs/set1/yellow.gif","1","180","1","",""
"casino-fixation","72","393956","0.0-25.0-0.1","A1353","false","img/card_backs/set1/yellow.gif","img/card_backs/set1/green.gif","img/card_backs/set1/purple.gif","img/card_backs/set1/red.gif","img/card_backs/set2/gray.gif","img/card_backs/set2/pink.gif","img/card_backs/set2/orange.gif","img/card_backs/set2/blue.gif","""event"",""trial"",""time""
""fullscreenenter"",""1"",""5074""
","
","
","""event"",""trial"",""time""
""fullscreenenter"",""1"",""5074""
","
","","null","","null","","fixation","2021-07-19 22:12:28.369","","","","","",""
"card-selection-trial","73","396859","0.0-25.0-1.1","A1353","false","img/card_backs/set1/yellow.gif","img/card_backs/set1/green.gif","img/card_backs/set1/purple.gif","img/card_backs/set1/red.gif","img/card_backs/set2/gray.gif","img/card_backs/set2/pink.gif","img/card_backs/set2/orange.gif","img/card_backs/set2/blue.gif","""event"",""trial"",""time""
""fullscreenenter"",""1"",""5074""
","
","
","""event"",""trial"",""time""
""fullscreenenter"",""1"",""5074""
","
","","899","","","","real_trial","2021-07-19 22:12:31.271","img/card_backs/set1/yellow.gif","2","190","1","",""
"casino-fixation","74","397361","0.0-25.0-0.2","A1353","false","img/card_backs/set1/yellow.gif","img/card_backs/set1/green.gif","img/card_backs/set1/purple.gif","img/card_backs/set1/red.gif","img/card_backs/set2/gray.gif","img/card_backs/set2/pink.gif","img/card_backs/set2/orange.gif","img/card_backs/set2/blue.gif","""event"",""trial"",""time""
""fullscreenenter"",""1"",""5074""
","
","
","""event"",""trial"",""time""
""fullscreenenter"",""1"",""5074""
","
","","null","","null","","fixation","2021-07-19 22:12:31.773","","","","","",""
"card-selection-trial","75","401767","0.0-25.0-1.2","A1353","false","img/card_backs/set1/yellow.gif","img/card_backs/set1/green.gif","img/card_backs/set1/purple.gif","img/card_backs/set1/red.gif","img/card_backs/set2/gray.gif","img/card_backs/set2/pink.gif","img/card_backs/set2/orange.gif","img/card_backs/set2/blue.gif","""event"",""trial"",""time""
""fullscreenenter"",""1"",""5074""
","
","
","""event"",""trial"",""time""
""fullscreenenter"",""1"",""5074""
","
","","2402","","","","real_trial","2021-07-19 22:12:36.179","img/card_backs/set1/yellow.gif","1","-250","1","",""
"casino-fixation","76","402268","0.0-25.0-0.3","A1353","false","img/card_backs/set1/yellow.gif","img/card_backs/set1/green.gif","img/card_backs/set1/purple.gif","img/card_backs/set1/red.gif","img/card_backs/set2/gray.gif","img/card_backs/set2/pink.gif","img/card_backs/set2/orange.gif","img/card_backs/set2/blue.gif","""event"",""trial"",""time""
""fullscreenenter"",""1"",""5074""
","
","
","""event"",""trial"",""time""
""fullscreenenter"",""1"",""5074""
","
","","null","","null","","fixation","2021-07-19 22:12:36.680","","","","","",""
"card-selection-trial","77","405191","0.0-25.0-1.3","A1353","false","img/card_backs/set1/yellow.gif","img/card_backs/set1/green.gif","img/card_backs/set1/purple.gif","img/card_backs/set1/red.gif","img/card_backs/set2/gray.gif","img/card_backs/set2/pink.gif","img/card_backs/set2/orange.gif","img/card_backs/set2/blue.gif","""event"",""trial"",""time""
""fullscreenenter"",""1"",""5074""
","
","
","""event"",""trial"",""time""
""fullscreenenter"",""1"",""5074""
","
","","920","","","","real_trial","2021-07-19 22:12:39.603","img/card_backs/set1/red.gif","3","-60","1","",""
"casino-fixation","78","405692","0.0-25.0-0.4","A1353","false","img/card_backs/set1/yellow.gif","img/card_backs/set1/green.gif","img/card_backs/set1/purple.gif","img/card_backs/set1/red.gif","img/card_backs/set2/gray.gif","img/card_backs/set2/pink.gif","img/card_backs/set2/orange.gif","img/card_backs/set2/blue.gif","""event"",""trial"",""time""
""fullscreenenter"",""1"",""5074""
","
","
","""event"",""trial"",""time""
""fullscreenenter"",""1"",""5074""
","
","","null","","null","","fixation","2021-07-19 22:12:40.104","","","","","",""
"card-selection-trial","79","410247","0.0-25.0-1.4","A1353","false","img/card_backs/set1/yellow.gif","img/card_backs/set1/green.gif","img/card_backs/set1/purple.gif","img/card_backs/set1/red.gif","img/card_backs/set2/gray.gif","img/card_backs/set2/pink.gif","img/card_backs/set2/orange.gif","img/card_backs/set2/blue.gif","""event"",""trial"",""time""
""fullscreenenter"",""1"",""5074""
","
","
","""event"",""trial"",""time""
""fullscreenenter"",""1"",""5074""
","
","","2551.999999999942","","","","real_trial","2021-07-19 22:12:44.659","img/card_backs/set1/purple.gif","2","-50","1","",""
"casino-fixation","80","410749","0.0-25.0-0.5","A1353","false","img/card_backs/set1/yellow.gif","img/card_backs/set1/green.gif","img/card_backs/set1/purple.gif","img/card_backs/set1/red.gif","img/card_backs/set2/gray.gif","img/card_backs/set2/pink.gif","img/card_backs/set2/orange.gif","img/card_backs/set2/blue.gif","""event"",""trial"",""time""
""fullscreenenter"",""1"",""5074""
","
","
","""event"",""trial"",""time""
""fullscreenenter"",""1"",""5074""
","
","","null","","null","","fixation","2021-07-19 22:12:45.161","","","","","",""
"card-selection-trial","81","413868","0.0-25.0-1.5","A1353","false","img/card_backs/set1/yellow.gif","img/card_backs/set1/green.gif","img/card_backs/set1/purple.gif","img/card_backs/set1/red.gif","img/card_backs/set2/gray.gif","img/card_backs/set2/pink.gif","img/card_backs/set2/orange.gif","img/card_backs/set2/blue.gif","""event"",""trial"",""time""
""fullscreenenter"",""1"",""5074""
","
","
","""event"",""trial"",""time""
""fullscreenenter"",""1"",""5074""
","
","","1114","","","","real_trial","2021-07-19 22:12:48.280","img/card_backs/set1/purple.gif","3","-50","1","",""
"casino-fixation","82","414369","0.0-25.0-0.6","A1353","false","img/card_backs/set1/yellow.gif","img/card_backs/set1/green.gif","img/card_backs/set1/purple.gif","img/card_backs/set1/red.gif","img/card_backs/set2/gray.gif","img/card_backs/set2/pink.gif","img/card_backs/set2/orange.gif","img/card_backs/set2/blue.gif","""event"",""trial"",""time""
""fullscreenenter"",""1"",""5074""
","
","
","""event"",""trial"",""time""
""fullscreenenter"",""1"",""5074""
","
","","null","","null","","fixation","2021-07-19 22:12:48.781","","","","","",""
"card-selection-trial","83","420374","0.0-25.0-1.6","A1353","false","img/card_backs/set1/yellow.gif","img/card_backs/set1/green.gif","img/card_backs/set1/purple.gif","img/card_backs/set1/red.gif","img/card_backs/set2/gray.gif","img/card_backs/set2/pink.gif","img/card_backs/set2/orange.gif","img/card_backs/set2/blue.gif","""event"",""trial"",""time""
""fullscreenenter"",""1"",""5074""
","
","
","""event"",""trial"",""time""
""fullscreenenter"",""1"",""5074""
","
","","4002","","","","real_trial","2021-07-19 22:12:54.786","img/card_backs/set1/green.gif","3","-240","1","",""
"casino-fixation","84","420877","0.0-25.0-0.7","A1353","false","img/card_backs/set1/yellow.gif","img/card_backs/set1/green.gif","img/card_backs/set1/purple.gif","img/card_backs/set1/red.gif","img/card_backs/set2/gray.gif","img/card_backs/set2/pink.gif","img/card_backs/set2/orange.gif","img/card_backs/set2/blue.gif","""event"",""trial"",""time""
""fullscreenenter"",""1"",""5074""
","
","
","""event"",""trial"",""time""
""fullscreenenter"",""1"",""5074""
","
","","null","","null","","fixation","2021-07-19 22:12:55.289","","","","","",""
"card-selection-trial","85","426715","0.0-25.0-1.7","A1353","false","img/card_backs/set1/yellow.gif","img/card_backs/set1/green.gif","img/card_backs/set1/purple.gif","img/card_backs/set1/red.gif","img/card_backs/set2/gray.gif","img/card_backs/set2/pink.gif","img/card_backs/set2/orange.gif","img/card_backs/set2/blue.gif","""event"",""trial"",""time""
""fullscreenenter"",""1"",""5074""
","
","
","""event"",""trial"",""time""
""fullscreenenter"",""1"",""5074""
","
","","3834","","","","real_trial","2021-07-19 22:13:01.127","img/card_backs/set1/red.gif","2","100","1","",""
"casino-fixation","86","427216","0.0-25.0-0.8","A1353","false","img/card_backs/set1/yellow.gif","img/card_backs/set1/green.gif","img/card_backs/set1/purple.gif","img/card_backs/set1/red.gif","img/card_backs/set2/gray.gif","img/card_backs/set2/pink.gif","img/card_backs/set2/orange.gif","img/card_backs/set2/blue.gif","""event"",""trial"",""time""
""fullscreenenter"",""1"",""5074""
","
","
","""event"",""trial"",""time""
""fullscreenenter"",""1"",""5074""
","
","","null","","null","","fixation","2021-07-19 22:13:01.628","","","","","",""
"card-selection-trial","87","430183","0.0-25.0-1.8","A1353","false","img/card_backs/set1/yellow.gif","img/card_backs/set1/green.gif","img/card_backs/set1/purple.gif","img/card_backs/set1/red.gif","img/card_backs/set2/gray.gif","img/card_backs/set2/pink.gif","img/card_backs/set2/orange.gif","img/card_backs/set2/blue.gif","""event"",""trial"",""time""
""fullscreenenter"",""1"",""5074""
","
","
","""event"",""trial"",""time""
""fullscreenenter"",""1"",""5074""
","
","","964","","","","real_trial","2021-07-19 22:13:04.595","img/card_backs/set1/red.gif","1","100","1","",""
"casino-fixation","88","430685","0.0-25.0-0.9","A1353","false","img/card_backs/set1/yellow.gif","img/card_backs/set1/green.gif","img/card_backs/set1/purple.gif","img/card_backs/set1/red.gif","img/card_backs/set2/gray.gif","img/card_backs/set2/pink.gif","img/card_backs/set2/orange.gif","img/card_backs/set2/blue.gif","""event"",""trial"",""time""
""fullscreenenter"",""1"",""5074""
","
","
","""event"",""trial"",""time""
""fullscreenenter"",""1"",""5074""
","
","","null","","null","","fixation","2021-07-19 22:13:05.097","","","","","",""
"card-selection-trial","89","435832","0.0-25.0-1.9","A1353","false","img/card_backs/set1/yellow.gif","img/card_backs/set1/green.gif","img/card_backs/set1/purple.gif","img/card_backs/set1/red.gif","img/card_backs/set2/gray.gif","img/card_backs/set2/pink.gif","img/card_backs/set2/orange.gif","img/card_backs/set2/blue.gif","""event"",""trial"",""time""
""fullscreenenter"",""1"",""5074""
","
","
","""event"",""trial"",""time""
""fullscreenenter"",""1"",""5074""
","
","","3143.000000000058","","","","real_trial","2021-07-19 22:13:10.244","img/card_backs/set1/purple.gif","2","100","1","",""
"casino-fixation","90","436333","0.0-25.0-0.10","A1353","false","img/card_backs/set1/yellow.gif","img/card_backs/set1/green.gif","img/card_backs/set1/purple.gif","img/card_backs/set1/red.gif","img/card_backs/set2/gray.gif","img/card_backs/set2/pink.gif","img/card_backs/set2/orange.gif","img/card_backs/set2/blue.gif","""event"",""trial"",""time""
""fullscreenenter"",""1"",""5074""
","
","
","""event"",""trial"",""time""
""fullscreenenter"",""1"",""5074""
","
","","null","","null","","fixation","2021-07-19 22:13:10.745","","","","","",""
"card-selection-trial","91","439218","0.0-25.0-1.10","A1353","false","img/card_backs/set1/yellow.gif","img/card_backs/set1/green.gif","img/card_backs/set1/purple.gif","img/card_backs/set1/red.gif","img/card_backs/set2/gray.gif","img/card_backs/set2/pink.gif","img/card_backs/set2/orange.gif","img/card_backs/set2/blue.gif","""event"",""trial"",""time""
""fullscreenenter"",""1"",""5074""
","
","
","""event"",""trial"",""time""
""fullscreenenter"",""1"",""5074""
","
","","879.9999999999418","","","","real_trial","2021-07-19 22:13:13.630","img/card_backs/set1/purple.gif","1","-70","1","",""
"casino-fixation","92","439720","0.0-25.0-0.11","A1353","false","img/card_backs/set1/yellow.gif","img/card_backs/set1/green.gif","img/card_backs/set1/purple.gif","img/card_backs/set1/red.gif","img/card_backs/set2/gray.gif","img/card_backs/set2/pink.gif","img/card_backs/set2/orange.gif","img/card_backs/set2/blue.gif","""event"",""trial"",""time""
""fullscreenenter"",""1"",""5074""
","
","
","""event"",""trial"",""time""
""fullscreenenter"",""1"",""5074""
","
","","null","","null","","fixation","2021-07-19 22:13:14.132","","","","","",""
"card-selection-trial","93","449127","0.0-25.0-1.11","A1353","false","img/card_backs/set1/yellow.gif","img/card_backs/set1/green.gif","img/card_backs/set1/purple.gif","img/card_backs/set1/red.gif","img/card_backs/set2/gray.gif","img/card_backs/set2/pink.gif","img/card_backs/set2/orange.gif","img/card_backs/set2/blue.gif","""event"",""trial"",""time""
""fullscreenenter"",""1"",""5074""
","
","
","""event"",""trial"",""time""
""fullscreenenter"",""1"",""5074""
","
","","7402.999999999942","","","","real_trial","2021-07-19 22:13:23.539","img/card_backs/set1/yellow.gif","0","180","1","",""
"casino-fixation","94","449629","0.0-25.0-0.12","A1353","false","img/card_backs/set1/yellow.gif","img/card_backs/set1/green.gif","img/card_backs/set1/purple.gif","img/card_backs/set1/red.gif","img/card_backs/set2/gray.gif","img/card_backs/set2/pink.gif","img/card_backs/set2/orange.gif","img/card_backs/set2/blue.gif","""event"",""trial"",""time""
""fullscreenenter"",""1"",""5074""
","
","
","""event"",""trial"",""time""
""fullscreenenter"",""1"",""5074""
","
","","null","","null","","fixation","2021-07-19 22:13:24.041","","","","","",""
"card-selection-trial","95","455354","0.0-25.0-1.12","A1353","false","img/card_backs/set1/yellow.gif","img/card_backs/set1/green.gif","img/card_backs/set1/purple.gif","img/card_backs/set1/red.gif","img/card_backs/set2/gray.gif","img/card_backs/set2/pink.gif","img/card_backs/set2/orange.gif","img/card_backs/set2/blue.gif","""event"",""trial"",""time""
""fullscreenenter"",""1"",""5074""
","
","
","""event"",""trial"",""time""
""fullscreenenter"",""1"",""5074""
","
","","3721","","","","real_trial","2021-07-19 22:13:29.766","img/card_backs/set1/yellow.gif","0","200","1","",""
"casino-fixation","96","455857","0.0-25.0-0.13","A1353","false","img/card_backs/set1/yellow.gif","img/card_backs/set1/green.gif","img/card_backs/set1/purple.gif","img/card_backs/set1/red.gif","img/card_backs/set2/gray.gif","img/card_backs/set2/pink.gif","img/card_backs/set2/orange.gif","img/card_backs/set2/blue.gif","""event"",""trial"",""time""
""fullscreenenter"",""1"",""5074""
","
","
","""event"",""trial"",""time""
""fullscreenenter"",""1"",""5074""
","
","","null","","null","","fixation","2021-07-19 22:13:30.269","","","","","",""
"card-selection-trial","97","464205","0.0-25.0-1.13","A1353","false","img/card_backs/set1/yellow.gif","img/card_backs/set1/green.gif","img/card_backs/set1/purple.gif","img/card_backs/set1/red.gif","img/card_backs/set2/gray.gif","img/card_backs/set2/pink.gif","img/card_backs/set2/orange.gif","img/card_backs/set2/blue.gif","""event"",""trial"",""time""
""fullscreenenter"",""1"",""5074""
","
","
","""event"",""trial"",""time""
""fullscreenenter"",""1"",""5074""
","
","","6346","","","","real_trial","2021-07-19 22:13:38.618","img/card_backs/set1/yellow.gif","1","-230","1","",""
"casino-fixation","98","464708","0.0-25.0-0.14","A1353","false","img/card_backs/set1/yellow.gif","img/card_backs/set1/green.gif","img/card_backs/set1/purple.gif","img/card_backs/set1/red.gif","img/card_backs/set2/gray.gif","img/card_backs/set2/pink.gif","img/card_backs/set2/orange.gif","img/card_backs/set2/blue.gif","""event"",""trial"",""time""
""fullscreenenter"",""1"",""5074""
","
","
","""event"",""trial"",""time""
""fullscreenenter"",""1"",""5074""
","
","","null","","null","","fixation","2021-07-19 22:13:39.120","","","","","",""
"card-selection-trial","99","467299","0.0-25.0-1.14","A1353","false","img/card_backs/set1/yellow.gif","img/card_backs/set1/green.gif","img/card_backs/set1/purple.gif","img/card_backs/set1/red.gif","img/card_backs/set2/gray.gif","img/card_backs/set2/pink.gif","img/card_backs/set2/orange.gif","img/card_backs/set2/blue.gif","""event"",""trial"",""time""
""fullscreenenter"",""1"",""5074""
","
","
","""event"",""trial"",""time""
""fullscreenenter"",""1"",""5074""
","
","","587","","","","real_trial","2021-07-19 22:13:41.711","img/card_backs/set1/purple.gif","3","110","1","",""
"casino-fixation","100","467801","0.0-25.0-0.15","A1353","false","img/card_backs/set1/yellow.gif","img/card_backs/set1/green.gif","img/card_backs/set1/purple.gif","img/card_backs/set1/red.gif","img/card_backs/set2/gray.gif","img/card_backs/set2/pink.gif","img/card_backs/set2/orange.gif","img/card_backs/set2/blue.gif","""event"",""trial"",""time""
""fullscreenenter"",""1"",""5074""
","
","
","""event"",""trial"",""time""
""fullscreenenter"",""1"",""5074""
","
","","null","","null","","fixation","2021-07-19 22:13:42.213","","","","","",""
"card-selection-trial","101","470270","0.0-25.0-1.15","A1353","false","img/card_backs/set1/yellow.gif","img/card_backs/set1/green.gif","img/card_backs/set1/purple.gif","img/card_backs/set1/red.gif","img/card_backs/set2/gray.gif","img/card_backs/set2/pink.gif","img/card_backs/set2/orange.gif","img/card_backs/set2/blue.gif","""event"",""trial"",""time""
""fullscreenenter"",""1"",""5074""
","
","
","""event"",""trial"",""time""
""fullscreenenter"",""1"",""5074""
","
","","464","","","","real_trial","2021-07-19 22:13:44.682","img/card_backs/set1/purple.gif","3","110","1","",""
"casino-fixation","102","470772","0.0-25.0-0.16","A1353","false","img/card_backs/set1/yellow.gif","img/card_backs/set1/green.gif","img/card_backs/set1/purple.gif","img/card_backs/set1/red.gif","img/card_backs/set2/gray.gif","img/card_backs/set2/pink.gif","img/card_backs/set2/orange.gif","img/card_backs/set2/blue.gif","""event"",""trial"",""time""
""fullscreenenter"",""1"",""5074""
","
","
","""event"",""trial"",""time""
""fullscreenenter"",""1"",""5074""
","
","","null","","null","","fixation","2021-07-19 22:13:45.184","","","","","",""
"card-selection-trial","103","477046","0.0-25.0-1.16","A1353","false","img/card_backs/set1/yellow.gif","img/card_backs/set1/green.gif","img/card_backs/set1/purple.gif","img/card_backs/set1/red.gif","img/card_backs/set2/gray.gif","img/card_backs/set2/pink.gif","img/card_backs/set2/orange.gif","img/card_backs/set2/blue.gif","""event"",""trial"",""time""
""fullscreenenter"",""1"",""5074""
","
","
","""event"",""trial"",""time""
""fullscreenenter"",""1"",""5074""
","
","","4271","","","","real_trial","2021-07-19 22:13:51.458","img/card_backs/set1/yellow.gif","0","200","1","",""
"casino-fixation","104","477547","0.0-25.0-0.17","A1353","false","img/card_backs/set1/yellow.gif","img/card_backs/set1/green.gif","img/card_backs/set1/purple.gif","img/card_backs/set1/red.gif","img/card_backs/set2/gray.gif","img/card_backs/set2/pink.gif","img/card_backs/set2/orange.gif","img/card_backs/set2/blue.gif","""event"",""trial"",""time""
""fullscreenenter"",""1"",""5074""
","
","
","""event"",""trial"",""time""
""fullscreenenter"",""1"",""5074""
","
","","null","","null","","fixation","2021-07-19 22:13:51.959","","","","","",""
"card-selection-trial","105","481632","0.0-25.0-1.17","A1353","false","img/card_backs/set1/yellow.gif","img/card_backs/set1/green.gif","img/card_backs/set1/purple.gif","img/card_backs/set1/red.gif","img/card_backs/set2/gray.gif","img/card_backs/set2/pink.gif","img/card_backs/set2/orange.gif","img/card_backs/set2/blue.gif","""event"",""trial"",""time""
""fullscreenenter"",""1"",""5074""
","
","
","""event"",""trial"",""time""
""fullscreenenter"",""1"",""5074""
","
","","2080","","","","real_trial","2021-07-19 22:13:56.045","img/card_backs/set1/yellow.gif","2","-250","1","",""
"casino-fixation","106","482134","0.0-25.0-0.18","A1353","false","img/card_backs/set1/yellow.gif","img/card_backs/set1/green.gif","img/card_backs/set1/purple.gif","img/card_backs/set1/red.gif","img/card_backs/set2/gray.gif","img/card_backs/set2/pink.gif","img/card_backs/set2/orange.gif","img/card_backs/set2/blue.gif","""event"",""trial"",""time""
""fullscreenenter"",""1"",""5074""
","
","
","""event"",""trial"",""time""
""fullscreenenter"",""1"",""5074""
","
","","null","","null","","fixation","2021-07-19 22:13:56.546","","","","","",""
"card-selection-trial","107","491157","0.0-25.0-1.18","A1353","false","img/card_backs/set1/yellow.gif","img/card_backs/set1/green.gif","img/card_backs/set1/purple.gif","img/card_backs/set1/red.gif","img/card_backs/set2/gray.gif","img/card_backs/set2/pink.gif","img/card_backs/set2/orange.gif","img/card_backs/set2/blue.gif","""event"",""trial"",""time""
""fullscreenenter"",""1"",""5074""
","
","
","""event"",""trial"",""time""
""fullscreenenter"",""1"",""5074""
","
","","7019","","","","real_trial","2021-07-19 22:14:05.569","img/card_backs/set1/green.gif","3","-230","1","",""
"casino-fixation","108","491659","0.0-25.0-0.19","A1353","false","img/card_backs/set1/yellow.gif","img/card_backs/set1/green.gif","img/card_backs/set1/purple.gif","img/card_backs/set1/red.gif","img/card_backs/set2/gray.gif","img/card_backs/set2/pink.gif","img/card_backs/set2/orange.gif","img/card_backs/set2/blue.gif","""event"",""trial"",""time""
""fullscreenenter"",""1"",""5074""
","
","
","""event"",""trial"",""time""
""fullscreenenter"",""1"",""5074""
","
","","null","","null","","fixation","2021-07-19 22:14:06.071","","","","","",""
"card-selection-trial","109","497586","0.0-25.0-1.19","A1353","false","img/card_backs/set1/yellow.gif","img/card_backs/set1/green.gif","img/card_backs/set1/purple.gif","img/card_backs/set1/red.gif","img/card_backs/set2/gray.gif","img/card_backs/set2/pink.gif","img/card_backs/set2/orange.gif","img/card_backs/set2/blue.gif","""event"",""trial"",""time""
""fullscreenenter"",""1"",""5074""
","
","
","""event"",""trial"",""time""
""fullscreenenter"",""1"",""5074""
","
","","3923.999999999942","","","","real_trial","2021-07-19 22:14:11.998","img/card_backs/set1/red.gif","1","120","1","",""
"casino-fixation","110","498088","0.0-25.0-0.20","A1353","false","img/card_backs/set1/yellow.gif","img/card_backs/set1/green.gif","img/card_backs/set1/purple.gif","img/card_backs/set1/red.gif","img/card_backs/set2/gray.gif","img/card_backs/set2/pink.gif","img/card_backs/set2/orange.gif","img/card_backs/set2/blue.gif","""event"",""trial"",""time""
""fullscreenenter"",""1"",""5074""
","
","
","""event"",""trial"",""time""
""fullscreenenter"",""1"",""5074""
","
","","null","","null","","fixation","2021-07-19 22:14:12.500","","","","","",""
"card-selection-trial","111","501265","0.0-25.0-1.20","A1353","false","img/card_backs/set1/yellow.gif","img/card_backs/set1/green.gif","img/card_backs/set1/purple.gif","img/card_backs/set1/red.gif","img/card_backs/set2/gray.gif","img/card_backs/set2/pink.gif","img/card_backs/set2/orange.gif","img/card_backs/set2/blue.gif","""event"",""trial"",""time""
""fullscreenenter"",""1"",""5074""
","
","
","""event"",""trial"",""time""
""fullscreenenter"",""1"",""5074""
","
","","1174.0000000000582","","","","real_trial","2021-07-19 22:14:15.678","img/card_backs/set1/red.gif","0","-60","1","",""
"casino-fixation","112","501768","0.0-25.0-0.21","A1353","false","img/card_backs/set1/yellow.gif","img/card_backs/set1/green.gif","img/card_backs/set1/purple.gif","img/card_backs/set1/red.gif","img/card_backs/set2/gray.gif","img/card_backs/set2/pink.gif","img/card_backs/set2/orange.gif","img/card_backs/set2/blue.gif","""event"",""trial"",""time""
""fullscreenenter"",""1"",""5074""
","
","
","""event"",""trial"",""time""
""fullscreenenter"",""1"",""5074""
","
","","null","","null","","fixation","2021-07-19 22:14:16.180","","","","","",""
"card-selection-trial","113","508489","0.0-25.0-1.21","A1353","false","img/card_backs/set1/yellow.gif","img/card_backs/set1/green.gif","img/card_backs/set1/purple.gif","img/card_backs/set1/red.gif","img/card_backs/set2/gray.gif","img/card_backs/set2/pink.gif","img/card_backs/set2/orange.gif","img/card_backs/set2/blue.gif","""event"",""trial"",""time""
""fullscreenenter"",""1"",""5074""
","
","
","""event"",""trial"",""time""
""fullscreenenter"",""1"",""5074""
","
","","4717","","","","real_trial","2021-07-19 22:14:22.901","img/card_backs/set1/purple.gif","1","110","1","",""
"casino-fixation","114","508991","0.0-25.0-0.22","A1353","false","img/card_backs/set1/yellow.gif","img/card_backs/set1/green.gif","img/card_backs/set1/purple.gif","img/card_backs/set1/red.gif","img/card_backs/set2/gray.gif","img/card_backs/set2/pink.gif","img/card_backs/set2/orange.gif","img/card_backs/set2/blue.gif","""event"",""trial"",""time""
""fullscreenenter"",""1"",""5074""
","
","
","""event"",""trial"",""time""
""fullscreenenter"",""1"",""5074""
","
","","null","","null","","fixation","2021-07-19 22:14:23.403","","","","","",""
"card-selection-trial","115","514089","0.0-25.0-1.22","A1353","false","img/card_backs/set1/yellow.gif","img/card_backs/set1/green.gif","img/card_backs/set1/purple.gif","img/card_backs/set1/red.gif","img/card_backs/set2/gray.gif","img/card_backs/set2/pink.gif","img/card_backs/set2/orange.gif","img/card_backs/set2/blue.gif","""event"",""trial"",""time""
""fullscreenenter"",""1"",""5074""
","
","
","""event"",""trial"",""time""
""fullscreenenter"",""1"",""5074""
","
","","3093.999999999942","","","","real_trial","2021-07-19 22:14:28.501","img/card_backs/set1/purple.gif","2","-50","1","",""
"casino-fixation","116","514591","0.0-25.0-0.23","A1353","false","img/card_backs/set1/yellow.gif","img/card_backs/set1/green.gif","img/card_backs/set1/purple.gif","img/card_backs/set1/red.gif","img/card_backs/set2/gray.gif","img/card_backs/set2/pink.gif","img/card_backs/set2/orange.gif","img/card_backs/set2/blue.gif","""event"",""trial"",""time""
""fullscreenenter"",""1"",""5074""
","
","
","""event"",""trial"",""time""
""fullscreenenter"",""1"",""5074""
","
","","null","","null","","fixation","2021-07-19 22:14:29.003","","","","","",""
"card-selection-trial","117","520780","0.0-25.0-1.23","A1353","false","img/card_backs/set1/yellow.gif","img/card_backs/set1/green.gif","img/card_backs/set1/purple.gif","img/card_backs/set1/red.gif","img/card_backs/set2/gray.gif","img/card_backs/set2/pink.gif","img/card_backs/set2/orange.gif","img/card_backs/set2/blue.gif","""event"",""trial"",""time""
""fullscreenenter"",""1"",""5074""
","
","
","""event"",""trial"",""time""
""fullscreenenter"",""1"",""5074""
","
","","4185.000000000058","","","","real_trial","2021-07-19 22:14:35.192","img/card_backs/set1/yellow.gif","2","190","1","",""
"casino-fixation","118","521282","0.0-25.0-0.24","A1353","false","img/card_backs/set1/yellow.gif","img/card_backs/set1/green.gif","img/card_backs/set1/purple.gif","img/card_backs/set1/red.gif","img/card_backs/set2/gray.gif","img/card_backs/set2/pink.gif","img/card_backs/set2/orange.gif","img/card_backs/set2/blue.gif","""event"",""trial"",""time""
""fullscreenenter"",""1"",""5074""
","
","
","""event"",""trial"",""time""
""fullscreenenter"",""1"",""5074""
","
","","null","","null","","fixation","2021-07-19 22:14:35.694","","","","","",""
"card-selection-trial","119","526358","0.0-25.0-1.24","A1353","false","img/card_backs/set1/yellow.gif","img/card_backs/set1/green.gif","img/card_backs/set1/purple.gif","img/card_backs/set1/red.gif","img/card_backs/set2/gray.gif","img/card_backs/set2/pink.gif","img/card_backs/set2/orange.gif","img/card_backs/set2/blue.gif","""event"",""trial"",""time""
""fullscreenenter"",""1"",""5074""
","
","
","""event"",""trial"",""time""
""fullscreenenter"",""1"",""5074""
","
","","3072","","","","real_trial","2021-07-19 22:14:40.770","img/card_backs/set1/yellow.gif","2","180","1","",""
"casino-fixation","120","526860","0.0-25.0-0.25","A1353","false","img/card_backs/set1/yellow.gif","img/card_backs/set1/green.gif","img/card_backs/set1/purple.gif","img/card_backs/set1/red.gif","img/card_backs/set2/gray.gif","img/card_backs/set2/pink.gif","img/card_backs/set2/orange.gif","img/card_backs/set2/blue.gif","""event"",""trial"",""time""
""fullscreenenter"",""1"",""5074""
","
","
","""event"",""trial"",""time""
""fullscreenenter"",""1"",""5074""
","
","","null","","null","","fixation","2021-07-19 22:14:41.272","","","","","",""
"card-selection-trial","121","530097","0.0-25.0-1.25","A1353","false","img/card_backs/set1/yellow.gif","img/card_backs/set1/green.gif","img/card_backs/set1/purple.gif","img/card_backs/set1/red.gif","img/card_backs/set2/gray.gif","img/card_backs/set2/pink.gif","img/card_backs/set2/orange.gif","img/card_backs/set2/blue.gif","""event"",""trial"",""time""
""fullscreenenter"",""1"",""5074""
","
","
","""event"",""trial"",""time""
""fullscreenenter"",""1"",""5074""
","
","","1233","","","","real_trial","2021-07-19 22:14:44.509","img/card_backs/set1/yellow.gif","1","-230","1","",""
"casino-fixation","122","530598","0.0-25.0-0.26","A1353","false","img/card_backs/set1/yellow.gif","img/card_backs/set1/green.gif","img/card_backs/set1/purple.gif","img/card_backs/set1/red.gif","img/card_backs/set2/gray.gif","img/card_backs/set2/pink.gif","img/card_backs/set2/orange.gif","img/card_backs/set2/blue.gif","""event"",""trial"",""time""
""fullscreenenter"",""1"",""5074""
","
","
","""event"",""trial"",""time""
""fullscreenenter"",""1"",""5074""
","
","","null","","null","","fixation","2021-07-19 22:14:45.010","","","","","",""
"card-selection-trial","123","539155","0.0-25.0-1.26","A1353","false","img/card_backs/set1/yellow.gif","img/card_backs/set1/green.gif","img/card_backs/set1/purple.gif","img/card_backs/set1/red.gif","img/card_backs/set2/gray.gif","img/card_backs/set2/pink.gif","img/card_backs/set2/orange.gif","img/card_backs/set2/blue.gif","""event"",""trial"",""time""
""fullscreenenter"",""1"",""5074""
","
","
","""event"",""trial"",""time""
""fullscreenenter"",""1"",""5074""
","
","","6554","","","","real_trial","2021-07-19 22:14:53.567","img/card_backs/set1/purple.gif","2","-70","1","",""
"casino-fixation","124","539657","0.0-25.0-0.27","A1353","false","img/card_backs/set1/yellow.gif","img/card_backs/set1/green.gif","img/card_backs/set1/purple.gif","img/card_backs/set1/red.gif","img/card_backs/set2/gray.gif","img/card_backs/set2/pink.gif","img/card_backs/set2/orange.gif","img/card_backs/set2/blue.gif","""event"",""trial"",""time""
""fullscreenenter"",""1"",""5074""
","
","
","""event"",""trial"",""time""
""fullscreenenter"",""1"",""5074""
","
","","null","","null","","fixation","2021-07-19 22:14:54.069","","","","","",""
"card-selection-trial","125","547659","0.0-25.0-1.27","A1353","false","img/card_backs/set1/yellow.gif","img/card_backs/set1/green.gif","img/card_backs/set1/purple.gif","img/card_backs/set1/red.gif","img/card_backs/set2/gray.gif","img/card_backs/set2/pink.gif","img/card_backs/set2/orange.gif","img/card_backs/set2/blue.gif","""event"",""trial"",""time""
""fullscreenenter"",""1"",""5074""
","
","
","""event"",""trial"",""time""
""fullscreenenter"",""1"",""5074""
","
","","5998","","","","real_trial","2021-07-19 22:15:02.071","img/card_backs/set1/yellow.gif","2","-230","1","",""
"casino-fixation","126","548161","0.0-25.0-0.28","A1353","false","img/card_backs/set1/yellow.gif","img/card_backs/set1/green.gif","img/card_backs/set1/purple.gif","img/card_backs/set1/red.gif","img/card_backs/set2/gray.gif","img/card_backs/set2/pink.gif","img/card_backs/set2/orange.gif","img/card_backs/set2/blue.gif","""event"",""trial"",""time""
""fullscreenenter"",""1"",""5074""
","
","
","""event"",""trial"",""time""
""fullscreenenter"",""1"",""5074""
","
","","null","","null","","fixation","2021-07-19 22:15:02.573","","","","","",""
"card-selection-trial","127","551979","0.0-25.0-1.28","A1353","false","img/card_backs/set1/yellow.gif","img/card_backs/set1/green.gif","img/card_backs/set1/purple.gif","img/card_backs/set1/red.gif","img/card_backs/set2/gray.gif","img/card_backs/set2/pink.gif","img/card_backs/set2/orange.gif","img/card_backs/set2/blue.gif","""event"",""trial"",""time""
""fullscreenenter"",""1"",""5074""
","
","
","""event"",""trial"",""time""
""fullscreenenter"",""1"",""5074""
","
","","1815","","","","real_trial","2021-07-19 22:15:06.391","img/card_backs/set1/purple.gif","0","100","1","",""
"casino-fixation","128","552480","0.0-25.0-0.29","A1353","false","img/card_backs/set1/yellow.gif","img/card_backs/set1/green.gif","img/card_backs/set1/purple.gif","img/card_backs/set1/red.gif","img/card_backs/set2/gray.gif","img/card_backs/set2/pink.gif","img/card_backs/set2/orange.gif","img/card_backs/set2/blue.gif","""event"",""trial"",""time""
""fullscreenenter"",""1"",""5074""
","
","
","""event"",""trial"",""time""
""fullscreenenter"",""1"",""5074""
","
","","null","","null","","fixation","2021-07-19 22:15:06.892","","","","","",""
"card-selection-trial","129","559322","0.0-25.0-1.29","A1353","false","img/card_backs/set1/yellow.gif","img/card_backs/set1/green.gif","img/card_backs/set1/purple.gif","img/card_backs/set1/red.gif","img/card_backs/set2/gray.gif","img/card_backs/set2/pink.gif","img/card_backs/set2/orange.gif","img/card_backs/set2/blue.gif","""event"",""trial"",""time""
""fullscreenenter"",""1"",""5074""
","
","
","""event"",""trial"",""time""
""fullscreenenter"",""1"",""5074""
","
","","4839.999999999884","","","","real_trial","2021-07-19 22:15:13.734","img/card_backs/set1/purple.gif","2","-70","1","",""
"casino-fixation","130","559824","0.0-25.0-0.30","A1353","false","img/card_backs/set1/yellow.gif","img/card_backs/set1/green.gif","img/card_backs/set1/purple.gif","img/card_backs/set1/red.gif","img/card_backs/set2/gray.gif","img/card_backs/set2/pink.gif","img/card_backs/set2/orange.gif","img/card_backs/set2/blue.gif","""event"",""trial"",""time""
""fullscreenenter"",""1"",""5074""
","
","
","""event"",""trial"",""time""
""fullscreenenter"",""1"",""5074""
","
","","null","","null","","fixation","2021-07-19 22:15:14.236","","","","","",""
"card-selection-trial","131","563322","0.0-25.0-1.30","A1353","false","img/card_backs/set1/yellow.gif","img/card_backs/set1/green.gif","img/card_backs/set1/purple.gif","img/card_backs/set1/red.gif","img/card_backs/set2/gray.gif","img/card_backs/set2/pink.gif","img/card_backs/set2/orange.gif","img/card_backs/set2/blue.gif","""event"",""trial"",""time""
""fullscreenenter"",""1"",""5074""
","
","
","""event"",""trial"",""time""
""fullscreenenter"",""1"",""5074""
","
","","1494","","","","real_trial","2021-07-19 22:15:17.734","img/card_backs/set1/yellow.gif","1","190","1","",""
"casino-fixation","132","563824","0.0-25.0-0.31","A1353","false","img/card_backs/set1/yellow.gif","img/card_backs/set1/green.gif","img/card_backs/set1/purple.gif","img/card_backs/set1/red.gif","img/card_backs/set2/gray.gif","img/card_backs/set2/pink.gif","img/card_backs/set2/orange.gif","img/card_backs/set2/blue.gif","""event"",""trial"",""time""
""fullscreenenter"",""1"",""5074""
","
","
","""event"",""trial"",""time""
""fullscreenenter"",""1"",""5074""
","
","","null","","null","","fixation","2021-07-19 22:15:18.236","","","","","",""
"card-selection-trial","133","567881","0.0-25.0-1.31","A1353","false","img/card_backs/set1/yellow.gif","img/card_backs/set1/green.gif","img/card_backs/set1/purple.gif","img/card_backs/set1/red.gif","img/card_backs/set2/gray.gif","img/card_backs/set2/pink.gif","img/card_backs/set2/orange.gif","img/card_backs/set2/blue.gif","""event"",""trial"",""time""
""fullscreenenter"",""1"",""5074""
","
","
","""event"",""trial"",""time""
""fullscreenenter"",""1"",""5074""
","
","","2054","","","","real_trial","2021-07-19 22:15:22.293","img/card_backs/set1/yellow.gif","3","-240","1","",""
"casino-fixation","134","568383","0.0-25.0-0.32","A1353","false","img/card_backs/set1/yellow.gif","img/card_backs/set1/green.gif","img/card_backs/set1/purple.gif","img/card_backs/set1/red.gif","img/card_backs/set2/gray.gif","img/card_backs/set2/pink.gif","img/card_backs/set2/orange.gif","img/card_backs/set2/blue.gif","""event"",""trial"",""time""
""fullscreenenter"",""1"",""5074""
","
","
","""event"",""trial"",""time""
""fullscreenenter"",""1"",""5074""
","
","","null","","null","","fixation","2021-07-19 22:15:22.795","","","","","",""
"card-selection-trial","135","574599","0.0-25.0-1.32","A1353","false","img/card_backs/set1/yellow.gif","img/card_backs/set1/green.gif","img/card_backs/set1/purple.gif","img/card_backs/set1/red.gif","img/card_backs/set2/gray.gif","img/card_backs/set2/pink.gif","img/card_backs/set2/orange.gif","img/card_backs/set2/blue.gif","""event"",""trial"",""time""
""fullscreenenter"",""1"",""5074""
","
","
","""event"",""trial"",""time""
""fullscreenenter"",""1"",""5074""
","
","","4212.999999999884","","","","real_trial","2021-07-19 22:15:29.011","img/card_backs/set1/green.gif","2","190","1","",""
"casino-fixation","136","575102","0.0-25.0-0.33","A1353","false","img/card_backs/set1/yellow.gif","img/card_backs/set1/green.gif","img/card_backs/set1/purple.gif","img/card_backs/set1/red.gif","img/card_backs/set2/gray.gif","img/card_backs/set2/pink.gif","img/card_backs/set2/orange.gif","img/card_backs/set2/blue.gif","""event"",""trial"",""time""
""fullscreenenter"",""1"",""5074""
","
","
","""event"",""trial"",""time""
""fullscreenenter"",""1"",""5074""
","
","","null","","null","","fixation","2021-07-19 22:15:29.514","","","","","",""
"card-selection-trial","137","579380","0.0-25.0-1.33","A1353","false","img/card_backs/set1/yellow.gif","img/card_backs/set1/green.gif","img/card_backs/set1/purple.gif","img/card_backs/set1/red.gif","img/card_backs/set2/gray.gif","img/card_backs/set2/pink.gif","img/card_backs/set2/orange.gif","img/card_backs/set2/blue.gif","""event"",""trial"",""time""
""fullscreenenter"",""1"",""5074""
","
","
","""event"",""trial"",""time""
""fullscreenenter"",""1"",""5074""
","
","","2274","","","","real_trial","2021-07-19 22:15:33.792","img/card_backs/set1/green.gif","2","200","1","",""
"casino-fixation","138","579881","0.0-25.0-0.34","A1353","false","img/card_backs/set1/yellow.gif","img/card_backs/set1/green.gif","img/card_backs/set1/purple.gif","img/card_backs/set1/red.gif","img/card_backs/set2/gray.gif","img/card_backs/set2/pink.gif","img/card_backs/set2/orange.gif","img/card_backs/set2/blue.gif","""event"",""trial"",""time""
""fullscreenenter"",""1"",""5074""
","
","
","""event"",""trial"",""time""
""fullscreenenter"",""1"",""5074""
","
","","null","","null","","fixation","2021-07-19 22:15:34.294","","","","","",""
"card-selection-trial","139","583812","0.0-25.0-1.34","A1353","false","img/card_backs/set1/yellow.gif","img/card_backs/set1/green.gif","img/card_backs/set1/purple.gif","img/card_backs/set1/red.gif","img/card_backs/set2/gray.gif","img/card_backs/set2/pink.gif","img/card_backs/set2/orange.gif","img/card_backs/set2/blue.gif","""event"",""trial"",""time""
""fullscreenenter"",""1"",""5074""
","
","
","""event"",""trial"",""time""
""fullscreenenter"",""1"",""5074""
","
","","1928","","","","real_trial","2021-07-19 22:15:38.224","img/card_backs/set1/yellow.gif","2","180","1","",""
"casino-fixation","140","584313","0.0-25.0-0.35","A1353","false","img/card_backs/set1/yellow.gif","img/card_backs/set1/green.gif","img/card_backs/set1/purple.gif","img/card_backs/set1/red.gif","img/card_backs/set2/gray.gif","img/card_backs/set2/pink.gif","img/card_backs/set2/orange.gif","img/card_backs/set2/blue.gif","""event"",""trial"",""time""
""fullscreenenter"",""1"",""5074""
","
","
","""event"",""trial"",""time""
""fullscreenenter"",""1"",""5074""
","
","","null","","null","","fixation","2021-07-19 22:15:38.725","","","","","",""
"card-selection-trial","141","589547","0.0-25.0-1.35","A1353","false","img/card_backs/set1/yellow.gif","img/card_backs/set1/green.gif","img/card_backs/set1/purple.gif","img/card_backs/set1/red.gif","img/card_backs/set2/gray.gif","img/card_backs/set2/pink.gif","img/card_backs/set2/orange.gif","img/card_backs/set2/blue.gif","""event"",""trial"",""time""
""fullscreenenter"",""1"",""5074""
","
","
","""event"",""trial"",""time""
""fullscreenenter"",""1"",""5074""
","
","","3230","","","","real_trial","2021-07-19 22:15:43.959","img/card_backs/set1/red.gif","2","100","1","",""
"casino-fixation","142","590049","0.0-25.0-0.36","A1353","false","img/card_backs/set1/yellow.gif","img/card_backs/set1/green.gif","img/card_backs/set1/purple.gif","img/card_backs/set1/red.gif","img/card_backs/set2/gray.gif","img/card_backs/set2/pink.gif","img/card_backs/set2/orange.gif","img/card_backs/set2/blue.gif","""event"",""trial"",""time""
""fullscreenenter"",""1"",""5074""
","
","
","""event"",""trial"",""time""
""fullscreenenter"",""1"",""5074""
","
","","null","","null","","fixation","2021-07-19 22:15:44.461","","","","","",""
"card-selection-trial","143","593089","0.0-25.0-1.36","A1353","false","img/card_backs/set1/yellow.gif","img/card_backs/set1/green.gif","img/card_backs/set1/purple.gif","img/card_backs/set1/red.gif","img/card_backs/set2/gray.gif","img/card_backs/set2/pink.gif","img/card_backs/set2/orange.gif","img/card_backs/set2/blue.gif","""event"",""trial"",""time""
""fullscreenenter"",""1"",""5074""
","
","
","""event"",""trial"",""time""
""fullscreenenter"",""1"",""5074""
","
","","1036.0000000001164","","","","real_trial","2021-07-19 22:15:47.501","img/card_backs/set1/yellow.gif","2","-230","1","",""
"casino-fixation","144","593592","0.0-25.0-0.37","A1353","false","img/card_backs/set1/yellow.gif","img/card_backs/set1/green.gif","img/card_backs/set1/purple.gif","img/card_backs/set1/red.gif","img/card_backs/set2/gray.gif","img/card_backs/set2/pink.gif","img/card_backs/set2/orange.gif","img/card_backs/set2/blue.gif","""event"",""trial"",""time""
""fullscreenenter"",""1"",""5074""
","
","
","""event"",""trial"",""time""
""fullscreenenter"",""1"",""5074""
","
","","null","","null","","fixation","2021-07-19 22:15:48.004","","","","","",""
"card-selection-trial","145","596820","0.0-25.0-1.37","A1353","false","img/card_backs/set1/yellow.gif","img/card_backs/set1/green.gif","img/card_backs/set1/purple.gif","img/card_backs/set1/red.gif","img/card_backs/set2/gray.gif","img/card_backs/set2/pink.gif","img/card_backs/set2/orange.gif","img/card_backs/set2/blue.gif","""event"",""trial"",""time""
""fullscreenenter"",""1"",""5074""
","
","
","""event"",""trial"",""time""
""fullscreenenter"",""1"",""5074""
","
","","1224","","","","real_trial","2021-07-19 22:15:51.232","img/card_backs/set1/purple.gif","3","120","1","",""
"casino-fixation","146","597321","0.0-25.0-0.38","A1353","false","img/card_backs/set1/yellow.gif","img/card_backs/set1/green.gif","img/card_backs/set1/purple.gif","img/card_backs/set1/red.gif","img/card_backs/set2/gray.gif","img/card_backs/set2/pink.gif","img/card_backs/set2/orange.gif","img/card_backs/set2/blue.gif","""event"",""trial"",""time""
""fullscreenenter"",""1"",""5074""
","
","
","""event"",""trial"",""time""
""fullscreenenter"",""1"",""5074""
","
","","null","","null","","fixation","2021-07-19 22:15:51.733","","","","","",""
"card-selection-trial","147","600630","0.0-25.0-1.38","A1353","false","img/card_backs/set1/yellow.gif","img/card_backs/set1/green.gif","img/card_backs/set1/purple.gif","img/card_backs/set1/red.gif","img/card_backs/set2/gray.gif","img/card_backs/set2/pink.gif","img/card_backs/set2/orange.gif","img/card_backs/set2/blue.gif","""event"",""trial"",""time""
""fullscreenenter"",""1"",""5074""
","
","
","""event"",""trial"",""time""
""fullscreenenter"",""1"",""5074""
","
","","1306","","","","real_trial","2021-07-19 22:15:55.042","img/card_backs/set1/red.gif","0","-50","1","",""
"casino-fixation","148","601131","0.0-25.0-0.39","A1353","false","img/card_backs/set1/yellow.gif","img/card_backs/set1/green.gif","img/card_backs/set1/purple.gif","img/card_backs/set1/red.gif","img/card_backs/set2/gray.gif","img/card_backs/set2/pink.gif","img/card_backs/set2/orange.gif","img/card_backs/set2/blue.gif","""event"",""trial"",""time""
""fullscreenenter"",""1"",""5074""
","
","
","""event"",""trial"",""time""
""fullscreenenter"",""1"",""5074""
","
","","null","","null","","fixation","2021-07-19 22:15:55.543","","","","","",""
"card-selection-trial","149","604806","0.0-25.0-1.39","A1353","false","img/card_backs/set1/yellow.gif","img/card_backs/set1/green.gif","img/card_backs/set1/purple.gif","img/card_backs/set1/red.gif","img/card_backs/set2/gray.gif","img/card_backs/set2/pink.gif","img/card_backs/set2/orange.gif","img/card_backs/set2/blue.gif","""event"",""trial"",""time""
""fullscreenenter"",""1"",""5074""
","
","
","""event"",""trial"",""time""
""fullscreenenter"",""1"",""5074""
","
","","1670","","","","real_trial","2021-07-19 22:15:59.218","img/card_backs/set1/green.gif","1","190","1","",""
"casino-fixation","150","605308","0.0-25.0-0.40","A1353","false","img/card_backs/set1/yellow.gif","img/card_backs/set1/green.gif","img/card_backs/set1/purple.gif","img/card_backs/set1/red.gif","img/card_backs/set2/gray.gif","img/card_backs/set2/pink.gif","img/card_backs/set2/orange.gif","img/card_backs/set2/blue.gif","""event"",""trial"",""time""
""fullscreenenter"",""1"",""5074""
","
","
","""event"",""trial"",""time""
""fullscreenenter"",""1"",""5074""
","
","","null","","null","","fixation","2021-07-19 22:15:59.721","","","","","",""
"card-selection-trial","151","608875","0.0-25.0-1.40","A1353","false","img/card_backs/set1/yellow.gif","img/card_backs/set1/green.gif","img/card_backs/set1/purple.gif","img/card_backs/set1/red.gif","img/card_backs/set2/gray.gif","img/card_backs/set2/pink.gif","img/card_backs/set2/orange.gif","img/card_backs/set2/blue.gif","""event"",""trial"",""time""
""fullscreenenter"",""1"",""5074""
","
","
","""event"",""trial"",""time""
""fullscreenenter"",""1"",""5074""
","
","","1562","","","","real_trial","2021-07-19 22:16:03.287","img/card_backs/set1/yellow.gif","1","-250","1","",""
"casino-fixation","152","609376","0.0-25.0-0.41","A1353","false","img/card_backs/set1/yellow.gif","img/card_backs/set1/green.gif","img/card_backs/set1/purple.gif","img/card_backs/set1/red.gif","img/card_backs/set2/gray.gif","img/card_backs/set2/pink.gif","img/card_backs/set2/orange.gif","img/card_backs/set2/blue.gif","""event"",""trial"",""time""
""fullscreenenter"",""1"",""5074""
","
","
","""event"",""trial"",""time""
""fullscreenenter"",""1"",""5074""
","
","","null","","null","","fixation","2021-07-19 22:16:03.788","","","","","",""
"card-selection-trial","153","613402","0.0-25.0-1.41","A1353","false","img/card_backs/set1/yellow.gif","img/card_backs/set1/green.gif","img/card_backs/set1/purple.gif","img/card_backs/set1/red.gif","img/card_backs/set2/gray.gif","img/card_backs/set2/pink.gif","img/card_backs/set2/orange.gif","img/card_backs/set2/blue.gif","""event"",""trial"",""time""
""fullscreenenter"",""1"",""5074""
","
","
","""event"",""trial"",""time""
""fullscreenenter"",""1"",""5074""
","
","","2022","","","","real_trial","2021-07-19 22:16:07.814","img/card_backs/set1/yellow.gif","2","200","1","",""
"casino-fixation","154","613907","0.0-25.0-0.42","A1353","false","img/card_backs/set1/yellow.gif","img/card_backs/set1/green.gif","img/card_backs/set1/purple.gif","img/card_backs/set1/red.gif","img/card_backs/set2/gray.gif","img/card_backs/set2/pink.gif","img/card_backs/set2/orange.gif","img/card_backs/set2/blue.gif","""event"",""trial"",""time""
""fullscreenenter"",""1"",""5074""
","
","
","""event"",""trial"",""time""
""fullscreenenter"",""1"",""5074""
","
","","null","","null","","fixation","2021-07-19 22:16:08.319","","","","","",""
"card-selection-trial","155","616383","0.0-25.0-1.42","A1353","false","img/card_backs/set1/yellow.gif","img/card_backs/set1/green.gif","img/card_backs/set1/purple.gif","img/card_backs/set1/red.gif","img/card_backs/set2/gray.gif","img/card_backs/set2/pink.gif","img/card_backs/set2/orange.gif","img/card_backs/set2/blue.gif","""event"",""trial"",""time""
""fullscreenenter"",""1"",""5074""
","
","
","""event"",""trial"",""time""
""fullscreenenter"",""1"",""5074""
","
","","472","","","","real_trial","2021-07-19 22:16:10.795","img/card_backs/set1/green.gif","2","180","1","",""
"casino-fixation","156","616885","0.0-25.0-0.43","A1353","false","img/card_backs/set1/yellow.gif","img/card_backs/set1/green.gif","img/card_backs/set1/purple.gif","img/card_backs/set1/red.gif","img/card_backs/set2/gray.gif","img/card_backs/set2/pink.gif","img/card_backs/set2/orange.gif","img/card_backs/set2/blue.gif","""event"",""trial"",""time""
""fullscreenenter"",""1"",""5074""
","
","
","""event"",""trial"",""time""
""fullscreenenter"",""1"",""5074""
","
","","null","","null","","fixation","2021-07-19 22:16:11.297","","","","","",""
"card-selection-trial","157","619559","0.0-25.0-1.43","A1353","false","img/card_backs/set1/yellow.gif","img/card_backs/set1/green.gif","img/card_backs/set1/purple.gif","img/card_backs/set1/red.gif","img/card_backs/set2/gray.gif","img/card_backs/set2/pink.gif","img/card_backs/set2/orange.gif","img/card_backs/set2/blue.gif","""event"",""trial"",""time""
""fullscreenenter"",""1"",""5074""
","
","
","""event"",""trial"",""time""
""fullscreenenter"",""1"",""5074""
","
","","670.0000000001164","","","","real_trial","2021-07-19 22:16:13.971","img/card_backs/set1/purple.gif","2","-70","1","",""
"casino-fixation","158","620061","0.0-25.0-0.44","A1353","false","img/card_backs/set1/yellow.gif","img/card_backs/set1/green.gif","img/card_backs/set1/purple.gif","img/card_backs/set1/red.gif","img/card_backs/set2/gray.gif","img/card_backs/set2/pink.gif","img/card_backs/set2/orange.gif","img/card_backs/set2/blue.gif","""event"",""trial"",""time""
""fullscreenenter"",""1"",""5074""
","
","
","""event"",""trial"",""time""
""fullscreenenter"",""1"",""5074""
","
","","null","","null","","fixation","2021-07-19 22:16:14.473","","","","","",""
"card-selection-trial","159","626335","0.0-25.0-1.44","A1353","false","img/card_backs/set1/yellow.gif","img/card_backs/set1/green.gif","img/card_backs/set1/purple.gif","img/card_backs/set1/red.gif","img/card_backs/set2/gray.gif","img/card_backs/set2/pink.gif","img/card_backs/set2/orange.gif","img/card_backs/set2/blue.gif","""event"",""trial"",""time""
""fullscreenenter"",""1"",""5074""
","
","
","""event"",""trial"",""time""
""fullscreenenter"",""1"",""5074""
","
","","4271","","","","real_trial","2021-07-19 22:16:20.747","img/card_backs/set1/yellow.gif","2","-250","1","",""
"casino-fixation","160","626837","0.0-25.0-0.45","A1353","false","img/card_backs/set1/yellow.gif","img/card_backs/set1/green.gif","img/card_backs/set1/purple.gif","img/card_backs/set1/red.gif","img/card_backs/set2/gray.gif","img/card_backs/set2/pink.gif","img/card_backs/set2/orange.gif","img/card_backs/set2/blue.gif","""event"",""trial"",""time""
""fullscreenenter"",""1"",""5074""
","
","
","""event"",""trial"",""time""
""fullscreenenter"",""1"",""5074""
","
","","null","","null","","fixation","2021-07-19 22:16:21.249","","","","","",""
"card-selection-trial","161","630959","0.0-25.0-1.45","A1353","false","img/card_backs/set1/yellow.gif","img/card_backs/set1/green.gif","img/card_backs/set1/purple.gif","img/card_backs/set1/red.gif","img/card_backs/set2/gray.gif","img/card_backs/set2/pink.gif","img/card_backs/set2/orange.gif","img/card_backs/set2/blue.gif","""event"",""trial"",""time""
""fullscreenenter"",""1"",""5074""
","
","
","""event"",""trial"",""time""
""fullscreenenter"",""1"",""5074""
","
","","2118","","","","real_trial","2021-07-19 22:16:25.371","img/card_backs/set1/green.gif","1","190","1","",""
"casino-fixation","162","631460","0.0-25.0-0.46","A1353","false","img/card_backs/set1/yellow.gif","img/card_backs/set1/green.gif","img/card_backs/set1/purple.gif","img/card_backs/set1/red.gif","img/card_backs/set2/gray.gif","img/card_backs/set2/pink.gif","img/card_backs/set2/orange.gif","img/card_backs/set2/blue.gif","""event"",""trial"",""time""
""fullscreenenter"",""1"",""5074""
","
","
","""event"",""trial"",""time""
""fullscreenenter"",""1"",""5074""
","
","","null","","null","","fixation","2021-07-19 22:16:25.873","","","","","",""
"card-selection-trial","163","638721","0.0-25.0-1.46","A1353","false","img/card_backs/set1/yellow.gif","img/card_backs/set1/green.gif","img/card_backs/set1/purple.gif","img/card_backs/set1/red.gif","img/card_backs/set2/gray.gif","img/card_backs/set2/pink.gif","img/card_backs/set2/orange.gif","img/card_backs/set2/blue.gif","""event"",""trial"",""time""
""fullscreenenter"",""1"",""5074""
","
","
","""event"",""trial"",""time""
""fullscreenenter"",""1"",""5074""
","
","","5256","","","","real_trial","2021-07-19 22:16:33.133","img/card_backs/set1/green.gif","2","-240","1","",""
"casino-fixation","164","639223","0.0-25.0-0.47","A1353","false","img/card_backs/set1/yellow.gif","img/card_backs/set1/green.gif","img/card_backs/set1/purple.gif","img/card_backs/set1/red.gif","img/card_backs/set2/gray.gif","img/card_backs/set2/pink.gif","img/card_backs/set2/orange.gif","img/card_backs/set2/blue.gif","""event"",""trial"",""time""
""fullscreenenter"",""1"",""5074""
","
","
","""event"",""trial"",""time""
""fullscreenenter"",""1"",""5074""
","
","","null","","null","","fixation","2021-07-19 22:16:33.635","","","","","",""
"card-selection-trial","165","645952","0.0-25.0-1.47","A1353","false","img/card_backs/set1/yellow.gif","img/card_backs/set1/green.gif","img/card_backs/set1/purple.gif","img/card_backs/set1/red.gif","img/card_backs/set2/gray.gif","img/card_backs/set2/pink.gif","img/card_backs/set2/orange.gif","img/card_backs/set2/blue.gif","""event"",""trial"",""time""
""fullscreenenter"",""1"",""5074""
","
","
","""event"",""trial"",""time""
""fullscreenenter"",""1"",""5074""
","
","","4726","","","","real_trial","2021-07-19 22:16:40.364","img/card_backs/set1/yellow.gif","0","-230","1","",""
"casino-fixation","166","646454","0.0-25.0-0.48","A1353","false","img/card_backs/set1/yellow.gif","img/card_backs/set1/green.gif","img/card_backs/set1/purple.gif","img/card_backs/set1/red.gif","img/card_backs/set2/gray.gif","img/card_backs/set2/pink.gif","img/card_backs/set2/orange.gif","img/card_backs/set2/blue.gif","""event"",""trial"",""time""
""fullscreenenter"",""1"",""5074""
","
","
","""event"",""trial"",""time""
""fullscreenenter"",""1"",""5074""
","
","","null","","null","","fixation","2021-07-19 22:16:40.867","","","","","",""
"card-selection-trial","167","649385","0.0-25.0-1.48","A1353","false","img/card_backs/set1/yellow.gif","img/card_backs/set1/green.gif","img/card_backs/set1/purple.gif","img/card_backs/set1/red.gif","img/card_backs/set2/gray.gif","img/card_backs/set2/pink.gif","img/card_backs/set2/orange.gif","img/card_backs/set2/blue.gif","""event"",""trial"",""time""
""fullscreenenter"",""1"",""5074""
","
","
","""event"",""trial"",""time""
""fullscreenenter"",""1"",""5074""
","
","","927.0000000001164","","","","real_trial","2021-07-19 22:16:43.797","img/card_backs/set1/purple.gif","1","100","1","",""
"casino-fixation","168","649888","0.0-25.0-0.49","A1353","false","img/card_backs/set1/yellow.gif","img/card_backs/set1/green.gif","img/card_backs/set1/purple.gif","img/card_backs/set1/red.gif","img/card_backs/set2/gray.gif","img/card_backs/set2/pink.gif","img/card_backs/set2/orange.gif","img/card_backs/set2/blue.gif","""event"",""trial"",""time""
""fullscreenenter"",""1"",""5074""
","
","
