"trial_type","trial_index","time_elapsed","internal_node_id","sub_id","risk_good_first","block1_A","block1_B","block1_C","block1_D","block2_A","block2_B","block2_C","block2_D","interactions","blur_events","focus_events","fullscreenenter_events","fullscreenexit_events","success","rt","stimulus","key_press","button_pressed","task_part","timestamp","card_choice","choice_position","points_earned","block","correct","response"
"pavlovia","0","6","0.0-0.0","960","true","img/card_backs/set1/green.gif","img/card_backs/set1/yellow.gif","img/card_backs/set1/purple.gif","img/card_backs/set1/red.gif","img/card_backs/set2/orange.gif","img/card_backs/set2/pink.gif","img/card_backs/set2/blue.gif","img/card_backs/set2/gray.gif","""event"",""trial"",""time""
""fullscreenenter"",""1"",""6634""
","
","
","""event"",""trial"",""time""
""fullscreenenter"",""1"",""6634""
","
","","","","","","","","","","","","",""
"fullscreen","1","7602","0.0-1.0","960","true","img/card_backs/set1/green.gif","img/card_backs/set1/yellow.gif","img/card_backs/set1/purple.gif","img/card_backs/set1/red.gif","img/card_backs/set2/orange.gif","img/card_backs/set2/pink.gif","img/card_backs/set2/blue.gif","img/card_backs/set2/gray.gif","""event"",""trial"",""time""
""fullscreenenter"",""1"",""6634""
","
","
","""event"",""trial"",""time""
""fullscreenenter"",""1"",""6634""
","
","true","","","","","","","","","","","",""
"audio-keyboard-response","2","10001","0.0-2.0","960","true","img/card_backs/set1/green.gif","img/card_backs/set1/yellow.gif","img/card_backs/set1/purple.gif","img/card_backs/set1/red.gif","img/card_backs/set2/orange.gif","img/card_backs/set2/pink.gif","img/card_backs/set2/blue.gif","img/card_backs/set2/gray.gif","""event"",""trial"",""time""
""fullscreenenter"",""1"",""6634""
","
","
","""event"",""trial"",""time""
""fullscreenenter"",""1"",""6634""
","
","","2069","audio/beep_loop.wav","32","","","","","","","","",""
"audio-button-response","3","11824","0.0-3.0","960","true","img/card_backs/set1/green.gif","img/card_backs/set1/yellow.gif","img/card_backs/set1/purple.gif","img/card_backs/set1/red.gif","img/card_backs/set2/orange.gif","img/card_backs/set2/pink.gif","img/card_backs/set2/blue.gif","img/card_backs/set2/gray.gif","""event"",""trial"",""time""
""fullscreenenter"",""1"",""6634""
","
","
","""event"",""trial"",""time""
""fullscreenenter"",""1"",""6634""
","
","","NaN","audio/turtle.mp3","","3","","","","","","","",""
"audio-button-response","4","14029","0.0-4.0","960","true","img/card_backs/set1/green.gif","img/card_backs/set1/yellow.gif","img/card_backs/set1/purple.gif","img/card_backs/set1/red.gif","img/card_backs/set2/orange.gif","img/card_backs/set2/pink.gif","img/card_backs/set2/blue.gif","img/card_backs/set2/gray.gif","""event"",""trial"",""time""
""fullscreenenter"",""1"",""6634""
","
","
","""event"",""trial"",""time""
""fullscreenenter"",""1"",""6634""
","
","","NaN","audio/shark.mp3","","2","","","","","","","",""
"fullscreen","5","19345","0.0-5.0","960","true","img/card_backs/set1/green.gif","img/card_backs/set1/yellow.gif","img/card_backs/set1/purple.gif","img/card_backs/set1/red.gif","img/card_backs/set2/orange.gif","img/card_backs/set2/pink.gif","img/card_backs/set2/blue.gif","img/card_backs/set2/gray.gif","""event"",""trial"",""time""
""fullscreenenter"",""1"",""6634""
","
","
","""event"",""trial"",""time""
""fullscreenenter"",""1"",""6634""
","
","true","","","","","","","","","","","",""
"casino-keyboard-response","6","23250","0.0-6.0-0.0","960","true","img/card_backs/set1/green.gif","img/card_backs/set1/yellow.gif","img/card_backs/set1/purple.gif","img/card_backs/set1/red.gif","img/card_backs/set2/orange.gif","img/card_backs/set2/pink.gif","img/card_backs/set2/blue.gif","img/card_backs/set2/gray.gif","""event"",""trial"",""time""
""fullscreenenter"",""1"",""6634""
","
","
","""event"",""trial"",""time""
""fullscreenenter"",""1"",""6634""
","
","","3902.0999999996275","Welcome to the casino!","71","","instructions","2021-07-01 21:10:44.687","","","","","",""
"casino-keyboard-response","7","33247","0.0-6.0-0.1","960","true","img/card_backs/set1/green.gif","img/card_backs/set1/yellow.gif","img/card_backs/set1/purple.gif","img/card_backs/set1/red.gif","img/card_backs/set2/orange.gif","img/card_backs/set2/pink.gif","img/card_backs/set2/blue.gif","img/card_backs/set2/gray.gif","""event"",""trial"",""time""
""fullscreenenter"",""1"",""6634""
","
","
","""event"",""trial"",""time""
""fullscreenenter"",""1"",""6634""
","
","","9993.899999999441","Today you will be playing a game to earn tokens. </br> At the end of the experiment, you will be paid a bonus based on how many tokens you win. ","69","","instructions","2021-07-01 21:10:54.684","","","","","",""
"casino-keyboard-response","8","41131","0.0-6.0-0.2","960","true","img/card_backs/set1/green.gif","img/card_backs/set1/yellow.gif","img/card_backs/set1/purple.gif","img/card_backs/set1/red.gif","img/card_backs/set2/orange.gif","img/card_backs/set2/pink.gif","img/card_backs/set2/blue.gif","img/card_backs/set2/gray.gif","""event"",""trial"",""time""
""fullscreenenter"",""1"",""6634""
","
","
","""event"",""trial"",""time""
""fullscreenenter"",""1"",""6634""
","
","","7882.200000000186","On every turn, you will be shown four different decks of cards. </br> You need to select a card from one of the four decks.  ","75","","instructions","2021-07-01 21:11:02.569","","","","","",""
"casino-keyboard-response","9","45894","0.0-6.0-0.3","960","true","img/card_backs/set1/green.gif","img/card_backs/set1/yellow.gif","img/card_backs/set1/purple.gif","img/card_backs/set1/red.gif","img/card_backs/set2/orange.gif","img/card_backs/set2/pink.gif","img/card_backs/set2/blue.gif","img/card_backs/set2/gray.gif","""event"",""trial"",""time""
""fullscreenenter"",""1"",""6634""
","
","
","""event"",""trial"",""time""
""fullscreenenter"",""1"",""6634""
","
","","4760","On the next screen, you will see what the decks will look like. ","66","","instructions","2021-07-01 21:11:07.331","","","","","",""
"card-selection-trial","10","49899","0.0-7.0-0.0","960","true","img/card_backs/set1/green.gif","img/card_backs/set1/yellow.gif","img/card_backs/set1/purple.gif","img/card_backs/set1/red.gif","img/card_backs/set2/orange.gif","img/card_backs/set2/pink.gif","img/card_backs/set2/blue.gif","img/card_backs/set2/gray.gif","""event"",""trial"",""time""
""fullscreenenter"",""1"",""6634""
","
","
","""event"",""trial"",""time""
""fullscreenenter"",""1"",""6634""
","
","","null","","","","practice","2021-07-01 21:11:11.336","null","null","null","0","",""
"casino-keyboard-response","11","57470","0.0-8.0-0.0","960","true","img/card_backs/set1/green.gif","img/card_backs/set1/yellow.gif","img/card_backs/set1/purple.gif","img/card_backs/set1/red.gif","img/card_backs/set2/orange.gif","img/card_backs/set2/pink.gif","img/card_backs/set2/blue.gif","img/card_backs/set2/gray.gif","""event"",""trial"",""time""
""fullscreenenter"",""1"",""6634""
","
","
","""event"",""trial"",""time""
""fullscreenenter"",""1"",""6634""
","
","","7569","You should pick a card from a deck using the '2', '4', '6', and '8' keys at the top of the keyboard.","85","","instructions","2021-07-01 21:11:18.907","","","","","",""
"casino-keyboard-response","12","62979","0.0-8.0-0.1","960","true","img/card_backs/set1/green.gif","img/card_backs/set1/yellow.gif","img/card_backs/set1/purple.gif","img/card_backs/set1/red.gif","img/card_backs/set2/orange.gif","img/card_backs/set2/pink.gif","img/card_backs/set2/blue.gif","img/card_backs/set2/gray.gif","""event"",""trial"",""time""
""fullscreenenter"",""1"",""6634""
","
","
","""event"",""trial"",""time""
""fullscreenenter"",""1"",""6634""
","
","","5507.200000000186","Once you select a card, it will turn over and you will see how many tokens you earned.","83","","instructions","2021-07-01 21:11:24.416","","","","","",""
"casino-keyboard-response","13","77652","0.0-8.0-0.2","960","true","img/card_backs/set1/green.gif","img/card_backs/set1/yellow.gif","img/card_backs/set1/purple.gif","img/card_backs/set1/red.gif","img/card_backs/set2/orange.gif","img/card_backs/set2/pink.gif","img/card_backs/set2/blue.gif","img/card_backs/set2/gray.gif","""event"",""trial"",""time""
""fullscreenenter"",""1"",""6634""
","
","
","""event"",""trial"",""time""
""fullscreenenter"",""1"",""6634""
","
","","14670","Let's try practicing that! </br> First, try to put your fingers over the '2', '4', '6', and '8' keys. </br>  You can use whatever fingers are most comfortable for you. Try to find a comfortable position now. ","50","","instructions","2021-07-01 21:11:39.089","","","","","",""
"casino-keyboard-response","14","83627","0.0-8.0-0.3","960","true","img/card_backs/set1/green.gif","img/card_backs/set1/yellow.gif","img/card_backs/set1/purple.gif","img/card_backs/set1/red.gif","img/card_backs/set2/orange.gif","img/card_backs/set2/pink.gif","img/card_backs/set2/blue.gif","img/card_backs/set2/gray.gif","""event"",""trial"",""time""
""fullscreenenter"",""1"",""6634""
","
","
","""event"",""trial"",""time""
""fullscreenenter"",""1"",""6634""
","
","","5973.200000000186","Okay ready? </br> On the next screen, press '2' to select the left deck. ","50","","instructions","2021-07-01 21:11:45.064","","","","","",""
"card-selection-trial","15","86548","0.0-9.0-0.0","960","true","img/card_backs/set1/green.gif","img/card_backs/set1/yellow.gif","img/card_backs/set1/purple.gif","img/card_backs/set1/red.gif","img/card_backs/set2/orange.gif","img/card_backs/set2/pink.gif","img/card_backs/set2/blue.gif","img/card_backs/set2/gray.gif","""event"",""trial"",""time""
""fullscreenenter"",""1"",""6634""
","
","
","""event"",""trial"",""time""
""fullscreenenter"",""1"",""6634""
","
","","860.2000000001863","","","","practice_card_selection","2021-07-01 21:11:47.985","img/practice_cards/backs/dark_blue.gif","0","-200","","",""
"casino-keyboard-response","16","92411","0.0-10.0-0.0","960","true","img/card_backs/set1/green.gif","img/card_backs/set1/yellow.gif","img/card_backs/set1/purple.gif","img/card_backs/set1/red.gif","img/card_backs/set2/orange.gif","img/card_backs/set2/pink.gif","img/card_backs/set2/blue.gif","img/card_backs/set2/gray.gif","""event"",""trial"",""time""
""fullscreenenter"",""1"",""6634""
","
","
","""event"",""trial"",""time""
""fullscreenenter"",""1"",""6634""
","
","","5860.5999999996275","Great! Now on the next screen, try pressing '6' to select the third deck.","54","","instructions","2021-07-01 21:11:53.848","","","","","",""
"card-selection-trial","17","95025","0.0-11.0-0.0","960","true","img/card_backs/set1/green.gif","img/card_backs/set1/yellow.gif","img/card_backs/set1/purple.gif","img/card_backs/set1/red.gif","img/card_backs/set2/orange.gif","img/card_backs/set2/pink.gif","img/card_backs/set2/blue.gif","img/card_backs/set2/gray.gif","""event"",""trial"",""time""
""fullscreenenter"",""1"",""6634""
","
","
","""event"",""trial"",""time""
""fullscreenenter"",""1"",""6634""
","
","","605.2000000001863","","","","practice_card_selection","2021-07-01 21:11:56.462","img/practice_cards/backs/black.gif","2","-100","","",""
"casino-keyboard-response","18","99964","0.0-12.0-0.0","960","true","img/card_backs/set1/green.gif","img/card_backs/set1/yellow.gif","img/card_backs/set1/purple.gif","img/card_backs/set1/red.gif","img/card_backs/set2/orange.gif","img/card_backs/set2/pink.gif","img/card_backs/set2/blue.gif","img/card_backs/set2/gray.gif","""event"",""trial"",""time""
""fullscreenenter"",""1"",""6634""
","
","
","""event"",""trial"",""time""
""fullscreenenter"",""1"",""6634""
","
","","4937","Now on the next screen, try pressing '4' to select the second deck.","52","","instructions","2021-07-01 21:12:01.401","","","","","",""
"card-selection-trial","19","102474","0.0-13.0-0.0","960","true","img/card_backs/set1/green.gif","img/card_backs/set1/yellow.gif","img/card_backs/set1/purple.gif","img/card_backs/set1/red.gif","img/card_backs/set2/orange.gif","img/card_backs/set2/pink.gif","img/card_backs/set2/blue.gif","img/card_backs/set2/gray.gif","""event"",""trial"",""time""
""fullscreenenter"",""1"",""6634""
","
","
","""event"",""trial"",""time""
""fullscreenenter"",""1"",""6634""
","
","","486.5","","","","practice_card_selection","2021-07-01 21:12:03.911","img/practice_cards/backs/black.gif","1","-100","","",""
"casino-keyboard-response","20","107202","0.0-14.0-0.0","960","true","img/card_backs/set1/green.gif","img/card_backs/set1/yellow.gif","img/card_backs/set1/purple.gif","img/card_backs/set1/red.gif","img/card_backs/set2/orange.gif","img/card_backs/set2/pink.gif","img/card_backs/set2/blue.gif","img/card_backs/set2/gray.gif","""event"",""trial"",""time""
""fullscreenenter"",""1"",""6634""
","
","
","""event"",""trial"",""time""
""fullscreenenter"",""1"",""6634""
","
","","4726.9000000003725","Finally, try pressing '8' to select the deck all the way on the right.","56","","instructions","2021-07-01 21:12:08.640","","","","","",""
"card-selection-trial","21","109573","0.0-15.0-0.0","960","true","img/card_backs/set1/green.gif","img/card_backs/set1/yellow.gif","img/card_backs/set1/purple.gif","img/card_backs/set1/red.gif","img/card_backs/set2/orange.gif","img/card_backs/set2/pink.gif","img/card_backs/set2/blue.gif","img/card_backs/set2/gray.gif","""event"",""trial"",""time""
""fullscreenenter"",""1"",""6634""
","
","
","""event"",""trial"",""time""
""fullscreenenter"",""1"",""6634""
","
","","361.5","","","","practice_card_selection","2021-07-01 21:12:11.010","img/practice_cards/backs/dark_blue.gif","3","200","","",""
"casino-keyboard-response","22","127307","0.0-16.0-0.0","960","true","img/card_backs/set1/green.gif","img/card_backs/set1/yellow.gif","img/card_backs/set1/purple.gif","img/card_backs/set1/red.gif","img/card_backs/set2/orange.gif","img/card_backs/set2/pink.gif","img/card_backs/set2/blue.gif","img/card_backs/set2/gray.gif","""event"",""trial"",""time""
""fullscreenenter"",""1"",""6634""
","
","
","""event"",""trial"",""time""
""fullscreenenter"",""1"",""6634""
","
","","17732.299999999814","Great! It seems like you are getting the hang of this.","80","","instructions","2021-07-01 21:12:28.744","","","","","",""
"casino-keyboard-response","23","134587","0.0-16.0-0.1","960","true","img/card_backs/set1/green.gif","img/card_backs/set1/yellow.gif","img/card_backs/set1/purple.gif","img/card_backs/set1/red.gif","img/card_backs/set2/orange.gif","img/card_backs/set2/pink.gif","img/card_backs/set2/blue.gif","img/card_backs/set2/gray.gif","""event"",""trial"",""time""
""fullscreenenter"",""1"",""6634""
","
","
","""event"",""trial"",""time""
""fullscreenenter"",""1"",""6634""
","
","","7277.5","You may have noticed that some cards will cause you to <b> win </b> tokens while other cards will cause you to <b> lose </b>  tokens.","70","","instructions","2021-07-01 21:12:36.024","","","","","",""
"casino-keyboard-response","24","144162","0.0-16.0-0.2","960","true","img/card_backs/set1/green.gif","img/card_backs/set1/yellow.gif","img/card_backs/set1/purple.gif","img/card_backs/set1/red.gif","img/card_backs/set2/orange.gif","img/card_backs/set2/pink.gif","img/card_backs/set2/blue.gif","img/card_backs/set2/gray.gif","""event"",""trial"",""time""
""fullscreenenter"",""1"",""6634""
","
","
","""event"",""trial"",""time""
""fullscreenenter"",""1"",""6634""
","
","","9572.799999999814","Each deck has a mix of cards that will cause you to win and lose tokens. </br> However, the cards in each colored deck are different.","73","","instructions","2021-07-01 21:12:45.599","","","","","",""
"casino-keyboard-response","25","152730","0.0-16.0-0.3","960","true","img/card_backs/set1/green.gif","img/card_backs/set1/yellow.gif","img/card_backs/set1/purple.gif","img/card_backs/set1/red.gif","img/card_backs/set2/orange.gif","img/card_backs/set2/pink.gif","img/card_backs/set2/blue.gif","img/card_backs/set2/gray.gif","""event"",""trial"",""time""
""fullscreenenter"",""1"",""6634""
","
","
","""event"",""trial"",""time""
""fullscreenenter"",""1"",""6634""
","
","","8565.400000000373","Some colored decks are luckier than others. </br> If you choose the lucky decks, you will earn more tokens than if you choose the unlucky decks.","69","","instructions","2021-07-01 21:12:54.167","","","","","",""
"casino-keyboard-response","26","160156","0.0-16.0-0.4","960","true","img/card_backs/set1/green.gif","img/card_backs/set1/yellow.gif","img/card_backs/set1/purple.gif","img/card_backs/set1/red.gif","img/card_backs/set2/orange.gif","img/card_backs/set2/pink.gif","img/card_backs/set2/blue.gif","img/card_backs/set2/gray.gif","""event"",""trial"",""time""
""fullscreenenter"",""1"",""6634""
","
","
","""event"",""trial"",""time""
""fullscreenenter"",""1"",""6634""
","
","","7424","You should try to figure out which decks are lucky. </br> Then, try to choose the lucky decks so you can win the most tokens.","87","","instructions","2021-07-01 21:13:01.593","","","","","",""
"casino-keyboard-response","27","171964","0.0-16.0-0.5","960","true","img/card_backs/set1/green.gif","img/card_backs/set1/yellow.gif","img/card_backs/set1/purple.gif","img/card_backs/set1/red.gif","img/card_backs/set2/orange.gif","img/card_backs/set2/pink.gif","img/card_backs/set2/blue.gif","img/card_backs/set2/gray.gif","""event"",""trial"",""time""
""fullscreenenter"",""1"",""6634""
","
","
","""event"",""trial"",""time""
""fullscreenenter"",""1"",""6634""
","
","","11805.599999999627","To make it trickier, the casino dealer will switch the locations of the decks on every turn. </br> The color of the deck determines how lucky it is. The location does not matter.","88","","instructions","2021-07-01 21:13:13.401","","","","","",""
"casino-keyboard-response","28","181956","0.0-16.0-0.6","960","true","img/card_backs/set1/green.gif","img/card_backs/set1/yellow.gif","img/card_backs/set1/purple.gif","img/card_backs/set1/red.gif","img/card_backs/set2/orange.gif","img/card_backs/set2/pink.gif","img/card_backs/set2/blue.gif","img/card_backs/set2/gray.gif","""event"",""trial"",""time""
""fullscreenenter"",""1"",""6634""
","
","
","""event"",""trial"",""time""
""fullscreenenter"",""1"",""6634""
","
","","9989.599999999627","The mix of cards in each colored deck will stay the same throughout the game. </br> That means that a deck that is lucky early on will stay lucky.","79","","instructions","2021-07-01 21:13:23.393","","","","","",""
"casino-keyboard-response","29","190417","0.0-16.0-0.7","960","true","img/card_backs/set1/green.gif","img/card_backs/set1/yellow.gif","img/card_backs/set1/purple.gif","img/card_backs/set1/red.gif","img/card_backs/set2/orange.gif","img/card_backs/set2/pink.gif","img/card_backs/set2/blue.gif","img/card_backs/set2/gray.gif","""event"",""trial"",""time""
""fullscreenenter"",""1"",""6634""
","
","
","""event"",""trial"",""time""
""fullscreenenter"",""1"",""6634""
","
","","8448.200000000186","Remember though, all the decks have a <b> mix </b> of both <b> good </b> and <b> bad </b> cards so it may take a couple of turns to figure out if a deck is lucky.","69","","instructions","2021-07-01 21:13:31.854","","","","","",""
"casino-keyboard-response","30","200025","0.0-16.0-0.8","960","true","img/card_backs/set1/green.gif","img/card_backs/set1/yellow.gif","img/card_backs/set1/purple.gif","img/card_backs/set1/red.gif","img/card_backs/set2/orange.gif","img/card_backs/set2/pink.gif","img/card_backs/set2/blue.gif","img/card_backs/set2/gray.gif","""event"",""trial"",""time""
""fullscreenenter"",""1"",""6634""
","
","
","""event"",""trial"",""time""
""fullscreenenter"",""1"",""6634""
","
","","9605.799999999814","At the end of the game, you will be paid bonus money based on how many tokens you win. </br> If you win more tokens, you will earn more money!","72","","instructions","2021-07-01 21:13:41.462","","","","","",""
"casino-keyboard-response","31","211096","0.0-16.0-0.9","960","true","img/card_backs/set1/green.gif","img/card_backs/set1/yellow.gif","img/card_backs/set1/purple.gif","img/card_backs/set1/red.gif","img/card_backs/set2/orange.gif","img/card_backs/set2/pink.gif","img/card_backs/set2/blue.gif","img/card_backs/set2/gray.gif","""event"",""trial"",""time""
""fullscreenenter"",""1"",""6634""
","
","
","""event"",""trial"",""time""
""fullscreenenter"",""1"",""6634""
","
","","11068.600000000559","You will never <b> lose </b> money. </br> If you end up with fewer than 0 tokens, you will earn $0 of bonus money, but you will still be paid for playing the game.","83","","instructions","2021-07-01 21:13:52.533","","","","","",""
"casino-keyboard-response","32","215530","0.0-16.0-0.10","960","true","img/card_backs/set1/green.gif","img/card_backs/set1/yellow.gif","img/card_backs/set1/purple.gif","img/card_backs/set1/red.gif","img/card_backs/set2/orange.gif","img/card_backs/set2/pink.gif","img/card_backs/set2/blue.gif","img/card_backs/set2/gray.gif","""event"",""trial"",""time""
""fullscreenenter"",""1"",""6634""
","
","
","""event"",""trial"",""time""
""fullscreenenter"",""1"",""6634""
","
","","4431.5","You will have 10 seconds to make each choice.","82","","instructions","2021-07-01 21:13:56.967","","","","","",""
"casino-keyboard-response","33","224295","0.0-16.0-0.11","960","true","img/card_backs/set1/green.gif","img/card_backs/set1/yellow.gif","img/card_backs/set1/purple.gif","img/card_backs/set1/red.gif","img/card_backs/set2/orange.gif","img/card_backs/set2/pink.gif","img/card_backs/set2/blue.gif","img/card_backs/set2/gray.gif","""event"",""trial"",""time""
""fullscreenenter"",""1"",""6634""
","
","
","""event"",""trial"",""time""
""fullscreenenter"",""1"",""6634""
","
","","8762.700000000186","Before you play the game for real, you will play with practice decks. </br> The tokens you earn during practice won't count toward your total.","86","","instructions","2021-07-01 21:14:05.732","","","","","",""
"casino-keyboard-response","34","235234","0.0-16.0-0.12","960","true","img/card_backs/set1/green.gif","img/card_backs/set1/yellow.gif","img/card_backs/set1/purple.gif","img/card_backs/set1/red.gif","img/card_backs/set2/orange.gif","img/card_backs/set2/pink.gif","img/card_backs/set2/blue.gif","img/card_backs/set2/gray.gif","""event"",""trial"",""time""
""fullscreenenter"",""1"",""6634""
","
","
","""event"",""trial"",""time""
""fullscreenenter"",""1"",""6634""
","
","","10936","Ready? Remember, use the '2', '4', '6', and '8' keys to select the decks. </br> Put your fingers on those keys now and then press '2' to begin.","50","","instructions","2021-07-01 21:14:16.671","","","","","",""
"casino-fixation","35","235736","0.0-17.0-0.0","960","true","img/card_backs/set1/green.gif","img/card_backs/set1/yellow.gif","img/card_backs/set1/purple.gif","img/card_backs/set1/red.gif","img/card_backs/set2/orange.gif","img/card_backs/set2/pink.gif","img/card_backs/set2/blue.gif","img/card_backs/set2/gray.gif","""event"",""trial"",""time""
""fullscreenenter"",""1"",""6634""
","
","
","""event"",""trial"",""time""
""fullscreenenter"",""1"",""6634""
","
","","null","","null","","fixation","2021-07-01 21:14:17.173","","","","","",""
"card-selection-trial","36","239622","0.0-17.0-1.0","960","true","img/card_backs/set1/green.gif","img/card_backs/set1/yellow.gif","img/card_backs/set1/purple.gif","img/card_backs/set1/red.gif","img/card_backs/set2/orange.gif","img/card_backs/set2/pink.gif","img/card_backs/set2/blue.gif","img/card_backs/set2/gray.gif","""event"",""trial"",""time""
""fullscreenenter"",""1"",""6634""
","
","
","""event"",""trial"",""time""
""fullscreenenter"",""1"",""6634""
","
","","1869.8999999994412","","","","practice","2021-07-01 21:14:21.059","img/practice_cards/backs/black.gif","1","100","0","",""
"casino-fixation","37","240125","0.0-17.0-0.1","960","true","img/card_backs/set1/green.gif","img/card_backs/set1/yellow.gif","img/card_backs/set1/purple.gif","img/card_backs/set1/red.gif","img/card_backs/set2/orange.gif","img/card_backs/set2/pink.gif","img/card_backs/set2/blue.gif","img/card_backs/set2/gray.gif","""event"",""trial"",""time""
""fullscreenenter"",""1"",""6634""
","
","
","""event"",""trial"",""time""
""fullscreenenter"",""1"",""6634""
","
","","null","","null","","fixation","2021-07-01 21:14:21.562","","","","","",""
"card-selection-trial","38","245449","0.0-17.0-1.1","960","true","img/card_backs/set1/green.gif","img/card_backs/set1/yellow.gif","img/card_backs/set1/purple.gif","img/card_backs/set1/red.gif","img/card_backs/set2/orange.gif","img/card_backs/set2/pink.gif","img/card_backs/set2/blue.gif","img/card_backs/set2/gray.gif","""event"",""trial"",""time""
""fullscreenenter"",""1"",""6634""
","
","
","""event"",""trial"",""time""
""fullscreenenter"",""1"",""6634""
","
","","3315.7999999998137","","","","practice","2021-07-01 21:14:26.886","img/practice_cards/backs/black.gif","1","-100","0","",""
"casino-fixation","39","245951","0.0-17.0-0.2","960","true","img/card_backs/set1/green.gif","img/card_backs/set1/yellow.gif","img/card_backs/set1/purple.gif","img/card_backs/set1/red.gif","img/card_backs/set2/orange.gif","img/card_backs/set2/pink.gif","img/card_backs/set2/blue.gif","img/card_backs/set2/gray.gif","""event"",""trial"",""time""
""fullscreenenter"",""1"",""6634""
","
","
","""event"",""trial"",""time""
""fullscreenenter"",""1"",""6634""
","
","","null","","null","","fixation","2021-07-01 21:14:27.388","","","","","",""
"card-selection-trial","40","250989","0.0-17.0-1.2","960","true","img/card_backs/set1/green.gif","img/card_backs/set1/yellow.gif","img/card_backs/set1/purple.gif","img/card_backs/set1/red.gif","img/card_backs/set2/orange.gif","img/card_backs/set2/pink.gif","img/card_backs/set2/blue.gif","img/card_backs/set2/gray.gif","""event"",""trial"",""time""
""fullscreenenter"",""1"",""6634""
","
","
","""event"",""trial"",""time""
""fullscreenenter"",""1"",""6634""
","
","","3029.5","","","","practice","2021-07-01 21:14:32.426","img/practice_cards/backs/brown.gif","3","-100","0","",""
"casino-fixation","41","251491","0.0-17.0-0.3","960","true","img/card_backs/set1/green.gif","img/card_backs/set1/yellow.gif","img/card_backs/set1/purple.gif","img/card_backs/set1/red.gif","img/card_backs/set2/orange.gif","img/card_backs/set2/pink.gif","img/card_backs/set2/blue.gif","img/card_backs/set2/gray.gif","""event"",""trial"",""time""
""fullscreenenter"",""1"",""6634""
","
","
","""event"",""trial"",""time""
""fullscreenenter"",""1"",""6634""
","
","","null","","null","","fixation","2021-07-01 21:14:32.928","","","","","",""
"card-selection-trial","42","254391","0.0-17.0-1.3","960","true","img/card_backs/set1/green.gif","img/card_backs/set1/yellow.gif","img/card_backs/set1/purple.gif","img/card_backs/set1/red.gif","img/card_backs/set2/orange.gif","img/card_backs/set2/pink.gif","img/card_backs/set2/blue.gif","img/card_backs/set2/gray.gif","""event"",""trial"",""time""
""fullscreenenter"",""1"",""6634""
","
","
","""event"",""trial"",""time""
""fullscreenenter"",""1"",""6634""
","
","","893.3000000007451","","","","practice","2021-07-01 21:14:35.828","img/practice_cards/backs/black.gif","2","100","0","",""
"casino-fixation","43","254893","0.0-17.0-0.4","960","true","img/card_backs/set1/green.gif","img/card_backs/set1/yellow.gif","img/card_backs/set1/purple.gif","img/card_backs/set1/red.gif","img/card_backs/set2/orange.gif","img/card_backs/set2/pink.gif","img/card_backs/set2/blue.gif","img/card_backs/set2/gray.gif","""event"",""trial"",""time""
""fullscreenenter"",""1"",""6634""
","
","
","""event"",""trial"",""time""
""fullscreenenter"",""1"",""6634""
","
","","null","","null","","fixation","2021-07-01 21:14:36.330","","","","","",""
"card-selection-trial","44","258294","0.0-17.0-1.4","960","true","img/card_backs/set1/green.gif","img/card_backs/set1/yellow.gif","img/card_backs/set1/purple.gif","img/card_backs/set1/red.gif","img/card_backs/set2/orange.gif","img/card_backs/set2/pink.gif","img/card_backs/set2/blue.gif","img/card_backs/set2/gray.gif","""event"",""trial"",""time""
""fullscreenenter"",""1"",""6634""
","
","
","""event"",""trial"",""time""
""fullscreenenter"",""1"",""6634""
","
","","1393","","","","practice","2021-07-01 21:14:39.731","img/practice_cards/backs/black.gif","0","-100","0","",""
"casino-fixation","45","258796","0.0-17.0-0.5","960","true","img/card_backs/set1/green.gif","img/card_backs/set1/yellow.gif","img/card_backs/set1/purple.gif","img/card_backs/set1/red.gif","img/card_backs/set2/orange.gif","img/card_backs/set2/pink.gif","img/card_backs/set2/blue.gif","img/card_backs/set2/gray.gif","""event"",""trial"",""time""
""fullscreenenter"",""1"",""6634""
","
","
","""event"",""trial"",""time""
""fullscreenenter"",""1"",""6634""
","
","","null","","null","","fixation","2021-07-01 21:14:40.233","","","","","",""
"card-selection-trial","46","261276","0.0-17.0-1.5","960","true","img/card_backs/set1/green.gif","img/card_backs/set1/yellow.gif","img/card_backs/set1/purple.gif","img/card_backs/set1/red.gif","img/card_backs/set2/orange.gif","img/card_backs/set2/pink.gif","img/card_backs/set2/blue.gif","img/card_backs/set2/gray.gif","""event"",""trial"",""time""
""fullscreenenter"",""1"",""6634""
","
","
","""event"",""trial"",""time""
""fullscreenenter"",""1"",""6634""
","
","","471.90000000037253","","","","practice","2021-07-01 21:14:42.713","img/practice_cards/backs/brown.gif","0","-100","0","",""
"casino-fixation","47","261778","0.0-17.0-0.6","960","true","img/card_backs/set1/green.gif","img/card_backs/set1/yellow.gif","img/card_backs/set1/purple.gif","img/card_backs/set1/red.gif","img/card_backs/set2/orange.gif","img/card_backs/set2/pink.gif","img/card_backs/set2/blue.gif","img/card_backs/set2/gray.gif","""event"",""trial"",""time""
""fullscreenenter"",""1"",""6634""
","
","
","""event"",""trial"",""time""
""fullscreenenter"",""1"",""6634""
","
","","null","","null","","fixation","2021-07-01 21:14:43.215","","","","","",""
"card-selection-trial","48","265935","0.0-17.0-1.6","960","true","img/card_backs/set1/green.gif","img/card_backs/set1/yellow.gif","img/card_backs/set1/purple.gif","img/card_backs/set1/red.gif","img/card_backs/set2/orange.gif","img/card_backs/set2/pink.gif","img/card_backs/set2/blue.gif","img/card_backs/set2/gray.gif","""event"",""trial"",""time""
""fullscreenenter"",""1"",""6634""
","
","
","""event"",""trial"",""time""
""fullscreenenter"",""1"",""6634""
","
","","2147.899999999441","","","","practice","2021-07-01 21:14:47.372","img/practice_cards/backs/black.gif","2","100","0","",""
"casino-fixation","49","266437","0.0-17.0-0.7","960","true","img/card_backs/set1/green.gif","img/card_backs/set1/yellow.gif","img/card_backs/set1/purple.gif","img/card_backs/set1/red.gif","img/card_backs/set2/orange.gif","img/card_backs/set2/pink.gif","img/card_backs/set2/blue.gif","img/card_backs/set2/gray.gif","""event"",""trial"",""time""
""fullscreenenter"",""1"",""6634""
","
","
","""event"",""trial"",""time""
""fullscreenenter"",""1"",""6634""
","
","","null","","null","","fixation","2021-07-01 21:14:47.874","","","","","",""
"card-selection-trial","50","270692","0.0-17.0-1.7","960","true","img/card_backs/set1/green.gif","img/card_backs/set1/yellow.gif","img/card_backs/set1/purple.gif","img/card_backs/set1/red.gif","img/card_backs/set2/orange.gif","img/card_backs/set2/pink.gif","img/card_backs/set2/blue.gif","img/card_backs/set2/gray.gif","""event"",""trial"",""time""
""fullscreenenter"",""1"",""6634""
","
","
","""event"",""trial"",""time""
""fullscreenenter"",""1"",""6634""
","
","","2247.7000000001863","","","","practice","2021-07-01 21:14:52.129","img/practice_cards/backs/brown.gif","0","100","0","",""
"casino-fixation","51","271194","0.0-17.0-0.8","960","true","img/card_backs/set1/green.gif","img/card_backs/set1/yellow.gif","img/card_backs/set1/purple.gif","img/card_backs/set1/red.gif","img/card_backs/set2/orange.gif","img/card_backs/set2/pink.gif","img/card_backs/set2/blue.gif","img/card_backs/set2/gray.gif","""event"",""trial"",""time""
""fullscreenenter"",""1"",""6634""
","
","
","""event"",""trial"",""time""
""fullscreenenter"",""1"",""6634""
","
","","null","","null","","fixation","2021-07-01 21:14:52.632","","","","","",""
"card-selection-trial","52","275576","0.0-17.0-1.8","960","true","img/card_backs/set1/green.gif","img/card_backs/set1/yellow.gif","img/card_backs/set1/purple.gif","img/card_backs/set1/red.gif","img/card_backs/set2/orange.gif","img/card_backs/set2/pink.gif","img/card_backs/set2/blue.gif","img/card_backs/set2/gray.gif","""event"",""trial"",""time""
""fullscreenenter"",""1"",""6634""
","
","
","""event"",""trial"",""time""
""fullscreenenter"",""1"",""6634""
","
","","2369.7000000001863","","","","practice","2021-07-01 21:14:57.014","img/practice_cards/backs/black.gif","0","-100","0","",""
"casino-fixation","53","276079","0.0-17.0-0.9","960","true","img/card_backs/set1/green.gif","img/card_backs/set1/yellow.gif","img/card_backs/set1/purple.gif","img/card_backs/set1/red.gif","img/card_backs/set2/orange.gif","img/card_backs/set2/pink.gif","img/card_backs/set2/blue.gif","img/card_backs/set2/gray.gif","""event"",""trial"",""time""
""fullscreenenter"",""1"",""6634""
","
","
","""event"",""trial"",""time""
""fullscreenenter"",""1"",""6634""
","
","","null","","null","","fixation","2021-07-01 21:14:57.516","","","","","",""
"card-selection-trial","54","279740","0.0-17.0-1.9","960","true","img/card_backs/set1/green.gif","img/card_backs/set1/yellow.gif","img/card_backs/set1/purple.gif","img/card_backs/set1/red.gif","img/card_backs/set2/orange.gif","img/card_backs/set2/pink.gif","img/card_backs/set2/blue.gif","img/card_backs/set2/gray.gif","""event"",""trial"",""time""
""fullscreenenter"",""1"",""6634""
","
","
","""event"",""trial"",""time""
""fullscreenenter"",""1"",""6634""
","
","","1652.5","","","","practice","2021-07-01 21:15:01.177","img/practice_cards/backs/brown.gif","0","100","0","",""
"casino-keyboard-response","55","283345","0.0-18.0","960","true","img/card_backs/set1/green.gif","img/card_backs/set1/yellow.gif","img/card_backs/set1/purple.gif","img/card_backs/set1/red.gif","img/card_backs/set2/orange.gif","img/card_backs/set2/pink.gif","img/card_backs/set2/blue.gif","img/card_backs/set2/gray.gif","""event"",""trial"",""time""
""fullscreenenter"",""1"",""6634""
","
","
","""event"",""trial"",""time""
""fullscreenenter"",""1"",""6634""
","
","","3603.0999999996275","You earned 0 tokens during the practice round!","82","","","2021-07-01 21:15:04.782","","","","","",""
"casino-keyboard-response","56","288079","0.0-19.0-0.0","960","true","img/card_backs/set1/green.gif","img/card_backs/set1/yellow.gif","img/card_backs/set1/purple.gif","img/card_backs/set1/red.gif","img/card_backs/set2/orange.gif","img/card_backs/set2/pink.gif","img/card_backs/set2/blue.gif","img/card_backs/set2/gray.gif","""event"",""trial"",""time""
""fullscreenenter"",""1"",""6634""
","
","
","""event"",""trial"",""time""
""fullscreenenter"",""1"",""6634""
","
","","4732.100000000559","Nice job! You are almost ready to play the real game.","86","","instructions","2021-07-01 21:15:09.516","","","","","",""
"casino-keyboard-response","57","295901","0.0-19.0-0.1","960","true","img/card_backs/set1/green.gif","img/card_backs/set1/yellow.gif","img/card_backs/set1/purple.gif","img/card_backs/set1/red.gif","img/card_backs/set2/orange.gif","img/card_backs/set2/pink.gif","img/card_backs/set2/blue.gif","img/card_backs/set2/gray.gif","""event"",""trial"",""time""
""fullscreenenter"",""1"",""6634""
","
","
","""event"",""trial"",""time""
""fullscreenenter"",""1"",""6634""
","
","","7820","You will play two rounds of the real game. In each round, you will pick 100 cards in total.","73","","instructions","2021-07-01 21:15:17.338","","","","","",""
"casino-keyboard-response","58","300476","0.0-19.0-0.2","960","true","img/card_backs/set1/green.gif","img/card_backs/set1/yellow.gif","img/card_backs/set1/purple.gif","img/card_backs/set1/red.gif","img/card_backs/set2/orange.gif","img/card_backs/set2/pink.gif","img/card_backs/set2/blue.gif","img/card_backs/set2/gray.gif","""event"",""trial"",""time""
""fullscreenenter"",""1"",""6634""
","
","
","""event"",""trial"",""time""
""fullscreenenter"",""1"",""6634""
","
","","4572.700000000186","We are now going to ask you some questions about how the game works.","66","","instructions","2021-07-01 21:15:21.913","","","","","",""
"casino-keyboard-response","59","306816","0.0-19.0-0.3","960","true","img/card_backs/set1/green.gif","img/card_backs/set1/yellow.gif","img/card_backs/set1/purple.gif","img/card_backs/set1/red.gif","img/card_backs/set2/orange.gif","img/card_backs/set2/pink.gif","img/card_backs/set2/blue.gif","img/card_backs/set2/gray.gif","""event"",""trial"",""time""
""fullscreenenter"",""1"",""6634""
","
","
","""event"",""trial"",""time""
""fullscreenenter"",""1"",""6634""
","
","","6338.299999999814","Answer carefully. You will not be able to begin the game until you answer them correctly.","67","","instructions","2021-07-01 21:15:28.253","","","","","",""
"casino-comp_q","60","314839","0.0-20.0-0.0","960","true","img/card_backs/set1/green.gif","img/card_backs/set1/yellow.gif","img/card_backs/set1/purple.gif","img/card_backs/set1/red.gif","img/card_backs/set2/orange.gif","img/card_backs/set2/pink.gif","img/card_backs/set2/blue.gif","img/card_backs/set2/gray.gif","""event"",""trial"",""time""
""fullscreenenter"",""1"",""6634""
","
","
","""event"",""trial"",""time""
""fullscreenenter"",""1"",""6634""
","
","","8020.4000000003725","True or False: All the decks have some cards that cause you to win tokens and some cards that cause you to lose tokens.","84","","","2021-07-01 21:15:36.277","","","","","",""
"casino-keyboard-response","61","320391","0.0-20.0-1.0","960","true","img/card_backs/set1/green.gif","img/card_backs/set1/yellow.gif","img/card_backs/set1/purple.gif","img/card_backs/set1/red.gif","img/card_backs/set2/orange.gif","img/card_backs/set2/pink.gif","img/card_backs/set2/blue.gif","img/card_backs/set2/gray.gif","""event"",""trial"",""time""
""fullscreenenter"",""1"",""6634""
","
","
","""event"",""trial"",""time""
""fullscreenenter"",""1"",""6634""
","
","","5549.399999999441","True is correct! All the decks have a mix of winning and losing cards.","77","","","2021-07-01 21:15:41.829","","","","","true",""
"casino-comp_q","62","325096","0.0-21.0-0.0","960","true","img/card_backs/set1/green.gif","img/card_backs/set1/yellow.gif","img/card_backs/set1/purple.gif","img/card_backs/set1/red.gif","img/card_backs/set2/orange.gif","img/card_backs/set2/pink.gif","img/card_backs/set2/blue.gif","img/card_backs/set2/gray.gif","""event"",""trial"",""time""
""fullscreenenter"",""1"",""6634""
","
","
","""event"",""trial"",""time""
""fullscreenenter"",""1"",""6634""
","
","","4702.5999999996275","True or False: You will have as much time as you want to make your response.","70","","","2021-07-01 21:15:46.534","","","","","",""
"casino-keyboard-response","63","334343","0.0-21.0-1.0","960","true","img/card_backs/set1/green.gif","img/card_backs/set1/yellow.gif","img/card_backs/set1/purple.gif","img/card_backs/set1/red.gif","img/card_backs/set2/orange.gif","img/card_backs/set2/pink.gif","img/card_backs/set2/blue.gif","img/card_backs/set2/gray.gif","""event"",""trial"",""time""
""fullscreenenter"",""1"",""6634""
","
","
","""event"",""trial"",""time""
""fullscreenenter"",""1"",""6634""
","
","","9238","False is correct! You will only have 10 seconds to make each choice.","75","","","2021-07-01 21:15:55.780","","","","","true",""
"casino-comp_q","64","342050","0.0-22.0-0.0","960","true","img/card_backs/set1/green.gif","img/card_backs/set1/yellow.gif","img/card_backs/set1/purple.gif","img/card_backs/set1/red.gif","img/card_backs/set2/orange.gif","img/card_backs/set2/pink.gif","img/card_backs/set2/blue.gif","img/card_backs/set2/gray.gif","""event"",""trial"",""time""
""fullscreenenter"",""1"",""6634""
","
","
","""event"",""trial"",""time""
""fullscreenenter"",""1"",""6634""
","
","","7705.300000000745","True or False: The location of the deck determines how lucky it is.","70","","","2021-07-01 21:16:03.488","","","","","",""
"casino-keyboard-response","65","348739","0.0-22.0-1.0","960","true","img/card_backs/set1/green.gif","img/card_backs/set1/yellow.gif","img/card_backs/set1/purple.gif","img/card_backs/set1/red.gif","img/card_backs/set2/orange.gif","img/card_backs/set2/pink.gif","img/card_backs/set2/blue.gif","img/card_backs/set2/gray.gif","""event"",""trial"",""time""
""fullscreenenter"",""1"",""6634""
","
","
","""event"",""trial"",""time""
""fullscreenenter"",""1"",""6634""
","
","","6686.5999999996275","False is correct! The <i>color</i>  of the deck determines how lucky or unlucky it is.","68","","","2021-07-01 21:16:10.176","","","","","true",""
"casino-keyboard-response","66","353005","0.0-23.0-0.0","960","true","img/card_backs/set1/green.gif","img/card_backs/set1/yellow.gif","img/card_backs/set1/purple.gif","img/card_backs/set1/red.gif","img/card_backs/set2/orange.gif","img/card_backs/set2/pink.gif","img/card_backs/set2/blue.gif","img/card_backs/set2/gray.gif","""event"",""trial"",""time""
""fullscreenenter"",""1"",""6634""
","
","
","""event"",""trial"",""time""
""fullscreenenter"",""1"",""6634""
","
","","4263.5","Great job! Now it's time to start the real game.","82","","instructions","2021-07-01 21:16:14.442","","","","","",""
"casino-keyboard-response","67","358493","0.0-23.0-0.1","960","true","img/card_backs/set1/green.gif","img/card_backs/set1/yellow.gif","img/card_backs/set1/purple.gif","img/card_backs/set1/red.gif","img/card_backs/set2/orange.gif","img/card_backs/set2/pink.gif","img/card_backs/set2/blue.gif","img/card_backs/set2/gray.gif","""event"",""trial"",""time""
""fullscreenenter"",""1"",""6634""
","
","
","""event"",""trial"",""time""
""fullscreenenter"",""1"",""6634""
","
","","5486.200000000186","Before we start, we're going to head into a new room of the casino.","86","","instructions","2021-07-01 21:16:19.930","","","","","",""
"casino-keyboard-response","68","365011","0.0-24.0-0.0","960","true","img/card_backs/set1/green.gif","img/card_backs/set1/yellow.gif","img/card_backs/set1/purple.gif","img/card_backs/set1/red.gif","img/card_backs/set2/orange.gif","img/card_backs/set2/pink.gif","img/card_backs/set2/blue.gif","img/card_backs/set2/gray.gif","""event"",""trial"",""time""
""fullscreenenter"",""1"",""6634""
","
","
","""event"",""trial"",""time""
""fullscreenenter"",""1"",""6634""
","
","","6516.4000000003725","Here we are! The real game will use different cards, but the rules will be the same.","71","","instructions","2021-07-01 21:16:26.448","","","","","",""
"casino-keyboard-response","69","374178","0.0-24.0-0.1","960","true","img/card_backs/set1/green.gif","img/card_backs/set1/yellow.gif","img/card_backs/set1/purple.gif","img/card_backs/set1/red.gif","img/card_backs/set2/orange.gif","img/card_backs/set2/pink.gif","img/card_backs/set2/blue.gif","img/card_backs/set2/gray.gif","""event"",""trial"",""time""
""fullscreenenter"",""1"",""6634""
","
","
","""event"",""trial"",""time""
""fullscreenenter"",""1"",""6634""
","
","","9165","Ready? Put your fingers over the '2', '4', 6', and '8' keys so you are ready to play the game. </br> Then press 2 to start.","50","","instructions","2021-07-01 21:16:35.615","","","","","",""
"casino-fixation","70","374681","0.0-25.0-0.0","960","true","img/card_backs/set1/green.gif","img/card_backs/set1/yellow.gif","img/card_backs/set1/purple.gif","img/card_backs/set1/red.gif","img/card_backs/set2/orange.gif","img/card_backs/set2/pink.gif","img/card_backs/set2/blue.gif","img/card_backs/set2/gray.gif","""event"",""trial"",""time""
""fullscreenenter"",""1"",""6634""
","
","
","""event"",""trial"",""time""
""fullscreenenter"",""1"",""6634""
","
","","null","","null","","fixation","2021-07-01 21:16:36.118","","","","","",""
"card-selection-trial","71","378274","0.0-25.0-1.0","960","true","img/card_backs/set1/green.gif","img/card_backs/set1/yellow.gif","img/card_backs/set1/purple.gif","img/card_backs/set1/red.gif","img/card_backs/set2/orange.gif","img/card_backs/set2/pink.gif","img/card_backs/set2/blue.gif","img/card_backs/set2/gray.gif","""event"",""trial"",""time""
""fullscreenenter"",""1"",""6634""
","
","
","""event"",""trial"",""time""
""fullscreenenter"",""1"",""6634""
","
","","1576.3999999994412","","","","real_trial","2021-07-01 21:16:39.711","img/card_backs/set1/purple.gif","1","-100","1","",""
"casino-fixation","72","378775","0.0-25.0-0.1","960","true","img/card_backs/set1/green.gif","img/card_backs/set1/yellow.gif","img/card_backs/set1/purple.gif","img/card_backs/set1/red.gif","img/card_backs/set2/orange.gif","img/card_backs/set2/pink.gif","img/card_backs/set2/blue.gif","img/card_backs/set2/gray.gif","""event"",""trial"",""time""
""fullscreenenter"",""1"",""6634""
","
","
","""event"",""trial"",""time""
""fullscreenenter"",""1"",""6634""
","
","","null","","null","","fixation","2021-07-01 21:16:40.213","","","","","",""
"card-selection-trial","73","382609","0.0-25.0-1.1","960","true","img/card_backs/set1/green.gif","img/card_backs/set1/yellow.gif","img/card_backs/set1/purple.gif","img/card_backs/set1/red.gif","img/card_backs/set2/orange.gif","img/card_backs/set2/pink.gif","img/card_backs/set2/blue.gif","img/card_backs/set2/gray.gif","""event"",""trial"",""time""
""fullscreenenter"",""1"",""6634""
","
","
","""event"",""trial"",""time""
""fullscreenenter"",""1"",""6634""
","
","","1820.4000000003725","","","","real_trial","2021-07-01 21:16:44.046","img/card_backs/set1/yellow.gif","1","260","1","",""
"casino-fixation","74","383112","0.0-25.0-0.2","960","true","img/card_backs/set1/green.gif","img/card_backs/set1/yellow.gif","img/card_backs/set1/purple.gif","img/card_backs/set1/red.gif","img/card_backs/set2/orange.gif","img/card_backs/set2/pink.gif","img/card_backs/set2/blue.gif","img/card_backs/set2/gray.gif","""event"",""trial"",""time""
""fullscreenenter"",""1"",""6634""
","
","
","""event"",""trial"",""time""
""fullscreenenter"",""1"",""6634""
","
","","null","","null","","fixation","2021-07-01 21:16:44.549","","","","","",""
"card-selection-trial","75","387915","0.0-25.0-1.2","960","true","img/card_backs/set1/green.gif","img/card_backs/set1/yellow.gif","img/card_backs/set1/purple.gif","img/card_backs/set1/red.gif","img/card_backs/set2/orange.gif","img/card_backs/set2/pink.gif","img/card_backs/set2/blue.gif","img/card_backs/set2/gray.gif","""event"",""trial"",""time""
""fullscreenenter"",""1"",""6634""
","
","
","""event"",""trial"",""time""
""fullscreenenter"",""1"",""6634""
","
","","2794.5","","","","real_trial","2021-07-01 21:16:49.352","img/card_backs/set1/purple.gif","3","40","1","",""
"casino-fixation","76","388417","0.0-25.0-0.3","960","true","img/card_backs/set1/green.gif","img/card_backs/set1/yellow.gif","img/card_backs/set1/purple.gif","img/card_backs/set1/red.gif","img/card_backs/set2/orange.gif","img/card_backs/set2/pink.gif","img/card_backs/set2/blue.gif","img/card_backs/set2/gray.gif","""event"",""trial"",""time""
""fullscreenenter"",""1"",""6634""
","
","
","""event"",""trial"",""time""
""fullscreenenter"",""1"",""6634""
","
","","null","","null","","fixation","2021-07-01 21:16:49.854","","","","","",""
"card-selection-trial","77","392490","0.0-25.0-1.3","960","true","img/card_backs/set1/green.gif","img/card_backs/set1/yellow.gif","img/card_backs/set1/purple.gif","img/card_backs/set1/red.gif","img/card_backs/set2/orange.gif","img/card_backs/set2/pink.gif","img/card_backs/set2/blue.gif","img/card_backs/set2/gray.gif","""event"",""trial"",""time""
""fullscreenenter"",""1"",""6634""
","
","
","""event"",""trial"",""time""
""fullscreenenter"",""1"",""6634""
","
","","2065.600000000559","","","","real_trial","2021-07-01 21:16:53.927","img/card_backs/set1/green.gif","2","260","1","",""
"casino-fixation","78","392992","0.0-25.0-0.4","960","true","img/card_backs/set1/green.gif","img/card_backs/set1/yellow.gif","img/card_backs/set1/purple.gif","img/card_backs/set1/red.gif","img/card_backs/set2/orange.gif","img/card_backs/set2/pink.gif","img/card_backs/set2/blue.gif","img/card_backs/set2/gray.gif","""event"",""trial"",""time""
""fullscreenenter"",""1"",""6634""
","
","
","""event"",""trial"",""time""
""fullscreenenter"",""1"",""6634""
","
","","null","","null","","fixation","2021-07-01 21:16:54.429","","","","","",""
"card-selection-trial","79","396589","0.0-25.0-1.4","960","true","img/card_backs/set1/green.gif","img/card_backs/set1/yellow.gif","img/card_backs/set1/purple.gif","img/card_backs/set1/red.gif","img/card_backs/set2/orange.gif","img/card_backs/set2/pink.gif","img/card_backs/set2/blue.gif","img/card_backs/set2/gray.gif","""event"",""trial"",""time""
""fullscreenenter"",""1"",""6634""
","
","
","""event"",""trial"",""time""
""fullscreenenter"",""1"",""6634""
","
","","1589.9000000003725","","","","real_trial","2021-07-01 21:16:58.026","img/card_backs/set1/green.gif","0","250","1","",""
"casino-fixation","80","397092","0.0-25.0-0.5","960","true","img/card_backs/set1/green.gif","img/card_backs/set1/yellow.gif","img/card_backs/set1/purple.gif","img/card_backs/set1/red.gif","img/card_backs/set2/orange.gif","img/card_backs/set2/pink.gif","img/card_backs/set2/blue.gif","img/card_backs/set2/gray.gif","""event"",""trial"",""time""
""fullscreenenter"",""1"",""6634""
","
","
","""event"",""trial"",""time""
""fullscreenenter"",""1"",""6634""
","
","","null","","null","","fixation","2021-07-01 21:16:58.529","","","","","",""
"card-selection-trial","81","402089","0.0-25.0-1.5","960","true","img/card_backs/set1/green.gif","img/card_backs/set1/yellow.gif","img/card_backs/set1/purple.gif","img/card_backs/set1/red.gif","img/card_backs/set2/orange.gif","img/card_backs/set2/pink.gif","img/card_backs/set2/blue.gif","img/card_backs/set2/gray.gif","""event"",""trial"",""time""
""fullscreenenter"",""1"",""6634""
","
","
","""event"",""trial"",""time""
""fullscreenenter"",""1"",""6634""
","
","","2990.199999999255","","","","real_trial","2021-07-01 21:17:03.526","img/card_backs/set1/yellow.gif","2","260","1","",""
"casino-fixation","82","402591","0.0-25.0-0.6","960","true","img/card_backs/set1/green.gif","img/card_backs/set1/yellow.gif","img/card_backs/set1/purple.gif","img/card_backs/set1/red.gif","img/card_backs/set2/orange.gif","img/card_backs/set2/pink.gif","img/card_backs/set2/blue.gif","img/card_backs/set2/gray.gif","""event"",""trial"",""time""
""fullscreenenter"",""1"",""6634""
","
","
","""event"",""trial"",""time""
""fullscreenenter"",""1"",""6634""
","
","","null","","null","","fixation","2021-07-01 21:17:04.028","","","","","",""
"card-selection-trial","83","406812","0.0-25.0-1.6","960","true","img/card_backs/set1/green.gif","img/card_backs/set1/yellow.gif","img/card_backs/set1/purple.gif","img/card_backs/set1/red.gif","img/card_backs/set2/orange.gif","img/card_backs/set2/pink.gif","img/card_backs/set2/blue.gif","img/card_backs/set2/gray.gif","""event"",""trial"",""time""
""fullscreenenter"",""1"",""6634""
","
","
","""event"",""trial"",""time""
""fullscreenenter"",""1"",""6634""
","
","","2213.4000000003725","","","","real_trial","2021-07-01 21:17:08.250","img/card_backs/set1/yellow.gif","1","-210","1","",""
"casino-fixation","84","407314","0.0-25.0-0.7","960","true","img/card_backs/set1/green.gif","img/card_backs/set1/yellow.gif","img/card_backs/set1/purple.gif","img/card_backs/set1/red.gif","img/card_backs/set2/orange.gif","img/card_backs/set2/pink.gif","img/card_backs/set2/blue.gif","img/card_backs/set2/gray.gif","""event"",""trial"",""time""
""fullscreenenter"",""1"",""6634""
","
","
","""event"",""trial"",""time""
""fullscreenenter"",""1"",""6634""
","
","","null","","null","","fixation","2021-07-01 21:17:08.752","","","","","",""
"card-selection-trial","85","410347","0.0-25.0-1.7","960","true","img/card_backs/set1/green.gif","img/card_backs/set1/yellow.gif","img/card_backs/set1/purple.gif","img/card_backs/set1/red.gif","img/card_backs/set2/orange.gif","img/card_backs/set2/pink.gif","img/card_backs/set2/blue.gif","img/card_backs/set2/gray.gif","""event"",""trial"",""time""
""fullscreenenter"",""1"",""6634""
","
","
","""event"",""trial"",""time""
""fullscreenenter"",""1"",""6634""
","
","","1023","","","","real_trial","2021-07-01 21:17:11.784","img/card_backs/set1/purple.gif","3","60","1","",""
"casino-fixation","86","410848","0.0-25.0-0.8","960","true","img/card_backs/set1/green.gif","img/card_backs/set1/yellow.gif","img/card_backs/set1/purple.gif","img/card_backs/set1/red.gif","img/card_backs/set2/orange.gif","img/card_backs/set2/pink.gif","img/card_backs/set2/blue.gif","img/card_backs/set2/gray.gif","""event"",""trial"",""time""
""fullscreenenter"",""1"",""6634""
","
","
","""event"",""trial"",""time""
""fullscreenenter"",""1"",""6634""
","
","","null","","null","","fixation","2021-07-01 21:17:12.285","","","","","",""
"card-selection-trial","87","414804","0.0-25.0-1.8","960","true","img/card_backs/set1/green.gif","img/card_backs/set1/yellow.gif","img/card_backs/set1/purple.gif","img/card_backs/set1/red.gif","img/card_backs/set2/orange.gif","img/card_backs/set2/pink.gif","img/card_backs/set2/blue.gif","img/card_backs/set2/gray.gif","""event"",""trial"",""time""
""fullscreenenter"",""1"",""6634""
","
","
","""event"",""trial"",""time""
""fullscreenenter"",""1"",""6634""
","
","","1947.6000000005588","","","","real_trial","2021-07-01 21:17:16.241","img/card_backs/set1/green.gif","2","250","1","",""
"casino-fixation","88","415306","0.0-25.0-0.9","960","true","img/card_backs/set1/green.gif","img/card_backs/set1/yellow.gif","img/card_backs/set1/purple.gif","img/card_backs/set1/red.gif","img/card_backs/set2/orange.gif","img/card_backs/set2/pink.gif","img/card_backs/set2/blue.gif","img/card_backs/set2/gray.gif","""event"",""trial"",""time""
""fullscreenenter"",""1"",""6634""
","
","
","""event"",""trial"",""time""
""fullscreenenter"",""1"",""6634""
","
","","null","","null","","fixation","2021-07-01 21:17:16.743","","","","","",""
"card-selection-trial","89","419469","0.0-25.0-1.9","960","true","img/card_backs/set1/green.gif","img/card_backs/set1/yellow.gif","img/card_backs/set1/purple.gif","img/card_backs/set1/red.gif","img/card_backs/set2/orange.gif","img/card_backs/set2/pink.gif","img/card_backs/set2/blue.gif","img/card_backs/set2/gray.gif","""event"",""trial"",""time""
""fullscreenenter"",""1"",""6634""
","
","
","""event"",""trial"",""time""
""fullscreenenter"",""1"",""6634""
","
","","2155.5","","","","real_trial","2021-07-01 21:17:20.906","img/card_backs/set1/red.gif","0","40","1","",""
"casino-fixation","90","419971","0.0-25.0-0.10","960","true","img/card_backs/set1/green.gif","img/card_backs/set1/yellow.gif","img/card_backs/set1/purple.gif","img/card_backs/set1/red.gif","img/card_backs/set2/orange.gif","img/card_backs/set2/pink.gif","img/card_backs/set2/blue.gif","img/card_backs/set2/gray.gif","""event"",""trial"",""time""
""fullscreenenter"",""1"",""6634""
","
","
","""event"",""trial"",""time""
""fullscreenenter"",""1"",""6634""
","
","","null","","null","","fixation","2021-07-01 21:17:21.408","","","","","",""
"card-selection-trial","91","423106","0.0-25.0-1.10","960","true","img/card_backs/set1/green.gif","img/card_backs/set1/yellow.gif","img/card_backs/set1/purple.gif","img/card_backs/set1/red.gif","img/card_backs/set2/orange.gif","img/card_backs/set2/pink.gif","img/card_backs/set2/blue.gif","img/card_backs/set2/gray.gif","""event"",""trial"",""time""
""fullscreenenter"",""1"",""6634""
","
","
","""event"",""trial"",""time""
""fullscreenenter"",""1"",""6634""
","
","","1126.800000000745","","","","real_trial","2021-07-01 21:17:24.543","img/card_backs/set1/purple.gif","1","60","1","",""
"casino-fixation","92","423608","0.0-25.0-0.11","960","true","img/card_backs/set1/green.gif","img/card_backs/set1/yellow.gif","img/card_backs/set1/purple.gif","img/card_backs/set1/red.gif","img/card_backs/set2/orange.gif","img/card_backs/set2/pink.gif","img/card_backs/set2/blue.gif","img/card_backs/set2/gray.gif","""event"",""trial"",""time""
""fullscreenenter"",""1"",""6634""
","
","
","""event"",""trial"",""time""
""fullscreenenter"",""1"",""6634""
","
","","null","","null","","fixation","2021-07-01 21:17:25.045","","","","","",""
"card-selection-trial","93","425957","0.0-25.0-1.11","960","true","img/card_backs/set1/green.gif","img/card_backs/set1/yellow.gif","img/card_backs/set1/purple.gif","img/card_backs/set1/red.gif","img/card_backs/set2/orange.gif","img/card_backs/set2/pink.gif","img/card_backs/set2/blue.gif","img/card_backs/set2/gray.gif","""event"",""trial"",""time""
""fullscreenenter"",""1"",""6634""
","
","
","""event"",""trial"",""time""
""fullscreenenter"",""1"",""6634""
","
","","342.29999999981374","","","","real_trial","2021-07-01 21:17:27.394","img/card_backs/set1/red.gif","3","-90","1","",""
"casino-fixation","94","426459","0.0-25.0-0.12","960","true","img/card_backs/set1/green.gif","img/card_backs/set1/yellow.gif","img/card_backs/set1/purple.gif","img/card_backs/set1/red.gif","img/card_backs/set2/orange.gif","img/card_backs/set2/pink.gif","img/card_backs/set2/blue.gif","img/card_backs/set2/gray.gif","""event"",""trial"",""time""
""fullscreenenter"",""1"",""6634""
","
","
","""event"",""trial"",""time""
""fullscreenenter"",""1"",""6634""
","
","","null","","null","","fixation","2021-07-01 21:17:27.896","","","","","",""
"card-selection-trial","95","429598","0.0-25.0-1.12","960","true","img/card_backs/set1/green.gif","img/card_backs/set1/yellow.gif","img/card_backs/set1/purple.gif","img/card_backs/set1/red.gif","img/card_backs/set2/orange.gif","img/card_backs/set2/pink.gif","img/card_backs/set2/blue.gif","img/card_backs/set2/gray.gif","""event"",""trial"",""time""
""fullscreenenter"",""1"",""6634""
","
","
","""event"",""trial"",""time""
""fullscreenenter"",""1"",""6634""
","
","","1131.7000000001863","","","","real_trial","2021-07-01 21:17:31.035","img/card_backs/set1/red.gif","2","50","1","",""
"casino-fixation","96","430099","0.0-25.0-0.13","960","true","img/card_backs/set1/green.gif","img/card_backs/set1/yellow.gif","img/card_backs/set1/purple.gif","img/card_backs/set1/red.gif","img/card_backs/set2/orange.gif","img/card_backs/set2/pink.gif","img/card_backs/set2/blue.gif","img/card_backs/set2/gray.gif","""event"",""trial"",""time""
""fullscreenenter"",""1"",""6634""
","
","
","""event"",""trial"",""time""
""fullscreenenter"",""1"",""6634""
","
","","null","","null","","fixation","2021-07-01 21:17:31.536","","","","","",""
"card-selection-trial","97","434787","0.0-25.0-1.13","960","true","img/card_backs/set1/green.gif","img/card_backs/set1/yellow.gif","img/card_backs/set1/purple.gif","img/card_backs/set1/red.gif","img/card_backs/set2/orange.gif","img/card_backs/set2/pink.gif","img/card_backs/set2/blue.gif","img/card_backs/set2/gray.gif","""event"",""trial"",""time""
""fullscreenenter"",""1"",""6634""
","
","
","""event"",""trial"",""time""
""fullscreenenter"",""1"",""6634""
","
","","2681.2000000001863","","","","real_trial","2021-07-01 21:17:36.224","img/card_backs/set1/green.gif","0","250","1","",""
"casino-fixation","98","435289","0.0-25.0-0.14","960","true","img/card_backs/set1/green.gif","img/card_backs/set1/yellow.gif","img/card_backs/set1/purple.gif","img/card_backs/set1/red.gif","img/card_backs/set2/orange.gif","img/card_backs/set2/pink.gif","img/card_backs/set2/blue.gif","img/card_backs/set2/gray.gif","""event"",""trial"",""time""
""fullscreenenter"",""1"",""6634""
","
","
","""event"",""trial"",""time""
""fullscreenenter"",""1"",""6634""
","
","","null","","null","","fixation","2021-07-01 21:17:36.726","","","","","",""
"card-selection-trial","99","439069","0.0-25.0-1.14","960","true","img/card_backs/set1/green.gif","img/card_backs/set1/yellow.gif","img/card_backs/set1/purple.gif","img/card_backs/set1/red.gif","img/card_backs/set2/orange.gif","img/card_backs/set2/pink.gif","img/card_backs/set2/blue.gif","img/card_backs/set2/gray.gif","""event"",""trial"",""time""
""fullscreenenter"",""1"",""6634""
","
","
","""event"",""trial"",""time""
""fullscreenenter"",""1"",""6634""
","
","","1772.7000000001863","","","","real_trial","2021-07-01 21:17:40.507","img/card_backs/set1/red.gif","2","-100","1","",""
"casino-fixation","100","439572","0.0-25.0-0.15","960","true","img/card_backs/set1/green.gif","img/card_backs/set1/yellow.gif","img/card_backs/set1/purple.gif","img/card_backs/set1/red.gif","img/card_backs/set2/orange.gif","img/card_backs/set2/pink.gif","img/card_backs/set2/blue.gif","img/card_backs/set2/gray.gif","""event"",""trial"",""time""
""fullscreenenter"",""1"",""6634""
","
","
","""event"",""trial"",""time""
""fullscreenenter"",""1"",""6634""
","
","","null","","null","","fixation","2021-07-01 21:17:41.009","","","","","",""
"card-selection-trial","101","442422","0.0-25.0-1.15","960","true","img/card_backs/set1/green.gif","img/card_backs/set1/yellow.gif","img/card_backs/set1/purple.gif","img/card_backs/set1/red.gif","img/card_backs/set2/orange.gif","img/card_backs/set2/pink.gif","img/card_backs/set2/blue.gif","img/card_backs/set2/gray.gif","""event"",""trial"",""time""
""fullscreenenter"",""1"",""6634""
","
","
","""event"",""trial"",""time""
""fullscreenenter"",""1"",""6634""
","
","","841.4000000003725","","","","real_trial","2021-07-01 21:17:43.859","img/card_backs/set1/red.gif","3","-110","1","",""
"casino-fixation","102","442924","0.0-25.0-0.16","960","true","img/card_backs/set1/green.gif","img/card_backs/set1/yellow.gif","img/card_backs/set1/purple.gif","img/card_backs/set1/red.gif","img/card_backs/set2/orange.gif","img/card_backs/set2/pink.gif","img/card_backs/set2/blue.gif","img/card_backs/set2/gray.gif","""event"",""trial"",""time""
""fullscreenenter"",""1"",""6634""
","
","
","""event"",""trial"",""time""
""fullscreenenter"",""1"",""6634""
","
","","null","","null","","fixation","2021-07-01 21:17:44.361","","","","","",""
"card-selection-trial","103","445485","0.0-25.0-1.16","960","true","img/card_backs/set1/green.gif","img/card_backs/set1/yellow.gif","img/card_backs/set1/purple.gif","img/card_backs/set1/red.gif","img/card_backs/set2/orange.gif","img/card_backs/set2/pink.gif","img/card_backs/set2/blue.gif","img/card_backs/set2/gray.gif","""event"",""trial"",""time""
""fullscreenenter"",""1"",""6634""
","
","
","""event"",""trial"",""time""
""fullscreenenter"",""1"",""6634""
","
","","552.2999999998137","","","","real_trial","2021-07-01 21:17:46.922","img/card_backs/set1/yellow.gif","0","260","1","",""
"casino-fixation","104","445987","0.0-25.0-0.17","960","true","img/card_backs/set1/green.gif","img/card_backs/set1/yellow.gif","img/card_backs/set1/purple.gif","img/card_backs/set1/red.gif","img/card_backs/set2/orange.gif","img/card_backs/set2/pink.gif","img/card_backs/set2/blue.gif","img/card_backs/set2/gray.gif","""event"",""trial"",""time""
""fullscreenenter"",""1"",""6634""
","
","
","""event"",""trial"",""time""
""fullscreenenter"",""1"",""6634""
","
","","null","","null","","fixation","2021-07-01 21:17:47.424","","","","","",""
"card-selection-trial","105","449506","0.0-25.0-1.17","960","true","img/card_backs/set1/green.gif","img/card_backs/set1/yellow.gif","img/card_backs/set1/purple.gif","img/card_backs/set1/red.gif","img/card_backs/set2/orange.gif","img/card_backs/set2/pink.gif","img/card_backs/set2/blue.gif","img/card_backs/set2/gray.gif","""event"",""trial"",""time""
""fullscreenenter"",""1"",""6634""
","
","
","""event"",""trial"",""time""
""fullscreenenter"",""1"",""6634""
","
","","1510.3999999994412","","","","real_trial","2021-07-01 21:17:50.943","img/card_backs/set1/yellow.gif","0","260","1","",""
"casino-fixation","106","450009","0.0-25.0-0.18","960","true","img/card_backs/set1/green.gif","img/card_backs/set1/yellow.gif","img/card_backs/set1/purple.gif","img/card_backs/set1/red.gif","img/card_backs/set2/orange.gif","img/card_backs/set2/pink.gif","img/card_backs/set2/blue.gif","img/card_backs/set2/gray.gif","""event"",""trial"",""time""
""fullscreenenter"",""1"",""6634""
","
","
","""event"",""trial"",""time""
""fullscreenenter"",""1"",""6634""
","
","","null","","null","","fixation","2021-07-01 21:17:51.446","","","","","",""
"card-selection-trial","107","456984","0.0-25.0-1.18","960","true","img/card_backs/set1/green.gif","img/card_backs/set1/yellow.gif","img/card_backs/set1/purple.gif","img/card_backs/set1/red.gif","img/card_backs/set2/orange.gif","img/card_backs/set2/pink.gif","img/card_backs/set2/blue.gif","img/card_backs/set2/gray.gif","""event"",""trial"",""time""
""fullscreenenter"",""1"",""6634""
","
","
","""event"",""trial"",""time""
""fullscreenenter"",""1"",""6634""
","
","","4964.399999999441","","","","real_trial","2021-07-01 21:17:58.421","img/card_backs/set1/purple.gif","1","60","1","",""
"casino-fixation","108","457486","0.0-25.0-0.19","960","true","img/card_backs/set1/green.gif","img/card_backs/set1/yellow.gif","img/card_backs/set1/purple.gif","img/card_backs/set1/red.gif","img/card_backs/set2/orange.gif","img/card_backs/set2/pink.gif","img/card_backs/set2/blue.gif","img/card_backs/set2/gray.gif","""event"",""trial"",""time""
""fullscreenenter"",""1"",""6634""
","
","
","""event"",""trial"",""time""
""fullscreenenter"",""1"",""6634""
","
","","null","","null","","fixation","2021-07-01 21:17:58.923","","","","","",""
"card-selection-trial","109","460322","0.0-25.0-1.19","960","true","img/card_backs/set1/green.gif","img/card_backs/set1/yellow.gif","img/card_backs/set1/purple.gif","img/card_backs/set1/red.gif","img/card_backs/set2/orange.gif","img/card_backs/set2/pink.gif","img/card_backs/set2/blue.gif","img/card_backs/set2/gray.gif","""event"",""trial"",""time""
""fullscreenenter"",""1"",""6634""
","
","
","""event"",""trial"",""time""
""fullscreenenter"",""1"",""6634""
","
","","828.7999999998137","","","","real_trial","2021-07-01 21:18:01.759","img/card_backs/set1/yellow.gif","0","260","1","",""
"casino-fixation","110","460824","0.0-25.0-0.20","960","true","img/card_backs/set1/green.gif","img/card_backs/set1/yellow.gif","img/card_backs/set1/purple.gif","img/card_backs/set1/red.gif","img/card_backs/set2/orange.gif","img/card_backs/set2/pink.gif","img/card_backs/set2/blue.gif","img/card_backs/set2/gray.gif","""event"",""trial"",""time""
""fullscreenenter"",""1"",""6634""
","
","
","""event"",""trial"",""time""
""fullscreenenter"",""1"",""6634""
","
","","null","","null","","fixation","2021-07-01 21:18:02.261","","","","","",""
"card-selection-trial","111","464423","0.0-25.0-1.20","960","true","img/card_backs/set1/green.gif","img/card_backs/set1/yellow.gif","img/card_backs/set1/purple.gif","img/card_backs/set1/red.gif","img/card_backs/set2/orange.gif","img/card_backs/set2/pink.gif","img/card_backs/set2/blue.gif","img/card_backs/set2/gray.gif","""event"",""trial"",""time""
""fullscreenenter"",""1"",""6634""
","
","
","""event"",""trial"",""time""
""fullscreenenter"",""1"",""6634""
","
","","1592.3999999994412","","","","real_trial","2021-07-01 21:18:05.861","img/card_backs/set1/yellow.gif","0","250","1","",""
"casino-fixation","112","464926","0.0-25.0-0.21","960","true","img/card_backs/set1/green.gif","img/card_backs/set1/yellow.gif","img/card_backs/set1/purple.gif","img/card_backs/set1/red.gif","img/card_backs/set2/orange.gif","img/card_backs/set2/pink.gif","img/card_backs/set2/blue.gif","img/card_backs/set2/gray.gif","""event"",""trial"",""time""
""fullscreenenter"",""1"",""6634""
","
","
","""event"",""trial"",""time""
""fullscreenenter"",""1"",""6634""
","
","","null","","null","","fixation","2021-07-01 21:18:06.363","","","","","",""
"card-selection-trial","113","470567","0.0-25.0-1.21","960","true","img/card_backs/set1/green.gif","img/card_backs/set1/yellow.gif","img/card_backs/set1/purple.gif","img/card_backs/set1/red.gif","img/card_backs/set2/orange.gif","img/card_backs/set2/pink.gif","img/card_backs/set2/blue.gif","img/card_backs/set2/gray.gif","""event"",""trial"",""time""
""fullscreenenter"",""1"",""6634""
","
","
","""event"",""trial"",""time""
""fullscreenenter"",""1"",""6634""
","
","","3631.5","","","","real_trial","2021-07-01 21:18:12.004","img/card_backs/set1/green.gif","2","-200","1","",""
"casino-fixation","114","471069","0.0-25.0-0.22","960","true","img/card_backs/set1/green.gif","img/card_backs/set1/yellow.gif","img/card_backs/set1/purple.gif","img/card_backs/set1/red.gif","img/card_backs/set2/orange.gif","img/card_backs/set2/pink.gif","img/card_backs/set2/blue.gif","img/card_backs/set2/gray.gif","""event"",""trial"",""time""
""fullscreenenter"",""1"",""6634""
","
","
","""event"",""trial"",""time""
""fullscreenenter"",""1"",""6634""
","
","","null","","null","","fixation","2021-07-01 21:18:12.506","","","","","",""
"card-selection-trial","115","481704","0.0-25.0-1.22","960","true","img/card_backs/set1/green.gif","img/card_backs/set1/yellow.gif","img/card_backs/set1/purple.gif","img/card_backs/set1/red.gif","img/card_backs/set2/orange.gif","img/card_backs/set2/pink.gif","img/card_backs/set2/blue.gif","img/card_backs/set2/gray.gif","""event"",""trial"",""time""
""fullscreenenter"",""1"",""6634""
","
","
","""event"",""trial"",""time""
""fullscreenenter"",""1"",""6634""
","
","","8628.099999999627","","","","real_trial","2021-07-01 21:18:23.142","img/card_backs/set1/red.gif","1","-110","1","",""
"casino-fixation","116","482207","0.0-25.0-0.23","960","true","img/card_backs/set1/green.gif","img/card_backs/set1/yellow.gif","img/card_backs/set1/purple.gif","img/card_backs/set1/red.gif","img/card_backs/set2/orange.gif","img/card_backs/set2/pink.gif","img/card_backs/set2/blue.gif","img/card_backs/set2/gray.gif","""event"",""trial"",""time""
""fullscreenenter"",""1"",""6634""
","
","
","""event"",""trial"",""time""
""fullscreenenter"",""1"",""6634""
","
","","null","","null","","fixation","2021-07-01 21:18:23.644","","","","","",""
"card-selection-trial","117","490703","0.0-25.0-1.23","960","true","img/card_backs/set1/green.gif","img/card_backs/set1/yellow.gif","img/card_backs/set1/purple.gif","img/card_backs/set1/red.gif","img/card_backs/set2/orange.gif","img/card_backs/set2/pink.gif","img/card_backs/set2/blue.gif","img/card_backs/set2/gray.gif","""event"",""trial"",""time""
""fullscreenenter"",""1"",""6634""
","
","
","""event"",""trial"",""time""
""fullscreenenter"",""1"",""6634""
","
","","6485.9000000003725","","","","real_trial","2021-07-01 21:18:32.140","img/card_backs/set1/yellow.gif","1","240","1","",""
"casino-fixation","118","491205","0.0-25.0-0.24","960","true","img/card_backs/set1/green.gif","img/card_backs/set1/yellow.gif","img/card_backs/set1/purple.gif","img/card_backs/set1/red.gif","img/card_backs/set2/orange.gif","img/card_backs/set2/pink.gif","img/card_backs/set2/blue.gif","img/card_backs/set2/gray.gif","""event"",""trial"",""time""
""fullscreenenter"",""1"",""6634""
","
","
","""event"",""trial"",""time""
""fullscreenenter"",""1"",""6634""
","
","","null","","null","","fixation","2021-07-01 21:18:32.642","","","","","",""
"card-selection-trial","119","495514","0.0-25.0-1.24","960","true","img/card_backs/set1/green.gif","img/card_backs/set1/yellow.gif","img/card_backs/set1/purple.gif","img/card_backs/set1/red.gif","img/card_backs/set2/orange.gif","img/card_backs/set2/pink.gif","img/card_backs/set2/blue.gif","img/card_backs/set2/gray.gif","""event"",""trial"",""time""
""fullscreenenter"",""1"",""6634""
","
","
","""event"",""trial"",""time""
""fullscreenenter"",""1"",""6634""
","
","","2300.2000000001863","","","","real_trial","2021-07-01 21:18:36.951","img/card_backs/set1/purple.gif","0","60","1","",""
"casino-fixation","120","496016","0.0-25.0-0.25","960","true","img/card_backs/set1/green.gif","img/card_backs/set1/yellow.gif","img/card_backs/set1/purple.gif","img/card_backs/set1/red.gif","img/card_backs/set2/orange.gif","img/card_backs/set2/pink.gif","img/card_backs/set2/blue.gif","img/card_backs/set2/gray.gif","""event"",""trial"",""time""
""fullscreenenter"",""1"",""6634""
","
","
","""event"",""trial"",""time""
""fullscreenenter"",""1"",""6634""
","
","","null","","null","","fixation","2021-07-01 21:18:37.453","","","","","",""
"card-selection-trial","121","498957","0.0-25.0-1.25","960","true","img/card_backs/set1/green.gif","img/card_backs/set1/yellow.gif","img/card_backs/set1/purple.gif","img/card_backs/set1/red.gif","img/card_backs/set2/orange.gif","img/card_backs/set2/pink.gif","img/card_backs/set2/blue.gif","img/card_backs/set2/gray.gif","""event"",""trial"",""time""
""fullscreenenter"",""1"",""6634""
","
","
","""event"",""trial"",""time""
""fullscreenenter"",""1"",""6634""
","
","","932.7999999998137","","","","real_trial","2021-07-01 21:18:40.394","img/card_backs/set1/red.gif","3","60","1","",""
"casino-fixation","122","499459","0.0-25.0-0.26","960","true","img/card_backs/set1/green.gif","img/card_backs/set1/yellow.gif","img/card_backs/set1/purple.gif","img/card_backs/set1/red.gif","img/card_backs/set2/orange.gif","img/card_backs/set2/pink.gif","img/card_backs/set2/blue.gif","img/card_backs/set2/gray.gif","""event"",""trial"",""time""
""fullscreenenter"",""1"",""6634""
","
","
","""event"",""trial"",""time""
""fullscreenenter"",""1"",""6634""
","
","","null","","null","","fixation","2021-07-01 21:18:40.896","","","","","",""
"card-selection-trial","123","502455","0.0-25.0-1.26","960","true","img/card_backs/set1/green.gif","img/card_backs/set1/yellow.gif","img/card_backs/set1/purple.gif","img/card_backs/set1/red.gif","img/card_backs/set2/orange.gif","img/card_backs/set2/pink.gif","img/card_backs/set2/blue.gif","img/card_backs/set2/gray.gif","""event"",""trial"",""time""
""fullscreenenter"",""1"",""6634""
","
","
","""event"",""trial"",""time""
""fullscreenenter"",""1"",""6634""
","
","","988.0999999996275","","","","real_trial","2021-07-01 21:18:43.892","img/card_backs/set1/green.gif","2","240","1","",""
"casino-fixation","124","502957","0.0-25.0-0.27","960","true","img/card_backs/set1/green.gif","img/card_backs/set1/yellow.gif","img/card_backs/set1/purple.gif","img/card_backs/set1/red.gif","img/card_backs/set2/orange.gif","img/card_backs/set2/pink.gif","img/card_backs/set2/blue.gif","img/card_backs/set2/gray.gif","""event"",""trial"",""time""
""fullscreenenter"",""1"",""6634""
","
","
","""event"",""trial"",""time""
""fullscreenenter"",""1"",""6634""
","
","","null","","null","","fixation","2021-07-01 21:18:44.394","","","","","",""
"card-selection-trial","125","505644","0.0-25.0-1.27","960","true","img/card_backs/set1/green.gif","img/card_backs/set1/yellow.gif","img/card_backs/set1/purple.gif","img/card_backs/set1/red.gif","img/card_backs/set2/orange.gif","img/card_backs/set2/pink.gif","img/card_backs/set2/blue.gif","img/card_backs/set2/gray.gif","""event"",""trial"",""time""
""fullscreenenter"",""1"",""6634""
","
","
","""event"",""trial"",""time""
""fullscreenenter"",""1"",""6634""
","
","","678.6999999992549","","","","real_trial","2021-07-01 21:18:47.081","img/card_backs/set1/yellow.gif","0","-200","1","",""
"casino-fixation","126","506146","0.0-25.0-0.28","960","true","img/card_backs/set1/green.gif","img/card_backs/set1/yellow.gif","img/card_backs/set1/purple.gif","img/card_backs/set1/red.gif","img/card_backs/set2/orange.gif","img/card_backs/set2/pink.gif","img/card_backs/set2/blue.gif","img/card_backs/set2/gray.gif","""event"",""trial"",""time""
""fullscreenenter"",""1"",""6634""
","
","
","""event"",""trial"",""time""
""fullscreenenter"",""1"",""6634""
","
","","null","","null","","fixation","2021-07-01 21:18:47.583","","","","","",""
"card-selection-trial","127","509829","0.0-25.0-1.28","960","true","img/card_backs/set1/green.gif","img/card_backs/set1/yellow.gif","img/card_backs/set1/purple.gif","img/card_backs/set1/red.gif","img/card_backs/set2/orange.gif","img/card_backs/set2/pink.gif","img/card_backs/set2/blue.gif","img/card_backs/set2/gray.gif","""event"",""trial"",""time""
""fullscreenenter"",""1"",""6634""
","
","
","""event"",""trial"",""time""
""fullscreenenter"",""1"",""6634""
","
","","1673.7999999998137","","","","real_trial","2021-07-01 21:18:51.267","img/card_backs/set1/yellow.gif","1","-190","1","",""
"casino-fixation","128","510332","0.0-25.0-0.29","960","true","img/card_backs/set1/green.gif","img/card_backs/set1/yellow.gif","img/card_backs/set1/purple.gif","img/card_backs/set1/red.gif","img/card_backs/set2/orange.gif","img/card_backs/set2/pink.gif","img/card_backs/set2/blue.gif","img/card_backs/set2/gray.gif","""event"",""trial"",""time""
""fullscreenenter"",""1"",""6634""
","
","
","""event"",""trial"",""time""
""fullscreenenter"",""1"",""6634""
","
","","null","","null","","fixation","2021-07-01 21:18:51.769","","","","","",""
"card-selection-trial","129","513282","0.0-25.0-1.29","960","true","img/card_backs/set1/green.gif","img/card_backs/set1/yellow.gif","img/card_backs/set1/purple.gif","img/card_backs/set1/red.gif","img/card_backs/set2/orange.gif","img/card_backs/set2/pink.gif","img/card_backs/set2/blue.gif","img/card_backs/set2/gray.gif","""event"",""trial"",""time""
""fullscreenenter"",""1"",""6634""
","
","
","""event"",""trial"",""time""
""fullscreenenter"",""1"",""6634""
","
","","942.2999999998137","","","","real_trial","2021-07-01 21:18:54.719","img/card_backs/set1/red.gif","3","-110","1","",""
"casino-fixation","130","513784","0.0-25.0-0.30","960","true","img/card_backs/set1/green.gif","img/card_backs/set1/yellow.gif","img/card_backs/set1/purple.gif","img/card_backs/set1/red.gif","img/card_backs/set2/orange.gif","img/card_backs/set2/pink.gif","img/card_backs/set2/blue.gif","img/card_backs/set2/gray.gif","""event"",""trial"",""time""
""fullscreenenter"",""1"",""6634""
","
","
","""event"",""trial"",""time""
""fullscreenenter"",""1"",""6634""
","
","","null","","null","","fixation","2021-07-01 21:18:55.221","","","","","",""
"card-selection-trial","131","517325","0.0-25.0-1.30","960","true","img/card_backs/set1/green.gif","img/card_backs/set1/yellow.gif","img/card_backs/set1/purple.gif","img/card_backs/set1/red.gif","img/card_backs/set2/orange.gif","img/card_backs/set2/pink.gif","img/card_backs/set2/blue.gif","img/card_backs/set2/gray.gif","""event"",""trial"",""time""
""fullscreenenter"",""1"",""6634""
","
","
","""event"",""trial"",""time""
""fullscreenenter"",""1"",""6634""
","
","","1533.1000000005588","","","","real_trial","2021-07-01 21:18:58.762","img/card_backs/set1/yellow.gif","3","-210","1","",""
"casino-fixation","132","517827","0.0-25.0-0.31","960","true","img/card_backs/set1/green.gif","img/card_backs/set1/yellow.gif","img/card_backs/set1/purple.gif","img/card_backs/set1/red.gif","img/card_backs/set2/orange.gif","img/card_backs/set2/pink.gif","img/card_backs/set2/blue.gif","img/card_backs/set2/gray.gif","""event"",""trial"",""time""
""fullscreenenter"",""1"",""6634""
","
","
","""event"",""trial"",""time""
""fullscreenenter"",""1"",""6634""
","
","","null","","null","","fixation","2021-07-01 21:18:59.265","","","","","",""
"card-selection-trial","133","521530","0.0-25.0-1.31","960","true","img/card_backs/set1/green.gif","img/card_backs/set1/yellow.gif","img/card_backs/set1/purple.gif","img/card_backs/set1/red.gif","img/card_backs/set2/orange.gif","img/card_backs/set2/pink.gif","img/card_backs/set2/blue.gif","img/card_backs/set2/gray.gif","""event"",""trial"",""time""
""fullscreenenter"",""1"",""6634""
","
","
","""event"",""trial"",""time""
""fullscreenenter"",""1"",""6634""
","
","","1691.5999999996275","","","","real_trial","2021-07-01 21:19:02.967","img/card_backs/set1/green.gif","0","-210","1","",""
"casino-fixation","134","522032","0.0-25.0-0.32","960","true","img/card_backs/set1/green.gif","img/card_backs/set1/yellow.gif","img/card_backs/set1/purple.gif","img/card_backs/set1/red.gif","img/card_backs/set2/orange.gif","img/card_backs/set2/pink.gif","img/card_backs/set2/blue.gif","img/card_backs/set2/gray.gif","""event"",""trial"",""time""
""fullscreenenter"",""1"",""6634""
","
","
","""event"",""trial"",""time""
""fullscreenenter"",""1"",""6634""
","
","","null","","null","","fixation","2021-07-01 21:19:03.469","","","","","",""
"card-selection-trial","135","524118","0.0-25.0-1.32","960","true","img/card_backs/set1/green.gif","img/card_backs/set1/yellow.gif","img/card_backs/set1/purple.gif","img/card_backs/set1/red.gif","img/card_backs/set2/orange.gif","img/card_backs/set2/pink.gif","img/card_backs/set2/blue.gif","img/card_backs/set2/gray.gif","""event"",""trial"",""time""
""fullscreenenter"",""1"",""6634""
","
","
","""event"",""trial"",""time""
""fullscreenenter"",""1"",""6634""
","
","","75.70000000018626","","","","real_trial","2021-07-01 21:19:05.555","img/card_backs/set1/red.gif","2","-90","1","",""
"casino-fixation","136","524623","0.0-25.0-0.33","960","true","img/card_backs/set1/green.gif","img/card_backs/set1/yellow.gif","img/card_backs/set1/purple.gif","img/card_backs/set1/red.gif","img/card_backs/set2/orange.gif","img/card_backs/set2/pink.gif","img/card_backs/set2/blue.gif","img/card_backs/set2/gray.gif","""event"",""trial"",""time""
""fullscreenenter"",""1"",""6634""
","
","
","""event"",""trial"",""time""
""fullscreenenter"",""1"",""6634""
","
","","null","","null","","fixation","2021-07-01 21:19:06.060","","","","","",""
"card-selection-trial","137","528039","0.0-25.0-1.33","960","true","img/card_backs/set1/green.gif","img/card_backs/set1/yellow.gif","img/card_backs/set1/purple.gif","img/card_backs/set1/red.gif","img/card_backs/set2/orange.gif","img/card_backs/set2/pink.gif","img/card_backs/set2/blue.gif","img/card_backs/set2/gray.gif","""event"",""trial"",""time""
""fullscreenenter"",""1"",""6634""
","
","
","""event"",""trial"",""time""
""fullscreenenter"",""1"",""6634""
","
","","1407.2999999998137","","","","real_trial","2021-07-01 21:19:09.476","img/card_backs/set1/green.gif","0","-210","1","",""
"casino-fixation","138","528541","0.0-25.0-0.34","960","true","img/card_backs/set1/green.gif","img/card_backs/set1/yellow.gif","img/card_backs/set1/purple.gif","img/card_backs/set1/red.gif","img/card_backs/set2/orange.gif","img/card_backs/set2/pink.gif","img/card_backs/set2/blue.gif","img/card_backs/set2/gray.gif","""event"",""trial"",""time""
""fullscreenenter"",""1"",""6634""
","
","
","""event"",""trial"",""time""
""fullscreenenter"",""1"",""6634""
","
","","null","","null","","fixation","2021-07-01 21:19:09.978","","","","","",""
"card-selection-trial","139","531726","0.0-25.0-1.34","960","true","img/card_backs/set1/green.gif","img/card_backs/set1/yellow.gif","img/card_backs/set1/purple.gif","img/card_backs/set1/red.gif","img/card_backs/set2/orange.gif","img/card_backs/set2/pink.gif","img/card_backs/set2/blue.gif","img/card_backs/set2/gray.gif","""event"",""trial"",""time""
""fullscreenenter"",""1"",""6634""
","
","
","""event"",""trial"",""time""
""fullscreenenter"",""1"",""6634""
","
","","1178","","","","real_trial","2021-07-01 21:19:13.163","img/card_backs/set1/purple.gif","1","50","1","",""
"casino-fixation","140","532227","0.0-25.0-0.35","960","true","img/card_backs/set1/green.gif","img/card_backs/set1/yellow.gif","img/card_backs/set1/purple.gif","img/card_backs/set1/red.gif","img/card_backs/set2/orange.gif","img/card_backs/set2/pink.gif","img/card_backs/set2/blue.gif","img/card_backs/set2/gray.gif","""event"",""trial"",""time""
""fullscreenenter"",""1"",""6634""
","
","
","""event"",""trial"",""time""
""fullscreenenter"",""1"",""6634""
","
","","null","","null","","fixation","2021-07-01 21:19:13.664","","","","","",""
"card-selection-trial","141","536929","0.0-25.0-1.35","960","true","img/card_backs/set1/green.gif","img/card_backs/set1/yellow.gif","img/card_backs/set1/purple.gif","img/card_backs/set1/red.gif","img/card_backs/set2/orange.gif","img/card_backs/set2/pink.gif","img/card_backs/set2/blue.gif","img/card_backs/set2/gray.gif","""event"",""trial"",""time""
""fullscreenenter"",""1"",""6634""
","
","
","""event"",""trial"",""time""
""fullscreenenter"",""1"",""6634""
","
","","2692.2000000001863","","","","real_trial","2021-07-01 21:19:18.366","img/card_backs/set1/red.gif","2","40","1","",""
"casino-fixation","142","537431","0.0-25.0-0.36","960","true","img/card_backs/set1/green.gif","img/card_backs/set1/yellow.gif","img/card_backs/set1/purple.gif","img/card_backs/set1/red.gif","img/card_backs/set2/orange.gif","img/card_backs/set2/pink.gif","img/card_backs/set2/blue.gif","img/card_backs/set2/gray.gif","""event"",""trial"",""time""
""fullscreenenter"",""1"",""6634""
","
","
","""event"",""trial"",""time""
""fullscreenenter"",""1"",""6634""
","
","","null","","null","","fixation","2021-07-01 21:19:18.868","","","","","",""
"card-selection-trial","143","540939","0.0-25.0-1.36","960","true","img/card_backs/set1/green.gif","img/card_backs/set1/yellow.gif","img/card_backs/set1/purple.gif","img/card_backs/set1/red.gif","img/card_backs/set2/orange.gif","img/card_backs/set2/pink.gif","img/card_backs/set2/blue.gif","img/card_backs/set2/gray.gif","""event"",""trial"",""time""
""fullscreenenter"",""1"",""6634""
","
","
","""event"",""trial"",""time""
""fullscreenenter"",""1"",""6634""
","
","","1482.3999999994412","","","","real_trial","2021-07-01 21:19:22.376","img/card_backs/set1/purple.gif","1","-110","1","",""
"casino-fixation","144","541442","0.0-25.0-0.37","960","true","img/card_backs/set1/green.gif","img/card_backs/set1/yellow.gif","img/card_backs/set1/purple.gif","img/card_backs/set1/red.gif","img/card_backs/set2/orange.gif","img/card_backs/set2/pink.gif","img/card_backs/set2/blue.gif","img/card_backs/set2/gray.gif","""event"",""trial"",""time""
""fullscreenenter"",""1"",""6634""
","
","
","""event"",""trial"",""time""
""fullscreenenter"",""1"",""6634""
","
","","null","","null","","fixation","2021-07-01 21:19:22.879","","","","","",""
"card-selection-trial","145","543988","0.0-25.0-1.37","960","true","img/card_backs/set1/green.gif","img/card_backs/set1/yellow.gif","img/card_backs/set1/purple.gif","img/card_backs/set1/red.gif","img/card_backs/set2/orange.gif","img/card_backs/set2/pink.gif","img/card_backs/set2/blue.gif","img/card_backs/set2/gray.gif","""event"",""trial"",""time""
""fullscreenenter"",""1"",""6634""
","
","
","""event"",""trial"",""time""
""fullscreenenter"",""1"",""6634""
","
","","537.6000000005588","","","","real_trial","2021-07-01 21:19:25.425","img/card_backs/set1/yellow.gif","2","-200","1","",""
"casino-fixation","146","544490","0.0-25.0-0.38","960","true","img/card_backs/set1/green.gif","img/card_backs/set1/yellow.gif","img/card_backs/set1/purple.gif","img/card_backs/set1/red.gif","img/card_backs/set2/orange.gif","img/card_backs/set2/pink.gif","img/card_backs/set2/blue.gif","img/card_backs/set2/gray.gif","""event"",""trial"",""time""
""fullscreenenter"",""1"",""6634""
","
","
","""event"",""trial"",""time""
""fullscreenenter"",""1"",""6634""
","
","","null","","null","","fixation","2021-07-01 21:19:25.927","","","","","",""
"card-selection-trial","147","548155","0.0-25.0-1.38","960","true","img/card_backs/set1/green.gif","img/card_backs/set1/yellow.gif","img/card_backs/set1/purple.gif","img/card_backs/set1/red.gif","img/card_backs/set2/orange.gif","img/card_backs/set2/pink.gif","img/card_backs/set2/blue.gif","img/card_backs/set2/gray.gif","""event"",""trial"",""time""
""fullscreenenter"",""1"",""6634""
","
","
","""event"",""trial"",""time""
""fullscreenenter"",""1"",""6634""
","
","","1653.5999999996275","","","","real_trial","2021-07-01 21:19:29.592","img/card_backs/set1/yellow.gif","1","240","1","",""
"casino-fixation","148","548657","0.0-25.0-0.39","960","true","img/card_backs/set1/green.gif","img/card_backs/set1/yellow.gif","img/card_backs/set1/purple.gif","img/card_backs/set1/red.gif","img/card_backs/set2/orange.gif","img/card_backs/set2/pink.gif","img/card_backs/set2/blue.gif","img/card_backs/set2/gray.gif","""event"",""trial"",""time""
""fullscreenenter"",""1"",""6634""
","
","
","""event"",""trial"",""time""
""fullscreenenter"",""1"",""6634""
","
","","null","","null","","fixation","2021-07-01 21:19:30.094","","","","","",""
"card-selection-trial","149","558247","0.0-25.0-1.39","960","true","img/card_backs/set1/green.gif","img/card_backs/set1/yellow.gif","img/card_backs/set1/purple.gif","img/card_backs/set1/red.gif","img/card_backs/set2/orange.gif","img/card_backs/set2/pink.gif","img/card_backs/set2/blue.gif","img/card_backs/set2/gray.gif","""event"",""trial"",""time""
""fullscreenenter"",""1"",""6634""
","
","
","""event"",""trial"",""time""
""fullscreenenter"",""1"",""6634""
","
","","7583.199999999255","","","","real_trial","2021-07-01 21:19:39.684","img/card_backs/set1/yellow.gif","3","-210","1","",""
"casino-fixation","150","558749","0.0-25.0-0.40","960","true","img/card_backs/set1/green.gif","img/card_backs/set1/yellow.gif","img/card_backs/set1/purple.gif","img/card_backs/set1/red.gif","img/card_backs/set2/orange.gif","img/card_backs/set2/pink.gif","img/card_backs/set2/blue.gif","img/card_backs/set2/gray.gif","""event"",""trial"",""time""
""fullscreenenter"",""1"",""6634""
","
","
","""event"",""trial"",""time""
""fullscreenenter"",""1"",""6634""
","
","","null","","null","","fixation","2021-07-01 21:19:40.186","","","","","",""
"card-selection-trial","151","561609","0.0-25.0-1.40","960","true","img/card_backs/set1/green.gif","img/card_backs/set1/yellow.gif","img/card_backs/set1/purple.gif","img/card_backs/set1/red.gif","img/card_backs/set2/orange.gif","img/card_backs/set2/pink.gif","img/card_backs/set2/blue.gif","img/card_backs/set2/gray.gif","""event"",""trial"",""time""
""fullscreenenter"",""1"",""6634""
","
","
","""event"",""trial"",""time""
""fullscreenenter"",""1"",""6634""
","
","","852.1000000005588","","","","real_trial","2021-07-01 21:19:43.046","img/card_backs/set1/green.gif","2","-210","1","",""
"casino-fixation","152","562111","0.0-25.0-0.41","960","true","img/card_backs/set1/green.gif","img/card_backs/set1/yellow.gif","img/card_backs/set1/purple.gif","img/card_backs/set1/red.gif","img/card_backs/set2/orange.gif","img/card_backs/set2/pink.gif","img/card_backs/set2/blue.gif","img/card_backs/set2/gray.gif","""event"",""trial"",""time""
""fullscreenenter"",""1"",""6634""
","
","
","""event"",""trial"",""time""
""fullscreenenter"",""1"",""6634""
","
","","null","","null","","fixation","2021-07-01 21:19:43.548","","","","","",""
"card-selection-trial","153","565772","0.0-25.0-1.41","960","true","img/card_backs/set1/green.gif","img/card_backs/set1/yellow.gif","img/card_backs/set1/purple.gif","img/card_backs/set1/red.gif","img/card_backs/set2/orange.gif","img/card_backs/set2/pink.gif","img/card_backs/set2/blue.gif","img/card_backs/set2/gray.gif","""event"",""trial"",""time""
""fullscreenenter"",""1"",""6634""
","
","
","""event"",""trial"",""time""
""fullscreenenter"",""1"",""6634""
","
","","1651.2000000001863","","","","real_trial","2021-07-01 21:19:47.209","img/card_backs/set1/purple.gif","0","-110","1","",""
"casino-fixation","154","566274","0.0-25.0-0.42","960","true","img/card_backs/set1/green.gif","img/card_backs/set1/yellow.gif","img/card_backs/set1/purple.gif","img/card_backs/set1/red.gif","img/card_backs/set2/orange.gif","img/card_backs/set2/pink.gif","img/card_backs/set2/blue.gif","img/card_backs/set2/gray.gif","""event"",""trial"",""time""
""fullscreenenter"",""1"",""6634""
","
","
","""event"",""trial"",""time""
""fullscreenenter"",""1"",""6634""
","
","","null","","null","","fixation","2021-07-01 21:19:47.711","","","","","",""
"card-selection-trial","155","568684","0.0-25.0-1.42","960","true","img/card_backs/set1/green.gif","img/card_backs/set1/yellow.gif","img/card_backs/set1/purple.gif","img/card_backs/set1/red.gif","img/card_backs/set2/orange.gif","img/card_backs/set2/pink.gif","img/card_backs/set2/blue.gif","img/card_backs/set2/gray.gif","""event"",""trial"",""time""
""fullscreenenter"",""1"",""6634""
","
","
","""event"",""trial"",""time""
""fullscreenenter"",""1"",""6634""
","
","","402","","","","real_trial","2021-07-01 21:19:50.121","img/card_backs/set1/purple.gif","1","-100","1","",""
"casino-fixation","156","569187","0.0-25.0-0.43","960","true","img/card_backs/set1/green.gif","img/card_backs/set1/yellow.gif","img/card_backs/set1/purple.gif","img/card_backs/set1/red.gif","img/card_backs/set2/orange.gif","img/card_backs/set2/pink.gif","img/card_backs/set2/blue.gif","img/card_backs/set2/gray.gif","""event"",""trial"",""time""
""fullscreenenter"",""1"",""6634""
","
","
","""event"",""trial"",""time""
""fullscreenenter"",""1"",""6634""
","
","","null","","null","","fixation","2021-07-01 21:19:50.624","","","","","",""
"card-selection-trial","157","573119","0.0-25.0-1.43","960","true","img/card_backs/set1/green.gif","img/card_backs/set1/yellow.gif","img/card_backs/set1/purple.gif","img/card_backs/set1/red.gif","img/card_backs/set2/orange.gif","img/card_backs/set2/pink.gif","img/card_backs/set2/blue.gif","img/card_backs/set2/gray.gif","""event"",""trial"",""time""
""fullscreenenter"",""1"",""6634""
","
","
","""event"",""trial"",""time""
""fullscreenenter"",""1"",""6634""
","
","","1925.0999999996275","","","","real_trial","2021-07-01 21:19:54.556","img/card_backs/set1/green.gif","2","240","1","",""
"casino-fixation","158","573621","0.0-25.0-0.44","960","true","img/card_backs/set1/green.gif","img/card_backs/set1/yellow.gif","img/card_backs/set1/purple.gif","img/card_backs/set1/red.gif","img/card_backs/set2/orange.gif","img/card_backs/set2/pink.gif","img/card_backs/set2/blue.gif","img/card_backs/set2/gray.gif","""event"",""trial"",""time""
""fullscreenenter"",""1"",""6634""
","
","
","""event"",""trial"",""time""
""fullscreenenter"",""1"",""6634""
","
","","null","","null","","fixation","2021-07-01 21:19:55.058","","","","","",""
"card-selection-trial","159","579915","0.0-25.0-1.44","960","true","img/card_backs/set1/green.gif","img/card_backs/set1/yellow.gif","img/card_backs/set1/purple.gif","img/card_backs/set1/red.gif","img/card_backs/set2/orange.gif","img/card_backs/set2/pink.gif","img/card_backs/set2/blue.gif","img/card_backs/set2/gray.gif","""event"",""trial"",""time""
""fullscreenenter"",""1"",""6634""
","
","
","""event"",""trial"",""time""
""fullscreenenter"",""1"",""6634""
","
","","4285.699999999255","","","","real_trial","2021-07-01 21:20:01.352","img/card_backs/set1/yellow.gif","2","-200","1","",""
"casino-fixation","160","580417","0.0-25.0-0.45","960","true","img/card_backs/set1/green.gif","img/card_backs/set1/yellow.gif","img/card_backs/set1/purple.gif","img/card_backs/set1/red.gif","img/card_backs/set2/orange.gif","img/card_backs/set2/pink.gif","img/card_backs/set2/blue.gif","img/card_backs/set2/gray.gif","""event"",""trial"",""time""
""fullscreenenter"",""1"",""6634""
","
","
","""event"",""trial"",""time""
""fullscreenenter"",""1"",""6634""
","
","","null","","null","","fixation","2021-07-01 21:20:01.854","","","","","",""
"card-selection-trial","161","585470","0.0-25.0-1.45","960","true","img/card_backs/set1/green.gif","img/card_backs/set1/yellow.gif","img/card_backs/set1/purple.gif","img/card_backs/set1/red.gif","img/card_backs/set2/orange.gif","img/card_backs/set2/pink.gif","img/card_backs/set2/blue.gif","img/card_backs/set2/gray.gif","""event"",""trial"",""time""
""fullscreenenter"",""1"",""6634""
","
","
","""event"",""trial"",""time""
""fullscreenenter"",""1"",""6634""
","
","","3046.5","","","","real_trial","2021-07-01 21:20:06.907","img/card_backs/set1/yellow.gif","0","-210","1","",""
"casino-fixation","162","585973","0.0-25.0-0.46","960","true","img/card_backs/set1/green.gif","img/card_backs/set1/yellow.gif","img/card_backs/set1/purple.gif","img/card_backs/set1/red.gif","img/card_backs/set2/orange.gif","img/card_backs/set2/pink.gif","img/card_backs/set2/blue.gif","img/card_backs/set2/gray.gif","""event"",""trial"",""time""
""fullscreenenter"",""1"",""6634""
","
","
","""event"",""trial"",""time""
""fullscreenenter"",""1"",""6634""
","
","","null","","null","","fixation","2021-07-01 21:20:07.410","","","","","",""
"card-selection-trial","163","590751","0.0-25.0-1.46","960","true","img/card_backs/set1/green.gif","img/card_backs/set1/yellow.gif","img/card_backs/set1/purple.gif","img/card_backs/set1/red.gif","img/card_backs/set2/orange.gif","img/card_backs/set2/pink.gif","img/card_backs/set2/blue.gif","img/card_backs/set2/gray.gif","""event"",""trial"",""time""
""fullscreenenter"",""1"",""6634""
","
","
","""event"",""trial"",""time""
""fullscreenenter"",""1"",""6634""
","
","","2761","","","","real_trial","2021-07-01 21:20:12.189","img/card_backs/set1/yellow.gif","3","-200","1","",""
"casino-fixation","164","591254","0.0-25.0-0.47","960","true","img/card_backs/set1/green.gif","img/card_backs/set1/yellow.gif","img/card_backs/set1/purple.gif","img/card_backs/set1/red.gif","img/card_backs/set2/orange.gif","img/card_backs/set2/pink.gif","img/card_backs/set2/blue.gif","img/card_backs/set2/gray.gif","""event"",""trial"",""time""
""fullscreenenter"",""1"",""6634""
","
","
","""event"",""trial"",""time""
""fullscreenenter"",""1"",""6634""
","
","","null","","null","","fixation","2021-07-01 21:20:12.691","","","","","",""
"card-selection-trial","165","598494","0.0-25.0-1.47","960","true","img/card_backs/set1/green.gif","img/card_backs/set1/yellow.gif","img/card_backs/set1/purple.gif","img/card_backs/set1/red.gif","img/card_backs/set2/orange.gif","img/card_backs/set2/pink.gif","img/card_backs/set2/blue.gif","img/card_backs/set2/gray.gif","""event"",""trial"",""time""
""fullscreenenter"",""1"",""6634""
","
","
","""event"",""trial"",""time""
""fullscreenenter"",""1"",""6634""
","
","","5232.0999999996275","","","","real_trial","2021-07-01 21:20:19.931","img/card_backs/set1/yellow.gif","2","240","1","",""
"casino-fixation","166","598996","0.0-25.0-0.48","960","true","img/card_backs/set1/green.gif","img/card_backs/set1/yellow.gif","img/card_backs/set1/purple.gif","img/card_backs/set1/red.gif","img/card_backs/set2/orange.gif","img/card_backs/set2/pink.gif","img/card_backs/set2/blue.gif","img/card_backs/set2/gray.gif","""event"",""trial"",""time""
""fullscreenenter"",""1"",""6634""
","
","
","""event"",""trial"",""time""
""fullscreenenter"",""1"",""6634""
","
","","null","","null","","fixation","2021-07-01 21:20:20.433","","","","","",""
"card-selection-trial","167","601835","0.0-25.0-1.48","960","true","img/card_backs/set1/green.gif","img/card_backs/set1/yellow.gif","img/card_backs/set1/purple.gif","img/card_backs/set1/red.gif","img/card_backs/set2/orange.gif","img/card_backs/set2/pink.gif","img/card_backs/set2/blue.gif","img/card_backs/set2/gray.gif","""event"",""trial"",""time""
""fullscreenenter"",""1"",""6634""
","
","
","""event"",""trial"",""time""
""fullscreenenter"",""1"",""6634""
","
","","832.2999999998137","","","","real_trial","2021-07-01 21:20:23.273","img/card_backs/set1/yellow.gif","2","250","1","",""
