"trial_type","trial_index","time_elapsed","internal_node_id","sub_id","risk_good_first","block1_A","block1_B","block1_C","block1_D","block2_A","block2_B","block2_C","block2_D","interactions","blur_events","focus_events","fullscreenenter_events","fullscreenexit_events","success","rt","stimulus","key_press","button_pressed","task_part","timestamp","card_choice","choice_position","points_earned","block","correct","response"
"pavlovia","0","21","0.0-0.0","A107","false","img/card_backs/set1/purple.gif","img/card_backs/set1/red.gif","img/card_backs/set1/green.gif","img/card_backs/set1/yellow.gif","img/card_backs/set2/orange.gif","img/card_backs/set2/blue.gif","img/card_backs/set2/pink.gif","img/card_backs/set2/gray.gif","""event"",""trial"",""time""
""fullscreenenter"",""1"",""2338""
","
","
","""event"",""trial"",""time""
""fullscreenenter"",""1"",""2338""
","
","","","","","","","","","","","","",""
"fullscreen","1","3260","0.0-1.0","A107","false","img/card_backs/set1/purple.gif","img/card_backs/set1/red.gif","img/card_backs/set1/green.gif","img/card_backs/set1/yellow.gif","img/card_backs/set2/orange.gif","img/card_backs/set2/blue.gif","img/card_backs/set2/pink.gif","img/card_backs/set2/gray.gif","""event"",""trial"",""time""
""fullscreenenter"",""1"",""2338""
","
","
","""event"",""trial"",""time""
""fullscreenenter"",""1"",""2338""
","
","true","","","","","","","","","","","",""
"audio-keyboard-response","2","8792","0.0-2.0","A107","false","img/card_backs/set1/purple.gif","img/card_backs/set1/red.gif","img/card_backs/set1/green.gif","img/card_backs/set1/yellow.gif","img/card_backs/set2/orange.gif","img/card_backs/set2/blue.gif","img/card_backs/set2/pink.gif","img/card_backs/set2/gray.gif","""event"",""trial"",""time""
""fullscreenenter"",""1"",""2338""
","
","
","""event"",""trial"",""time""
""fullscreenenter"",""1"",""2338""
","
","","5483","audio/beep_loop.wav","32","","","","","","","","",""
"audio-button-response","3","10457","0.0-3.0","A107","false","img/card_backs/set1/purple.gif","img/card_backs/set1/red.gif","img/card_backs/set1/green.gif","img/card_backs/set1/yellow.gif","img/card_backs/set2/orange.gif","img/card_backs/set2/blue.gif","img/card_backs/set2/pink.gif","img/card_backs/set2/gray.gif","""event"",""trial"",""time""
""fullscreenenter"",""1"",""2338""
","
","
","""event"",""trial"",""time""
""fullscreenenter"",""1"",""2338""
","
","","NaN","audio/turtle.mp3","","3","","","","","","","",""
"audio-button-response","4","12410","0.0-4.0","A107","false","img/card_backs/set1/purple.gif","img/card_backs/set1/red.gif","img/card_backs/set1/green.gif","img/card_backs/set1/yellow.gif","img/card_backs/set2/orange.gif","img/card_backs/set2/blue.gif","img/card_backs/set2/pink.gif","img/card_backs/set2/gray.gif","""event"",""trial"",""time""
""fullscreenenter"",""1"",""2338""
","
","
","""event"",""trial"",""time""
""fullscreenenter"",""1"",""2338""
","
","","NaN","audio/shark.mp3","","2","","","","","","","",""
"fullscreen","5","15425","0.0-5.0","A107","false","img/card_backs/set1/purple.gif","img/card_backs/set1/red.gif","img/card_backs/set1/green.gif","img/card_backs/set1/yellow.gif","img/card_backs/set2/orange.gif","img/card_backs/set2/blue.gif","img/card_backs/set2/pink.gif","img/card_backs/set2/gray.gif","""event"",""trial"",""time""
""fullscreenenter"",""1"",""2338""
","
","
","""event"",""trial"",""time""
""fullscreenenter"",""1"",""2338""
","
","true","","","","","","","","","","","",""
"casino-keyboard-response","6","19107","0.0-6.0-0.0","A107","false","img/card_backs/set1/purple.gif","img/card_backs/set1/red.gif","img/card_backs/set1/green.gif","img/card_backs/set1/yellow.gif","img/card_backs/set2/orange.gif","img/card_backs/set2/blue.gif","img/card_backs/set2/pink.gif","img/card_backs/set2/gray.gif","""event"",""trial"",""time""
""fullscreenenter"",""1"",""2338""
","
","
","""event"",""trial"",""time""
""fullscreenenter"",""1"",""2338""
","
","","3676.4249999978347","Welcome to the casino!","71","","instructions","2021-04-02 17:04:55.086","","","","","",""
"casino-keyboard-response","7","28529","0.0-6.0-0.1","A107","false","img/card_backs/set1/purple.gif","img/card_backs/set1/red.gif","img/card_backs/set1/green.gif","img/card_backs/set1/yellow.gif","img/card_backs/set2/orange.gif","img/card_backs/set2/blue.gif","img/card_backs/set2/pink.gif","img/card_backs/set2/gray.gif","""event"",""trial"",""time""
""fullscreenenter"",""1"",""2338""
","
","
","""event"",""trial"",""time""
""fullscreenenter"",""1"",""2338""
","
","","9419.81499999747","Today you will be playing a game to earn tokens. </br> At the end of the experiment, you will be paid a bonus based on how many tokens you win. ","69","","instructions","2021-04-02 17:05:04.508","","","","","",""
"casino-keyboard-response","8","35946","0.0-6.0-0.2","A107","false","img/card_backs/set1/purple.gif","img/card_backs/set1/red.gif","img/card_backs/set1/green.gif","img/card_backs/set1/yellow.gif","img/card_backs/set2/orange.gif","img/card_backs/set2/blue.gif","img/card_backs/set2/pink.gif","img/card_backs/set2/gray.gif","""event"",""trial"",""time""
""fullscreenenter"",""1"",""2338""
","
","
","""event"",""trial"",""time""
""fullscreenenter"",""1"",""2338""
","
","","7414.895000001707","On every turn, you will be shown four different decks of cards. </br> You need to select a card from one of the four decks.  ","75","","instructions","2021-04-02 17:05:11.925","","","","","",""
"casino-keyboard-response","9","40749","0.0-6.0-0.3","A107","false","img/card_backs/set1/purple.gif","img/card_backs/set1/red.gif","img/card_backs/set1/green.gif","img/card_backs/set1/yellow.gif","img/card_backs/set2/orange.gif","img/card_backs/set2/blue.gif","img/card_backs/set2/pink.gif","img/card_backs/set2/gray.gif","""event"",""trial"",""time""
""fullscreenenter"",""1"",""2338""
","
","
","""event"",""trial"",""time""
""fullscreenenter"",""1"",""2338""
","
","","4800.750000002154","On the next screen, you will see what the decks will look like. ","66","","instructions","2021-04-02 17:05:16.728","","","","","",""
"card-selection-trial","10","44761","0.0-7.0-0.0","A107","false","img/card_backs/set1/purple.gif","img/card_backs/set1/red.gif","img/card_backs/set1/green.gif","img/card_backs/set1/yellow.gif","img/card_backs/set2/orange.gif","img/card_backs/set2/blue.gif","img/card_backs/set2/pink.gif","img/card_backs/set2/gray.gif","""event"",""trial"",""time""
""fullscreenenter"",""1"",""2338""
","
","
","""event"",""trial"",""time""
""fullscreenenter"",""1"",""2338""
","
","","null","","","","practice","2021-04-02 17:05:20.741","null","null","null","0","",""
"casino-keyboard-response","11","51968","0.0-8.0-0.0","A107","false","img/card_backs/set1/purple.gif","img/card_backs/set1/red.gif","img/card_backs/set1/green.gif","img/card_backs/set1/yellow.gif","img/card_backs/set2/orange.gif","img/card_backs/set2/blue.gif","img/card_backs/set2/pink.gif","img/card_backs/set2/gray.gif","""event"",""trial"",""time""
""fullscreenenter"",""1"",""2338""
","
","
","""event"",""trial"",""time""
""fullscreenenter"",""1"",""2338""
","
","","7204.219999999623","You should pick a card from a deck using the '2', '4', '6', and '8' keys at the top of the keyboard.","85","","instructions","2021-04-02 17:05:27.947","","","","","",""
"casino-keyboard-response","12","57290","0.0-8.0-0.1","A107","false","img/card_backs/set1/purple.gif","img/card_backs/set1/red.gif","img/card_backs/set1/green.gif","img/card_backs/set1/yellow.gif","img/card_backs/set2/orange.gif","img/card_backs/set2/blue.gif","img/card_backs/set2/pink.gif","img/card_backs/set2/gray.gif","""event"",""trial"",""time""
""fullscreenenter"",""1"",""2338""
","
","
","""event"",""trial"",""time""
""fullscreenenter"",""1"",""2338""
","
","","5319.859999999608","Once you select a card, it will turn over and you will see how many tokens you earned.","83","","instructions","2021-04-02 17:05:33.269","","","","","",""
"casino-keyboard-response","13","71430","0.0-8.0-0.2","A107","false","img/card_backs/set1/purple.gif","img/card_backs/set1/red.gif","img/card_backs/set1/green.gif","img/card_backs/set1/yellow.gif","img/card_backs/set2/orange.gif","img/card_backs/set2/blue.gif","img/card_backs/set2/pink.gif","img/card_backs/set2/gray.gif","""event"",""trial"",""time""
""fullscreenenter"",""1"",""2338""
","
","
","""event"",""trial"",""time""
""fullscreenenter"",""1"",""2338""
","
","","14137.330000001384","Let's try practicing that! </br> First, try to put your fingers over the '2', '4', '6', and '8' keys. </br>  You can use whatever fingers are most comfortable for you. Try to find a comfortable position now. ","50","","instructions","2021-04-02 17:05:47.409","","","","","",""
"casino-keyboard-response","14","72639","0.0-8.0-0.3","A107","false","img/card_backs/set1/purple.gif","img/card_backs/set1/red.gif","img/card_backs/set1/green.gif","img/card_backs/set1/yellow.gif","img/card_backs/set2/orange.gif","img/card_backs/set2/blue.gif","img/card_backs/set2/pink.gif","img/card_backs/set2/gray.gif","""event"",""trial"",""time""
""fullscreenenter"",""1"",""2338""
","
","
","""event"",""trial"",""time""
""fullscreenenter"",""1"",""2338""
","
","","1207.044999999198","Okay ready? </br> On the next screen, press '2' to select the left deck. ","50","","instructions","2021-04-02 17:05:48.618","","","","","",""
"card-selection-trial","15","75405","0.0-9.0-0.0","A107","false","img/card_backs/set1/purple.gif","img/card_backs/set1/red.gif","img/card_backs/set1/green.gif","img/card_backs/set1/yellow.gif","img/card_backs/set2/orange.gif","img/card_backs/set2/blue.gif","img/card_backs/set2/pink.gif","img/card_backs/set2/gray.gif","""event"",""trial"",""time""
""fullscreenenter"",""1"",""2338""
","
","
","""event"",""trial"",""time""
""fullscreenenter"",""1"",""2338""
","
","","746.1100000000442","","","","practice_card_selection","2021-04-02 17:05:51.385","img/practice_cards/backs/dark_blue.gif","0","200","","",""
"casino-keyboard-response","16","77297","0.0-10.0-0.0","A107","false","img/card_backs/set1/purple.gif","img/card_backs/set1/red.gif","img/card_backs/set1/green.gif","img/card_backs/set1/yellow.gif","img/card_backs/set2/orange.gif","img/card_backs/set2/blue.gif","img/card_backs/set2/pink.gif","img/card_backs/set2/gray.gif","""event"",""trial"",""time""
""fullscreenenter"",""1"",""2338""
","
","
","""event"",""trial"",""time""
""fullscreenenter"",""1"",""2338""
","
","","1889.5999999986088","Great! Now on the next screen, try pressing '6' to select the third deck.","54","","instructions","2021-04-02 17:05:53.276","","","","","",""
"card-selection-trial","17","79635","0.0-11.0-0.0","A107","false","img/card_backs/set1/purple.gif","img/card_backs/set1/red.gif","img/card_backs/set1/green.gif","img/card_backs/set1/yellow.gif","img/card_backs/set2/orange.gif","img/card_backs/set2/blue.gif","img/card_backs/set2/pink.gif","img/card_backs/set2/gray.gif","""event"",""trial"",""time""
""fullscreenenter"",""1"",""2338""
","
","
","""event"",""trial"",""time""
""fullscreenenter"",""1"",""2338""
","
","","324.5249999999942","","","","practice_card_selection","2021-04-02 17:05:55.614","img/practice_cards/backs/dark_green.gif","2","200","","",""
"casino-keyboard-response","18","79747","0.0-12.0-0.0","A107","false","img/card_backs/set1/purple.gif","img/card_backs/set1/red.gif","img/card_backs/set1/green.gif","img/card_backs/set1/yellow.gif","img/card_backs/set2/orange.gif","img/card_backs/set2/blue.gif","img/card_backs/set2/pink.gif","img/card_backs/set2/gray.gif","""event"",""trial"",""time""
""fullscreenenter"",""1"",""2338""
","
","
","""event"",""trial"",""time""
""fullscreenenter"",""1"",""2338""
","
","","110.32999999952153","Now on the next screen, try pressing '4' to select the second deck.","52","","instructions","2021-04-02 17:05:55.726","","","","","",""
"card-selection-trial","19","82077","0.0-13.0-0.0","A107","false","img/card_backs/set1/purple.gif","img/card_backs/set1/red.gif","img/card_backs/set1/green.gif","img/card_backs/set1/yellow.gif","img/card_backs/set2/orange.gif","img/card_backs/set2/blue.gif","img/card_backs/set2/pink.gif","img/card_backs/set2/gray.gif","""event"",""trial"",""time""
""fullscreenenter"",""1"",""2338""
","
","
","""event"",""trial"",""time""
""fullscreenenter"",""1"",""2338""
","
","","317.3099999985425","","","","practice_card_selection","2021-04-02 17:05:58.056","img/practice_cards/backs/dark_blue.gif","1","200","","",""
"casino-keyboard-response","20","82207","0.0-14.0-0.0","A107","false","img/card_backs/set1/purple.gif","img/card_backs/set1/red.gif","img/card_backs/set1/green.gif","img/card_backs/set1/yellow.gif","img/card_backs/set2/orange.gif","img/card_backs/set2/blue.gif","img/card_backs/set2/pink.gif","img/card_backs/set2/gray.gif","""event"",""trial"",""time""
""fullscreenenter"",""1"",""2338""
","
","
","""event"",""trial"",""time""
""fullscreenenter"",""1"",""2338""
","
","","128.8300000014715","Finally, try pressing '8' to select the deck all the way on the right.","56","","instructions","2021-04-02 17:05:58.186","","","","","",""
"card-selection-trial","21","84648","0.0-15.0-0.0","A107","false","img/card_backs/set1/purple.gif","img/card_backs/set1/red.gif","img/card_backs/set1/green.gif","img/card_backs/set1/yellow.gif","img/card_backs/set2/orange.gif","img/card_backs/set2/blue.gif","img/card_backs/set2/pink.gif","img/card_backs/set2/gray.gif","""event"",""trial"",""time""
""fullscreenenter"",""1"",""2338""
","
","
","""event"",""trial"",""time""
""fullscreenenter"",""1"",""2338""
","
","","431.0850000001665","","","","practice_card_selection","2021-04-02 17:06:00.627","img/practice_cards/backs/dark_green.gif","3","200","","",""
"casino-keyboard-response","22","89692","0.0-16.0-0.0","A107","false","img/card_backs/set1/purple.gif","img/card_backs/set1/red.gif","img/card_backs/set1/green.gif","img/card_backs/set1/yellow.gif","img/card_backs/set2/orange.gif","img/card_backs/set2/blue.gif","img/card_backs/set2/pink.gif","img/card_backs/set2/gray.gif","""event"",""trial"",""time""
""fullscreenenter"",""1"",""2338""
","
","
","""event"",""trial"",""time""
""fullscreenenter"",""1"",""2338""
","
","","5042.120000001887","Great! It seems like you are getting the hang of this.","80","","instructions","2021-04-02 17:06:05.671","","","","","",""
"casino-keyboard-response","23","97148","0.0-16.0-0.1","A107","false","img/card_backs/set1/purple.gif","img/card_backs/set1/red.gif","img/card_backs/set1/green.gif","img/card_backs/set1/yellow.gif","img/card_backs/set2/orange.gif","img/card_backs/set2/blue.gif","img/card_backs/set2/pink.gif","img/card_backs/set2/gray.gif","""event"",""trial"",""time""
""fullscreenenter"",""1"",""2338""
","
","
","""event"",""trial"",""time""
""fullscreenenter"",""1"",""2338""
","
","","7452.869999997347","You may have noticed that some cards will cause you to <b> win </b> tokens while other cards will cause you to <b> lose </b>  tokens.","70","","instructions","2021-04-02 17:06:13.127","","","","","",""
"casino-keyboard-response","24","103335","0.0-16.0-0.2","A107","false","img/card_backs/set1/purple.gif","img/card_backs/set1/red.gif","img/card_backs/set1/green.gif","img/card_backs/set1/yellow.gif","img/card_backs/set2/orange.gif","img/card_backs/set2/blue.gif","img/card_backs/set2/pink.gif","img/card_backs/set2/gray.gif","""event"",""trial"",""time""
""fullscreenenter"",""1"",""2338""
","
","
","""event"",""trial"",""time""
""fullscreenenter"",""1"",""2338""
","
","","6183.570000001055","Each deck has a mix of cards that will cause you to win and lose tokens. </br> However, the cards in each colored deck are different.","73","","instructions","2021-04-02 17:06:19.314","","","","","",""
"casino-keyboard-response","25","104580","0.0-16.0-0.3","A107","false","img/card_backs/set1/purple.gif","img/card_backs/set1/red.gif","img/card_backs/set1/green.gif","img/card_backs/set1/yellow.gif","img/card_backs/set2/orange.gif","img/card_backs/set2/blue.gif","img/card_backs/set2/pink.gif","img/card_backs/set2/gray.gif","""event"",""trial"",""time""
""fullscreenenter"",""1"",""2338""
","
","
","""event"",""trial"",""time""
""fullscreenenter"",""1"",""2338""
","
","","1242.855000000418","Some colored decks are luckier than others. </br> If you choose the lucky decks, you will earn more tokens than if you choose the unlucky decks.","69","","instructions","2021-04-02 17:06:20.559","","","","","",""
"casino-keyboard-response","26","106258","0.0-16.0-0.4","A107","false","img/card_backs/set1/purple.gif","img/card_backs/set1/red.gif","img/card_backs/set1/green.gif","img/card_backs/set1/yellow.gif","img/card_backs/set2/orange.gif","img/card_backs/set2/blue.gif","img/card_backs/set2/pink.gif","img/card_backs/set2/gray.gif","""event"",""trial"",""time""
""fullscreenenter"",""1"",""2338""
","
","
","""event"",""trial"",""time""
""fullscreenenter"",""1"",""2338""
","
","","1676.6099999986182","You should try to figure out which decks are lucky. </br> Then, try to choose the lucky decks so you can win the most tokens.","87","","instructions","2021-04-02 17:06:22.237","","","","","",""
"casino-keyboard-response","27","107811","0.0-16.0-0.5","A107","false","img/card_backs/set1/purple.gif","img/card_backs/set1/red.gif","img/card_backs/set1/green.gif","img/card_backs/set1/yellow.gif","img/card_backs/set2/orange.gif","img/card_backs/set2/blue.gif","img/card_backs/set2/pink.gif","img/card_backs/set2/gray.gif","""event"",""trial"",""time""
""fullscreenenter"",""1"",""2338""
","
","
","""event"",""trial"",""time""
""fullscreenenter"",""1"",""2338""
","
","","1551.4799999982642","To make it trickier, the casino dealer will switch the locations of the decks on every turn. </br> The color of the deck determines how lucky it is. The location does not matter.","88","","instructions","2021-04-02 17:06:23.790","","","","","",""
"casino-keyboard-response","28","110450","0.0-16.0-0.6","A107","false","img/card_backs/set1/purple.gif","img/card_backs/set1/red.gif","img/card_backs/set1/green.gif","img/card_backs/set1/yellow.gif","img/card_backs/set2/orange.gif","img/card_backs/set2/blue.gif","img/card_backs/set2/pink.gif","img/card_backs/set2/gray.gif","""event"",""trial"",""time""
""fullscreenenter"",""1"",""2338""
","
","
","""event"",""trial"",""time""
""fullscreenenter"",""1"",""2338""
","
","","2637.4550000000454","The mix of cards in each colored deck will stay the same throughout the game. </br> That means that a deck that is lucky early on will stay lucky.","79","","instructions","2021-04-02 17:06:26.429","","","","","",""
"casino-keyboard-response","29","111795","0.0-16.0-0.7","A107","false","img/card_backs/set1/purple.gif","img/card_backs/set1/red.gif","img/card_backs/set1/green.gif","img/card_backs/set1/yellow.gif","img/card_backs/set2/orange.gif","img/card_backs/set2/blue.gif","img/card_backs/set2/pink.gif","img/card_backs/set2/gray.gif","""event"",""trial"",""time""
""fullscreenenter"",""1"",""2338""
","
","
","""event"",""trial"",""time""
""fullscreenenter"",""1"",""2338""
","
","","1342.8400000011607","Remember though, all the decks have a <b> mix </b> of both <b> good </b> and <b> bad </b> cards so it may take a couple of turns to figure out if a deck is lucky.","69","","instructions","2021-04-02 17:06:27.774","","","","","",""
"casino-keyboard-response","30","113058","0.0-16.0-0.8","A107","false","img/card_backs/set1/purple.gif","img/card_backs/set1/red.gif","img/card_backs/set1/green.gif","img/card_backs/set1/yellow.gif","img/card_backs/set2/orange.gif","img/card_backs/set2/blue.gif","img/card_backs/set2/pink.gif","img/card_backs/set2/gray.gif","""event"",""trial"",""time""
""fullscreenenter"",""1"",""2338""
","
","
","""event"",""trial"",""time""
""fullscreenenter"",""1"",""2338""
","
","","1261.3349999992352","At the end of the game, you will be paid bonus money based on how many tokens you win. </br> If you win more tokens, you will earn more money!","72","","instructions","2021-04-02 17:06:29.037","","","","","",""
"casino-keyboard-response","31","113643","0.0-16.0-0.9","A107","false","img/card_backs/set1/purple.gif","img/card_backs/set1/red.gif","img/card_backs/set1/green.gif","img/card_backs/set1/yellow.gif","img/card_backs/set2/orange.gif","img/card_backs/set2/blue.gif","img/card_backs/set2/pink.gif","img/card_backs/set2/gray.gif","""event"",""trial"",""time""
""fullscreenenter"",""1"",""2338""
","
","
","""event"",""trial"",""time""
""fullscreenenter"",""1"",""2338""
","
","","583.5399999996298","You will never <b> lose </b> money. </br> If you end up with fewer than 0 tokens, you will earn $0 of bonus money, but you will still be paid for playing the game.","83","","instructions","2021-04-02 17:06:29.622","","","","","",""
"casino-keyboard-response","32","118028","0.0-16.0-0.10","A107","false","img/card_backs/set1/purple.gif","img/card_backs/set1/red.gif","img/card_backs/set1/green.gif","img/card_backs/set1/yellow.gif","img/card_backs/set2/orange.gif","img/card_backs/set2/blue.gif","img/card_backs/set2/pink.gif","img/card_backs/set2/gray.gif","""event"",""trial"",""time""
""fullscreenenter"",""1"",""2338""
","
","
","""event"",""trial"",""time""
""fullscreenenter"",""1"",""2338""
","
","","4378.065000000788","You will have 10 seconds to make each choice.","82","","instructions","2021-04-02 17:06:34.007","","","","","",""
"casino-keyboard-response","33","121321","0.0-16.0-0.11","A107","false","img/card_backs/set1/purple.gif","img/card_backs/set1/red.gif","img/card_backs/set1/green.gif","img/card_backs/set1/yellow.gif","img/card_backs/set2/orange.gif","img/card_backs/set2/blue.gif","img/card_backs/set2/pink.gif","img/card_backs/set2/gray.gif","""event"",""trial"",""time""
""fullscreenenter"",""1"",""2338""
","
","
","""event"",""trial"",""time""
""fullscreenenter"",""1"",""2338""
","
","","3290.320000000065","Before you play the game for real, you will play with practice decks. </br> The tokens you earn during practice won't count toward your total.","86","","instructions","2021-04-02 17:06:37.300","","","","","",""
"casino-keyboard-response","34","125754","0.0-16.0-0.12","A107","false","img/card_backs/set1/purple.gif","img/card_backs/set1/red.gif","img/card_backs/set1/green.gif","img/card_backs/set1/yellow.gif","img/card_backs/set2/orange.gif","img/card_backs/set2/blue.gif","img/card_backs/set2/pink.gif","img/card_backs/set2/gray.gif","""event"",""trial"",""time""
""fullscreenenter"",""1"",""2338""
","
","
","""event"",""trial"",""time""
""fullscreenenter"",""1"",""2338""
","
","","4431.690000001254","Ready? Remember, use the '2', '4', '6', and '8' keys to select the decks. </br> Put your fingers on those keys now and then press '2' to begin.","50","","instructions","2021-04-02 17:06:41.733","","","","","",""
"casino-fixation","35","126260","0.0-17.0-0.0","A107","false","img/card_backs/set1/purple.gif","img/card_backs/set1/red.gif","img/card_backs/set1/green.gif","img/card_backs/set1/yellow.gif","img/card_backs/set2/orange.gif","img/card_backs/set2/blue.gif","img/card_backs/set2/pink.gif","img/card_backs/set2/gray.gif","""event"",""trial"",""time""
""fullscreenenter"",""1"",""2338""
","
","
","""event"",""trial"",""time""
""fullscreenenter"",""1"",""2338""
","
","","null","","null","","fixation","2021-04-02 17:06:42.239","","","","","",""
"card-selection-trial","36","130174","0.0-17.0-1.0","A107","false","img/card_backs/set1/purple.gif","img/card_backs/set1/red.gif","img/card_backs/set1/green.gif","img/card_backs/set1/yellow.gif","img/card_backs/set2/orange.gif","img/card_backs/set2/blue.gif","img/card_backs/set2/pink.gif","img/card_backs/set2/gray.gif","""event"",""trial"",""time""
""fullscreenenter"",""1"",""2338""
","
","
","""event"",""trial"",""time""
""fullscreenenter"",""1"",""2338""
","
","","1903.98500000083","","","","practice","2021-04-02 17:06:46.154","img/practice_cards/backs/dark_blue.gif","3","-200","0","",""
"casino-fixation","37","130681","0.0-17.0-0.1","A107","false","img/card_backs/set1/purple.gif","img/card_backs/set1/red.gif","img/card_backs/set1/green.gif","img/card_backs/set1/yellow.gif","img/card_backs/set2/orange.gif","img/card_backs/set2/blue.gif","img/card_backs/set2/pink.gif","img/card_backs/set2/gray.gif","""event"",""trial"",""time""
""fullscreenenter"",""1"",""2338""
","
","
","""event"",""trial"",""time""
""fullscreenenter"",""1"",""2338""
","
","","null","","null","","fixation","2021-04-02 17:06:46.660","","","","","",""
"card-selection-trial","38","133588","0.0-17.0-1.1","A107","false","img/card_backs/set1/purple.gif","img/card_backs/set1/red.gif","img/card_backs/set1/green.gif","img/card_backs/set1/yellow.gif","img/card_backs/set2/orange.gif","img/card_backs/set2/blue.gif","img/card_backs/set2/pink.gif","img/card_backs/set2/gray.gif","""event"",""trial"",""time""
""fullscreenenter"",""1"",""2338""
","
","
","""event"",""trial"",""time""
""fullscreenenter"",""1"",""2338""
","
","","893.9750000026834","","","","practice","2021-04-02 17:06:49.567","img/practice_cards/backs/brown.gif","2","100","0","",""
"casino-fixation","39","134094","0.0-17.0-0.2","A107","false","img/card_backs/set1/purple.gif","img/card_backs/set1/red.gif","img/card_backs/set1/green.gif","img/card_backs/set1/yellow.gif","img/card_backs/set2/orange.gif","img/card_backs/set2/blue.gif","img/card_backs/set2/pink.gif","img/card_backs/set2/gray.gif","""event"",""trial"",""time""
""fullscreenenter"",""1"",""2338""
","
","
","""event"",""trial"",""time""
""fullscreenenter"",""1"",""2338""
","
","","null","","null","","fixation","2021-04-02 17:06:50.073","","","","","",""
"card-selection-trial","40","137225","0.0-17.0-1.2","A107","false","img/card_backs/set1/purple.gif","img/card_backs/set1/red.gif","img/card_backs/set1/green.gif","img/card_backs/set1/yellow.gif","img/card_backs/set2/orange.gif","img/card_backs/set2/blue.gif","img/card_backs/set2/pink.gif","img/card_backs/set2/gray.gif","""event"",""trial"",""time""
""fullscreenenter"",""1"",""2338""
","
","
","""event"",""trial"",""time""
""fullscreenenter"",""1"",""2338""
","
","","1119.4949999990058","","","","practice","2021-04-02 17:06:53.205","img/practice_cards/backs/black.gif","2","100","0","",""
"casino-fixation","41","137732","0.0-17.0-0.3","A107","false","img/card_backs/set1/purple.gif","img/card_backs/set1/red.gif","img/card_backs/set1/green.gif","img/card_backs/set1/yellow.gif","img/card_backs/set2/orange.gif","img/card_backs/set2/blue.gif","img/card_backs/set2/pink.gif","img/card_backs/set2/gray.gif","""event"",""trial"",""time""
""fullscreenenter"",""1"",""2338""
","
","
","""event"",""trial"",""time""
""fullscreenenter"",""1"",""2338""
","
","","null","","null","","fixation","2021-04-02 17:06:53.711","","","","","",""
"card-selection-trial","42","141178","0.0-17.0-1.3","A107","false","img/card_backs/set1/purple.gif","img/card_backs/set1/red.gif","img/card_backs/set1/green.gif","img/card_backs/set1/yellow.gif","img/card_backs/set2/orange.gif","img/card_backs/set2/blue.gif","img/card_backs/set2/pink.gif","img/card_backs/set2/gray.gif","""event"",""trial"",""time""
""fullscreenenter"",""1"",""2338""
","
","
","""event"",""trial"",""time""
""fullscreenenter"",""1"",""2338""
","
","","1436.0500000002503","","","","practice","2021-04-02 17:06:57.158","img/practice_cards/backs/black.gif","2","-100","0","",""
"casino-fixation","43","141683","0.0-17.0-0.4","A107","false","img/card_backs/set1/purple.gif","img/card_backs/set1/red.gif","img/card_backs/set1/green.gif","img/card_backs/set1/yellow.gif","img/card_backs/set2/orange.gif","img/card_backs/set2/blue.gif","img/card_backs/set2/pink.gif","img/card_backs/set2/gray.gif","""event"",""trial"",""time""
""fullscreenenter"",""1"",""2338""
","
","
","""event"",""trial"",""time""
""fullscreenenter"",""1"",""2338""
","
","","null","","null","","fixation","2021-04-02 17:06:57.662","","","","","",""
"card-selection-trial","44","144111","0.0-17.0-1.4","A107","false","img/card_backs/set1/purple.gif","img/card_backs/set1/red.gif","img/card_backs/set1/green.gif","img/card_backs/set1/yellow.gif","img/card_backs/set2/orange.gif","img/card_backs/set2/blue.gif","img/card_backs/set2/pink.gif","img/card_backs/set2/gray.gif","""event"",""trial"",""time""
""fullscreenenter"",""1"",""2338""
","
","
","""event"",""trial"",""time""
""fullscreenenter"",""1"",""2338""
","
","","419.6650000012596","","","","practice","2021-04-02 17:07:00.090","img/practice_cards/backs/dark_blue.gif","1","-200","0","",""
"casino-fixation","45","144618","0.0-17.0-0.5","A107","false","img/card_backs/set1/purple.gif","img/card_backs/set1/red.gif","img/card_backs/set1/green.gif","img/card_backs/set1/yellow.gif","img/card_backs/set2/orange.gif","img/card_backs/set2/blue.gif","img/card_backs/set2/pink.gif","img/card_backs/set2/gray.gif","""event"",""trial"",""time""
""fullscreenenter"",""1"",""2338""
","
","
","""event"",""trial"",""time""
""fullscreenenter"",""1"",""2338""
","
","","null","","null","","fixation","2021-04-02 17:07:00.597","","","","","",""
"card-selection-trial","46","146865","0.0-17.0-1.5","A107","false","img/card_backs/set1/purple.gif","img/card_backs/set1/red.gif","img/card_backs/set1/green.gif","img/card_backs/set1/yellow.gif","img/card_backs/set2/orange.gif","img/card_backs/set2/blue.gif","img/card_backs/set2/pink.gif","img/card_backs/set2/gray.gif","""event"",""trial"",""time""
""fullscreenenter"",""1"",""2338""
","
","
","""event"",""trial"",""time""
""fullscreenenter"",""1"",""2338""
","
","","237.939999999071","","","","practice","2021-04-02 17:07:02.844","img/practice_cards/backs/dark_blue.gif","2","-200","0","",""
"casino-fixation","47","147369","0.0-17.0-0.6","A107","false","img/card_backs/set1/purple.gif","img/card_backs/set1/red.gif","img/card_backs/set1/green.gif","img/card_backs/set1/yellow.gif","img/card_backs/set2/orange.gif","img/card_backs/set2/blue.gif","img/card_backs/set2/pink.gif","img/card_backs/set2/gray.gif","""event"",""trial"",""time""
""fullscreenenter"",""1"",""2338""
","
","
","""event"",""trial"",""time""
""fullscreenenter"",""1"",""2338""
","
","","null","","null","","fixation","2021-04-02 17:07:03.348","","","","","",""
"card-selection-trial","48","150225","0.0-17.0-1.6","A107","false","img/card_backs/set1/purple.gif","img/card_backs/set1/red.gif","img/card_backs/set1/green.gif","img/card_backs/set1/yellow.gif","img/card_backs/set2/orange.gif","img/card_backs/set2/blue.gif","img/card_backs/set2/pink.gif","img/card_backs/set2/gray.gif","""event"",""trial"",""time""
""fullscreenenter"",""1"",""2338""
","
","
","""event"",""trial"",""time""
""fullscreenenter"",""1"",""2338""
","
","","843.1349999991653","","","","practice","2021-04-02 17:07:06.204","img/practice_cards/backs/dark_green.gif","3","200","0","",""
"casino-fixation","49","150729","0.0-17.0-0.7","A107","false","img/card_backs/set1/purple.gif","img/card_backs/set1/red.gif","img/card_backs/set1/green.gif","img/card_backs/set1/yellow.gif","img/card_backs/set2/orange.gif","img/card_backs/set2/blue.gif","img/card_backs/set2/pink.gif","img/card_backs/set2/gray.gif","""event"",""trial"",""time""
""fullscreenenter"",""1"",""2338""
","
","
","""event"",""trial"",""time""
""fullscreenenter"",""1"",""2338""
","
","","null","","null","","fixation","2021-04-02 17:07:06.708","","","","","",""
"card-selection-trial","50","153530","0.0-17.0-1.7","A107","false","img/card_backs/set1/purple.gif","img/card_backs/set1/red.gif","img/card_backs/set1/green.gif","img/card_backs/set1/yellow.gif","img/card_backs/set2/orange.gif","img/card_backs/set2/blue.gif","img/card_backs/set2/pink.gif","img/card_backs/set2/gray.gif","""event"",""trial"",""time""
""fullscreenenter"",""1"",""2338""
","
","
","""event"",""trial"",""time""
""fullscreenenter"",""1"",""2338""
","
","","789.0750000005937","","","","practice","2021-04-02 17:07:09.509","img/practice_cards/backs/dark_green.gif","3","200","0","",""
"casino-fixation","51","154031","0.0-17.0-0.8","A107","false","img/card_backs/set1/purple.gif","img/card_backs/set1/red.gif","img/card_backs/set1/green.gif","img/card_backs/set1/yellow.gif","img/card_backs/set2/orange.gif","img/card_backs/set2/blue.gif","img/card_backs/set2/pink.gif","img/card_backs/set2/gray.gif","""event"",""trial"",""time""
""fullscreenenter"",""1"",""2338""
","
","
","""event"",""trial"",""time""
""fullscreenenter"",""1"",""2338""
","
","","null","","null","","fixation","2021-04-02 17:07:10.010","","","","","",""
"card-selection-trial","52","156384","0.0-17.0-1.8","A107","false","img/card_backs/set1/purple.gif","img/card_backs/set1/red.gif","img/card_backs/set1/green.gif","img/card_backs/set1/yellow.gif","img/card_backs/set2/orange.gif","img/card_backs/set2/blue.gif","img/card_backs/set2/pink.gif","img/card_backs/set2/gray.gif","""event"",""trial"",""time""
""fullscreenenter"",""1"",""2338""
","
","
","""event"",""trial"",""time""
""fullscreenenter"",""1"",""2338""
","
","","340.86000000024796","","","","practice","2021-04-02 17:07:12.363","img/practice_cards/backs/brown.gif","3","-100","0","",""
"casino-fixation","53","156886","0.0-17.0-0.9","A107","false","img/card_backs/set1/purple.gif","img/card_backs/set1/red.gif","img/card_backs/set1/green.gif","img/card_backs/set1/yellow.gif","img/card_backs/set2/orange.gif","img/card_backs/set2/blue.gif","img/card_backs/set2/pink.gif","img/card_backs/set2/gray.gif","""event"",""trial"",""time""
""fullscreenenter"",""1"",""2338""
","
","
","""event"",""trial"",""time""
""fullscreenenter"",""1"",""2338""
","
","","null","","null","","fixation","2021-04-02 17:07:12.865","","","","","",""
"card-selection-trial","54","159366","0.0-17.0-1.9","A107","false","img/card_backs/set1/purple.gif","img/card_backs/set1/red.gif","img/card_backs/set1/green.gif","img/card_backs/set1/yellow.gif","img/card_backs/set2/orange.gif","img/card_backs/set2/blue.gif","img/card_backs/set2/pink.gif","img/card_backs/set2/gray.gif","""event"",""trial"",""time""
""fullscreenenter"",""1"",""2338""
","
","
","""event"",""trial"",""time""
""fullscreenenter"",""1"",""2338""
","
","","468.33000000333413","","","","practice","2021-04-02 17:07:15.345","img/practice_cards/backs/dark_green.gif","3","-200","0","",""
"casino-keyboard-response","55","163398","0.0-18.0","A107","false","img/card_backs/set1/purple.gif","img/card_backs/set1/red.gif","img/card_backs/set1/green.gif","img/card_backs/set1/yellow.gif","img/card_backs/set2/orange.gif","img/card_backs/set2/blue.gif","img/card_backs/set2/pink.gif","img/card_backs/set2/gray.gif","""event"",""trial"",""time""
""fullscreenenter"",""1"",""2338""
","
","
","""event"",""trial"",""time""
""fullscreenenter"",""1"",""2338""
","
","","4017.250000000786","You earned -400 tokens during the practice round!","82","","","2021-04-02 17:07:19.377","","","","","",""
"casino-keyboard-response","56","167723","0.0-19.0-0.0","A107","false","img/card_backs/set1/purple.gif","img/card_backs/set1/red.gif","img/card_backs/set1/green.gif","img/card_backs/set1/yellow.gif","img/card_backs/set2/orange.gif","img/card_backs/set2/blue.gif","img/card_backs/set2/pink.gif","img/card_backs/set2/gray.gif","""event"",""trial"",""time""
""fullscreenenter"",""1"",""2338""
","
","
","""event"",""trial"",""time""
""fullscreenenter"",""1"",""2338""
","
","","4323.025000001508","Nice job! You are almost ready to play the real game.","86","","instructions","2021-04-02 17:07:23.702","","","","","",""
"casino-keyboard-response","57","168397","0.0-19.0-0.1","A107","false","img/card_backs/set1/purple.gif","img/card_backs/set1/red.gif","img/card_backs/set1/green.gif","img/card_backs/set1/yellow.gif","img/card_backs/set2/orange.gif","img/card_backs/set2/blue.gif","img/card_backs/set2/pink.gif","img/card_backs/set2/gray.gif","""event"",""trial"",""time""
""fullscreenenter"",""1"",""2338""
","
","
","""event"",""trial"",""time""
""fullscreenenter"",""1"",""2338""
","
","","672.9799999993702","You will play two rounds of the real game. In each round, you will pick 100 cards in total.","73","","instructions","2021-04-02 17:07:24.376","","","","","",""
"casino-keyboard-response","58","173261","0.0-19.0-0.2","A107","false","img/card_backs/set1/purple.gif","img/card_backs/set1/red.gif","img/card_backs/set1/green.gif","img/card_backs/set1/yellow.gif","img/card_backs/set2/orange.gif","img/card_backs/set2/blue.gif","img/card_backs/set2/pink.gif","img/card_backs/set2/gray.gif","""event"",""trial"",""time""
""fullscreenenter"",""1"",""2338""
","
","
","""event"",""trial"",""time""
""fullscreenenter"",""1"",""2338""
","
","","4861.990000001242","We are now going to ask you some questions about how the game works.","66","","instructions","2021-04-02 17:07:29.240","","","","","",""
"casino-keyboard-response","59","179563","0.0-19.0-0.3","A107","false","img/card_backs/set1/purple.gif","img/card_backs/set1/red.gif","img/card_backs/set1/green.gif","img/card_backs/set1/yellow.gif","img/card_backs/set2/orange.gif","img/card_backs/set2/blue.gif","img/card_backs/set2/pink.gif","img/card_backs/set2/gray.gif","""event"",""trial"",""time""
""fullscreenenter"",""1"",""2338""
","
","
","""event"",""trial"",""time""
""fullscreenenter"",""1"",""2338""
","
","","6300.204999999551","Answer carefully. You will not be able to begin the game until you answer them correctly.","67","","instructions","2021-04-02 17:07:35.542","","","","","",""
"casino-comp_q","60","186090","0.0-20.0-0.0","A107","false","img/card_backs/set1/purple.gif","img/card_backs/set1/red.gif","img/card_backs/set1/green.gif","img/card_backs/set1/yellow.gif","img/card_backs/set2/orange.gif","img/card_backs/set2/blue.gif","img/card_backs/set2/pink.gif","img/card_backs/set2/gray.gif","""event"",""trial"",""time""
""fullscreenenter"",""1"",""2338""
","
","
","""event"",""trial"",""time""
""fullscreenenter"",""1"",""2338""
","
","","6524.085000000923","True or False: All the decks have some cards that cause you to win tokens and some cards that cause you to lose tokens.","84","","","2021-04-02 17:07:42.069","","","","","",""
"casino-keyboard-response","61","189287","0.0-20.0-1.0","A107","false","img/card_backs/set1/purple.gif","img/card_backs/set1/red.gif","img/card_backs/set1/green.gif","img/card_backs/set1/yellow.gif","img/card_backs/set2/orange.gif","img/card_backs/set2/blue.gif","img/card_backs/set2/pink.gif","img/card_backs/set2/gray.gif","""event"",""trial"",""time""
""fullscreenenter"",""1"",""2338""
","
","
","""event"",""trial"",""time""
""fullscreenenter"",""1"",""2338""
","
","","3194.145000001299","True is correct! All the decks have a mix of winning and losing cards.","77","","","2021-04-02 17:07:45.266","","","","","true",""
"casino-comp_q","62","195558","0.0-21.0-0.0","A107","false","img/card_backs/set1/purple.gif","img/card_backs/set1/red.gif","img/card_backs/set1/green.gif","img/card_backs/set1/yellow.gif","img/card_backs/set2/orange.gif","img/card_backs/set2/blue.gif","img/card_backs/set2/pink.gif","img/card_backs/set2/gray.gif","""event"",""trial"",""time""
""fullscreenenter"",""1"",""2338""
","
","
","""event"",""trial"",""time""
""fullscreenenter"",""1"",""2338""
","
","","6263.794999998936","True or False: You will have as much time as you want to make your response.","84","","","2021-04-02 17:07:51.537","","","","","",""
"casino-keyboard-response","63","200469","0.0-21.0-1.0","A107","false","img/card_backs/set1/purple.gif","img/card_backs/set1/red.gif","img/card_backs/set1/green.gif","img/card_backs/set1/yellow.gif","img/card_backs/set2/orange.gif","img/card_backs/set2/blue.gif","img/card_backs/set2/pink.gif","img/card_backs/set2/gray.gif","""event"",""trial"",""time""
""fullscreenenter"",""1"",""2338""
","
","
","""event"",""trial"",""time""
""fullscreenenter"",""1"",""2338""
","
","","4909.064999999828","True is incorrect. You will only have 10 seconds to make each choice.","75","","","2021-04-02 17:07:56.448","","","","","false",""
"casino-comp_q","64","204736","0.0-21.1-0.1","A107","false","img/card_backs/set1/purple.gif","img/card_backs/set1/red.gif","img/card_backs/set1/green.gif","img/card_backs/set1/yellow.gif","img/card_backs/set2/orange.gif","img/card_backs/set2/blue.gif","img/card_backs/set2/pink.gif","img/card_backs/set2/gray.gif","""event"",""trial"",""time""
""fullscreenenter"",""1"",""2338""
","
","
","""event"",""trial"",""time""
""fullscreenenter"",""1"",""2338""
","
","","4264.234999998735","True or False: You will have as much time as you want to make your response.","70","","","2021-04-02 17:08:00.715","","","","","",""
"casino-keyboard-response","65","208236","0.0-21.1-1.1","A107","false","img/card_backs/set1/purple.gif","img/card_backs/set1/red.gif","img/card_backs/set1/green.gif","img/card_backs/set1/yellow.gif","img/card_backs/set2/orange.gif","img/card_backs/set2/blue.gif","img/card_backs/set2/pink.gif","img/card_backs/set2/gray.gif","""event"",""trial"",""time""
""fullscreenenter"",""1"",""2338""
","
","
","""event"",""trial"",""time""
""fullscreenenter"",""1"",""2338""
","
","","3495.8150000020396","False is correct! You will only have 10 seconds to make each choice.","75","","","2021-04-02 17:08:04.215","","","","","true",""
"casino-comp_q","66","212166","0.0-22.0-0.0","A107","false","img/card_backs/set1/purple.gif","img/card_backs/set1/red.gif","img/card_backs/set1/green.gif","img/card_backs/set1/yellow.gif","img/card_backs/set2/orange.gif","img/card_backs/set2/blue.gif","img/card_backs/set2/pink.gif","img/card_backs/set2/gray.gif","""event"",""trial"",""time""
""fullscreenenter"",""1"",""2338""
","
","
","""event"",""trial"",""time""
""fullscreenenter"",""1"",""2338""
","
","","3928.0149999976857","True or False: The location of the deck determines how lucky it is.","84","","","2021-04-02 17:08:08.145","","","","","",""
"casino-keyboard-response","67","217808","0.0-22.0-1.0","A107","false","img/card_backs/set1/purple.gif","img/card_backs/set1/red.gif","img/card_backs/set1/green.gif","img/card_backs/set1/yellow.gif","img/card_backs/set2/orange.gif","img/card_backs/set2/blue.gif","img/card_backs/set2/pink.gif","img/card_backs/set2/gray.gif","""event"",""trial"",""time""
""fullscreenenter"",""1"",""2338""
","
","
","""event"",""trial"",""time""
""fullscreenenter"",""1"",""2338""
","
","","5639.425000001211","True is incorrect. The <i>color</i> of the deck determines how lucky or unlucky it is.","68","","","2021-04-02 17:08:13.787","","","","","false",""
"casino-comp_q","68","220057","0.0-22.1-0.1","A107","false","img/card_backs/set1/purple.gif","img/card_backs/set1/red.gif","img/card_backs/set1/green.gif","img/card_backs/set1/yellow.gif","img/card_backs/set2/orange.gif","img/card_backs/set2/blue.gif","img/card_backs/set2/pink.gif","img/card_backs/set2/gray.gif","""event"",""trial"",""time""
""fullscreenenter"",""1"",""2338""
","
","
","""event"",""trial"",""time""
""fullscreenenter"",""1"",""2338""
","
","","2246.4249999975436","True or False: The location of the deck determines how lucky it is.","70","","","2021-04-02 17:08:16.036","","","","","",""
"casino-keyboard-response","69","223754","0.0-22.1-1.1","A107","false","img/card_backs/set1/purple.gif","img/card_backs/set1/red.gif","img/card_backs/set1/green.gif","img/card_backs/set1/yellow.gif","img/card_backs/set2/orange.gif","img/card_backs/set2/blue.gif","img/card_backs/set2/pink.gif","img/card_backs/set2/gray.gif","""event"",""trial"",""time""
""fullscreenenter"",""1"",""2338""
","
","
","""event"",""trial"",""time""
""fullscreenenter"",""1"",""2338""
","
","","3695.4250000017055","False is correct! The <i>color</i>  of the deck determines how lucky or unlucky it is.","68","","","2021-04-02 17:08:19.733","","","","","true",""
"casino-keyboard-response","70","228639","0.0-23.0-0.0","A107","false","img/card_backs/set1/purple.gif","img/card_backs/set1/red.gif","img/card_backs/set1/green.gif","img/card_backs/set1/yellow.gif","img/card_backs/set2/orange.gif","img/card_backs/set2/blue.gif","img/card_backs/set2/pink.gif","img/card_backs/set2/gray.gif","""event"",""trial"",""time""
""fullscreenenter"",""1"",""2338""
","
","
","""event"",""trial"",""time""
""fullscreenenter"",""1"",""2338""
","
","","4881.854999999632","Great job! Now it's time to start the real game.","82","","instructions","2021-04-02 17:08:24.618","","","","","",""
"casino-keyboard-response","71","234019","0.0-23.0-0.1","A107","false","img/card_backs/set1/purple.gif","img/card_backs/set1/red.gif","img/card_backs/set1/green.gif","img/card_backs/set1/yellow.gif","img/card_backs/set2/orange.gif","img/card_backs/set2/blue.gif","img/card_backs/set2/pink.gif","img/card_backs/set2/gray.gif","""event"",""trial"",""time""
""fullscreenenter"",""1"",""2338""
","
","
","""event"",""trial"",""time""
""fullscreenenter"",""1"",""2338""
","
","","5378.235000000132","Before we start, we're going to head into a new room of the casino.","86","","instructions","2021-04-02 17:08:29.998","","","","","",""
"casino-keyboard-response","72","240538","0.0-24.0-0.0","A107","false","img/card_backs/set1/purple.gif","img/card_backs/set1/red.gif","img/card_backs/set1/green.gif","img/card_backs/set1/yellow.gif","img/card_backs/set2/orange.gif","img/card_backs/set2/blue.gif","img/card_backs/set2/pink.gif","img/card_backs/set2/gray.gif","""event"",""trial"",""time""
""fullscreenenter"",""1"",""2338""
","
","
","""event"",""trial"",""time""
""fullscreenenter"",""1"",""2338""
","
","","6516.34500000003","Here we are! The real game will use different cards, but the rules will be the same.","71","","instructions","2021-04-02 17:08:36.517","","","","","",""
"casino-keyboard-response","73","241918","0.0-24.0-0.1","A107","false","img/card_backs/set1/purple.gif","img/card_backs/set1/red.gif","img/card_backs/set1/green.gif","img/card_backs/set1/yellow.gif","img/card_backs/set2/orange.gif","img/card_backs/set2/blue.gif","img/card_backs/set2/pink.gif","img/card_backs/set2/gray.gif","""event"",""trial"",""time""
""fullscreenenter"",""1"",""2338""
","
","
","""event"",""trial"",""time""
""fullscreenenter"",""1"",""2338""
","
","","1377.555000002787","Ready? Put your fingers over the '2', '4', 6', and '8' keys so you are ready to play the game. </br> Then press 2 to start.","50","","instructions","2021-04-02 17:08:37.897","","","","","",""
"casino-fixation","74","242419","0.0-25.0-0.0","A107","false","img/card_backs/set1/purple.gif","img/card_backs/set1/red.gif","img/card_backs/set1/green.gif","img/card_backs/set1/yellow.gif","img/card_backs/set2/orange.gif","img/card_backs/set2/blue.gif","img/card_backs/set2/pink.gif","img/card_backs/set2/gray.gif","""event"",""trial"",""time""
""fullscreenenter"",""1"",""2338""
","
","
","""event"",""trial"",""time""
""fullscreenenter"",""1"",""2338""
","
","","null","","null","","fixation","2021-04-02 17:08:38.398","","","","","",""
"card-selection-trial","75","245453","0.0-25.0-1.0","A107","false","img/card_backs/set1/purple.gif","img/card_backs/set1/red.gif","img/card_backs/set1/green.gif","img/card_backs/set1/yellow.gif","img/card_backs/set2/orange.gif","img/card_backs/set2/blue.gif","img/card_backs/set2/pink.gif","img/card_backs/set2/gray.gif","""event"",""trial"",""time""
""fullscreenenter"",""1"",""2338""
","
","
","""event"",""trial"",""time""
""fullscreenenter"",""1"",""2338""
","
","","1025.774999998277","","","","real_trial","2021-04-02 17:08:41.432","img/card_backs/set1/yellow.gif","2","120","1","",""
"casino-fixation","76","245955","0.0-25.0-0.1","A107","false","img/card_backs/set1/purple.gif","img/card_backs/set1/red.gif","img/card_backs/set1/green.gif","img/card_backs/set1/yellow.gif","img/card_backs/set2/orange.gif","img/card_backs/set2/blue.gif","img/card_backs/set2/pink.gif","img/card_backs/set2/gray.gif","""event"",""trial"",""time""
""fullscreenenter"",""1"",""2338""
","
","
","""event"",""trial"",""time""
""fullscreenenter"",""1"",""2338""
","
","","null","","null","","fixation","2021-04-02 17:08:41.934","","","","","",""
"card-selection-trial","77","249229","0.0-25.0-1.1","A107","false","img/card_backs/set1/purple.gif","img/card_backs/set1/red.gif","img/card_backs/set1/green.gif","img/card_backs/set1/yellow.gif","img/card_backs/set2/orange.gif","img/card_backs/set2/blue.gif","img/card_backs/set2/pink.gif","img/card_backs/set2/gray.gif","""event"",""trial"",""time""
""fullscreenenter"",""1"",""2338""
","
","
","""event"",""trial"",""time""
""fullscreenenter"",""1"",""2338""
","
","","1265.864999997546","","","","real_trial","2021-04-02 17:08:45.208","img/card_backs/set1/yellow.gif","3","120","1","",""
"casino-fixation","78","249736","0.0-25.0-0.2","A107","false","img/card_backs/set1/purple.gif","img/card_backs/set1/red.gif","img/card_backs/set1/green.gif","img/card_backs/set1/yellow.gif","img/card_backs/set2/orange.gif","img/card_backs/set2/blue.gif","img/card_backs/set2/pink.gif","img/card_backs/set2/gray.gif","""event"",""trial"",""time""
""fullscreenenter"",""1"",""2338""
","
","
","""event"",""trial"",""time""
""fullscreenenter"",""1"",""2338""
","
","","null","","null","","fixation","2021-04-02 17:08:45.715","","","","","",""
"card-selection-trial","79","252947","0.0-25.0-1.2","A107","false","img/card_backs/set1/purple.gif","img/card_backs/set1/red.gif","img/card_backs/set1/green.gif","img/card_backs/set1/yellow.gif","img/card_backs/set2/orange.gif","img/card_backs/set2/blue.gif","img/card_backs/set2/pink.gif","img/card_backs/set2/gray.gif","""event"",""trial"",""time""
""fullscreenenter"",""1"",""2338""
","
","
","""event"",""trial"",""time""
""fullscreenenter"",""1"",""2338""
","
","","1198.7050000025192","","","","real_trial","2021-04-02 17:08:48.926","img/card_backs/set1/red.gif","0","-250","1","",""
"casino-fixation","80","253453","0.0-25.0-0.3","A107","false","img/card_backs/set1/purple.gif","img/card_backs/set1/red.gif","img/card_backs/set1/green.gif","img/card_backs/set1/yellow.gif","img/card_backs/set2/orange.gif","img/card_backs/set2/blue.gif","img/card_backs/set2/pink.gif","img/card_backs/set2/gray.gif","""event"",""trial"",""time""
""fullscreenenter"",""1"",""2338""
","
","
","""event"",""trial"",""time""
""fullscreenenter"",""1"",""2338""
","
","","null","","null","","fixation","2021-04-02 17:08:49.432","","","","","",""
"card-selection-trial","81","255992","0.0-25.0-1.3","A107","false","img/card_backs/set1/purple.gif","img/card_backs/set1/red.gif","img/card_backs/set1/green.gif","img/card_backs/set1/yellow.gif","img/card_backs/set2/orange.gif","img/card_backs/set2/blue.gif","img/card_backs/set2/pink.gif","img/card_backs/set2/gray.gif","""event"",""trial"",""time""
""fullscreenenter"",""1"",""2338""
","
","
","""event"",""trial"",""time""
""fullscreenenter"",""1"",""2338""
","
","","527.4750000025379","","","","real_trial","2021-04-02 17:08:51.971","img/card_backs/set1/yellow.gif","3","-50","1","",""
"casino-fixation","82","256498","0.0-25.0-0.4","A107","false","img/card_backs/set1/purple.gif","img/card_backs/set1/red.gif","img/card_backs/set1/green.gif","img/card_backs/set1/yellow.gif","img/card_backs/set2/orange.gif","img/card_backs/set2/blue.gif","img/card_backs/set2/pink.gif","img/card_backs/set2/gray.gif","""event"",""trial"",""time""
""fullscreenenter"",""1"",""2338""
","
","
","""event"",""trial"",""time""
""fullscreenenter"",""1"",""2338""
","
","","null","","null","","fixation","2021-04-02 17:08:52.478","","","","","",""
"card-selection-trial","83","259923","0.0-25.0-1.4","A107","false","img/card_backs/set1/purple.gif","img/card_backs/set1/red.gif","img/card_backs/set1/green.gif","img/card_backs/set1/yellow.gif","img/card_backs/set2/orange.gif","img/card_backs/set2/blue.gif","img/card_backs/set2/pink.gif","img/card_backs/set2/gray.gif","""event"",""trial"",""time""
""fullscreenenter"",""1"",""2338""
","
","
","""event"",""trial"",""time""
""fullscreenenter"",""1"",""2338""
","
","","1414.8300000014715","","","","real_trial","2021-04-02 17:08:55.902","img/card_backs/set1/purple.gif","1","180","1","",""
"casino-fixation","84","260429","0.0-25.0-0.5","A107","false","img/card_backs/set1/purple.gif","img/card_backs/set1/red.gif","img/card_backs/set1/green.gif","img/card_backs/set1/yellow.gif","img/card_backs/set2/orange.gif","img/card_backs/set2/blue.gif","img/card_backs/set2/pink.gif","img/card_backs/set2/gray.gif","""event"",""trial"",""time""
""fullscreenenter"",""1"",""2338""
","
","
","""event"",""trial"",""time""
""fullscreenenter"",""1"",""2338""
","
","","null","","null","","fixation","2021-04-02 17:08:56.408","","","","","",""
"card-selection-trial","85","263020","0.0-25.0-1.5","A107","false","img/card_backs/set1/purple.gif","img/card_backs/set1/red.gif","img/card_backs/set1/green.gif","img/card_backs/set1/yellow.gif","img/card_backs/set2/orange.gif","img/card_backs/set2/blue.gif","img/card_backs/set2/pink.gif","img/card_backs/set2/gray.gif","""event"",""trial"",""time""
""fullscreenenter"",""1"",""2338""
","
","
","""event"",""trial"",""time""
""fullscreenenter"",""1"",""2338""
","
","","581.7599999972736","","","","real_trial","2021-04-02 17:08:58.999","img/card_backs/set1/purple.gif","1","200","1","",""
"casino-fixation","86","263522","0.0-25.0-0.6","A107","false","img/card_backs/set1/purple.gif","img/card_backs/set1/red.gif","img/card_backs/set1/green.gif","img/card_backs/set1/yellow.gif","img/card_backs/set2/orange.gif","img/card_backs/set2/blue.gif","img/card_backs/set2/pink.gif","img/card_backs/set2/gray.gif","""event"",""trial"",""time""
""fullscreenenter"",""1"",""2338""
","
","
","""event"",""trial"",""time""
""fullscreenenter"",""1"",""2338""
","
","","null","","null","","fixation","2021-04-02 17:08:59.502","","","","","",""
"card-selection-trial","87","266904","0.0-25.0-1.6","A107","false","img/card_backs/set1/purple.gif","img/card_backs/set1/red.gif","img/card_backs/set1/green.gif","img/card_backs/set1/yellow.gif","img/card_backs/set2/orange.gif","img/card_backs/set2/blue.gif","img/card_backs/set2/pink.gif","img/card_backs/set2/gray.gif","""event"",""trial"",""time""
""fullscreenenter"",""1"",""2338""
","
","
","""event"",""trial"",""time""
""fullscreenenter"",""1"",""2338""
","
","","1372.7650000000722","","","","real_trial","2021-04-02 17:09:02.883","img/card_backs/set1/purple.gif","2","-250","1","",""
"casino-fixation","88","267411","0.0-25.0-0.7","A107","false","img/card_backs/set1/purple.gif","img/card_backs/set1/red.gif","img/card_backs/set1/green.gif","img/card_backs/set1/yellow.gif","img/card_backs/set2/orange.gif","img/card_backs/set2/blue.gif","img/card_backs/set2/pink.gif","img/card_backs/set2/gray.gif","""event"",""trial"",""time""
""fullscreenenter"",""1"",""2338""
","
","
","""event"",""trial"",""time""
""fullscreenenter"",""1"",""2338""
","
","","null","","null","","fixation","2021-04-02 17:09:03.390","","","","","",""
"card-selection-trial","89","270608","0.0-25.0-1.7","A107","false","img/card_backs/set1/purple.gif","img/card_backs/set1/red.gif","img/card_backs/set1/green.gif","img/card_backs/set1/yellow.gif","img/card_backs/set2/orange.gif","img/card_backs/set2/blue.gif","img/card_backs/set2/pink.gif","img/card_backs/set2/gray.gif","""event"",""trial"",""time""
""fullscreenenter"",""1"",""2338""
","
","
","""event"",""trial"",""time""
""fullscreenenter"",""1"",""2338""
","
","","1190.2499999996508","","","","real_trial","2021-04-02 17:09:06.587","img/card_backs/set1/purple.gif","1","190","1","",""
"casino-fixation","90","271112","0.0-25.0-0.8","A107","false","img/card_backs/set1/purple.gif","img/card_backs/set1/red.gif","img/card_backs/set1/green.gif","img/card_backs/set1/yellow.gif","img/card_backs/set2/orange.gif","img/card_backs/set2/blue.gif","img/card_backs/set2/pink.gif","img/card_backs/set2/gray.gif","""event"",""trial"",""time""
""fullscreenenter"",""1"",""2338""
","
","
","""event"",""trial"",""time""
""fullscreenenter"",""1"",""2338""
","
","","null","","null","","fixation","2021-04-02 17:09:07.091","","","","","",""
"card-selection-trial","91","274138","0.0-25.0-1.8","A107","false","img/card_backs/set1/purple.gif","img/card_backs/set1/red.gif","img/card_backs/set1/green.gif","img/card_backs/set1/yellow.gif","img/card_backs/set2/orange.gif","img/card_backs/set2/blue.gif","img/card_backs/set2/pink.gif","img/card_backs/set2/gray.gif","""event"",""trial"",""time""
""fullscreenenter"",""1"",""2338""
","
","
","""event"",""trial"",""time""
""fullscreenenter"",""1"",""2338""
","
","","1015.7099999996135","","","","real_trial","2021-04-02 17:09:10.117","img/card_backs/set1/yellow.gif","3","-70","1","",""
"casino-fixation","92","274644","0.0-25.0-0.9","A107","false","img/card_backs/set1/purple.gif","img/card_backs/set1/red.gif","img/card_backs/set1/green.gif","img/card_backs/set1/yellow.gif","img/card_backs/set2/orange.gif","img/card_backs/set2/blue.gif","img/card_backs/set2/pink.gif","img/card_backs/set2/gray.gif","""event"",""trial"",""time""
""fullscreenenter"",""1"",""2338""
","
","
","""event"",""trial"",""time""
""fullscreenenter"",""1"",""2338""
","
","","null","","null","","fixation","2021-04-02 17:09:10.623","","","","","",""
"card-selection-trial","93","277620","0.0-25.0-1.9","A107","false","img/card_backs/set1/purple.gif","img/card_backs/set1/red.gif","img/card_backs/set1/green.gif","img/card_backs/set1/yellow.gif","img/card_backs/set2/orange.gif","img/card_backs/set2/blue.gif","img/card_backs/set2/pink.gif","img/card_backs/set2/gray.gif","""event"",""trial"",""time""
""fullscreenenter"",""1"",""2338""
","
","
","""event"",""trial"",""time""
""fullscreenenter"",""1"",""2338""
","
","","964.929999998305","","","","real_trial","2021-04-02 17:09:13.599","img/card_backs/set1/purple.gif","2","190","1","",""
"casino-fixation","94","278125","0.0-25.0-0.10","A107","false","img/card_backs/set1/purple.gif","img/card_backs/set1/red.gif","img/card_backs/set1/green.gif","img/card_backs/set1/yellow.gif","img/card_backs/set2/orange.gif","img/card_backs/set2/blue.gif","img/card_backs/set2/pink.gif","img/card_backs/set2/gray.gif","""event"",""trial"",""time""
""fullscreenenter"",""1"",""2338""
","
","
","""event"",""trial"",""time""
""fullscreenenter"",""1"",""2338""
","
","","null","","null","","fixation","2021-04-02 17:09:14.104","","","","","",""
"card-selection-trial","95","281224","0.0-25.0-1.10","A107","false","img/card_backs/set1/purple.gif","img/card_backs/set1/red.gif","img/card_backs/set1/green.gif","img/card_backs/set1/yellow.gif","img/card_backs/set2/orange.gif","img/card_backs/set2/blue.gif","img/card_backs/set2/pink.gif","img/card_backs/set2/gray.gif","""event"",""trial"",""time""
""fullscreenenter"",""1"",""2338""
","
","
","""event"",""trial"",""time""
""fullscreenenter"",""1"",""2338""
","
","","1090.6699999977718","","","","real_trial","2021-04-02 17:09:17.203","img/card_backs/set1/red.gif","3","-240","1","",""
"casino-fixation","96","281731","0.0-25.0-0.11","A107","false","img/card_backs/set1/purple.gif","img/card_backs/set1/red.gif","img/card_backs/set1/green.gif","img/card_backs/set1/yellow.gif","img/card_backs/set2/orange.gif","img/card_backs/set2/blue.gif","img/card_backs/set2/pink.gif","img/card_backs/set2/gray.gif","""event"",""trial"",""time""
""fullscreenenter"",""1"",""2338""
","
","
","""event"",""trial"",""time""
""fullscreenenter"",""1"",""2338""
","
","","null","","null","","fixation","2021-04-02 17:09:17.710","","","","","",""
"card-selection-trial","97","284479","0.0-25.0-1.11","A107","false","img/card_backs/set1/purple.gif","img/card_backs/set1/red.gif","img/card_backs/set1/green.gif","img/card_backs/set1/yellow.gif","img/card_backs/set2/orange.gif","img/card_backs/set2/blue.gif","img/card_backs/set2/pink.gif","img/card_backs/set2/gray.gif","""event"",""trial"",""time""
""fullscreenenter"",""1"",""2338""
","
","
","""event"",""trial"",""time""
""fullscreenenter"",""1"",""2338""
","
","","737.5200000024051","","","","real_trial","2021-04-02 17:09:20.458","img/card_backs/set1/purple.gif","1","180","1","",""
"casino-fixation","98","284985","0.0-25.0-0.12","A107","false","img/card_backs/set1/purple.gif","img/card_backs/set1/red.gif","img/card_backs/set1/green.gif","img/card_backs/set1/yellow.gif","img/card_backs/set2/orange.gif","img/card_backs/set2/blue.gif","img/card_backs/set2/pink.gif","img/card_backs/set2/gray.gif","""event"",""trial"",""time""
""fullscreenenter"",""1"",""2338""
","
","
","""event"",""trial"",""time""
""fullscreenenter"",""1"",""2338""
","
","","null","","null","","fixation","2021-04-02 17:09:20.964","","","","","",""
"card-selection-trial","99","288122","0.0-25.0-1.12","A107","false","img/card_backs/set1/purple.gif","img/card_backs/set1/red.gif","img/card_backs/set1/green.gif","img/card_backs/set1/yellow.gif","img/card_backs/set2/orange.gif","img/card_backs/set2/blue.gif","img/card_backs/set2/pink.gif","img/card_backs/set2/gray.gif","""event"",""trial"",""time""
""fullscreenenter"",""1"",""2338""
","
","
","""event"",""trial"",""time""
""fullscreenenter"",""1"",""2338""
","
","","1129.6099999999278","","","","real_trial","2021-04-02 17:09:24.101","img/card_backs/set1/purple.gif","0","190","1","",""
"casino-fixation","100","288628","0.0-25.0-0.13","A107","false","img/card_backs/set1/purple.gif","img/card_backs/set1/red.gif","img/card_backs/set1/green.gif","img/card_backs/set1/yellow.gif","img/card_backs/set2/orange.gif","img/card_backs/set2/blue.gif","img/card_backs/set2/pink.gif","img/card_backs/set2/gray.gif","""event"",""trial"",""time""
""fullscreenenter"",""1"",""2338""
","
","
","""event"",""trial"",""time""
""fullscreenenter"",""1"",""2338""
","
","","null","","null","","fixation","2021-04-02 17:09:24.608","","","","","",""
"card-selection-trial","101","291477","0.0-25.0-1.13","A107","false","img/card_backs/set1/purple.gif","img/card_backs/set1/red.gif","img/card_backs/set1/green.gif","img/card_backs/set1/yellow.gif","img/card_backs/set2/orange.gif","img/card_backs/set2/blue.gif","img/card_backs/set2/pink.gif","img/card_backs/set2/gray.gif","""event"",""trial"",""time""
""fullscreenenter"",""1"",""2338""
","
","
","""event"",""trial"",""time""
""fullscreenenter"",""1"",""2338""
","
","","836.2100000013597","","","","real_trial","2021-04-02 17:09:27.456","img/card_backs/set1/purple.gif","0","-250","1","",""
"casino-fixation","102","291983","0.0-25.0-0.14","A107","false","img/card_backs/set1/purple.gif","img/card_backs/set1/red.gif","img/card_backs/set1/green.gif","img/card_backs/set1/yellow.gif","img/card_backs/set2/orange.gif","img/card_backs/set2/blue.gif","img/card_backs/set2/pink.gif","img/card_backs/set2/gray.gif","""event"",""trial"",""time""
""fullscreenenter"",""1"",""2338""
","
","
","""event"",""trial"",""time""
""fullscreenenter"",""1"",""2338""
","
","","null","","null","","fixation","2021-04-02 17:09:27.962","","","","","",""
"card-selection-trial","103","295863","0.0-25.0-1.14","A107","false","img/card_backs/set1/purple.gif","img/card_backs/set1/red.gif","img/card_backs/set1/green.gif","img/card_backs/set1/yellow.gif","img/card_backs/set2/orange.gif","img/card_backs/set2/blue.gif","img/card_backs/set2/pink.gif","img/card_backs/set2/gray.gif","""event"",""trial"",""time""
""fullscreenenter"",""1"",""2338""
","
","
","""event"",""trial"",""time""
""fullscreenenter"",""1"",""2338""
","
","","1872.1700000023702","","","","real_trial","2021-04-02 17:09:31.842","img/card_backs/set1/purple.gif","2","180","1","",""
"casino-fixation","104","296367","0.0-25.0-0.15","A107","false","img/card_backs/set1/purple.gif","img/card_backs/set1/red.gif","img/card_backs/set1/green.gif","img/card_backs/set1/yellow.gif","img/card_backs/set2/orange.gif","img/card_backs/set2/blue.gif","img/card_backs/set2/pink.gif","img/card_backs/set2/gray.gif","""event"",""trial"",""time""
""fullscreenenter"",""1"",""2338""
","
","
","""event"",""trial"",""time""
""fullscreenenter"",""1"",""2338""
","
","","null","","null","","fixation","2021-04-02 17:09:32.346","","","","","",""
"card-selection-trial","105","298790","0.0-25.0-1.15","A107","false","img/card_backs/set1/purple.gif","img/card_backs/set1/red.gif","img/card_backs/set1/green.gif","img/card_backs/set1/yellow.gif","img/card_backs/set2/orange.gif","img/card_backs/set2/blue.gif","img/card_backs/set2/pink.gif","img/card_backs/set2/gray.gif","""event"",""trial"",""time""
""fullscreenenter"",""1"",""2338""
","
","
","""event"",""trial"",""time""
""fullscreenenter"",""1"",""2338""
","
","","412.87000000011176","","","","real_trial","2021-04-02 17:09:34.769","img/card_backs/set1/purple.gif","3","180","1","",""
"casino-fixation","106","299295","0.0-25.0-0.16","A107","false","img/card_backs/set1/purple.gif","img/card_backs/set1/red.gif","img/card_backs/set1/green.gif","img/card_backs/set1/yellow.gif","img/card_backs/set2/orange.gif","img/card_backs/set2/blue.gif","img/card_backs/set2/pink.gif","img/card_backs/set2/gray.gif","""event"",""trial"",""time""
""fullscreenenter"",""1"",""2338""
","
","
","""event"",""trial"",""time""
""fullscreenenter"",""1"",""2338""
","
","","null","","null","","fixation","2021-04-02 17:09:35.274","","","","","",""
"card-selection-trial","107","302542","0.0-25.0-1.16","A107","false","img/card_backs/set1/purple.gif","img/card_backs/set1/red.gif","img/card_backs/set1/green.gif","img/card_backs/set1/yellow.gif","img/card_backs/set2/orange.gif","img/card_backs/set2/blue.gif","img/card_backs/set2/pink.gif","img/card_backs/set2/gray.gif","""event"",""trial"",""time""
""fullscreenenter"",""1"",""2338""
","
","
","""event"",""trial"",""time""
""fullscreenenter"",""1"",""2338""
","
","","1236.8099999984843","","","","real_trial","2021-04-02 17:09:38.522","img/card_backs/set1/purple.gif","2","190","1","",""
"casino-fixation","108","303048","0.0-25.0-0.17","A107","false","img/card_backs/set1/purple.gif","img/card_backs/set1/red.gif","img/card_backs/set1/green.gif","img/card_backs/set1/yellow.gif","img/card_backs/set2/orange.gif","img/card_backs/set2/blue.gif","img/card_backs/set2/pink.gif","img/card_backs/set2/gray.gif","""event"",""trial"",""time""
""fullscreenenter"",""1"",""2338""
","
","
","""event"",""trial"",""time""
""fullscreenenter"",""1"",""2338""
","
","","null","","null","","fixation","2021-04-02 17:09:39.027","","","","","",""
"card-selection-trial","109","305925","0.0-25.0-1.17","A107","false","img/card_backs/set1/purple.gif","img/card_backs/set1/red.gif","img/card_backs/set1/green.gif","img/card_backs/set1/yellow.gif","img/card_backs/set2/orange.gif","img/card_backs/set2/blue.gif","img/card_backs/set2/pink.gif","img/card_backs/set2/gray.gif","""event"",""trial"",""time""
""fullscreenenter"",""1"",""2338""
","
","
","""event"",""trial"",""time""
""fullscreenenter"",""1"",""2338""
","
","","867.1749999994645","","","","real_trial","2021-04-02 17:09:41.904","img/card_backs/set1/yellow.gif","1","-60","1","",""
"casino-fixation","110","306432","0.0-25.0-0.18","A107","false","img/card_backs/set1/purple.gif","img/card_backs/set1/red.gif","img/card_backs/set1/green.gif","img/card_backs/set1/yellow.gif","img/card_backs/set2/orange.gif","img/card_backs/set2/blue.gif","img/card_backs/set2/pink.gif","img/card_backs/set2/gray.gif","""event"",""trial"",""time""
""fullscreenenter"",""1"",""2338""
","
","
","""event"",""trial"",""time""
""fullscreenenter"",""1"",""2338""
","
","","null","","null","","fixation","2021-04-02 17:09:42.411","","","","","",""
"card-selection-trial","111","308949","0.0-25.0-1.18","A107","false","img/card_backs/set1/purple.gif","img/card_backs/set1/red.gif","img/card_backs/set1/green.gif","img/card_backs/set1/yellow.gif","img/card_backs/set2/orange.gif","img/card_backs/set2/blue.gif","img/card_backs/set2/pink.gif","img/card_backs/set2/gray.gif","""event"",""trial"",""time""
""fullscreenenter"",""1"",""2338""
","
","
","""event"",""trial"",""time""
""fullscreenenter"",""1"",""2338""
","
","","510.40500000095926","","","","real_trial","2021-04-02 17:09:44.929","img/card_backs/set1/green.gif","1","-70","1","",""
"casino-fixation","112","309456","0.0-25.0-0.19","A107","false","img/card_backs/set1/purple.gif","img/card_backs/set1/red.gif","img/card_backs/set1/green.gif","img/card_backs/set1/yellow.gif","img/card_backs/set2/orange.gif","img/card_backs/set2/blue.gif","img/card_backs/set2/pink.gif","img/card_backs/set2/gray.gif","""event"",""trial"",""time""
""fullscreenenter"",""1"",""2338""
","
","
","""event"",""trial"",""time""
""fullscreenenter"",""1"",""2338""
","
","","null","","null","","fixation","2021-04-02 17:09:45.435","","","","","",""
"card-selection-trial","113","312575","0.0-25.0-1.19","A107","false","img/card_backs/set1/purple.gif","img/card_backs/set1/red.gif","img/card_backs/set1/green.gif","img/card_backs/set1/yellow.gif","img/card_backs/set2/orange.gif","img/card_backs/set2/blue.gif","img/card_backs/set2/pink.gif","img/card_backs/set2/gray.gif","""event"",""trial"",""time""
""fullscreenenter"",""1"",""2338""
","
","
","""event"",""trial"",""time""
""fullscreenenter"",""1"",""2338""
","
","","1112.0900000022957","","","","real_trial","2021-04-02 17:09:48.554","img/card_backs/set1/purple.gif","0","-240","1","",""
"casino-fixation","114","313078","0.0-25.0-0.20","A107","false","img/card_backs/set1/purple.gif","img/card_backs/set1/red.gif","img/card_backs/set1/green.gif","img/card_backs/set1/yellow.gif","img/card_backs/set2/orange.gif","img/card_backs/set2/blue.gif","img/card_backs/set2/pink.gif","img/card_backs/set2/gray.gif","""event"",""trial"",""time""
""fullscreenenter"",""1"",""2338""
","
","
","""event"",""trial"",""time""
""fullscreenenter"",""1"",""2338""
","
","","null","","null","","fixation","2021-04-02 17:09:49.057","","","","","",""
"card-selection-trial","115","315760","0.0-25.0-1.20","A107","false","img/card_backs/set1/purple.gif","img/card_backs/set1/red.gif","img/card_backs/set1/green.gif","img/card_backs/set1/yellow.gif","img/card_backs/set2/orange.gif","img/card_backs/set2/blue.gif","img/card_backs/set2/pink.gif","img/card_backs/set2/gray.gif","""event"",""trial"",""time""
""fullscreenenter"",""1"",""2338""
","
","
","""event"",""trial"",""time""
""fullscreenenter"",""1"",""2338""
","
","","671.4850000025472","","","","real_trial","2021-04-02 17:09:51.739","img/card_backs/set1/purple.gif","3","200","1","",""
"casino-fixation","116","316264","0.0-25.0-0.21","A107","false","img/card_backs/set1/purple.gif","img/card_backs/set1/red.gif","img/card_backs/set1/green.gif","img/card_backs/set1/yellow.gif","img/card_backs/set2/orange.gif","img/card_backs/set2/blue.gif","img/card_backs/set2/pink.gif","img/card_backs/set2/gray.gif","""event"",""trial"",""time""
""fullscreenenter"",""1"",""2338""
","
","
","""event"",""trial"",""time""
""fullscreenenter"",""1"",""2338""
","
","","null","","null","","fixation","2021-04-02 17:09:52.243","","","","","",""
"card-selection-trial","117","319248","0.0-25.0-1.21","A107","false","img/card_backs/set1/purple.gif","img/card_backs/set1/red.gif","img/card_backs/set1/green.gif","img/card_backs/set1/yellow.gif","img/card_backs/set2/orange.gif","img/card_backs/set2/blue.gif","img/card_backs/set2/pink.gif","img/card_backs/set2/gray.gif","""event"",""trial"",""time""
""fullscreenenter"",""1"",""2338""
","
","
","""event"",""trial"",""time""
""fullscreenenter"",""1"",""2338""
","
","","974.8299999992596","","","","real_trial","2021-04-02 17:09:55.227","img/card_backs/set1/purple.gif","2","-240","1","",""
"casino-fixation","118","319749","0.0-25.0-0.22","A107","false","img/card_backs/set1/purple.gif","img/card_backs/set1/red.gif","img/card_backs/set1/green.gif","img/card_backs/set1/yellow.gif","img/card_backs/set2/orange.gif","img/card_backs/set2/blue.gif","img/card_backs/set2/pink.gif","img/card_backs/set2/gray.gif","""event"",""trial"",""time""
""fullscreenenter"",""1"",""2338""
","
","
","""event"",""trial"",""time""
""fullscreenenter"",""1"",""2338""
","
","","null","","null","","fixation","2021-04-02 17:09:55.728","","","","","",""
"card-selection-trial","119","322134","0.0-25.0-1.22","A107","false","img/card_backs/set1/purple.gif","img/card_backs/set1/red.gif","img/card_backs/set1/green.gif","img/card_backs/set1/yellow.gif","img/card_backs/set2/orange.gif","img/card_backs/set2/blue.gif","img/card_backs/set2/pink.gif","img/card_backs/set2/gray.gif","""event"",""trial"",""time""
""fullscreenenter"",""1"",""2338""
","
","
","""event"",""trial"",""time""
""fullscreenenter"",""1"",""2338""
","
","","372.1850000001723","","","","real_trial","2021-04-02 17:09:58.113","img/card_backs/set1/purple.gif","3","-230","1","",""
"casino-fixation","120","322637","0.0-25.0-0.23","A107","false","img/card_backs/set1/purple.gif","img/card_backs/set1/red.gif","img/card_backs/set1/green.gif","img/card_backs/set1/yellow.gif","img/card_backs/set2/orange.gif","img/card_backs/set2/blue.gif","img/card_backs/set2/pink.gif","img/card_backs/set2/gray.gif","""event"",""trial"",""time""
""fullscreenenter"",""1"",""2338""
","
","
","""event"",""trial"",""time""
""fullscreenenter"",""1"",""2338""
","
","","null","","null","","fixation","2021-04-02 17:09:58.616","","","","","",""
"card-selection-trial","121","325163","0.0-25.0-1.23","A107","false","img/card_backs/set1/purple.gif","img/card_backs/set1/red.gif","img/card_backs/set1/green.gif","img/card_backs/set1/yellow.gif","img/card_backs/set2/orange.gif","img/card_backs/set2/blue.gif","img/card_backs/set2/pink.gif","img/card_backs/set2/gray.gif","""event"",""trial"",""time""
""fullscreenenter"",""1"",""2338""
","
","
","""event"",""trial"",""time""
""fullscreenenter"",""1"",""2338""
","
","","514.9600000004284","","","","real_trial","2021-04-02 17:10:01.142","img/card_backs/set1/purple.gif","0","200","1","",""
"casino-fixation","122","325666","0.0-25.0-0.24","A107","false","img/card_backs/set1/purple.gif","img/card_backs/set1/red.gif","img/card_backs/set1/green.gif","img/card_backs/set1/yellow.gif","img/card_backs/set2/orange.gif","img/card_backs/set2/blue.gif","img/card_backs/set2/pink.gif","img/card_backs/set2/gray.gif","""event"",""trial"",""time""
""fullscreenenter"",""1"",""2338""
","
","
","""event"",""trial"",""time""
""fullscreenenter"",""1"",""2338""
","
","","null","","null","","fixation","2021-04-02 17:10:01.645","","","","","",""
"card-selection-trial","123","328646","0.0-25.0-1.24","A107","false","img/card_backs/set1/purple.gif","img/card_backs/set1/red.gif","img/card_backs/set1/green.gif","img/card_backs/set1/yellow.gif","img/card_backs/set2/orange.gif","img/card_backs/set2/blue.gif","img/card_backs/set2/pink.gif","img/card_backs/set2/gray.gif","""event"",""trial"",""time""
""fullscreenenter"",""1"",""2338""
","
","
","""event"",""trial"",""time""
""fullscreenenter"",""1"",""2338""
","
","","971.2350000008591","","","","real_trial","2021-04-02 17:10:04.625","img/card_backs/set1/purple.gif","1","190","1","",""
"casino-fixation","124","329152","0.0-25.0-0.25","A107","false","img/card_backs/set1/purple.gif","img/card_backs/set1/red.gif","img/card_backs/set1/green.gif","img/card_backs/set1/yellow.gif","img/card_backs/set2/orange.gif","img/card_backs/set2/blue.gif","img/card_backs/set2/pink.gif","img/card_backs/set2/gray.gif","""event"",""trial"",""time""
""fullscreenenter"",""1"",""2338""
","
","
","""event"",""trial"",""time""
""fullscreenenter"",""1"",""2338""
","
","","null","","null","","fixation","2021-04-02 17:10:05.131","","","","","",""
"card-selection-trial","125","332203","0.0-25.0-1.25","A107","false","img/card_backs/set1/purple.gif","img/card_backs/set1/red.gif","img/card_backs/set1/green.gif","img/card_backs/set1/yellow.gif","img/card_backs/set2/orange.gif","img/card_backs/set2/blue.gif","img/card_backs/set2/pink.gif","img/card_backs/set2/gray.gif","""event"",""trial"",""time""
""fullscreenenter"",""1"",""2338""
","
","
","""event"",""trial"",""time""
""fullscreenenter"",""1"",""2338""
","
","","1042.4149999998626","","","","real_trial","2021-04-02 17:10:08.182","img/card_backs/set1/purple.gif","1","180","1","",""
"casino-fixation","126","332709","0.0-25.0-0.26","A107","false","img/card_backs/set1/purple.gif","img/card_backs/set1/red.gif","img/card_backs/set1/green.gif","img/card_backs/set1/yellow.gif","img/card_backs/set2/orange.gif","img/card_backs/set2/blue.gif","img/card_backs/set2/pink.gif","img/card_backs/set2/gray.gif","""event"",""trial"",""time""
""fullscreenenter"",""1"",""2338""
","
","
","""event"",""trial"",""time""
""fullscreenenter"",""1"",""2338""
","
","","null","","null","","fixation","2021-04-02 17:10:08.688","","","","","",""
"card-selection-trial","127","335147","0.0-25.0-1.26","A107","false","img/card_backs/set1/purple.gif","img/card_backs/set1/red.gif","img/card_backs/set1/green.gif","img/card_backs/set1/yellow.gif","img/card_backs/set2/orange.gif","img/card_backs/set2/blue.gif","img/card_backs/set2/pink.gif","img/card_backs/set2/gray.gif","""event"",""trial"",""time""
""fullscreenenter"",""1"",""2338""
","
","
","""event"",""trial"",""time""
""fullscreenenter"",""1"",""2338""
","
","","426.244999998773","","","","real_trial","2021-04-02 17:10:11.127","img/card_backs/set1/purple.gif","3","200","1","",""
"casino-fixation","128","335654","0.0-25.0-0.27","A107","false","img/card_backs/set1/purple.gif","img/card_backs/set1/red.gif","img/card_backs/set1/green.gif","img/card_backs/set1/yellow.gif","img/card_backs/set2/orange.gif","img/card_backs/set2/blue.gif","img/card_backs/set2/pink.gif","img/card_backs/set2/gray.gif","""event"",""trial"",""time""
""fullscreenenter"",""1"",""2338""
","
","
","""event"",""trial"",""time""
""fullscreenenter"",""1"",""2338""
","
","","null","","null","","fixation","2021-04-02 17:10:11.633","","","","","",""
"card-selection-trial","129","338184","0.0-25.0-1.27","A107","false","img/card_backs/set1/purple.gif","img/card_backs/set1/red.gif","img/card_backs/set1/green.gif","img/card_backs/set1/yellow.gif","img/card_backs/set2/orange.gif","img/card_backs/set2/blue.gif","img/card_backs/set2/pink.gif","img/card_backs/set2/gray.gif","""event"",""trial"",""time""
""fullscreenenter"",""1"",""2338""
","
","
","""event"",""trial"",""time""
""fullscreenenter"",""1"",""2338""
","
","","522.5649999993038","","","","real_trial","2021-04-02 17:10:14.164","img/card_backs/set1/purple.gif","1","-240","1","",""
"casino-fixation","130","338690","0.0-25.0-0.28","A107","false","img/card_backs/set1/purple.gif","img/card_backs/set1/red.gif","img/card_backs/set1/green.gif","img/card_backs/set1/yellow.gif","img/card_backs/set2/orange.gif","img/card_backs/set2/blue.gif","img/card_backs/set2/pink.gif","img/card_backs/set2/gray.gif","""event"",""trial"",""time""
""fullscreenenter"",""1"",""2338""
","
","
","""event"",""trial"",""time""
""fullscreenenter"",""1"",""2338""
","
","","null","","null","","fixation","2021-04-02 17:10:14.669","","","","","",""
"card-selection-trial","131","341257","0.0-25.0-1.28","A107","false","img/card_backs/set1/purple.gif","img/card_backs/set1/red.gif","img/card_backs/set1/green.gif","img/card_backs/set1/yellow.gif","img/card_backs/set2/orange.gif","img/card_backs/set2/blue.gif","img/card_backs/set2/pink.gif","img/card_backs/set2/gray.gif","""event"",""trial"",""time""
""fullscreenenter"",""1"",""2338""
","
","
","""event"",""trial"",""time""
""fullscreenenter"",""1"",""2338""
","
","","559.1300000014598","","","","real_trial","2021-04-02 17:10:17.236","img/card_backs/set1/purple.gif","2","190","1","",""
"casino-fixation","132","341763","0.0-25.0-0.29","A107","false","img/card_backs/set1/purple.gif","img/card_backs/set1/red.gif","img/card_backs/set1/green.gif","img/card_backs/set1/yellow.gif","img/card_backs/set2/orange.gif","img/card_backs/set2/blue.gif","img/card_backs/set2/pink.gif","img/card_backs/set2/gray.gif","""event"",""trial"",""time""
""fullscreenenter"",""1"",""2338""
","
","
","""event"",""trial"",""time""
""fullscreenenter"",""1"",""2338""
","
","","null","","null","","fixation","2021-04-02 17:10:17.742","","","","","",""
"card-selection-trial","133","344479","0.0-25.0-1.29","A107","false","img/card_backs/set1/purple.gif","img/card_backs/set1/red.gif","img/card_backs/set1/green.gif","img/card_backs/set1/yellow.gif","img/card_backs/set2/orange.gif","img/card_backs/set2/blue.gif","img/card_backs/set2/pink.gif","img/card_backs/set2/gray.gif","""event"",""trial"",""time""
""fullscreenenter"",""1"",""2338""
","
","
","""event"",""trial"",""time""
""fullscreenenter"",""1"",""2338""
","
","","712.4299999995856","","","","real_trial","2021-04-02 17:10:20.459","img/card_backs/set1/purple.gif","1","-250","1","",""
"casino-fixation","134","344983","0.0-25.0-0.30","A107","false","img/card_backs/set1/purple.gif","img/card_backs/set1/red.gif","img/card_backs/set1/green.gif","img/card_backs/set1/yellow.gif","img/card_backs/set2/orange.gif","img/card_backs/set2/blue.gif","img/card_backs/set2/pink.gif","img/card_backs/set2/gray.gif","""event"",""trial"",""time""
""fullscreenenter"",""1"",""2338""
","
","
","""event"",""trial"",""time""
""fullscreenenter"",""1"",""2338""
","
","","null","","null","","fixation","2021-04-02 17:10:20.962","","","","","",""
"card-selection-trial","135","347527","0.0-25.0-1.30","A107","false","img/card_backs/set1/purple.gif","img/card_backs/set1/red.gif","img/card_backs/set1/green.gif","img/card_backs/set1/yellow.gif","img/card_backs/set2/orange.gif","img/card_backs/set2/blue.gif","img/card_backs/set2/pink.gif","img/card_backs/set2/gray.gif","""event"",""trial"",""time""
""fullscreenenter"",""1"",""2338""
","
","
","""event"",""trial"",""time""
""fullscreenenter"",""1"",""2338""
","
","","537.5800000001909","","","","real_trial","2021-04-02 17:10:23.506","img/card_backs/set1/purple.gif","1","180","1","",""
"casino-fixation","136","348032","0.0-25.0-0.31","A107","false","img/card_backs/set1/purple.gif","img/card_backs/set1/red.gif","img/card_backs/set1/green.gif","img/card_backs/set1/yellow.gif","img/card_backs/set2/orange.gif","img/card_backs/set2/blue.gif","img/card_backs/set2/pink.gif","img/card_backs/set2/gray.gif","""event"",""trial"",""time""
""fullscreenenter"",""1"",""2338""
","
","
","""event"",""trial"",""time""
""fullscreenenter"",""1"",""2338""
","
","","null","","null","","fixation","2021-04-02 17:10:24.012","","","","","",""
"card-selection-trial","137","351704","0.0-25.0-1.31","A107","false","img/card_backs/set1/purple.gif","img/card_backs/set1/red.gif","img/card_backs/set1/green.gif","img/card_backs/set1/yellow.gif","img/card_backs/set2/orange.gif","img/card_backs/set2/blue.gif","img/card_backs/set2/pink.gif","img/card_backs/set2/gray.gif","""event"",""trial"",""time""
""fullscreenenter"",""1"",""2338""
","
","
","""event"",""trial"",""time""
""fullscreenenter"",""1"",""2338""
","
","","1663.4199999971315","","","","real_trial","2021-04-02 17:10:27.683","img/card_backs/set1/purple.gif","1","-250","1","",""
"casino-fixation","138","352208","0.0-25.0-0.32","A107","false","img/card_backs/set1/purple.gif","img/card_backs/set1/red.gif","img/card_backs/set1/green.gif","img/card_backs/set1/yellow.gif","img/card_backs/set2/orange.gif","img/card_backs/set2/blue.gif","img/card_backs/set2/pink.gif","img/card_backs/set2/gray.gif","""event"",""trial"",""time""
""fullscreenenter"",""1"",""2338""
","
","
","""event"",""trial"",""time""
""fullscreenenter"",""1"",""2338""
","
","","null","","null","","fixation","2021-04-02 17:10:28.189","","","","","",""
"card-selection-trial","139","354823","0.0-25.0-1.32","A107","false","img/card_backs/set1/purple.gif","img/card_backs/set1/red.gif","img/card_backs/set1/green.gif","img/card_backs/set1/yellow.gif","img/card_backs/set2/orange.gif","img/card_backs/set2/blue.gif","img/card_backs/set2/pink.gif","img/card_backs/set2/gray.gif","""event"",""trial"",""time""
""fullscreenenter"",""1"",""2338""
","
","
","""event"",""trial"",""time""
""fullscreenenter"",""1"",""2338""
","
","","604.4499999989057","","","","real_trial","2021-04-02 17:10:30.802","img/card_backs/set1/purple.gif","0","-250","1","",""
"casino-fixation","140","355329","0.0-25.0-0.33","A107","false","img/card_backs/set1/purple.gif","img/card_backs/set1/red.gif","img/card_backs/set1/green.gif","img/card_backs/set1/yellow.gif","img/card_backs/set2/orange.gif","img/card_backs/set2/blue.gif","img/card_backs/set2/pink.gif","img/card_backs/set2/gray.gif","""event"",""trial"",""time""
""fullscreenenter"",""1"",""2338""
","
","
","""event"",""trial"",""time""
""fullscreenenter"",""1"",""2338""
","
","","null","","null","","fixation","2021-04-02 17:10:31.308","","","","","",""
"card-selection-trial","141","357733","0.0-25.0-1.33","A107","false","img/card_backs/set1/purple.gif","img/card_backs/set1/red.gif","img/card_backs/set1/green.gif","img/card_backs/set1/yellow.gif","img/card_backs/set2/orange.gif","img/card_backs/set2/blue.gif","img/card_backs/set2/pink.gif","img/card_backs/set2/gray.gif","""event"",""trial"",""time""
""fullscreenenter"",""1"",""2338""
","
","
","""event"",""trial"",""time""
""fullscreenenter"",""1"",""2338""
","
","","396.8800000002375","","","","real_trial","2021-04-02 17:10:33.712","img/card_backs/set1/purple.gif","2","200","1","",""
"casino-fixation","142","358240","0.0-25.0-0.34","A107","false","img/card_backs/set1/purple.gif","img/card_backs/set1/red.gif","img/card_backs/set1/green.gif","img/card_backs/set1/yellow.gif","img/card_backs/set2/orange.gif","img/card_backs/set2/blue.gif","img/card_backs/set2/pink.gif","img/card_backs/set2/gray.gif","""event"",""trial"",""time""
""fullscreenenter"",""1"",""2338""
","
","
","""event"",""trial"",""time""
""fullscreenenter"",""1"",""2338""
","
","","null","","null","","fixation","2021-04-02 17:10:34.219","","","","","",""
"card-selection-trial","143","360654","0.0-25.0-1.34","A107","false","img/card_backs/set1/purple.gif","img/card_backs/set1/red.gif","img/card_backs/set1/green.gif","img/card_backs/set1/yellow.gif","img/card_backs/set2/orange.gif","img/card_backs/set2/blue.gif","img/card_backs/set2/pink.gif","img/card_backs/set2/gray.gif","""event"",""trial"",""time""
""fullscreenenter"",""1"",""2338""
","
","
","""event"",""trial"",""time""
""fullscreenenter"",""1"",""2338""
","
","","408.07000000134576","","","","real_trial","2021-04-02 17:10:36.633","img/card_backs/set1/purple.gif","1","-230","1","",""
"casino-fixation","144","361160","0.0-25.0-0.35","A107","false","img/card_backs/set1/purple.gif","img/card_backs/set1/red.gif","img/card_backs/set1/green.gif","img/card_backs/set1/yellow.gif","img/card_backs/set2/orange.gif","img/card_backs/set2/blue.gif","img/card_backs/set2/pink.gif","img/card_backs/set2/gray.gif","""event"",""trial"",""time""
""fullscreenenter"",""1"",""2338""
","
","
","""event"",""trial"",""time""
""fullscreenenter"",""1"",""2338""
","
","","null","","null","","fixation","2021-04-02 17:10:37.139","","","","","",""
"card-selection-trial","145","363656","0.0-25.0-1.35","A107","false","img/card_backs/set1/purple.gif","img/card_backs/set1/red.gif","img/card_backs/set1/green.gif","img/card_backs/set1/yellow.gif","img/card_backs/set2/orange.gif","img/card_backs/set2/blue.gif","img/card_backs/set2/pink.gif","img/card_backs/set2/gray.gif","""event"",""trial"",""time""
""fullscreenenter"",""1"",""2338""
","
","
","""event"",""trial"",""time""
""fullscreenenter"",""1"",""2338""
","
","","487.8050000006333","","","","real_trial","2021-04-02 17:10:39.635","img/card_backs/set1/red.gif","3","180","1","",""
"casino-fixation","146","364163","0.0-25.0-0.36","A107","false","img/card_backs/set1/purple.gif","img/card_backs/set1/red.gif","img/card_backs/set1/green.gif","img/card_backs/set1/yellow.gif","img/card_backs/set2/orange.gif","img/card_backs/set2/blue.gif","img/card_backs/set2/pink.gif","img/card_backs/set2/gray.gif","""event"",""trial"",""time""
""fullscreenenter"",""1"",""2338""
","
","
","""event"",""trial"",""time""
""fullscreenenter"",""1"",""2338""
","
","","null","","null","","fixation","2021-04-02 17:10:40.142","","","","","",""
"card-selection-trial","147","366655","0.0-25.0-1.36","A107","false","img/card_backs/set1/purple.gif","img/card_backs/set1/red.gif","img/card_backs/set1/green.gif","img/card_backs/set1/yellow.gif","img/card_backs/set2/orange.gif","img/card_backs/set2/blue.gif","img/card_backs/set2/pink.gif","img/card_backs/set2/gray.gif","""event"",""trial"",""time""
""fullscreenenter"",""1"",""2338""
","
","
","""event"",""trial"",""time""
""fullscreenenter"",""1"",""2338""
","
","","480.7199999995646","","","","real_trial","2021-04-02 17:10:42.634","img/card_backs/set1/red.gif","3","-240","1","",""
"casino-fixation","148","367159","0.0-25.0-0.37","A107","false","img/card_backs/set1/purple.gif","img/card_backs/set1/red.gif","img/card_backs/set1/green.gif","img/card_backs/set1/yellow.gif","img/card_backs/set2/orange.gif","img/card_backs/set2/blue.gif","img/card_backs/set2/pink.gif","img/card_backs/set2/gray.gif","""event"",""trial"",""time""
""fullscreenenter"",""1"",""2338""
","
","
","""event"",""trial"",""time""
""fullscreenenter"",""1"",""2338""
","
","","null","","null","","fixation","2021-04-02 17:10:43.138","","","","","",""
"card-selection-trial","149","369745","0.0-25.0-1.37","A107","false","img/card_backs/set1/purple.gif","img/card_backs/set1/red.gif","img/card_backs/set1/green.gif","img/card_backs/set1/yellow.gif","img/card_backs/set2/orange.gif","img/card_backs/set2/blue.gif","img/card_backs/set2/pink.gif","img/card_backs/set2/gray.gif","""event"",""trial"",""time""
""fullscreenenter"",""1"",""2338""
","
","
","""event"",""trial"",""time""
""fullscreenenter"",""1"",""2338""
","
","","578.670000002603","","","","real_trial","2021-04-02 17:10:45.724","img/card_backs/set1/red.gif","2","190","1","",""
"casino-fixation","150","370251","0.0-25.0-0.38","A107","false","img/card_backs/set1/purple.gif","img/card_backs/set1/red.gif","img/card_backs/set1/green.gif","img/card_backs/set1/yellow.gif","img/card_backs/set2/orange.gif","img/card_backs/set2/blue.gif","img/card_backs/set2/pink.gif","img/card_backs/set2/gray.gif","""event"",""trial"",""time""
""fullscreenenter"",""1"",""2338""
","
","
","""event"",""trial"",""time""
""fullscreenenter"",""1"",""2338""
","
","","null","","null","","fixation","2021-04-02 17:10:46.230","","","","","",""
"card-selection-trial","151","372709","0.0-25.0-1.38","A107","false","img/card_backs/set1/purple.gif","img/card_backs/set1/red.gif","img/card_backs/set1/green.gif","img/card_backs/set1/yellow.gif","img/card_backs/set2/orange.gif","img/card_backs/set2/blue.gif","img/card_backs/set2/pink.gif","img/card_backs/set2/gray.gif","""event"",""trial"",""time""
""fullscreenenter"",""1"",""2338""
","
","
","""event"",""trial"",""time""
""fullscreenenter"",""1"",""2338""
","
","","450.1749999980675","","","","real_trial","2021-04-02 17:10:48.688","img/card_backs/set1/red.gif","2","190","1","",""
"casino-fixation","152","373214","0.0-25.0-0.39","A107","false","img/card_backs/set1/purple.gif","img/card_backs/set1/red.gif","img/card_backs/set1/green.gif","img/card_backs/set1/yellow.gif","img/card_backs/set2/orange.gif","img/card_backs/set2/blue.gif","img/card_backs/set2/pink.gif","img/card_backs/set2/gray.gif","""event"",""trial"",""time""
""fullscreenenter"",""1"",""2338""
","
","
","""event"",""trial"",""time""
""fullscreenenter"",""1"",""2338""
","
","","null","","null","","fixation","2021-04-02 17:10:49.194","","","","","",""
"card-selection-trial","153","375835","0.0-25.0-1.39","A107","false","img/card_backs/set1/purple.gif","img/card_backs/set1/red.gif","img/card_backs/set1/green.gif","img/card_backs/set1/yellow.gif","img/card_backs/set2/orange.gif","img/card_backs/set2/blue.gif","img/card_backs/set2/pink.gif","img/card_backs/set2/gray.gif","""event"",""trial"",""time""
""fullscreenenter"",""1"",""2338""
","
","
","""event"",""trial"",""time""
""fullscreenenter"",""1"",""2338""
","
","","612.0600000030827","","","","real_trial","2021-04-02 17:10:51.814","img/card_backs/set1/red.gif","0","200","1","",""
"casino-fixation","154","376341","0.0-25.0-0.40","A107","false","img/card_backs/set1/purple.gif","img/card_backs/set1/red.gif","img/card_backs/set1/green.gif","img/card_backs/set1/yellow.gif","img/card_backs/set2/orange.gif","img/card_backs/set2/blue.gif","img/card_backs/set2/pink.gif","img/card_backs/set2/gray.gif","""event"",""trial"",""time""
""fullscreenenter"",""1"",""2338""
","
","
","""event"",""trial"",""time""
""fullscreenenter"",""1"",""2338""
","
","","null","","null","","fixation","2021-04-02 17:10:52.320","","","","","",""
"card-selection-trial","155","378895","0.0-25.0-1.40","A107","false","img/card_backs/set1/purple.gif","img/card_backs/set1/red.gif","img/card_backs/set1/green.gif","img/card_backs/set1/yellow.gif","img/card_backs/set2/orange.gif","img/card_backs/set2/blue.gif","img/card_backs/set2/pink.gif","img/card_backs/set2/gray.gif","""event"",""trial"",""time""
""fullscreenenter"",""1"",""2338""
","
","
","""event"",""trial"",""time""
""fullscreenenter"",""1"",""2338""
","
","","544.7549999990151","","","","real_trial","2021-04-02 17:10:54.874","img/card_backs/set1/red.gif","2","-230","1","",""
"casino-fixation","156","379400","0.0-25.0-0.41","A107","false","img/card_backs/set1/purple.gif","img/card_backs/set1/red.gif","img/card_backs/set1/green.gif","img/card_backs/set1/yellow.gif","img/card_backs/set2/orange.gif","img/card_backs/set2/blue.gif","img/card_backs/set2/pink.gif","img/card_backs/set2/gray.gif","""event"",""trial"",""time""
""fullscreenenter"",""1"",""2338""
","
","
","""event"",""trial"",""time""
""fullscreenenter"",""1"",""2338""
","
","","null","","null","","fixation","2021-04-02 17:10:55.379","","","","","",""
"card-selection-trial","157","381887","0.0-25.0-1.41","A107","false","img/card_backs/set1/purple.gif","img/card_backs/set1/red.gif","img/card_backs/set1/green.gif","img/card_backs/set1/yellow.gif","img/card_backs/set2/orange.gif","img/card_backs/set2/blue.gif","img/card_backs/set2/pink.gif","img/card_backs/set2/gray.gif","""event"",""trial"",""time""
""fullscreenenter"",""1"",""2338""
","
","
","""event"",""trial"",""time""
""fullscreenenter"",""1"",""2338""
","
","","476.16000000201166","","","","real_trial","2021-04-02 17:10:57.866","img/card_backs/set1/red.gif","3","180","1","",""
"casino-fixation","158","382394","0.0-25.0-0.42","A107","false","img/card_backs/set1/purple.gif","img/card_backs/set1/red.gif","img/card_backs/set1/green.gif","img/card_backs/set1/yellow.gif","img/card_backs/set2/orange.gif","img/card_backs/set2/blue.gif","img/card_backs/set2/pink.gif","img/card_backs/set2/gray.gif","""event"",""trial"",""time""
""fullscreenenter"",""1"",""2338""
","
","
","""event"",""trial"",""time""
""fullscreenenter"",""1"",""2338""
","
","","null","","null","","fixation","2021-04-02 17:10:58.373","","","","","",""
"card-selection-trial","159","384911","0.0-25.0-1.42","A107","false","img/card_backs/set1/purple.gif","img/card_backs/set1/red.gif","img/card_backs/set1/green.gif","img/card_backs/set1/yellow.gif","img/card_backs/set2/orange.gif","img/card_backs/set2/blue.gif","img/card_backs/set2/pink.gif","img/card_backs/set2/gray.gif","""event"",""trial"",""time""
""fullscreenenter"",""1"",""2338""
","
","
","""event"",""trial"",""time""
""fullscreenenter"",""1"",""2338""
","
","","507.23999999905936","","","","real_trial","2021-04-02 17:11:00.890","img/card_backs/set1/purple.gif","0","-230","1","",""
"casino-fixation","160","385417","0.0-25.0-0.43","A107","false","img/card_backs/set1/purple.gif","img/card_backs/set1/red.gif","img/card_backs/set1/green.gif","img/card_backs/set1/yellow.gif","img/card_backs/set2/orange.gif","img/card_backs/set2/blue.gif","img/card_backs/set2/pink.gif","img/card_backs/set2/gray.gif","""event"",""trial"",""time""
""fullscreenenter"",""1"",""2338""
","
","
","""event"",""trial"",""time""
""fullscreenenter"",""1"",""2338""
","
","","null","","null","","fixation","2021-04-02 17:11:01.397","","","","","",""
"card-selection-trial","161","387832","0.0-25.0-1.43","A107","false","img/card_backs/set1/purple.gif","img/card_backs/set1/red.gif","img/card_backs/set1/green.gif","img/card_backs/set1/yellow.gif","img/card_backs/set2/orange.gif","img/card_backs/set2/blue.gif","img/card_backs/set2/pink.gif","img/card_backs/set2/gray.gif","""event"",""trial"",""time""
""fullscreenenter"",""1"",""2338""
","
","
","""event"",""trial"",""time""
""fullscreenenter"",""1"",""2338""
","
","","405.6899999995949","","","","real_trial","2021-04-02 17:11:03.811","img/card_backs/set1/red.gif","2","-240","1","",""
"casino-fixation","162","388335","0.0-25.0-0.44","A107","false","img/card_backs/set1/purple.gif","img/card_backs/set1/red.gif","img/card_backs/set1/green.gif","img/card_backs/set1/yellow.gif","img/card_backs/set2/orange.gif","img/card_backs/set2/blue.gif","img/card_backs/set2/pink.gif","img/card_backs/set2/gray.gif","""event"",""trial"",""time""
""fullscreenenter"",""1"",""2338""
","
","
","""event"",""trial"",""time""
""fullscreenenter"",""1"",""2338""
","
","","null","","null","","fixation","2021-04-02 17:11:04.314","","","","","",""
"card-selection-trial","163","391338","0.0-25.0-1.44","A107","false","img/card_backs/set1/purple.gif","img/card_backs/set1/red.gif","img/card_backs/set1/green.gif","img/card_backs/set1/yellow.gif","img/card_backs/set2/orange.gif","img/card_backs/set2/blue.gif","img/card_backs/set2/pink.gif","img/card_backs/set2/gray.gif","""event"",""trial"",""time""
""fullscreenenter"",""1"",""2338""
","
","
","""event"",""trial"",""time""
""fullscreenenter"",""1"",""2338""
","
","","992.7299999981187","","","","real_trial","2021-04-02 17:11:07.317","img/card_backs/set1/yellow.gif","0","110","1","",""
"casino-fixation","164","391844","0.0-25.0-0.45","A107","false","img/card_backs/set1/purple.gif","img/card_backs/set1/red.gif","img/card_backs/set1/green.gif","img/card_backs/set1/yellow.gif","img/card_backs/set2/orange.gif","img/card_backs/set2/blue.gif","img/card_backs/set2/pink.gif","img/card_backs/set2/gray.gif","""event"",""trial"",""time""
""fullscreenenter"",""1"",""2338""
","
","
","""event"",""trial"",""time""
""fullscreenenter"",""1"",""2338""
","
","","null","","null","","fixation","2021-04-02 17:11:07.823","","","","","",""
"card-selection-trial","165","394648","0.0-25.0-1.45","A107","false","img/card_backs/set1/purple.gif","img/card_backs/set1/red.gif","img/card_backs/set1/green.gif","img/card_backs/set1/yellow.gif","img/card_backs/set2/orange.gif","img/card_backs/set2/blue.gif","img/card_backs/set2/pink.gif","img/card_backs/set2/gray.gif","""event"",""trial"",""time""
""fullscreenenter"",""1"",""2338""
","
","
","""event"",""trial"",""time""
""fullscreenenter"",""1"",""2338""
","
","","794.9100000004983","","","","real_trial","2021-04-02 17:11:10.627","img/card_backs/set1/yellow.gif","1","-70","1","",""
"casino-fixation","166","395151","0.0-25.0-0.46","A107","false","img/card_backs/set1/purple.gif","img/card_backs/set1/red.gif","img/card_backs/set1/green.gif","img/card_backs/set1/yellow.gif","img/card_backs/set2/orange.gif","img/card_backs/set2/blue.gif","img/card_backs/set2/pink.gif","img/card_backs/set2/gray.gif","""event"",""trial"",""time""
""fullscreenenter"",""1"",""2338""
","
","
