"trial_type","trial_index","time_elapsed","internal_node_id","sub_id","risk_good_first","block1_A","block1_B","block1_C","block1_D","block2_A","block2_B","block2_C","block2_D","interactions","blur_events","focus_events","fullscreenenter_events","fullscreenexit_events","success","rt","stimulus","key_press","button_pressed","task_part","timestamp","card_choice","choice_position","points_earned","block","correct","response"
"pavlovia","0","4","0.0-0.0","211","true","img/card_backs/set1/yellow.gif","img/card_backs/set1/green.gif","img/card_backs/set1/red.gif","img/card_backs/set1/purple.gif","img/card_backs/set2/blue.gif","img/card_backs/set2/orange.gif","img/card_backs/set2/gray.gif","img/card_backs/set2/pink.gif","""event"",""trial"",""time""
""fullscreenenter"",""1"",""4449""
","
","
","""event"",""trial"",""time""
""fullscreenenter"",""1"",""4449""
","
","","","","","","","","","","","","",""
"fullscreen","1","5440","0.0-1.0","211","true","img/card_backs/set1/yellow.gif","img/card_backs/set1/green.gif","img/card_backs/set1/red.gif","img/card_backs/set1/purple.gif","img/card_backs/set2/blue.gif","img/card_backs/set2/orange.gif","img/card_backs/set2/gray.gif","img/card_backs/set2/pink.gif","""event"",""trial"",""time""
""fullscreenenter"",""1"",""4449""
","
","
","""event"",""trial"",""time""
""fullscreenenter"",""1"",""4449""
","
","true","","","","","","","","","","","",""
"audio-keyboard-response","2","8170","0.0-2.0","211","true","img/card_backs/set1/yellow.gif","img/card_backs/set1/green.gif","img/card_backs/set1/red.gif","img/card_backs/set1/purple.gif","img/card_backs/set2/blue.gif","img/card_backs/set2/orange.gif","img/card_backs/set2/gray.gif","img/card_backs/set2/pink.gif","""event"",""trial"",""time""
""fullscreenenter"",""1"",""4449""
","
","
","""event"",""trial"",""time""
""fullscreenenter"",""1"",""4449""
","
","","2728","audio/beep_loop.wav","32","","","","","","","","",""
"audio-button-response","3","11094","0.0-3.0","211","true","img/card_backs/set1/yellow.gif","img/card_backs/set1/green.gif","img/card_backs/set1/red.gif","img/card_backs/set1/purple.gif","img/card_backs/set2/blue.gif","img/card_backs/set2/orange.gif","img/card_backs/set2/gray.gif","img/card_backs/set2/pink.gif","""event"",""trial"",""time""
""fullscreenenter"",""1"",""4449""
","
","
","""event"",""trial"",""time""
""fullscreenenter"",""1"",""4449""
","
","","NaN","audio/turtle.mp3","","3","","","","","","","",""
"audio-button-response","4","13350","0.0-4.0","211","true","img/card_backs/set1/yellow.gif","img/card_backs/set1/green.gif","img/card_backs/set1/red.gif","img/card_backs/set1/purple.gif","img/card_backs/set2/blue.gif","img/card_backs/set2/orange.gif","img/card_backs/set2/gray.gif","img/card_backs/set2/pink.gif","""event"",""trial"",""time""
""fullscreenenter"",""1"",""4449""
","
","
","""event"",""trial"",""time""
""fullscreenenter"",""1"",""4449""
","
","","NaN","audio/shark.mp3","","2","","","","","","","",""
"fullscreen","5","17012","0.0-5.0","211","true","img/card_backs/set1/yellow.gif","img/card_backs/set1/green.gif","img/card_backs/set1/red.gif","img/card_backs/set1/purple.gif","img/card_backs/set2/blue.gif","img/card_backs/set2/orange.gif","img/card_backs/set2/gray.gif","img/card_backs/set2/pink.gif","""event"",""trial"",""time""
""fullscreenenter"",""1"",""4449""
","
","
","""event"",""trial"",""time""
""fullscreenenter"",""1"",""4449""
","
","true","","","","","","","","","","","",""
"casino-keyboard-response","6","21238","0.0-6.0-0.0","211","true","img/card_backs/set1/yellow.gif","img/card_backs/set1/green.gif","img/card_backs/set1/red.gif","img/card_backs/set1/purple.gif","img/card_backs/set2/blue.gif","img/card_backs/set2/orange.gif","img/card_backs/set2/gray.gif","img/card_backs/set2/pink.gif","""event"",""trial"",""time""
""fullscreenenter"",""1"",""4449""
","
","
","""event"",""trial"",""time""
""fullscreenenter"",""1"",""4449""
","
","","4222.969999999805","Welcome to the casino!","71","","instructions","2021-06-05 14:06:00.959","","","","","",""
"casino-keyboard-response","7","40569","0.0-6.0-0.1","211","true","img/card_backs/set1/yellow.gif","img/card_backs/set1/green.gif","img/card_backs/set1/red.gif","img/card_backs/set1/purple.gif","img/card_backs/set2/blue.gif","img/card_backs/set2/orange.gif","img/card_backs/set2/gray.gif","img/card_backs/set2/pink.gif","""event"",""trial"",""time""
""fullscreenenter"",""1"",""4449""
","
","
","""event"",""trial"",""time""
""fullscreenenter"",""1"",""4449""
","
","","19329.40499999995","Today you will be playing a game to earn tokens. </br> At the end of the experiment, you will be paid a bonus based on how many tokens you win. ","69","","instructions","2021-06-05 14:06:20.290","","","","","",""
"casino-keyboard-response","8","50228","0.0-6.0-0.2","211","true","img/card_backs/set1/yellow.gif","img/card_backs/set1/green.gif","img/card_backs/set1/red.gif","img/card_backs/set1/purple.gif","img/card_backs/set2/blue.gif","img/card_backs/set2/orange.gif","img/card_backs/set2/gray.gif","img/card_backs/set2/pink.gif","""event"",""trial"",""time""
""fullscreenenter"",""1"",""4449""
","
","
","""event"",""trial"",""time""
""fullscreenenter"",""1"",""4449""
","
","","9657.404999999926","On every turn, you will be shown four different decks of cards. </br> You need to select a card from one of the four decks.  ","75","","instructions","2021-06-05 14:06:29.949","","","","","",""
"casino-keyboard-response","9","55224","0.0-6.0-0.3","211","true","img/card_backs/set1/yellow.gif","img/card_backs/set1/green.gif","img/card_backs/set1/red.gif","img/card_backs/set1/purple.gif","img/card_backs/set2/blue.gif","img/card_backs/set2/orange.gif","img/card_backs/set2/gray.gif","img/card_backs/set2/pink.gif","""event"",""trial"",""time""
""fullscreenenter"",""1"",""4449""
","
","
","""event"",""trial"",""time""
""fullscreenenter"",""1"",""4449""
","
","","4993.655000000217","On the next screen, you will see what the decks will look like. ","66","","instructions","2021-06-05 14:06:34.945","","","","","",""
"card-selection-trial","10","59231","0.0-7.0-0.0","211","true","img/card_backs/set1/yellow.gif","img/card_backs/set1/green.gif","img/card_backs/set1/red.gif","img/card_backs/set1/purple.gif","img/card_backs/set2/blue.gif","img/card_backs/set2/orange.gif","img/card_backs/set2/gray.gif","img/card_backs/set2/pink.gif","""event"",""trial"",""time""
""fullscreenenter"",""1"",""4449""
","
","
","""event"",""trial"",""time""
""fullscreenenter"",""1"",""4449""
","
","","null","","","","practice","2021-06-05 14:06:38.952","null","null","null","0","",""
"casino-keyboard-response","11","68809","0.0-8.0-0.0","211","true","img/card_backs/set1/yellow.gif","img/card_backs/set1/green.gif","img/card_backs/set1/red.gif","img/card_backs/set1/purple.gif","img/card_backs/set2/blue.gif","img/card_backs/set2/orange.gif","img/card_backs/set2/gray.gif","img/card_backs/set2/pink.gif","""event"",""trial"",""time""
""fullscreenenter"",""1"",""4449""
","
","
","""event"",""trial"",""time""
""fullscreenenter"",""1"",""4449""
","
","","9575.455000000147","You should pick a card from a deck using the '2', '4', '6', and '8' keys at the top of the keyboard.","85","","instructions","2021-06-05 14:06:48.530","","","","","",""
"casino-keyboard-response","12","75753","0.0-8.0-0.1","211","true","img/card_backs/set1/yellow.gif","img/card_backs/set1/green.gif","img/card_backs/set1/red.gif","img/card_backs/set1/purple.gif","img/card_backs/set2/blue.gif","img/card_backs/set2/orange.gif","img/card_backs/set2/gray.gif","img/card_backs/set2/pink.gif","""event"",""trial"",""time""
""fullscreenenter"",""1"",""4449""
","
","
","""event"",""trial"",""time""
""fullscreenenter"",""1"",""4449""
","
","","6942.239999999845","Once you select a card, it will turn over and you will see how many tokens you earned.","83","","instructions","2021-06-05 14:06:55.474","","","","","",""
"casino-keyboard-response","13","96277","0.0-8.0-0.2","211","true","img/card_backs/set1/yellow.gif","img/card_backs/set1/green.gif","img/card_backs/set1/red.gif","img/card_backs/set1/purple.gif","img/card_backs/set2/blue.gif","img/card_backs/set2/orange.gif","img/card_backs/set2/gray.gif","img/card_backs/set2/pink.gif","""event"",""trial"",""time""
""fullscreenenter"",""1"",""4449""
","
","
","""event"",""trial"",""time""
""fullscreenenter"",""1"",""4449""
","
","","20522.124999999956","Let's try practicing that! </br> First, try to put your fingers over the '2', '4', '6', and '8' keys. </br>  You can use whatever fingers are most comfortable for you. Try to find a comfortable position now. ","50","","instructions","2021-06-05 14:07:15.998","","","","","",""
"casino-keyboard-response","14","102337","0.0-8.0-0.3","211","true","img/card_backs/set1/yellow.gif","img/card_backs/set1/green.gif","img/card_backs/set1/red.gif","img/card_backs/set1/purple.gif","img/card_backs/set2/blue.gif","img/card_backs/set2/orange.gif","img/card_backs/set2/gray.gif","img/card_backs/set2/pink.gif","""event"",""trial"",""time""
""fullscreenenter"",""1"",""4449""
","
","
","""event"",""trial"",""time""
""fullscreenenter"",""1"",""4449""
","
","","6057.40000000014","Okay ready? </br> On the next screen, press '2' to select the left deck. ","50","","instructions","2021-06-05 14:07:22.058","","","","","",""
"card-selection-trial","15","104940","0.0-9.0-0.0","211","true","img/card_backs/set1/yellow.gif","img/card_backs/set1/green.gif","img/card_backs/set1/red.gif","img/card_backs/set1/purple.gif","img/card_backs/set2/blue.gif","img/card_backs/set2/orange.gif","img/card_backs/set2/gray.gif","img/card_backs/set2/pink.gif","""event"",""trial"",""time""
""fullscreenenter"",""1"",""4449""
","
","
","""event"",""trial"",""time""
""fullscreenenter"",""1"",""4449""
","
","","586.6700000001438","","","","practice_card_selection","2021-06-05 14:07:24.661","img/practice_cards/backs/black.gif","0","100","","",""
"casino-keyboard-response","16","110702","0.0-10.0-0.0","211","true","img/card_backs/set1/yellow.gif","img/card_backs/set1/green.gif","img/card_backs/set1/red.gif","img/card_backs/set1/purple.gif","img/card_backs/set2/blue.gif","img/card_backs/set2/orange.gif","img/card_backs/set2/gray.gif","img/card_backs/set2/pink.gif","""event"",""trial"",""time""
""fullscreenenter"",""1"",""4449""
","
","
","""event"",""trial"",""time""
""fullscreenenter"",""1"",""4449""
","
","","5760.915000000299","Great! Now on the next screen, try pressing '6' to select the third deck.","54","","instructions","2021-06-05 14:07:30.423","","","","","",""
"card-selection-trial","17","113299","0.0-11.0-0.0","211","true","img/card_backs/set1/yellow.gif","img/card_backs/set1/green.gif","img/card_backs/set1/red.gif","img/card_backs/set1/purple.gif","img/card_backs/set2/blue.gif","img/card_backs/set2/orange.gif","img/card_backs/set2/gray.gif","img/card_backs/set2/pink.gif","""event"",""trial"",""time""
""fullscreenenter"",""1"",""4449""
","
","
","""event"",""trial"",""time""
""fullscreenenter"",""1"",""4449""
","
","","587.0199999999459","","","","practice_card_selection","2021-06-05 14:07:33.020","img/practice_cards/backs/dark_blue.gif","2","-200","","",""
"casino-keyboard-response","18","118122","0.0-12.0-0.0","211","true","img/card_backs/set1/yellow.gif","img/card_backs/set1/green.gif","img/card_backs/set1/red.gif","img/card_backs/set1/purple.gif","img/card_backs/set2/blue.gif","img/card_backs/set2/orange.gif","img/card_backs/set2/gray.gif","img/card_backs/set2/pink.gif","""event"",""trial"",""time""
""fullscreenenter"",""1"",""4449""
","
","
","""event"",""trial"",""time""
""fullscreenenter"",""1"",""4449""
","
","","4821.7200000003795","Now on the next screen, try pressing '4' to select the second deck.","52","","instructions","2021-06-05 14:07:37.843","","","","","",""
"card-selection-trial","19","120834","0.0-13.0-0.0","211","true","img/card_backs/set1/yellow.gif","img/card_backs/set1/green.gif","img/card_backs/set1/red.gif","img/card_backs/set1/purple.gif","img/card_backs/set2/blue.gif","img/card_backs/set2/orange.gif","img/card_backs/set2/gray.gif","img/card_backs/set2/pink.gif","""event"",""trial"",""time""
""fullscreenenter"",""1"",""4449""
","
","
","""event"",""trial"",""time""
""fullscreenenter"",""1"",""4449""
","
","","700.7199999998265","","","","practice_card_selection","2021-06-05 14:07:40.555","img/practice_cards/backs/brown.gif","1","-100","","",""
"casino-keyboard-response","20","125325","0.0-14.0-0.0","211","true","img/card_backs/set1/yellow.gif","img/card_backs/set1/green.gif","img/card_backs/set1/red.gif","img/card_backs/set1/purple.gif","img/card_backs/set2/blue.gif","img/card_backs/set2/orange.gif","img/card_backs/set2/gray.gif","img/card_backs/set2/pink.gif","""event"",""trial"",""time""
""fullscreenenter"",""1"",""4449""
","
","
","""event"",""trial"",""time""
""fullscreenenter"",""1"",""4449""
","
","","4489.375000000116","Finally, try pressing '8' to select the deck all the way on the right.","56","","instructions","2021-06-05 14:07:45.046","","","","","",""
"card-selection-trial","21","128122","0.0-15.0-0.0","211","true","img/card_backs/set1/yellow.gif","img/card_backs/set1/green.gif","img/card_backs/set1/red.gif","img/card_backs/set1/purple.gif","img/card_backs/set2/blue.gif","img/card_backs/set2/orange.gif","img/card_backs/set2/gray.gif","img/card_backs/set2/pink.gif","""event"",""trial"",""time""
""fullscreenenter"",""1"",""4449""
","
","
","""event"",""trial"",""time""
""fullscreenenter"",""1"",""4449""
","
","","784.5750000001281","","","","practice_card_selection","2021-06-05 14:07:47.843","img/practice_cards/backs/dark_blue.gif","3","200","","",""
"casino-keyboard-response","22","132874","0.0-16.0-0.0","211","true","img/card_backs/set1/yellow.gif","img/card_backs/set1/green.gif","img/card_backs/set1/red.gif","img/card_backs/set1/purple.gif","img/card_backs/set2/blue.gif","img/card_backs/set2/orange.gif","img/card_backs/set2/gray.gif","img/card_backs/set2/pink.gif","""event"",""trial"",""time""
""fullscreenenter"",""1"",""4449""
","
","
","""event"",""trial"",""time""
""fullscreenenter"",""1"",""4449""
","
","","4750.30999999991","Great! It seems like you are getting the hang of this.","80","","instructions","2021-06-05 14:07:52.595","","","","","",""
"casino-keyboard-response","23","140661","0.0-16.0-0.1","211","true","img/card_backs/set1/yellow.gif","img/card_backs/set1/green.gif","img/card_backs/set1/red.gif","img/card_backs/set1/purple.gif","img/card_backs/set2/blue.gif","img/card_backs/set2/orange.gif","img/card_backs/set2/gray.gif","img/card_backs/set2/pink.gif","""event"",""trial"",""time""
""fullscreenenter"",""1"",""4449""
","
","
","""event"",""trial"",""time""
""fullscreenenter"",""1"",""4449""
","
","","7784.534999999771","You may have noticed that some cards will cause you to <b> win </b> tokens while other cards will cause you to <b> lose </b>  tokens.","70","","instructions","2021-06-05 14:08:00.382","","","","","",""
"casino-keyboard-response","24","150698","0.0-16.0-0.2","211","true","img/card_backs/set1/yellow.gif","img/card_backs/set1/green.gif","img/card_backs/set1/red.gif","img/card_backs/set1/purple.gif","img/card_backs/set2/blue.gif","img/card_backs/set2/orange.gif","img/card_backs/set2/gray.gif","img/card_backs/set2/pink.gif","""event"",""trial"",""time""
""fullscreenenter"",""1"",""4449""
","
","
","""event"",""trial"",""time""
""fullscreenenter"",""1"",""4449""
","
","","10034.98000000036","Each deck has a mix of cards that will cause you to win and lose tokens. </br> However, the cards in each colored deck are different.","73","","instructions","2021-06-05 14:08:10.419","","","","","",""
"casino-keyboard-response","25","160135","0.0-16.0-0.3","211","true","img/card_backs/set1/yellow.gif","img/card_backs/set1/green.gif","img/card_backs/set1/red.gif","img/card_backs/set1/purple.gif","img/card_backs/set2/blue.gif","img/card_backs/set2/orange.gif","img/card_backs/set2/gray.gif","img/card_backs/set2/pink.gif","""event"",""trial"",""time""
""fullscreenenter"",""1"",""4449""
","
","
","""event"",""trial"",""time""
""fullscreenenter"",""1"",""4449""
","
","","9435.034999999974","Some colored decks are luckier than others. </br> If you choose the lucky decks, you will earn more tokens than if you choose the unlucky decks.","69","","instructions","2021-06-05 14:08:19.856","","","","","",""
"casino-keyboard-response","26","167687","0.0-16.0-0.4","211","true","img/card_backs/set1/yellow.gif","img/card_backs/set1/green.gif","img/card_backs/set1/red.gif","img/card_backs/set1/purple.gif","img/card_backs/set2/blue.gif","img/card_backs/set2/orange.gif","img/card_backs/set2/gray.gif","img/card_backs/set2/pink.gif","""event"",""trial"",""time""
""fullscreenenter"",""1"",""4449""
","
","
","""event"",""trial"",""time""
""fullscreenenter"",""1"",""4449""
","
","","7549.545000000304","You should try to figure out which decks are lucky. </br> Then, try to choose the lucky decks so you can win the most tokens.","87","","instructions","2021-06-05 14:08:27.408","","","","","",""
"casino-keyboard-response","27","179457","0.0-16.0-0.5","211","true","img/card_backs/set1/yellow.gif","img/card_backs/set1/green.gif","img/card_backs/set1/red.gif","img/card_backs/set1/purple.gif","img/card_backs/set2/blue.gif","img/card_backs/set2/orange.gif","img/card_backs/set2/gray.gif","img/card_backs/set2/pink.gif","""event"",""trial"",""time""
""fullscreenenter"",""1"",""4449""
","
","
","""event"",""trial"",""time""
""fullscreenenter"",""1"",""4449""
","
","","11768.215000000055","To make it trickier, the casino dealer will switch the locations of the decks on every turn. </br> The color of the deck determines how lucky it is. The location does not matter.","88","","instructions","2021-06-05 14:08:39.178","","","","","",""
"casino-keyboard-response","28","190053","0.0-16.0-0.6","211","true","img/card_backs/set1/yellow.gif","img/card_backs/set1/green.gif","img/card_backs/set1/red.gif","img/card_backs/set1/purple.gif","img/card_backs/set2/blue.gif","img/card_backs/set2/orange.gif","img/card_backs/set2/gray.gif","img/card_backs/set2/pink.gif","""event"",""trial"",""time""
""fullscreenenter"",""1"",""4449""
","
","
","""event"",""trial"",""time""
""fullscreenenter"",""1"",""4449""
","
","","10592.63999999984","The mix of cards in each colored deck will stay the same throughout the game. </br> That means that a deck that is lucky early on will stay lucky.","79","","instructions","2021-06-05 14:08:49.774","","","","","",""
"casino-keyboard-response","29","199991","0.0-16.0-0.7","211","true","img/card_backs/set1/yellow.gif","img/card_backs/set1/green.gif","img/card_backs/set1/red.gif","img/card_backs/set1/purple.gif","img/card_backs/set2/blue.gif","img/card_backs/set2/orange.gif","img/card_backs/set2/gray.gif","img/card_backs/set2/pink.gif","""event"",""trial"",""time""
""fullscreenenter"",""1"",""4449""
","
","
","""event"",""trial"",""time""
""fullscreenenter"",""1"",""4449""
","
","","9936.52999999994","Remember though, all the decks have a <b> mix </b> of both <b> good </b> and <b> bad </b> cards so it may take a couple of turns to figure out if a deck is lucky.","69","","instructions","2021-06-05 14:08:59.713","","","","","",""
"casino-keyboard-response","30","209940","0.0-16.0-0.8","211","true","img/card_backs/set1/yellow.gif","img/card_backs/set1/green.gif","img/card_backs/set1/red.gif","img/card_backs/set1/purple.gif","img/card_backs/set2/blue.gif","img/card_backs/set2/orange.gif","img/card_backs/set2/gray.gif","img/card_backs/set2/pink.gif","""event"",""trial"",""time""
""fullscreenenter"",""1"",""4449""
","
","
","""event"",""trial"",""time""
""fullscreenenter"",""1"",""4449""
","
","","9945.779999999999","At the end of the game, you will be paid bonus money based on how many tokens you win. </br> If you win more tokens, you will earn more money!","72","","instructions","2021-06-05 14:09:09.661","","","","","",""
"casino-keyboard-response","31","221155","0.0-16.0-0.9","211","true","img/card_backs/set1/yellow.gif","img/card_backs/set1/green.gif","img/card_backs/set1/red.gif","img/card_backs/set1/purple.gif","img/card_backs/set2/blue.gif","img/card_backs/set2/orange.gif","img/card_backs/set2/gray.gif","img/card_backs/set2/pink.gif","""event"",""trial"",""time""
""fullscreenenter"",""1"",""4449""
","
","
","""event"",""trial"",""time""
""fullscreenenter"",""1"",""4449""
","
","","11212.41000000009","You will never <b> lose </b> money. </br> If you end up with fewer than 0 tokens, you will earn $0 of bonus money, but you will still be paid for playing the game.","83","","instructions","2021-06-05 14:09:20.876","","","","","",""
"casino-keyboard-response","32","225887","0.0-16.0-0.10","211","true","img/card_backs/set1/yellow.gif","img/card_backs/set1/green.gif","img/card_backs/set1/red.gif","img/card_backs/set1/purple.gif","img/card_backs/set2/blue.gif","img/card_backs/set2/orange.gif","img/card_backs/set2/gray.gif","img/card_backs/set2/pink.gif","""event"",""trial"",""time""
""fullscreenenter"",""1"",""4449""
","
","
","""event"",""trial"",""time""
""fullscreenenter"",""1"",""4449""
","
","","4730.540000000008","You will have 10 seconds to make each choice.","82","","instructions","2021-06-05 14:09:25.608","","","","","",""
"casino-keyboard-response","33","234605","0.0-16.0-0.11","211","true","img/card_backs/set1/yellow.gif","img/card_backs/set1/green.gif","img/card_backs/set1/red.gif","img/card_backs/set1/purple.gif","img/card_backs/set2/blue.gif","img/card_backs/set2/orange.gif","img/card_backs/set2/gray.gif","img/card_backs/set2/pink.gif","""event"",""trial"",""time""
""fullscreenenter"",""1"",""4449""
","
","
","""event"",""trial"",""time""
""fullscreenenter"",""1"",""4449""
","
","","8714.565000000235","Before you play the game for real, you will play with practice decks. </br> The tokens you earn during practice won't count toward your total.","86","","instructions","2021-06-05 14:09:34.326","","","","","",""
"casino-keyboard-response","34","245294","0.0-16.0-0.12","211","true","img/card_backs/set1/yellow.gif","img/card_backs/set1/green.gif","img/card_backs/set1/red.gif","img/card_backs/set1/purple.gif","img/card_backs/set2/blue.gif","img/card_backs/set2/orange.gif","img/card_backs/set2/gray.gif","img/card_backs/set2/pink.gif","""event"",""trial"",""time""
""fullscreenenter"",""1"",""4449""
","
","
","""event"",""trial"",""time""
""fullscreenenter"",""1"",""4449""
","
","","10685.88500000033","Ready? Remember, use the '2', '4', '6', and '8' keys to select the decks. </br> Put your fingers on those keys now and then press '2' to begin.","50","","instructions","2021-06-05 14:09:45.015","","","","","",""
"casino-fixation","35","245799","0.0-17.0-0.0","211","true","img/card_backs/set1/yellow.gif","img/card_backs/set1/green.gif","img/card_backs/set1/red.gif","img/card_backs/set1/purple.gif","img/card_backs/set2/blue.gif","img/card_backs/set2/orange.gif","img/card_backs/set2/gray.gif","img/card_backs/set2/pink.gif","""event"",""trial"",""time""
""fullscreenenter"",""1"",""4449""
","
","
","""event"",""trial"",""time""
""fullscreenenter"",""1"",""4449""
","
","","null","","null","","fixation","2021-06-05 14:09:45.520","","","","","",""
"card-selection-trial","36","249868","0.0-17.0-1.0","211","true","img/card_backs/set1/yellow.gif","img/card_backs/set1/green.gif","img/card_backs/set1/red.gif","img/card_backs/set1/purple.gif","img/card_backs/set2/blue.gif","img/card_backs/set2/orange.gif","img/card_backs/set2/gray.gif","img/card_backs/set2/pink.gif","""event"",""trial"",""time""
""fullscreenenter"",""1"",""4449""
","
","
","""event"",""trial"",""time""
""fullscreenenter"",""1"",""4449""
","
","","2058.719999999972","","","","practice","2021-06-05 14:09:49.589","img/practice_cards/backs/dark_blue.gif","1","200","0","",""
"casino-fixation","37","250373","0.0-17.0-0.1","211","true","img/card_backs/set1/yellow.gif","img/card_backs/set1/green.gif","img/card_backs/set1/red.gif","img/card_backs/set1/purple.gif","img/card_backs/set2/blue.gif","img/card_backs/set2/orange.gif","img/card_backs/set2/gray.gif","img/card_backs/set2/pink.gif","""event"",""trial"",""time""
""fullscreenenter"",""1"",""4449""
","
","
","""event"",""trial"",""time""
""fullscreenenter"",""1"",""4449""
","
","","null","","null","","fixation","2021-06-05 14:09:50.094","","","","","",""
"card-selection-trial","38","253276","0.0-17.0-1.1","211","true","img/card_backs/set1/yellow.gif","img/card_backs/set1/green.gif","img/card_backs/set1/red.gif","img/card_backs/set1/purple.gif","img/card_backs/set2/blue.gif","img/card_backs/set2/orange.gif","img/card_backs/set2/gray.gif","img/card_backs/set2/pink.gif","""event"",""trial"",""time""
""fullscreenenter"",""1"",""4449""
","
","
","""event"",""trial"",""time""
""fullscreenenter"",""1"",""4449""
","
","","890.9149999999208","","","","practice","2021-06-05 14:09:52.997","img/practice_cards/backs/dark_blue.gif","3","-200","0","",""
"casino-fixation","39","253780","0.0-17.0-0.2","211","true","img/card_backs/set1/yellow.gif","img/card_backs/set1/green.gif","img/card_backs/set1/red.gif","img/card_backs/set1/purple.gif","img/card_backs/set2/blue.gif","img/card_backs/set2/orange.gif","img/card_backs/set2/gray.gif","img/card_backs/set2/pink.gif","""event"",""trial"",""time""
""fullscreenenter"",""1"",""4449""
","
","
","""event"",""trial"",""time""
""fullscreenenter"",""1"",""4449""
","
","","null","","null","","fixation","2021-06-05 14:09:53.501","","","","","",""
"card-selection-trial","40","257943","0.0-17.0-1.2","211","true","img/card_backs/set1/yellow.gif","img/card_backs/set1/green.gif","img/card_backs/set1/red.gif","img/card_backs/set1/purple.gif","img/card_backs/set2/blue.gif","img/card_backs/set2/orange.gif","img/card_backs/set2/gray.gif","img/card_backs/set2/pink.gif","""event"",""trial"",""time""
""fullscreenenter"",""1"",""4449""
","
","
","""event"",""trial"",""time""
""fullscreenenter"",""1"",""4449""
","
","","2150.509999999951","","","","practice","2021-06-05 14:09:57.664","img/practice_cards/backs/black.gif","0","100","0","",""
"casino-fixation","41","258448","0.0-17.0-0.3","211","true","img/card_backs/set1/yellow.gif","img/card_backs/set1/green.gif","img/card_backs/set1/red.gif","img/card_backs/set1/purple.gif","img/card_backs/set2/blue.gif","img/card_backs/set2/orange.gif","img/card_backs/set2/gray.gif","img/card_backs/set2/pink.gif","""event"",""trial"",""time""
""fullscreenenter"",""1"",""4449""
","
","
","""event"",""trial"",""time""
""fullscreenenter"",""1"",""4449""
","
","","null","","null","","fixation","2021-06-05 14:09:58.169","","","","","",""
"card-selection-trial","42","261850","0.0-17.0-1.3","211","true","img/card_backs/set1/yellow.gif","img/card_backs/set1/green.gif","img/card_backs/set1/red.gif","img/card_backs/set1/purple.gif","img/card_backs/set2/blue.gif","img/card_backs/set2/orange.gif","img/card_backs/set2/gray.gif","img/card_backs/set2/pink.gif","""event"",""trial"",""time""
""fullscreenenter"",""1"",""4449""
","
","
","""event"",""trial"",""time""
""fullscreenenter"",""1"",""4449""
","
","","1393.579999999958","","","","practice","2021-06-05 14:10:01.571","img/practice_cards/backs/black.gif","0","100","0","",""
"casino-fixation","43","262354","0.0-17.0-0.4","211","true","img/card_backs/set1/yellow.gif","img/card_backs/set1/green.gif","img/card_backs/set1/red.gif","img/card_backs/set1/purple.gif","img/card_backs/set2/blue.gif","img/card_backs/set2/orange.gif","img/card_backs/set2/gray.gif","img/card_backs/set2/pink.gif","""event"",""trial"",""time""
""fullscreenenter"",""1"",""4449""
","
","
","""event"",""trial"",""time""
""fullscreenenter"",""1"",""4449""
","
","","null","","null","","fixation","2021-06-05 14:10:02.075","","","","","",""
"card-selection-trial","44","266505","0.0-17.0-1.4","211","true","img/card_backs/set1/yellow.gif","img/card_backs/set1/green.gif","img/card_backs/set1/red.gif","img/card_backs/set1/purple.gif","img/card_backs/set2/blue.gif","img/card_backs/set2/orange.gif","img/card_backs/set2/gray.gif","img/card_backs/set2/pink.gif","""event"",""trial"",""time""
""fullscreenenter"",""1"",""4449""
","
","
","""event"",""trial"",""time""
""fullscreenenter"",""1"",""4449""
","
","","2144.379999999772","","","","practice","2021-06-05 14:10:06.226","img/practice_cards/backs/black.gif","3","100","0","",""
"casino-fixation","45","267008","0.0-17.0-0.5","211","true","img/card_backs/set1/yellow.gif","img/card_backs/set1/green.gif","img/card_backs/set1/red.gif","img/card_backs/set1/purple.gif","img/card_backs/set2/blue.gif","img/card_backs/set2/orange.gif","img/card_backs/set2/gray.gif","img/card_backs/set2/pink.gif","""event"",""trial"",""time""
""fullscreenenter"",""1"",""4449""
","
","
","""event"",""trial"",""time""
""fullscreenenter"",""1"",""4449""
","
","","null","","null","","fixation","2021-06-05 14:10:06.729","","","","","",""
"card-selection-trial","46","270789","0.0-17.0-1.5","211","true","img/card_backs/set1/yellow.gif","img/card_backs/set1/green.gif","img/card_backs/set1/red.gif","img/card_backs/set1/purple.gif","img/card_backs/set2/blue.gif","img/card_backs/set2/orange.gif","img/card_backs/set2/gray.gif","img/card_backs/set2/pink.gif","""event"",""trial"",""time""
""fullscreenenter"",""1"",""4449""
","
","
","""event"",""trial"",""time""
""fullscreenenter"",""1"",""4449""
","
","","1773.7000000001863","","","","practice","2021-06-05 14:10:10.510","img/practice_cards/backs/dark_blue.gif","1","-200","0","",""
"casino-fixation","47","271294","0.0-17.0-0.6","211","true","img/card_backs/set1/yellow.gif","img/card_backs/set1/green.gif","img/card_backs/set1/red.gif","img/card_backs/set1/purple.gif","img/card_backs/set2/blue.gif","img/card_backs/set2/orange.gif","img/card_backs/set2/gray.gif","img/card_backs/set2/pink.gif","""event"",""trial"",""time""
""fullscreenenter"",""1"",""4449""
","
","
","""event"",""trial"",""time""
""fullscreenenter"",""1"",""4449""
","
","","null","","null","","fixation","2021-06-05 14:10:11.015","","","","","",""
"card-selection-trial","48","274824","0.0-17.0-1.6","211","true","img/card_backs/set1/yellow.gif","img/card_backs/set1/green.gif","img/card_backs/set1/red.gif","img/card_backs/set1/purple.gif","img/card_backs/set2/blue.gif","img/card_backs/set2/orange.gif","img/card_backs/set2/gray.gif","img/card_backs/set2/pink.gif","""event"",""trial"",""time""
""fullscreenenter"",""1"",""4449""
","
","
","""event"",""trial"",""time""
""fullscreenenter"",""1"",""4449""
","
","","1521.375000000291","","","","practice","2021-06-05 14:10:14.545","img/practice_cards/backs/brown.gif","1","-100","0","",""
"casino-fixation","49","275327","0.0-17.0-0.7","211","true","img/card_backs/set1/yellow.gif","img/card_backs/set1/green.gif","img/card_backs/set1/red.gif","img/card_backs/set1/purple.gif","img/card_backs/set2/blue.gif","img/card_backs/set2/orange.gif","img/card_backs/set2/gray.gif","img/card_backs/set2/pink.gif","""event"",""trial"",""time""
""fullscreenenter"",""1"",""4449""
","
","
","""event"",""trial"",""time""
""fullscreenenter"",""1"",""4449""
","
","","null","","null","","fixation","2021-06-05 14:10:15.048","","","","","",""
"card-selection-trial","50","278093","0.0-17.0-1.7","211","true","img/card_backs/set1/yellow.gif","img/card_backs/set1/green.gif","img/card_backs/set1/red.gif","img/card_backs/set1/purple.gif","img/card_backs/set2/blue.gif","img/card_backs/set2/orange.gif","img/card_backs/set2/gray.gif","img/card_backs/set2/pink.gif","""event"",""trial"",""time""
""fullscreenenter"",""1"",""4449""
","
","
","""event"",""trial"",""time""
""fullscreenenter"",""1"",""4449""
","
","","756.6150000002235","","","","practice","2021-06-05 14:10:17.814","img/practice_cards/backs/black.gif","3","100","0","",""
"casino-fixation","51","278598","0.0-17.0-0.8","211","true","img/card_backs/set1/yellow.gif","img/card_backs/set1/green.gif","img/card_backs/set1/red.gif","img/card_backs/set1/purple.gif","img/card_backs/set2/blue.gif","img/card_backs/set2/orange.gif","img/card_backs/set2/gray.gif","img/card_backs/set2/pink.gif","""event"",""trial"",""time""
""fullscreenenter"",""1"",""4449""
","
","
","""event"",""trial"",""time""
""fullscreenenter"",""1"",""4449""
","
","","null","","null","","fixation","2021-06-05 14:10:18.319","","","","","",""
"card-selection-trial","52","281332","0.0-17.0-1.8","211","true","img/card_backs/set1/yellow.gif","img/card_backs/set1/green.gif","img/card_backs/set1/red.gif","img/card_backs/set1/purple.gif","img/card_backs/set2/blue.gif","img/card_backs/set2/orange.gif","img/card_backs/set2/gray.gif","img/card_backs/set2/pink.gif","""event"",""trial"",""time""
""fullscreenenter"",""1"",""4449""
","
","
","""event"",""trial"",""time""
""fullscreenenter"",""1"",""4449""
","
","","727.1650000002701","","","","practice","2021-06-05 14:10:21.053","img/practice_cards/backs/black.gif","3","100","0","",""
"casino-fixation","53","281837","0.0-17.0-0.9","211","true","img/card_backs/set1/yellow.gif","img/card_backs/set1/green.gif","img/card_backs/set1/red.gif","img/card_backs/set1/purple.gif","img/card_backs/set2/blue.gif","img/card_backs/set2/orange.gif","img/card_backs/set2/gray.gif","img/card_backs/set2/pink.gif","""event"",""trial"",""time""
""fullscreenenter"",""1"",""4449""
","
","
","""event"",""trial"",""time""
""fullscreenenter"",""1"",""4449""
","
","","null","","null","","fixation","2021-06-05 14:10:21.558","","","","","",""
"card-selection-trial","54","286737","0.0-17.0-1.9","211","true","img/card_backs/set1/yellow.gif","img/card_backs/set1/green.gif","img/card_backs/set1/red.gif","img/card_backs/set1/purple.gif","img/card_backs/set2/blue.gif","img/card_backs/set2/orange.gif","img/card_backs/set2/gray.gif","img/card_backs/set2/pink.gif","""event"",""trial"",""time""
""fullscreenenter"",""1"",""4449""
","
","
","""event"",""trial"",""time""
""fullscreenenter"",""1"",""4449""
","
","","2889.424999999872","","","","practice","2021-06-05 14:10:26.458","img/practice_cards/backs/dark_blue.gif","3","200","0","",""
"casino-keyboard-response","55","290005","0.0-18.0","211","true","img/card_backs/set1/yellow.gif","img/card_backs/set1/green.gif","img/card_backs/set1/red.gif","img/card_backs/set1/purple.gif","img/card_backs/set2/blue.gif","img/card_backs/set2/orange.gif","img/card_backs/set2/gray.gif","img/card_backs/set2/pink.gif","""event"",""trial"",""time""
""fullscreenenter"",""1"",""4449""
","
","
","""event"",""trial"",""time""
""fullscreenenter"",""1"",""4449""
","
","","3266.854999999865","You earned 400 tokens during the practice round!","82","","","2021-06-05 14:10:29.727","","","","","",""
"casino-keyboard-response","56","294576","0.0-19.0-0.0","211","true","img/card_backs/set1/yellow.gif","img/card_backs/set1/green.gif","img/card_backs/set1/red.gif","img/card_backs/set1/purple.gif","img/card_backs/set2/blue.gif","img/card_backs/set2/orange.gif","img/card_backs/set2/gray.gif","img/card_backs/set2/pink.gif","""event"",""trial"",""time""
""fullscreenenter"",""1"",""4449""
","
","
","""event"",""trial"",""time""
""fullscreenenter"",""1"",""4449""
","
","","4568.499999999825","Nice job! You are almost ready to play the real game.","86","","instructions","2021-06-05 14:10:34.297","","","","","",""
"casino-keyboard-response","57","301793","0.0-19.0-0.1","211","true","img/card_backs/set1/yellow.gif","img/card_backs/set1/green.gif","img/card_backs/set1/red.gif","img/card_backs/set1/purple.gif","img/card_backs/set2/blue.gif","img/card_backs/set2/orange.gif","img/card_backs/set2/gray.gif","img/card_backs/set2/pink.gif","""event"",""trial"",""time""
""fullscreenenter"",""1"",""4449""
","
","
","""event"",""trial"",""time""
""fullscreenenter"",""1"",""4449""
","
","","7214.6349999997765","You will play two rounds of the real game. In each round, you will pick 100 cards in total.","73","","instructions","2021-06-05 14:10:41.514","","","","","",""
"casino-keyboard-response","58","306245","0.0-19.0-0.2","211","true","img/card_backs/set1/yellow.gif","img/card_backs/set1/green.gif","img/card_backs/set1/red.gif","img/card_backs/set1/purple.gif","img/card_backs/set2/blue.gif","img/card_backs/set2/orange.gif","img/card_backs/set2/gray.gif","img/card_backs/set2/pink.gif","""event"",""trial"",""time""
""fullscreenenter"",""1"",""4449""
","
","
","""event"",""trial"",""time""
""fullscreenenter"",""1"",""4449""
","
","","4450.539999999804","We are now going to ask you some questions about how the game works.","66","","instructions","2021-06-05 14:10:45.967","","","","","",""
"casino-keyboard-response","59","312530","0.0-19.0-0.3","211","true","img/card_backs/set1/yellow.gif","img/card_backs/set1/green.gif","img/card_backs/set1/red.gif","img/card_backs/set1/purple.gif","img/card_backs/set2/blue.gif","img/card_backs/set2/orange.gif","img/card_backs/set2/gray.gif","img/card_backs/set2/pink.gif","""event"",""trial"",""time""
""fullscreenenter"",""1"",""4449""
","
","
","""event"",""trial"",""time""
""fullscreenenter"",""1"",""4449""
","
","","6280.850000000093","Answer carefully. You will not be able to begin the game until you answer them correctly.","67","","instructions","2021-06-05 14:10:52.251","","","","","",""
"casino-comp_q","60","320809","0.0-20.0-0.0","211","true","img/card_backs/set1/yellow.gif","img/card_backs/set1/green.gif","img/card_backs/set1/red.gif","img/card_backs/set1/purple.gif","img/card_backs/set2/blue.gif","img/card_backs/set2/orange.gif","img/card_backs/set2/gray.gif","img/card_backs/set2/pink.gif","""event"",""trial"",""time""
""fullscreenenter"",""1"",""4449""
","
","
","""event"",""trial"",""time""
""fullscreenenter"",""1"",""4449""
","
","","8276.499999999942","True or False: All the decks have some cards that cause you to win tokens and some cards that cause you to lose tokens.","84","","","2021-06-05 14:11:00.530","","","","","",""
"casino-keyboard-response","61","326422","0.0-20.0-1.0","211","true","img/card_backs/set1/yellow.gif","img/card_backs/set1/green.gif","img/card_backs/set1/red.gif","img/card_backs/set1/purple.gif","img/card_backs/set2/blue.gif","img/card_backs/set2/orange.gif","img/card_backs/set2/gray.gif","img/card_backs/set2/pink.gif","""event"",""trial"",""time""
""fullscreenenter"",""1"",""4449""
","
","
","""event"",""trial"",""time""
""fullscreenenter"",""1"",""4449""
","
","","5610.155000000261","True is correct! All the decks have a mix of winning and losing cards.","77","","","2021-06-05 14:11:06.143","","","","","true",""
"casino-comp_q","62","331731","0.0-21.0-0.0","211","true","img/card_backs/set1/yellow.gif","img/card_backs/set1/green.gif","img/card_backs/set1/red.gif","img/card_backs/set1/purple.gif","img/card_backs/set2/blue.gif","img/card_backs/set2/orange.gif","img/card_backs/set2/gray.gif","img/card_backs/set2/pink.gif","""event"",""trial"",""time""
""fullscreenenter"",""1"",""4449""
","
","
","""event"",""trial"",""time""
""fullscreenenter"",""1"",""4449""
","
","","5306.9700000000885","True or False: You will have as much time as you want to make your response.","70","","","2021-06-05 14:11:11.452","","","","","",""
"casino-keyboard-response","63","336443","0.0-21.0-1.0","211","true","img/card_backs/set1/yellow.gif","img/card_backs/set1/green.gif","img/card_backs/set1/red.gif","img/card_backs/set1/purple.gif","img/card_backs/set2/blue.gif","img/card_backs/set2/orange.gif","img/card_backs/set2/gray.gif","img/card_backs/set2/pink.gif","""event"",""trial"",""time""
""fullscreenenter"",""1"",""4449""
","
","
","""event"",""trial"",""time""
""fullscreenenter"",""1"",""4449""
","
","","4708.0799999999","False is correct! You will only have 10 seconds to make each choice.","75","","","2021-06-05 14:11:16.164","","","","","true",""
"casino-comp_q","64","342176","0.0-22.0-0.0","211","true","img/card_backs/set1/yellow.gif","img/card_backs/set1/green.gif","img/card_backs/set1/red.gif","img/card_backs/set1/purple.gif","img/card_backs/set2/blue.gif","img/card_backs/set2/orange.gif","img/card_backs/set2/gray.gif","img/card_backs/set2/pink.gif","""event"",""trial"",""time""
""fullscreenenter"",""1"",""4449""
","
","
","""event"",""trial"",""time""
""fullscreenenter"",""1"",""4449""
","
","","5730.025000000314","True or False: The location of the deck determines how lucky it is.","70","","","2021-06-05 14:11:21.897","","","","","",""
"casino-keyboard-response","65","347385","0.0-22.0-1.0","211","true","img/card_backs/set1/yellow.gif","img/card_backs/set1/green.gif","img/card_backs/set1/red.gif","img/card_backs/set1/purple.gif","img/card_backs/set2/blue.gif","img/card_backs/set2/orange.gif","img/card_backs/set2/gray.gif","img/card_backs/set2/pink.gif","""event"",""trial"",""time""
""fullscreenenter"",""1"",""4449""
","
","
","""event"",""trial"",""time""
""fullscreenenter"",""1"",""4449""
","
","","5207.29000000027","False is correct! The <i>color</i>  of the deck determines how lucky or unlucky it is.","68","","","2021-06-05 14:11:27.106","","","","","true",""
"casino-keyboard-response","66","351787","0.0-23.0-0.0","211","true","img/card_backs/set1/yellow.gif","img/card_backs/set1/green.gif","img/card_backs/set1/red.gif","img/card_backs/set1/purple.gif","img/card_backs/set2/blue.gif","img/card_backs/set2/orange.gif","img/card_backs/set2/gray.gif","img/card_backs/set2/pink.gif","""event"",""trial"",""time""
""fullscreenenter"",""1"",""4449""
","
","
","""event"",""trial"",""time""
""fullscreenenter"",""1"",""4449""
","
","","4399.435000000289","Great job! Now it's time to start the real game.","82","","instructions","2021-06-05 14:11:31.508","","","","","",""
"casino-keyboard-response","67","357102","0.0-23.0-0.1","211","true","img/card_backs/set1/yellow.gif","img/card_backs/set1/green.gif","img/card_backs/set1/red.gif","img/card_backs/set1/purple.gif","img/card_backs/set2/blue.gif","img/card_backs/set2/orange.gif","img/card_backs/set2/gray.gif","img/card_backs/set2/pink.gif","""event"",""trial"",""time""
""fullscreenenter"",""1"",""4449""
","
","
","""event"",""trial"",""time""
""fullscreenenter"",""1"",""4449""
","
","","5312.470000000321","Before we start, we're going to head into a new room of the casino.","86","","instructions","2021-06-05 14:11:36.823","","","","","",""
"casino-keyboard-response","68","363737","0.0-24.0-0.0","211","true","img/card_backs/set1/yellow.gif","img/card_backs/set1/green.gif","img/card_backs/set1/red.gif","img/card_backs/set1/purple.gif","img/card_backs/set2/blue.gif","img/card_backs/set2/orange.gif","img/card_backs/set2/gray.gif","img/card_backs/set2/pink.gif","""event"",""trial"",""time""
""fullscreenenter"",""1"",""4449""
","
","
","""event"",""trial"",""time""
""fullscreenenter"",""1"",""4449""
","
","","6633.354999999923","Here we are! The real game will use different cards, but the rules will be the same.","71","","instructions","2021-06-05 14:11:43.458","","","","","",""
"casino-keyboard-response","69","371147","0.0-24.0-0.1","211","true","img/card_backs/set1/yellow.gif","img/card_backs/set1/green.gif","img/card_backs/set1/red.gif","img/card_backs/set1/purple.gif","img/card_backs/set2/blue.gif","img/card_backs/set2/orange.gif","img/card_backs/set2/gray.gif","img/card_backs/set2/pink.gif","""event"",""trial"",""time""
""fullscreenenter"",""1"",""4449""
","
","
","""event"",""trial"",""time""
""fullscreenenter"",""1"",""4449""
","
","","7408.445000000007","Ready? Put your fingers over the '2', '4', 6', and '8' keys so you are ready to play the game. </br> Then press 2 to start.","50","","instructions","2021-06-05 14:11:50.868","","","","","",""
"casino-fixation","70","371650","0.0-25.0-0.0","211","true","img/card_backs/set1/yellow.gif","img/card_backs/set1/green.gif","img/card_backs/set1/red.gif","img/card_backs/set1/purple.gif","img/card_backs/set2/blue.gif","img/card_backs/set2/orange.gif","img/card_backs/set2/gray.gif","img/card_backs/set2/pink.gif","""event"",""trial"",""time""
""fullscreenenter"",""1"",""4449""
","
","
","""event"",""trial"",""time""
""fullscreenenter"",""1"",""4449""
","
","","null","","null","","fixation","2021-06-05 14:11:51.371","","","","","",""
"card-selection-trial","71","375397","0.0-25.0-1.0","211","true","img/card_backs/set1/yellow.gif","img/card_backs/set1/green.gif","img/card_backs/set1/red.gif","img/card_backs/set1/purple.gif","img/card_backs/set2/blue.gif","img/card_backs/set2/orange.gif","img/card_backs/set2/gray.gif","img/card_backs/set2/pink.gif","""event"",""trial"",""time""
""fullscreenenter"",""1"",""4449""
","
","
","""event"",""trial"",""time""
""fullscreenenter"",""1"",""4449""
","
","","1740.5100000001257","","","","real_trial","2021-06-05 14:11:55.118","img/card_backs/set1/purple.gif","2","60","1","",""
"casino-fixation","72","375902","0.0-25.0-0.1","211","true","img/card_backs/set1/yellow.gif","img/card_backs/set1/green.gif","img/card_backs/set1/red.gif","img/card_backs/set1/purple.gif","img/card_backs/set2/blue.gif","img/card_backs/set2/orange.gif","img/card_backs/set2/gray.gif","img/card_backs/set2/pink.gif","""event"",""trial"",""time""
""fullscreenenter"",""1"",""4449""
","
","
","""event"",""trial"",""time""
""fullscreenenter"",""1"",""4449""
","
","","null","","null","","fixation","2021-06-05 14:11:55.623","","","","","",""
"card-selection-trial","73","378845","0.0-25.0-1.1","211","true","img/card_backs/set1/yellow.gif","img/card_backs/set1/green.gif","img/card_backs/set1/red.gif","img/card_backs/set1/purple.gif","img/card_backs/set2/blue.gif","img/card_backs/set2/orange.gif","img/card_backs/set2/gray.gif","img/card_backs/set2/pink.gif","""event"",""trial"",""time""
""fullscreenenter"",""1"",""4449""
","
","
","""event"",""trial"",""time""
""fullscreenenter"",""1"",""4449""
","
","","935.7449999997625","","","","real_trial","2021-06-05 14:11:58.566","img/card_backs/set1/purple.gif","3","50","1","",""
"casino-fixation","74","379350","0.0-25.0-0.2","211","true","img/card_backs/set1/yellow.gif","img/card_backs/set1/green.gif","img/card_backs/set1/red.gif","img/card_backs/set1/purple.gif","img/card_backs/set2/blue.gif","img/card_backs/set2/orange.gif","img/card_backs/set2/gray.gif","img/card_backs/set2/pink.gif","""event"",""trial"",""time""
""fullscreenenter"",""1"",""4449""
","
","
","""event"",""trial"",""time""
""fullscreenenter"",""1"",""4449""
","
","","null","","null","","fixation","2021-06-05 14:11:59.071","","","","","",""
"card-selection-trial","75","382436","0.0-25.0-1.2","211","true","img/card_backs/set1/yellow.gif","img/card_backs/set1/green.gif","img/card_backs/set1/red.gif","img/card_backs/set1/purple.gif","img/card_backs/set2/blue.gif","img/card_backs/set2/orange.gif","img/card_backs/set2/gray.gif","img/card_backs/set2/pink.gif","""event"",""trial"",""time""
""fullscreenenter"",""1"",""4449""
","
","
","""event"",""trial"",""time""
""fullscreenenter"",""1"",""4449""
","
","","1077.9299999999348","","","","real_trial","2021-06-05 14:12:02.158","img/card_backs/set1/red.gif","0","-90","1","",""
"casino-fixation","76","382943","0.0-25.0-0.3","211","true","img/card_backs/set1/yellow.gif","img/card_backs/set1/green.gif","img/card_backs/set1/red.gif","img/card_backs/set1/purple.gif","img/card_backs/set2/blue.gif","img/card_backs/set2/orange.gif","img/card_backs/set2/gray.gif","img/card_backs/set2/pink.gif","""event"",""trial"",""time""
""fullscreenenter"",""1"",""4449""
","
","
","""event"",""trial"",""time""
""fullscreenenter"",""1"",""4449""
","
","","null","","null","","fixation","2021-06-05 14:12:02.664","","","","","",""
"card-selection-trial","77","386711","0.0-25.0-1.3","211","true","img/card_backs/set1/yellow.gif","img/card_backs/set1/green.gif","img/card_backs/set1/red.gif","img/card_backs/set1/purple.gif","img/card_backs/set2/blue.gif","img/card_backs/set2/orange.gif","img/card_backs/set2/gray.gif","img/card_backs/set2/pink.gif","""event"",""trial"",""time""
""fullscreenenter"",""1"",""4449""
","
","
","""event"",""trial"",""time""
""fullscreenenter"",""1"",""4449""
","
","","1757.039999999979","","","","real_trial","2021-06-05 14:12:06.432","img/card_backs/set1/purple.gif","2","-110","1","",""
"casino-fixation","78","387216","0.0-25.0-0.4","211","true","img/card_backs/set1/yellow.gif","img/card_backs/set1/green.gif","img/card_backs/set1/red.gif","img/card_backs/set1/purple.gif","img/card_backs/set2/blue.gif","img/card_backs/set2/orange.gif","img/card_backs/set2/gray.gif","img/card_backs/set2/pink.gif","""event"",""trial"",""time""
""fullscreenenter"",""1"",""4449""
","
","
","""event"",""trial"",""time""
""fullscreenenter"",""1"",""4449""
","
","","null","","null","","fixation","2021-06-05 14:12:06.937","","","","","",""
"card-selection-trial","79","390664","0.0-25.0-1.4","211","true","img/card_backs/set1/yellow.gif","img/card_backs/set1/green.gif","img/card_backs/set1/red.gif","img/card_backs/set1/purple.gif","img/card_backs/set2/blue.gif","img/card_backs/set2/orange.gif","img/card_backs/set2/gray.gif","img/card_backs/set2/pink.gif","""event"",""trial"",""time""
""fullscreenenter"",""1"",""4449""
","
","
","""event"",""trial"",""time""
""fullscreenenter"",""1"",""4449""
","
","","1438.6299999996554","","","","real_trial","2021-06-05 14:12:10.385","img/card_backs/set1/purple.gif","0","-90","1","",""
"casino-fixation","80","391169","0.0-25.0-0.5","211","true","img/card_backs/set1/yellow.gif","img/card_backs/set1/green.gif","img/card_backs/set1/red.gif","img/card_backs/set1/purple.gif","img/card_backs/set2/blue.gif","img/card_backs/set2/orange.gif","img/card_backs/set2/gray.gif","img/card_backs/set2/pink.gif","""event"",""trial"",""time""
""fullscreenenter"",""1"",""4449""
","
","
","""event"",""trial"",""time""
""fullscreenenter"",""1"",""4449""
","
","","null","","null","","fixation","2021-06-05 14:12:10.890","","","","","",""
"card-selection-trial","81","394038","0.0-25.0-1.5","211","true","img/card_backs/set1/yellow.gif","img/card_backs/set1/green.gif","img/card_backs/set1/red.gif","img/card_backs/set1/purple.gif","img/card_backs/set2/blue.gif","img/card_backs/set2/orange.gif","img/card_backs/set2/gray.gif","img/card_backs/set2/pink.gif","""event"",""trial"",""time""
""fullscreenenter"",""1"",""4449""
","
","
","""event"",""trial"",""time""
""fullscreenenter"",""1"",""4449""
","
","","859.1999999998952","","","","real_trial","2021-06-05 14:12:13.760","img/card_backs/set1/red.gif","2","-110","1","",""
"casino-fixation","82","394543","0.0-25.0-0.6","211","true","img/card_backs/set1/yellow.gif","img/card_backs/set1/green.gif","img/card_backs/set1/red.gif","img/card_backs/set1/purple.gif","img/card_backs/set2/blue.gif","img/card_backs/set2/orange.gif","img/card_backs/set2/gray.gif","img/card_backs/set2/pink.gif","""event"",""trial"",""time""
""fullscreenenter"",""1"",""4449""
","
","
","""event"",""trial"",""time""
""fullscreenenter"",""1"",""4449""
","
","","null","","null","","fixation","2021-06-05 14:12:14.264","","","","","",""
"card-selection-trial","83","397200","0.0-25.0-1.6","211","true","img/card_backs/set1/yellow.gif","img/card_backs/set1/green.gif","img/card_backs/set1/red.gif","img/card_backs/set1/purple.gif","img/card_backs/set2/blue.gif","img/card_backs/set2/orange.gif","img/card_backs/set2/gray.gif","img/card_backs/set2/pink.gif","""event"",""trial"",""time""
""fullscreenenter"",""1"",""4449""
","
","
","""event"",""trial"",""time""
""fullscreenenter"",""1"",""4449""
","
","","652.4500000000116","","","","real_trial","2021-06-05 14:12:16.921","img/card_backs/set1/green.gif","1","240","1","",""
"casino-fixation","84","397705","0.0-25.0-0.7","211","true","img/card_backs/set1/yellow.gif","img/card_backs/set1/green.gif","img/card_backs/set1/red.gif","img/card_backs/set1/purple.gif","img/card_backs/set2/blue.gif","img/card_backs/set2/orange.gif","img/card_backs/set2/gray.gif","img/card_backs/set2/pink.gif","""event"",""trial"",""time""
""fullscreenenter"",""1"",""4449""
","
","
","""event"",""trial"",""time""
""fullscreenenter"",""1"",""4449""
","
","","null","","null","","fixation","2021-06-05 14:12:17.426","","","","","",""
"card-selection-trial","85","400527","0.0-25.0-1.7","211","true","img/card_backs/set1/yellow.gif","img/card_backs/set1/green.gif","img/card_backs/set1/red.gif","img/card_backs/set1/purple.gif","img/card_backs/set2/blue.gif","img/card_backs/set2/orange.gif","img/card_backs/set2/gray.gif","img/card_backs/set2/pink.gif","""event"",""trial"",""time""
""fullscreenenter"",""1"",""4449""
","
","
","""event"",""trial"",""time""
""fullscreenenter"",""1"",""4449""
","
","","810.8999999999651","","","","real_trial","2021-06-05 14:12:20.248","img/card_backs/set1/green.gif","2","-210","1","",""
"casino-fixation","86","401032","0.0-25.0-0.8","211","true","img/card_backs/set1/yellow.gif","img/card_backs/set1/green.gif","img/card_backs/set1/red.gif","img/card_backs/set1/purple.gif","img/card_backs/set2/blue.gif","img/card_backs/set2/orange.gif","img/card_backs/set2/gray.gif","img/card_backs/set2/pink.gif","""event"",""trial"",""time""
""fullscreenenter"",""1"",""4449""
","
","
","""event"",""trial"",""time""
""fullscreenenter"",""1"",""4449""
","
","","null","","null","","fixation","2021-06-05 14:12:20.753","","","","","",""
"card-selection-trial","87","404388","0.0-25.0-1.8","211","true","img/card_backs/set1/yellow.gif","img/card_backs/set1/green.gif","img/card_backs/set1/red.gif","img/card_backs/set1/purple.gif","img/card_backs/set2/blue.gif","img/card_backs/set2/orange.gif","img/card_backs/set2/gray.gif","img/card_backs/set2/pink.gif","""event"",""trial"",""time""
""fullscreenenter"",""1"",""4449""
","
","
","""event"",""trial"",""time""
""fullscreenenter"",""1"",""4449""
","
","","1347.8500000000931","","","","real_trial","2021-06-05 14:12:24.109","img/card_backs/set1/purple.gif","2","-110","1","",""
"casino-fixation","88","404893","0.0-25.0-0.9","211","true","img/card_backs/set1/yellow.gif","img/card_backs/set1/green.gif","img/card_backs/set1/red.gif","img/card_backs/set1/purple.gif","img/card_backs/set2/blue.gif","img/card_backs/set2/orange.gif","img/card_backs/set2/gray.gif","img/card_backs/set2/pink.gif","""event"",""trial"",""time""
""fullscreenenter"",""1"",""4449""
","
","
","""event"",""trial"",""time""
""fullscreenenter"",""1"",""4449""
","
","","null","","null","","fixation","2021-06-05 14:12:24.614","","","","","",""
"card-selection-trial","89","408086","0.0-25.0-1.9","211","true","img/card_backs/set1/yellow.gif","img/card_backs/set1/green.gif","img/card_backs/set1/red.gif","img/card_backs/set1/purple.gif","img/card_backs/set2/blue.gif","img/card_backs/set2/orange.gif","img/card_backs/set2/gray.gif","img/card_backs/set2/pink.gif","""event"",""trial"",""time""
""fullscreenenter"",""1"",""4449""
","
","
","""event"",""trial"",""time""
""fullscreenenter"",""1"",""4449""
","
","","1182.6499999997322","","","","real_trial","2021-06-05 14:12:27.807","img/card_backs/set1/green.gif","3","-190","1","",""
"casino-fixation","90","408591","0.0-25.0-0.10","211","true","img/card_backs/set1/yellow.gif","img/card_backs/set1/green.gif","img/card_backs/set1/red.gif","img/card_backs/set1/purple.gif","img/card_backs/set2/blue.gif","img/card_backs/set2/orange.gif","img/card_backs/set2/gray.gif","img/card_backs/set2/pink.gif","""event"",""trial"",""time""
""fullscreenenter"",""1"",""4449""
","
","
","""event"",""trial"",""time""
""fullscreenenter"",""1"",""4449""
","
","","null","","null","","fixation","2021-06-05 14:12:28.312","","","","","",""
"card-selection-trial","91","411673","0.0-25.0-1.10","211","true","img/card_backs/set1/yellow.gif","img/card_backs/set1/green.gif","img/card_backs/set1/red.gif","img/card_backs/set1/purple.gif","img/card_backs/set2/blue.gif","img/card_backs/set2/orange.gif","img/card_backs/set2/gray.gif","img/card_backs/set2/pink.gif","""event"",""trial"",""time""
""fullscreenenter"",""1"",""4449""
","
","
","""event"",""trial"",""time""
""fullscreenenter"",""1"",""4449""
","
","","1074.300000000163","","","","real_trial","2021-06-05 14:12:31.395","img/card_backs/set1/red.gif","1","60","1","",""
"casino-fixation","92","412178","0.0-25.0-0.11","211","true","img/card_backs/set1/yellow.gif","img/card_backs/set1/green.gif","img/card_backs/set1/red.gif","img/card_backs/set1/purple.gif","img/card_backs/set2/blue.gif","img/card_backs/set2/orange.gif","img/card_backs/set2/gray.gif","img/card_backs/set2/pink.gif","""event"",""trial"",""time""
""fullscreenenter"",""1"",""4449""
","
","
","""event"",""trial"",""time""
""fullscreenenter"",""1"",""4449""
","
","","null","","null","","fixation","2021-06-05 14:12:31.899","","","","","",""
"card-selection-trial","93","415249","0.0-25.0-1.11","211","true","img/card_backs/set1/yellow.gif","img/card_backs/set1/green.gif","img/card_backs/set1/red.gif","img/card_backs/set1/purple.gif","img/card_backs/set2/blue.gif","img/card_backs/set2/orange.gif","img/card_backs/set2/gray.gif","img/card_backs/set2/pink.gif","""event"",""trial"",""time""
""fullscreenenter"",""1"",""4449""
","
","
","""event"",""trial"",""time""
""fullscreenenter"",""1"",""4449""
","
","","1060.199999999837","","","","real_trial","2021-06-05 14:12:34.970","img/card_backs/set1/red.gif","3","60","1","",""
"casino-fixation","94","415754","0.0-25.0-0.12","211","true","img/card_backs/set1/yellow.gif","img/card_backs/set1/green.gif","img/card_backs/set1/red.gif","img/card_backs/set1/purple.gif","img/card_backs/set2/blue.gif","img/card_backs/set2/orange.gif","img/card_backs/set2/gray.gif","img/card_backs/set2/pink.gif","""event"",""trial"",""time""
""fullscreenenter"",""1"",""4449""
","
","
","""event"",""trial"",""time""
""fullscreenenter"",""1"",""4449""
","
","","null","","null","","fixation","2021-06-05 14:12:35.475","","","","","",""
"card-selection-trial","95","418465","0.0-25.0-1.12","211","true","img/card_backs/set1/yellow.gif","img/card_backs/set1/green.gif","img/card_backs/set1/red.gif","img/card_backs/set1/purple.gif","img/card_backs/set2/blue.gif","img/card_backs/set2/orange.gif","img/card_backs/set2/gray.gif","img/card_backs/set2/pink.gif","""event"",""trial"",""time""
""fullscreenenter"",""1"",""4449""
","
","
","""event"",""trial"",""time""
""fullscreenenter"",""1"",""4449""
","
","","700.4449999999488","","","","real_trial","2021-06-05 14:12:38.186","img/card_backs/set1/red.gif","3","50","1","",""
"casino-fixation","96","418970","0.0-25.0-0.13","211","true","img/card_backs/set1/yellow.gif","img/card_backs/set1/green.gif","img/card_backs/set1/red.gif","img/card_backs/set1/purple.gif","img/card_backs/set2/blue.gif","img/card_backs/set2/orange.gif","img/card_backs/set2/gray.gif","img/card_backs/set2/pink.gif","""event"",""trial"",""time""
""fullscreenenter"",""1"",""4449""
","
","
","""event"",""trial"",""time""
""fullscreenenter"",""1"",""4449""
","
","","null","","null","","fixation","2021-06-05 14:12:38.691","","","","","",""
"card-selection-trial","97","421850","0.0-25.0-1.13","211","true","img/card_backs/set1/yellow.gif","img/card_backs/set1/green.gif","img/card_backs/set1/red.gif","img/card_backs/set1/purple.gif","img/card_backs/set2/blue.gif","img/card_backs/set2/orange.gif","img/card_backs/set2/gray.gif","img/card_backs/set2/pink.gif","""event"",""trial"",""time""
""fullscreenenter"",""1"",""4449""
","
","
","""event"",""trial"",""time""
""fullscreenenter"",""1"",""4449""
","
","","870.7549999998882","","","","real_trial","2021-06-05 14:12:41.571","img/card_backs/set1/green.gif","1","240","1","",""
"casino-fixation","98","422355","0.0-25.0-0.14","211","true","img/card_backs/set1/yellow.gif","img/card_backs/set1/green.gif","img/card_backs/set1/red.gif","img/card_backs/set1/purple.gif","img/card_backs/set2/blue.gif","img/card_backs/set2/orange.gif","img/card_backs/set2/gray.gif","img/card_backs/set2/pink.gif","""event"",""trial"",""time""
""fullscreenenter"",""1"",""4449""
","
","
","""event"",""trial"",""time""
""fullscreenenter"",""1"",""4449""
","
","","null","","null","","fixation","2021-06-05 14:12:42.076","","","","","",""
"card-selection-trial","99","425141","0.0-25.0-1.14","211","true","img/card_backs/set1/yellow.gif","img/card_backs/set1/green.gif","img/card_backs/set1/red.gif","img/card_backs/set1/purple.gif","img/card_backs/set2/blue.gif","img/card_backs/set2/orange.gif","img/card_backs/set2/gray.gif","img/card_backs/set2/pink.gif","""event"",""trial"",""time""
""fullscreenenter"",""1"",""4449""
","
","
","""event"",""trial"",""time""
""fullscreenenter"",""1"",""4449""
","
","","777.0299999997369","","","","real_trial","2021-06-05 14:12:44.862","img/card_backs/set1/red.gif","3","-90","1","",""
"casino-fixation","100","425646","0.0-25.0-0.15","211","true","img/card_backs/set1/yellow.gif","img/card_backs/set1/green.gif","img/card_backs/set1/red.gif","img/card_backs/set1/purple.gif","img/card_backs/set2/blue.gif","img/card_backs/set2/orange.gif","img/card_backs/set2/gray.gif","img/card_backs/set2/pink.gif","""event"",""trial"",""time""
""fullscreenenter"",""1"",""4449""
","
","
","""event"",""trial"",""time""
""fullscreenenter"",""1"",""4449""
","
","","null","","null","","fixation","2021-06-05 14:12:45.367","","","","","",""
"card-selection-trial","101","428520","0.0-25.0-1.15","211","true","img/card_backs/set1/yellow.gif","img/card_backs/set1/green.gif","img/card_backs/set1/red.gif","img/card_backs/set1/purple.gif","img/card_backs/set2/blue.gif","img/card_backs/set2/orange.gif","img/card_backs/set2/gray.gif","img/card_backs/set2/pink.gif","""event"",""trial"",""time""
""fullscreenenter"",""1"",""4449""
","
","
","""event"",""trial"",""time""
""fullscreenenter"",""1"",""4449""
","
","","865.7849999999744","","","","real_trial","2021-06-05 14:12:48.241","img/card_backs/set1/green.gif","2","240","1","",""
"casino-fixation","102","429025","0.0-25.0-0.16","211","true","img/card_backs/set1/yellow.gif","img/card_backs/set1/green.gif","img/card_backs/set1/red.gif","img/card_backs/set1/purple.gif","img/card_backs/set2/blue.gif","img/card_backs/set2/orange.gif","img/card_backs/set2/gray.gif","img/card_backs/set2/pink.gif","""event"",""trial"",""time""
""fullscreenenter"",""1"",""4449""
","
","
","""event"",""trial"",""time""
""fullscreenenter"",""1"",""4449""
","
","","null","","null","","fixation","2021-06-05 14:12:48.746","","","","","",""
"card-selection-trial","103","431701","0.0-25.0-1.16","211","true","img/card_backs/set1/yellow.gif","img/card_backs/set1/green.gif","img/card_backs/set1/red.gif","img/card_backs/set1/purple.gif","img/card_backs/set2/blue.gif","img/card_backs/set2/orange.gif","img/card_backs/set2/gray.gif","img/card_backs/set2/pink.gif","""event"",""trial"",""time""
""fullscreenenter"",""1"",""4449""
","
","
","""event"",""trial"",""time""
""fullscreenenter"",""1"",""4449""
","
","","667.6950000001234","","","","real_trial","2021-06-05 14:12:51.422","img/card_backs/set1/green.gif","2","-210","1","",""
"casino-fixation","104","432206","0.0-25.0-0.17","211","true","img/card_backs/set1/yellow.gif","img/card_backs/set1/green.gif","img/card_backs/set1/red.gif","img/card_backs/set1/purple.gif","img/card_backs/set2/blue.gif","img/card_backs/set2/orange.gif","img/card_backs/set2/gray.gif","img/card_backs/set2/pink.gif","""event"",""trial"",""time""
""fullscreenenter"",""1"",""4449""
","
","
","""event"",""trial"",""time""
""fullscreenenter"",""1"",""4449""
","
","","null","","null","","fixation","2021-06-05 14:12:51.927","","","","","",""
"card-selection-trial","105","435196","0.0-25.0-1.17","211","true","img/card_backs/set1/yellow.gif","img/card_backs/set1/green.gif","img/card_backs/set1/red.gif","img/card_backs/set1/purple.gif","img/card_backs/set2/blue.gif","img/card_backs/set2/orange.gif","img/card_backs/set2/gray.gif","img/card_backs/set2/pink.gif","""event"",""trial"",""time""
""fullscreenenter"",""1"",""4449""
","
","
","""event"",""trial"",""time""
""fullscreenenter"",""1"",""4449""
","
","","981.2999999999302","","","","real_trial","2021-06-05 14:12:54.917","img/card_backs/set1/purple.gif","0","-100","1","",""
"casino-fixation","106","435700","0.0-25.0-0.18","211","true","img/card_backs/set1/yellow.gif","img/card_backs/set1/green.gif","img/card_backs/set1/red.gif","img/card_backs/set1/purple.gif","img/card_backs/set2/blue.gif","img/card_backs/set2/orange.gif","img/card_backs/set2/gray.gif","img/card_backs/set2/pink.gif","""event"",""trial"",""time""
""fullscreenenter"",""1"",""4449""
","
","
","""event"",""trial"",""time""
""fullscreenenter"",""1"",""4449""
","
","","null","","null","","fixation","2021-06-05 14:12:55.421","","","","","",""
"card-selection-trial","107","438574","0.0-25.0-1.18","211","true","img/card_backs/set1/yellow.gif","img/card_backs/set1/green.gif","img/card_backs/set1/red.gif","img/card_backs/set1/purple.gif","img/card_backs/set2/blue.gif","img/card_backs/set2/orange.gif","img/card_backs/set2/gray.gif","img/card_backs/set2/pink.gif","""event"",""trial"",""time""
""fullscreenenter"",""1"",""4449""
","
","
","""event"",""trial"",""time""
""fullscreenenter"",""1"",""4449""
","
","","862.7549999996554","","","","real_trial","2021-06-05 14:12:58.295","img/card_backs/set1/red.gif","1","50","1","",""
"casino-fixation","108","439079","0.0-25.0-0.19","211","true","img/card_backs/set1/yellow.gif","img/card_backs/set1/green.gif","img/card_backs/set1/red.gif","img/card_backs/set1/purple.gif","img/card_backs/set2/blue.gif","img/card_backs/set2/orange.gif","img/card_backs/set2/gray.gif","img/card_backs/set2/pink.gif","""event"",""trial"",""time""
""fullscreenenter"",""1"",""4449""
","
","
","""event"",""trial"",""time""
""fullscreenenter"",""1"",""4449""
","
","","null","","null","","fixation","2021-06-05 14:12:58.800","","","","","",""
"card-selection-trial","109","441755","0.0-25.0-1.19","211","true","img/card_backs/set1/yellow.gif","img/card_backs/set1/green.gif","img/card_backs/set1/red.gif","img/card_backs/set1/purple.gif","img/card_backs/set2/blue.gif","img/card_backs/set2/orange.gif","img/card_backs/set2/gray.gif","img/card_backs/set2/pink.gif","""event"",""trial"",""time""
""fullscreenenter"",""1"",""4449""
","
","
","""event"",""trial"",""time""
""fullscreenenter"",""1"",""4449""
","
","","665.7500000001164","","","","real_trial","2021-06-05 14:13:01.476","img/card_backs/set1/red.gif","3","-90","1","",""
"casino-fixation","110","442260","0.0-25.0-0.20","211","true","img/card_backs/set1/yellow.gif","img/card_backs/set1/green.gif","img/card_backs/set1/red.gif","img/card_backs/set1/purple.gif","img/card_backs/set2/blue.gif","img/card_backs/set2/orange.gif","img/card_backs/set2/gray.gif","img/card_backs/set2/pink.gif","""event"",""trial"",""time""
""fullscreenenter"",""1"",""4449""
","
","
","""event"",""trial"",""time""
""fullscreenenter"",""1"",""4449""
","
","","null","","null","","fixation","2021-06-05 14:13:01.981","","","","","",""
"card-selection-trial","111","445424","0.0-25.0-1.20","211","true","img/card_backs/set1/yellow.gif","img/card_backs/set1/green.gif","img/card_backs/set1/red.gif","img/card_backs/set1/purple.gif","img/card_backs/set2/blue.gif","img/card_backs/set2/orange.gif","img/card_backs/set2/gray.gif","img/card_backs/set2/pink.gif","""event"",""trial"",""time""
""fullscreenenter"",""1"",""4449""
","
","
","""event"",""trial"",""time""
""fullscreenenter"",""1"",""4449""
","
","","1155.380000000121","","","","real_trial","2021-06-05 14:13:05.145","img/card_backs/set1/purple.gif","3","40","1","",""
"casino-fixation","112","445929","0.0-25.0-0.21","211","true","img/card_backs/set1/yellow.gif","img/card_backs/set1/green.gif","img/card_backs/set1/red.gif","img/card_backs/set1/purple.gif","img/card_backs/set2/blue.gif","img/card_backs/set2/orange.gif","img/card_backs/set2/gray.gif","img/card_backs/set2/pink.gif","""event"",""trial"",""time""
""fullscreenenter"",""1"",""4449""
","
","
","""event"",""trial"",""time""
""fullscreenenter"",""1"",""4449""
","
","","null","","null","","fixation","2021-06-05 14:13:05.650","","","","","",""
"card-selection-trial","113","449087","0.0-25.0-1.21","211","true","img/card_backs/set1/yellow.gif","img/card_backs/set1/green.gif","img/card_backs/set1/red.gif","img/card_backs/set1/purple.gif","img/card_backs/set2/blue.gif","img/card_backs/set2/orange.gif","img/card_backs/set2/gray.gif","img/card_backs/set2/pink.gif","""event"",""trial"",""time""
""fullscreenenter"",""1"",""4449""
","
","
","""event"",""trial"",""time""
""fullscreenenter"",""1"",""4449""
","
","","1147.575000000419","","","","real_trial","2021-06-05 14:13:08.808","img/card_backs/set1/green.gif","0","250","1","",""
"casino-fixation","114","449591","0.0-25.0-0.22","211","true","img/card_backs/set1/yellow.gif","img/card_backs/set1/green.gif","img/card_backs/set1/red.gif","img/card_backs/set1/purple.gif","img/card_backs/set2/blue.gif","img/card_backs/set2/orange.gif","img/card_backs/set2/gray.gif","img/card_backs/set2/pink.gif","""event"",""trial"",""time""
""fullscreenenter"",""1"",""4449""
","
","
","""event"",""trial"",""time""
""fullscreenenter"",""1"",""4449""
","
","","null","","null","","fixation","2021-06-05 14:13:09.312","","","","","",""
"card-selection-trial","115","452750","0.0-25.0-1.22","211","true","img/card_backs/set1/yellow.gif","img/card_backs/set1/green.gif","img/card_backs/set1/red.gif","img/card_backs/set1/purple.gif","img/card_backs/set2/blue.gif","img/card_backs/set2/orange.gif","img/card_backs/set2/gray.gif","img/card_backs/set2/pink.gif","""event"",""trial"",""time""
""fullscreenenter"",""1"",""4449""
","
","
","""event"",""trial"",""time""
""fullscreenenter"",""1"",""4449""
","
","","1149.1299999997718","","","","real_trial","2021-06-05 14:13:12.471","img/card_backs/set1/yellow.gif","3","250","1","",""
"casino-fixation","116","453254","0.0-25.0-0.23","211","true","img/card_backs/set1/yellow.gif","img/card_backs/set1/green.gif","img/card_backs/set1/red.gif","img/card_backs/set1/purple.gif","img/card_backs/set2/blue.gif","img/card_backs/set2/orange.gif","img/card_backs/set2/gray.gif","img/card_backs/set2/pink.gif","""event"",""trial"",""time""
""fullscreenenter"",""1"",""4449""
","
","
","""event"",""trial"",""time""
""fullscreenenter"",""1"",""4449""
","
","","null","","null","","fixation","2021-06-05 14:13:12.976","","","","","",""
"card-selection-trial","117","456819","0.0-25.0-1.23","211","true","img/card_backs/set1/yellow.gif","img/card_backs/set1/green.gif","img/card_backs/set1/red.gif","img/card_backs/set1/purple.gif","img/card_backs/set2/blue.gif","img/card_backs/set2/orange.gif","img/card_backs/set2/gray.gif","img/card_backs/set2/pink.gif","""event"",""trial"",""time""
""fullscreenenter"",""1"",""4449""
","
","
","""event"",""trial"",""time""
""fullscreenenter"",""1"",""4449""
","
","","1558.0149999996065","","","","real_trial","2021-06-05 14:13:16.540","img/card_backs/set1/green.gif","1","-190","1","",""
"casino-fixation","118","457324","0.0-25.0-0.24","211","true","img/card_backs/set1/yellow.gif","img/card_backs/set1/green.gif","img/card_backs/set1/red.gif","img/card_backs/set1/purple.gif","img/card_backs/set2/blue.gif","img/card_backs/set2/orange.gif","img/card_backs/set2/gray.gif","img/card_backs/set2/pink.gif","""event"",""trial"",""time""
""fullscreenenter"",""1"",""4449""
","
","
","""event"",""trial"",""time""
""fullscreenenter"",""1"",""4449""
","
","","null","","null","","fixation","2021-06-05 14:13:17.045","","","","","",""
"card-selection-trial","119","461092","0.0-25.0-1.24","211","true","img/card_backs/set1/yellow.gif","img/card_backs/set1/green.gif","img/card_backs/set1/red.gif","img/card_backs/set1/purple.gif","img/card_backs/set2/blue.gif","img/card_backs/set2/orange.gif","img/card_backs/set2/gray.gif","img/card_backs/set2/pink.gif","""event"",""trial"",""time""
""fullscreenenter"",""1"",""4449""
","
","
","""event"",""trial"",""time""
""fullscreenenter"",""1"",""4449""
","
","","1759.0249999998487","","","","real_trial","2021-06-05 14:13:20.813","img/card_backs/set1/purple.gif","2","-90","1","",""
"casino-fixation","120","461597","0.0-25.0-0.25","211","true","img/card_backs/set1/yellow.gif","img/card_backs/set1/green.gif","img/card_backs/set1/red.gif","img/card_backs/set1/purple.gif","img/card_backs/set2/blue.gif","img/card_backs/set2/orange.gif","img/card_backs/set2/gray.gif","img/card_backs/set2/pink.gif","""event"",""trial"",""time""
""fullscreenenter"",""1"",""4449""
","
","
","""event"",""trial"",""time""
""fullscreenenter"",""1"",""4449""
","
","","null","","null","","fixation","2021-06-05 14:13:21.318","","","","","",""
"card-selection-trial","121","464929","0.0-25.0-1.25","211","true","img/card_backs/set1/yellow.gif","img/card_backs/set1/green.gif","img/card_backs/set1/red.gif","img/card_backs/set1/purple.gif","img/card_backs/set2/blue.gif","img/card_backs/set2/orange.gif","img/card_backs/set2/gray.gif","img/card_backs/set2/pink.gif","""event"",""trial"",""time""
""fullscreenenter"",""1"",""4449""
","
","
","""event"",""trial"",""time""
""fullscreenenter"",""1"",""4449""
","
","","1324.7799999999697","","","","real_trial","2021-06-05 14:13:24.650","img/card_backs/set1/green.gif","3","260","1","",""
"casino-fixation","122","465434","0.0-25.0-0.26","211","true","img/card_backs/set1/yellow.gif","img/card_backs/set1/green.gif","img/card_backs/set1/red.gif","img/card_backs/set1/purple.gif","img/card_backs/set2/blue.gif","img/card_backs/set2/orange.gif","img/card_backs/set2/gray.gif","img/card_backs/set2/pink.gif","""event"",""trial"",""time""
""fullscreenenter"",""1"",""4449""
","
","
","""event"",""trial"",""time""
""fullscreenenter"",""1"",""4449""
","
","","null","","null","","fixation","2021-06-05 14:13:25.155","","","","","",""
"card-selection-trial","123","468313","0.0-25.0-1.26","211","true","img/card_backs/set1/yellow.gif","img/card_backs/set1/green.gif","img/card_backs/set1/red.gif","img/card_backs/set1/purple.gif","img/card_backs/set2/blue.gif","img/card_backs/set2/orange.gif","img/card_backs/set2/gray.gif","img/card_backs/set2/pink.gif","""event"",""trial"",""time""
""fullscreenenter"",""1"",""4449""
","
","
","""event"",""trial"",""time""
""fullscreenenter"",""1"",""4449""
","
","","868.0100000001257","","","","real_trial","2021-06-05 14:13:28.034","img/card_backs/set1/green.gif","1","240","1","",""
"casino-fixation","124","468818","0.0-25.0-0.27","211","true","img/card_backs/set1/yellow.gif","img/card_backs/set1/green.gif","img/card_backs/set1/red.gif","img/card_backs/set1/purple.gif","img/card_backs/set2/blue.gif","img/card_backs/set2/orange.gif","img/card_backs/set2/gray.gif","img/card_backs/set2/pink.gif","""event"",""trial"",""time""
""fullscreenenter"",""1"",""4449""
","
","
","""event"",""trial"",""time""
""fullscreenenter"",""1"",""4449""
","
","","null","","null","","fixation","2021-06-05 14:13:28.539","","","","","",""
"card-selection-trial","125","473009","0.0-25.0-1.27","211","true","img/card_backs/set1/yellow.gif","img/card_backs/set1/green.gif","img/card_backs/set1/red.gif","img/card_backs/set1/purple.gif","img/card_backs/set2/blue.gif","img/card_backs/set2/orange.gif","img/card_backs/set2/gray.gif","img/card_backs/set2/pink.gif","""event"",""trial"",""time""
""fullscreenenter"",""1"",""4449""
","
","
","""event"",""trial"",""time""
""fullscreenenter"",""1"",""4449""
","
","","2180.1799999998184","","","","real_trial","2021-06-05 14:13:32.731","img/card_backs/set1/red.gif","0","60","1","",""
"casino-fixation","126","473514","0.0-25.0-0.28","211","true","img/card_backs/set1/yellow.gif","img/card_backs/set1/green.gif","img/card_backs/set1/red.gif","img/card_backs/set1/purple.gif","img/card_backs/set2/blue.gif","img/card_backs/set2/orange.gif","img/card_backs/set2/gray.gif","img/card_backs/set2/pink.gif","""event"",""trial"",""time""
""fullscreenenter"",""1"",""4449""
","
","
","""event"",""trial"",""time""
""fullscreenenter"",""1"",""4449""
","
","","null","","null","","fixation","2021-06-05 14:13:33.235","","","","","",""
"card-selection-trial","127","476394","0.0-25.0-1.28","211","true","img/card_backs/set1/yellow.gif","img/card_backs/set1/green.gif","img/card_backs/set1/red.gif","img/card_backs/set1/purple.gif","img/card_backs/set2/blue.gif","img/card_backs/set2/orange.gif","img/card_backs/set2/gray.gif","img/card_backs/set2/pink.gif","""event"",""trial"",""time""
""fullscreenenter"",""1"",""4449""
","
","
","""event"",""trial"",""time""
""fullscreenenter"",""1"",""4449""
","
","","871.0449999998673","","","","real_trial","2021-06-05 14:13:36.115","img/card_backs/set1/green.gif","0","-210","1","",""
"casino-fixation","128","476899","0.0-25.0-0.29","211","true","img/card_backs/set1/yellow.gif","img/card_backs/set1/green.gif","img/card_backs/set1/red.gif","img/card_backs/set1/purple.gif","img/card_backs/set2/blue.gif","img/card_backs/set2/orange.gif","img/card_backs/set2/gray.gif","img/card_backs/set2/pink.gif","""event"",""trial"",""time""
""fullscreenenter"",""1"",""4449""
","
","
","""event"",""trial"",""time""
""fullscreenenter"",""1"",""4449""
","
","","null","","null","","fixation","2021-06-05 14:13:36.620","","","","","",""
"card-selection-trial","129","480091","0.0-25.0-1.29","211","true","img/card_backs/set1/yellow.gif","img/card_backs/set1/green.gif","img/card_backs/set1/red.gif","img/card_backs/set1/purple.gif","img/card_backs/set2/blue.gif","img/card_backs/set2/orange.gif","img/card_backs/set2/gray.gif","img/card_backs/set2/pink.gif","""event"",""trial"",""time""
""fullscreenenter"",""1"",""4449""
","
","
","""event"",""trial"",""time""
""fullscreenenter"",""1"",""4449""
","
","","1181.1900000002352","","","","real_trial","2021-06-05 14:13:39.812","img/card_backs/set1/green.gif","1","-200","1","",""
"casino-fixation","130","480596","0.0-25.0-0.30","211","true","img/card_backs/set1/yellow.gif","img/card_backs/set1/green.gif","img/card_backs/set1/red.gif","img/card_backs/set1/purple.gif","img/card_backs/set2/blue.gif","img/card_backs/set2/orange.gif","img/card_backs/set2/gray.gif","img/card_backs/set2/pink.gif","""event"",""trial"",""time""
""fullscreenenter"",""1"",""4449""
","
","
","""event"",""trial"",""time""
""fullscreenenter"",""1"",""4449""
","
","","null","","null","","fixation","2021-06-05 14:13:40.317","","","","","",""
"card-selection-trial","131","483348","0.0-25.0-1.30","211","true","img/card_backs/set1/yellow.gif","img/card_backs/set1/green.gif","img/card_backs/set1/red.gif","img/card_backs/set1/purple.gif","img/card_backs/set2/blue.gif","img/card_backs/set2/orange.gif","img/card_backs/set2/gray.gif","img/card_backs/set2/pink.gif","""event"",""trial"",""time""
""fullscreenenter"",""1"",""4449""
","
","
","""event"",""trial"",""time""
""fullscreenenter"",""1"",""4449""
","
","","745.1350000001257","","","","real_trial","2021-06-05 14:13:43.069","img/card_backs/set1/red.gif","0","-90","1","",""
"casino-fixation","132","483853","0.0-25.0-0.31","211","true","img/card_backs/set1/yellow.gif","img/card_backs/set1/green.gif","img/card_backs/set1/red.gif","img/card_backs/set1/purple.gif","img/card_backs/set2/blue.gif","img/card_backs/set2/orange.gif","img/card_backs/set2/gray.gif","img/card_backs/set2/pink.gif","""event"",""trial"",""time""
""fullscreenenter"",""1"",""4449""
","
","
","""event"",""trial"",""time""
""fullscreenenter"",""1"",""4449""
","
","","null","","null","","fixation","2021-06-05 14:13:43.574","","","","","",""
"card-selection-trial","133","486878","0.0-25.0-1.31","211","true","img/card_backs/set1/yellow.gif","img/card_backs/set1/green.gif","img/card_backs/set1/red.gif","img/card_backs/set1/purple.gif","img/card_backs/set2/blue.gif","img/card_backs/set2/orange.gif","img/card_backs/set2/gray.gif","img/card_backs/set2/pink.gif","""event"",""trial"",""time""
""fullscreenenter"",""1"",""4449""
","
","
","""event"",""trial"",""time""
""fullscreenenter"",""1"",""4449""
","
","","1016.1800000000512","","","","real_trial","2021-06-05 14:13:46.599","img/card_backs/set1/yellow.gif","2","-190","1","",""
"casino-fixation","134","487382","0.0-25.0-0.32","211","true","img/card_backs/set1/yellow.gif","img/card_backs/set1/green.gif","img/card_backs/set1/red.gif","img/card_backs/set1/purple.gif","img/card_backs/set2/blue.gif","img/card_backs/set2/orange.gif","img/card_backs/set2/gray.gif","img/card_backs/set2/pink.gif","""event"",""trial"",""time""
""fullscreenenter"",""1"",""4449""
","
","
","""event"",""trial"",""time""
""fullscreenenter"",""1"",""4449""
","
","","null","","null","","fixation","2021-06-05 14:13:47.103","","","","","",""
"card-selection-trial","135","490177","0.0-25.0-1.32","211","true","img/card_backs/set1/yellow.gif","img/card_backs/set1/green.gif","img/card_backs/set1/red.gif","img/card_backs/set1/purple.gif","img/card_backs/set2/blue.gif","img/card_backs/set2/orange.gif","img/card_backs/set2/gray.gif","img/card_backs/set2/pink.gif","""event"",""trial"",""time""
""fullscreenenter"",""1"",""4449""
","
","
","""event"",""trial"",""time""
""fullscreenenter"",""1"",""4449""
","
","","786.6300000000629","","","","real_trial","2021-06-05 14:13:49.898","img/card_backs/set1/green.gif","1","260","1","",""
"casino-fixation","136","490681","0.0-25.0-0.33","211","true","img/card_backs/set1/yellow.gif","img/card_backs/set1/green.gif","img/card_backs/set1/red.gif","img/card_backs/set1/purple.gif","img/card_backs/set2/blue.gif","img/card_backs/set2/orange.gif","img/card_backs/set2/gray.gif","img/card_backs/set2/pink.gif","""event"",""trial"",""time""
""fullscreenenter"",""1"",""4449""
","
","
","""event"",""trial"",""time""
""fullscreenenter"",""1"",""4449""
","
","","null","","null","","fixation","2021-06-05 14:13:50.402","","","","","",""
"card-selection-trial","137","493474","0.0-25.0-1.33","211","true","img/card_backs/set1/yellow.gif","img/card_backs/set1/green.gif","img/card_backs/set1/red.gif","img/card_backs/set1/purple.gif","img/card_backs/set2/blue.gif","img/card_backs/set2/orange.gif","img/card_backs/set2/gray.gif","img/card_backs/set2/pink.gif","""event"",""trial"",""time""
""fullscreenenter"",""1"",""4449""
","
","
","""event"",""trial"",""time""
""fullscreenenter"",""1"",""4449""
","
","","784.5649999998859","","","","real_trial","2021-06-05 14:13:53.195","img/card_backs/set1/green.gif","0","240","1","",""
"casino-fixation","138","493977","0.0-25.0-0.34","211","true","img/card_backs/set1/yellow.gif","img/card_backs/set1/green.gif","img/card_backs/set1/red.gif","img/card_backs/set1/purple.gif","img/card_backs/set2/blue.gif","img/card_backs/set2/orange.gif","img/card_backs/set2/gray.gif","img/card_backs/set2/pink.gif","""event"",""trial"",""time""
""fullscreenenter"",""1"",""4449""
","
","
","""event"",""trial"",""time""
""fullscreenenter"",""1"",""4449""
","
","","null","","null","","fixation","2021-06-05 14:13:53.698","","","","","",""
"card-selection-trial","139","497036","0.0-25.0-1.34","211","true","img/card_backs/set1/yellow.gif","img/card_backs/set1/green.gif","img/card_backs/set1/red.gif","img/card_backs/set1/purple.gif","img/card_backs/set2/blue.gif","img/card_backs/set2/orange.gif","img/card_backs/set2/gray.gif","img/card_backs/set2/pink.gif","""event"",""trial"",""time""
""fullscreenenter"",""1"",""4449""
","
","
","""event"",""trial"",""time""
""fullscreenenter"",""1"",""4449""
","
","","1047.4450000001816","","","","real_trial","2021-06-05 14:13:56.757","img/card_backs/set1/yellow.gif","3","240","1","",""
"casino-fixation","140","497541","0.0-25.0-0.35","211","true","img/card_backs/set1/yellow.gif","img/card_backs/set1/green.gif","img/card_backs/set1/red.gif","img/card_backs/set1/purple.gif","img/card_backs/set2/blue.gif","img/card_backs/set2/orange.gif","img/card_backs/set2/gray.gif","img/card_backs/set2/pink.gif","""event"",""trial"",""time""
""fullscreenenter"",""1"",""4449""
","
","
","""event"",""trial"",""time""
""fullscreenenter"",""1"",""4449""
","
","","null","","null","","fixation","2021-06-05 14:13:57.262","","","","","",""
"card-selection-trial","141","500398","0.0-25.0-1.35","211","true","img/card_backs/set1/yellow.gif","img/card_backs/set1/green.gif","img/card_backs/set1/red.gif","img/card_backs/set1/purple.gif","img/card_backs/set2/blue.gif","img/card_backs/set2/orange.gif","img/card_backs/set2/gray.gif","img/card_backs/set2/pink.gif","""event"",""trial"",""time""
""fullscreenenter"",""1"",""4449""
","
","
","""event"",""trial"",""time""
""fullscreenenter"",""1"",""4449""
","
","","845.8350000000792","","","","real_trial","2021-06-05 14:14:00.119","img/card_backs/set1/yellow.gif","2","-190","1","",""
"casino-fixation","142","500902","0.0-25.0-0.36","211","true","img/card_backs/set1/yellow.gif","img/card_backs/set1/green.gif","img/card_backs/set1/red.gif","img/card_backs/set1/purple.gif","img/card_backs/set2/blue.gif","img/card_backs/set2/orange.gif","img/card_backs/set2/gray.gif","img/card_backs/set2/pink.gif","""event"",""trial"",""time""
""fullscreenenter"",""1"",""4449""
","
","
","""event"",""trial"",""time""
""fullscreenenter"",""1"",""4449""
","
","","null","","null","","fixation","2021-06-05 14:14:00.623","","","","","",""
"card-selection-trial","143","503677","0.0-25.0-1.36","211","true","img/card_backs/set1/yellow.gif","img/card_backs/set1/green.gif","img/card_backs/set1/red.gif","img/card_backs/set1/purple.gif","img/card_backs/set2/blue.gif","img/card_backs/set2/orange.gif","img/card_backs/set2/gray.gif","img/card_backs/set2/pink.gif","""event"",""trial"",""time""
""fullscreenenter"",""1"",""4449""
","
","
","""event"",""trial"",""time""
""fullscreenenter"",""1"",""4449""
","
","","768.7150000002002","","","","real_trial","2021-06-05 14:14:03.398","img/card_backs/set1/green.gif","2","250","1","",""
"casino-fixation","144","504182","0.0-25.0-0.37","211","true","img/card_backs/set1/yellow.gif","img/card_backs/set1/green.gif","img/card_backs/set1/red.gif","img/card_backs/set1/purple.gif","img/card_backs/set2/blue.gif","img/card_backs/set2/orange.gif","img/card_backs/set2/gray.gif","img/card_backs/set2/pink.gif","""event"",""trial"",""time""
""fullscreenenter"",""1"",""4449""
","
","
","""event"",""trial"",""time""
""fullscreenenter"",""1"",""4449""
","
","","null","","null","","fixation","2021-06-05 14:14:03.903","","","","","",""
"card-selection-trial","145","506882","0.0-25.0-1.37","211","true","img/card_backs/set1/yellow.gif","img/card_backs/set1/green.gif","img/card_backs/set1/red.gif","img/card_backs/set1/purple.gif","img/card_backs/set2/blue.gif","img/card_backs/set2/orange.gif","img/card_backs/set2/gray.gif","img/card_backs/set2/pink.gif","""event"",""trial"",""time""
""fullscreenenter"",""1"",""4449""
","
","
","""event"",""trial"",""time""
""fullscreenenter"",""1"",""4449""
","
","","689.0600000001723","","","","real_trial","2021-06-05 14:14:06.603","img/card_backs/set1/green.gif","3","-210","1","",""
"casino-fixation","146","507387","0.0-25.0-0.38","211","true","img/card_backs/set1/yellow.gif","img/card_backs/set1/green.gif","img/card_backs/set1/red.gif","img/card_backs/set1/purple.gif","img/card_backs/set2/blue.gif","img/card_backs/set2/orange.gif","img/card_backs/set2/gray.gif","img/card_backs/set2/pink.gif","""event"",""trial"",""time""
""fullscreenenter"",""1"",""4449""
","
","
","""event"",""trial"",""time""
""fullscreenenter"",""1"",""4449""
","
","","null","","null","","fixation","2021-06-05 14:14:07.108","","","","","",""
"card-selection-trial","147","510758","0.0-25.0-1.38","211","true","img/card_backs/set1/yellow.gif","img/card_backs/set1/green.gif","img/card_backs/set1/red.gif","img/card_backs/set1/purple.gif","img/card_backs/set2/blue.gif","img/card_backs/set2/orange.gif","img/card_backs/set2/gray.gif","img/card_backs/set2/pink.gif","""event"",""trial"",""time""
""fullscreenenter"",""1"",""4449""
","
","
","""event"",""trial"",""time""
""fullscreenenter"",""1"",""4449""
","
","","1361.2199999997974","","","","real_trial","2021-06-05 14:14:10.479","img/card_backs/set1/red.gif","1","50","1","",""
"casino-fixation","148","511264","0.0-25.0-0.39","211","true","img/card_backs/set1/yellow.gif","img/card_backs/set1/green.gif","img/card_backs/set1/red.gif","img/card_backs/set1/purple.gif","img/card_backs/set2/blue.gif","img/card_backs/set2/orange.gif","img/card_backs/set2/gray.gif","img/card_backs/set2/pink.gif","""event"",""trial"",""time""
""fullscreenenter"",""1"",""4449""
","
","
","""event"",""trial"",""time""
""fullscreenenter"",""1"",""4449""
","
","","null","","null","","fixation","2021-06-05 14:14:10.985","","","","","",""
"card-selection-trial","149","513865","0.0-25.0-1.39","211","true","img/card_backs/set1/yellow.gif","img/card_backs/set1/green.gif","img/card_backs/set1/red.gif","img/card_backs/set1/purple.gif","img/card_backs/set2/blue.gif","img/card_backs/set2/orange.gif","img/card_backs/set2/gray.gif","img/card_backs/set2/pink.gif","""event"",""trial"",""time""
""fullscreenenter"",""1"",""4449""
","
","
","""event"",""trial"",""time""
""fullscreenenter"",""1"",""4449""
","
","","590.8849999996019","","","","real_trial","2021-06-05 14:14:13.586","img/card_backs/set1/red.gif","0","-100","1","",""
"casino-fixation","150","514370","0.0-25.0-0.40","211","true","img/card_backs/set1/yellow.gif","img/card_backs/set1/green.gif","img/card_backs/set1/red.gif","img/card_backs/set1/purple.gif","img/card_backs/set2/blue.gif","img/card_backs/set2/orange.gif","img/card_backs/set2/gray.gif","img/card_backs/set2/pink.gif","""event"",""trial"",""time""
""fullscreenenter"",""1"",""4449""
","
","
","""event"",""trial"",""time""
""fullscreenenter"",""1"",""4449""
","
","","null","","null","","fixation","2021-06-05 14:14:14.091","","","","","",""
"card-selection-trial","151","517627","0.0-25.0-1.40","211","true","img/card_backs/set1/yellow.gif","img/card_backs/set1/green.gif","img/card_backs/set1/red.gif","img/card_backs/set1/purple.gif","img/card_backs/set2/blue.gif","img/card_backs/set2/orange.gif","img/card_backs/set2/gray.gif","img/card_backs/set2/pink.gif","""event"",""trial"",""time""
""fullscreenenter"",""1"",""4449""
","
","
","""event"",""trial"",""time""
""fullscreenenter"",""1"",""4449""
","
","","1248.3099999999395","","","","real_trial","2021-06-05 14:14:17.348","img/card_backs/set1/purple.gif","2","50","1","",""
"casino-fixation","152","518132","0.0-25.0-0.41","211","true","img/card_backs/set1/yellow.gif","img/card_backs/set1/green.gif","img/card_backs/set1/red.gif","img/card_backs/set1/purple.gif","img/card_backs/set2/blue.gif","img/card_backs/set2/orange.gif","img/card_backs/set2/gray.gif","img/card_backs/set2/pink.gif","""event"",""trial"",""time""
""fullscreenenter"",""1"",""4449""
","
","
","""event"",""trial"",""time""
""fullscreenenter"",""1"",""4449""
","
","","null","","null","","fixation","2021-06-05 14:14:17.853","","","","","",""
"card-selection-trial","153","521459","0.0-25.0-1.41","211","true","img/card_backs/set1/yellow.gif","img/card_backs/set1/green.gif","img/card_backs/set1/red.gif","img/card_backs/set1/purple.gif","img/card_backs/set2/blue.gif","img/card_backs/set2/orange.gif","img/card_backs/set2/gray.gif","img/card_backs/set2/pink.gif","""event"",""trial"",""time""
""fullscreenenter"",""1"",""4449""
","
","
","""event"",""trial"",""time""
""fullscreenenter"",""1"",""4449""
","
","","1315.979999999865","","","","real_trial","2021-06-05 14:14:21.180","img/card_backs/set1/green.gif","0","250","1","",""
"casino-fixation","154","521963","0.0-25.0-0.42","211","true","img/card_backs/set1/yellow.gif","img/card_backs/set1/green.gif","img/card_backs/set1/red.gif","img/card_backs/set1/purple.gif","img/card_backs/set2/blue.gif","img/card_backs/set2/orange.gif","img/card_backs/set2/gray.gif","img/card_backs/set2/pink.gif","""event"",""trial"",""time""
""fullscreenenter"",""1"",""4449""
","
","
","""event"",""trial"",""time""
""fullscreenenter"",""1"",""4449""
","
","","null","","null","","fixation","2021-06-05 14:14:21.684","","","","","",""
"card-selection-trial","155","524628","0.0-25.0-1.42","211","true","img/card_backs/set1/yellow.gif","img/card_backs/set1/green.gif","img/card_backs/set1/red.gif","img/card_backs/set1/purple.gif","img/card_backs/set2/blue.gif","img/card_backs/set2/orange.gif","img/card_backs/set2/gray.gif","img/card_backs/set2/pink.gif","""event"",""trial"",""time""
""fullscreenenter"",""1"",""4449""
","
","
","""event"",""trial"",""time""
""fullscreenenter"",""1"",""4449""
","
","","656.0750000003027","","","","real_trial","2021-06-05 14:14:24.349","img/card_backs/set1/green.gif","0","250","1","",""
"casino-fixation","156","525133","0.0-25.0-0.43","211","true","img/card_backs/set1/yellow.gif","img/card_backs/set1/green.gif","img/card_backs/set1/red.gif","img/card_backs/set1/purple.gif","img/card_backs/set2/blue.gif","img/card_backs/set2/orange.gif","img/card_backs/set2/gray.gif","img/card_backs/set2/pink.gif","""event"",""trial"",""time""
""fullscreenenter"",""1"",""4449""
","
","
","""event"",""trial"",""time""
""fullscreenenter"",""1"",""4449""
","
","","null","","null","","fixation","2021-06-05 14:14:24.854","","","","","",""
"card-selection-trial","157","529515","0.0-25.0-1.43","211","true","img/card_backs/set1/yellow.gif","img/card_backs/set1/green.gif","img/card_backs/set1/red.gif","img/card_backs/set1/purple.gif","img/card_backs/set2/blue.gif","img/card_backs/set2/orange.gif","img/card_backs/set2/gray.gif","img/card_backs/set2/pink.gif","""event"",""trial"",""time""
""fullscreenenter"",""1"",""4449""
","
","
","""event"",""trial"",""time""
""fullscreenenter"",""1"",""4449""
","
","","2376.5549999998184","","","","real_trial","2021-06-05 14:14:29.237","img/card_backs/set1/yellow.gif","0","260","1","",""
"casino-fixation","158","530020","0.0-25.0-0.44","211","true","img/card_backs/set1/yellow.gif","img/card_backs/set1/green.gif","img/card_backs/set1/red.gif","img/card_backs/set1/purple.gif","img/card_backs/set2/blue.gif","img/card_backs/set2/orange.gif","img/card_backs/set2/gray.gif","img/card_backs/set2/pink.gif","""event"",""trial"",""time""
""fullscreenenter"",""1"",""4449""
","
","
","""event"",""trial"",""time""
""fullscreenenter"",""1"",""4449""
","
","","null","","null","","fixation","2021-06-05 14:14:29.741","","","","","",""
"card-selection-trial","159","533742","0.0-25.0-1.44","211","true","img/card_backs/set1/yellow.gif","img/card_backs/set1/green.gif","img/card_backs/set1/red.gif","img/card_backs/set1/purple.gif","img/card_backs/set2/blue.gif","img/card_backs/set2/orange.gif","img/card_backs/set2/gray.gif","img/card_backs/set2/pink.gif","""event"",""trial"",""time""
""fullscreenenter"",""1"",""4449""
","
","
","""event"",""trial"",""time""
""fullscreenenter"",""1"",""4449""
","
","","1712.6700000003912","","","","real_trial","2021-06-05 14:14:33.463","img/card_backs/set1/purple.gif","0","-110","1","",""
"casino-fixation","160","534246","0.0-25.0-0.45","211","true","img/card_backs/set1/yellow.gif","img/card_backs/set1/green.gif","img/card_backs/set1/red.gif","img/card_backs/set1/purple.gif","img/card_backs/set2/blue.gif","img/card_backs/set2/orange.gif","img/card_backs/set2/gray.gif","img/card_backs/set2/pink.gif","""event"",""trial"",""time""
""fullscreenenter"",""1"",""4449""
","
","
","""event"",""trial"",""time""
""fullscreenenter"",""1"",""4449""
","
","","null","","null","","fixation","2021-06-05 14:14:33.968","","","","","",""
"card-selection-trial","161","537160","0.0-25.0-1.45","211","true","img/card_backs/set1/yellow.gif","img/card_backs/set1/green.gif","img/card_backs/set1/red.gif","img/card_backs/set1/purple.gif","img/card_backs/set2/blue.gif","img/card_backs/set2/orange.gif","img/card_backs/set2/gray.gif","img/card_backs/set2/pink.gif","""event"",""trial"",""time""
""fullscreenenter"",""1"",""4449""
","
","
","""event"",""trial"",""time""
""fullscreenenter"",""1"",""4449""
","
","","904.5949999999721","","","","real_trial","2021-06-05 14:14:36.881","img/card_backs/set1/yellow.gif","0","250","1","",""
"casino-fixation","162","537666","0.0-25.0-0.46","211","true","img/card_backs/set1/yellow.gif","img/card_backs/set1/green.gif","img/card_backs/set1/red.gif","img/card_backs/set1/purple.gif","img/card_backs/set2/blue.gif","img/card_backs/set2/orange.gif","img/card_backs/set2/gray.gif","img/card_backs/set2/pink.gif","""event"",""trial"",""time""
""fullscreenenter"",""1"",""4449""
","
","
","""event"",""trial"",""time""
""fullscreenenter"",""1"",""4449""
","
","","null","","null","","fixation","2021-06-05 14:14:37.387","","","","","",""
"card-selection-trial","163","541184","0.0-25.0-1.46","211","true","img/card_backs/set1/yellow.gif","img/card_backs/set1/green.gif","img/card_backs/set1/red.gif","img/card_backs/set1/purple.gif","img/card_backs/set2/blue.gif","img/card_backs/set2/orange.gif","img/card_backs/set2/gray.gif","img/card_backs/set2/pink.gif","""event"",""trial"",""time""
""fullscreenenter"",""1"",""4449""
","
","
","""event"",""trial"",""time""
""fullscreenenter"",""1"",""4449""
","
","","1507.3499999998603","","","","real_trial","2021-06-05 14:14:40.905","img/card_backs/set1/green.gif","3","-190","1","",""
"casino-fixation","164","541688","0.0-25.0-0.47","211","true","img/card_backs/set1/yellow.gif","img/card_backs/set1/green.gif","img/card_backs/set1/red.gif","img/card_backs/set1/purple.gif","img/card_backs/set2/blue.gif","img/card_backs/set2/orange.gif","img/card_backs/set2/gray.gif","img/card_backs/set2/pink.gif","""event"",""trial"",""time""
""fullscreenenter"",""1"",""4449""
","
","
","""event"",""trial"",""time""
""fullscreenenter"",""1"",""4449""
","
","","null","","null","","fixation","2021-06-05 14:14:41.410","","","","","",""
"card-selection-trial","165","544905","0.0-25.0-1.47","211","true","img/card_backs/set1/yellow.gif","img/card_backs/set1/green.gif","img/card_backs/set1/red.gif","img/card_backs/set1/purple.gif","img/card_backs/set2/blue.gif","img/card_backs/set2/orange.gif","img/card_backs/set2/gray.gif","img/card_backs/set2/pink.gif","""event"",""trial"",""time""
""fullscreenenter"",""1"",""4449""
","
","
","""event"",""trial"",""time""
""fullscreenenter"",""1"",""4449""
","
","","1207.5550000000512","","","","real_trial","2021-06-05 14:14:44.626","img/card_backs/set1/yellow.gif","2","250","1","",""
"casino-fixation","166","545410","0.0-25.0-0.48","211","true","img/card_backs/set1/yellow.gif","img/card_backs/set1/green.gif","img/card_backs/set1/red.gif","img/card_backs/set1/purple.gif","img/card_backs/set2/blue.gif","img/card_backs/set2/orange.gif","img/card_backs/set2/gray.gif","img/card_backs/set2/pink.gif","""event"",""trial"",""time""
""fullscreenenter"",""1"",""4449""
","
","
","""event"",""trial"",""time""
""fullscreenenter"",""1"",""4449""
","
","","null","","null","","fixation","2021-06-05 14:14:45.131","","","","","",""
"card-selection-trial","167","548218","0.0-25.0-1.48","211","true","img/card_backs/set1/yellow.gif","img/card_backs/set1/green.gif","img/card_backs/set1/red.gif","img/card_backs/set1/purple.gif","img/card_backs/set2/blue.gif","img/card_backs/set2/orange.gif","img/card_backs/set2/gray.gif","img/card_backs/set2/pink.gif","""event"",""trial"",""time""
""fullscreenenter"",""1"",""4449""
","
","
","""event"",""trial"",""time""
""fullscreenenter"",""1"",""4449""
","
