"trial_type","trial_index","time_elapsed","internal_node_id","sub_id","risk_good_first","block1_A","block1_B","block1_C","block1_D","block2_A","block2_B","block2_C","block2_D","interactions","blur_events","focus_events","fullscreenenter_events","fullscreenexit_events","success","rt","stimulus","key_press","button_pressed","task_part","timestamp","card_choice","choice_position","points_earned","block","correct","response"
"pavlovia","0","2","0.0-0.0","A111","false","img/card_backs/set1/red.gif","img/card_backs/set1/yellow.gif","img/card_backs/set1/purple.gif","img/card_backs/set1/green.gif","img/card_backs/set2/gray.gif","img/card_backs/set2/orange.gif","img/card_backs/set2/blue.gif","img/card_backs/set2/pink.gif","""event"",""trial"",""time""
""fullscreenenter"",""1"",""3286""
","
","
","""event"",""trial"",""time""
""fullscreenenter"",""1"",""3286""
","
","","","","","","","","","","","","",""
"fullscreen","1","4259","0.0-1.0","A111","false","img/card_backs/set1/red.gif","img/card_backs/set1/yellow.gif","img/card_backs/set1/purple.gif","img/card_backs/set1/green.gif","img/card_backs/set2/gray.gif","img/card_backs/set2/orange.gif","img/card_backs/set2/blue.gif","img/card_backs/set2/pink.gif","""event"",""trial"",""time""
""fullscreenenter"",""1"",""3286""
","
","
","""event"",""trial"",""time""
""fullscreenenter"",""1"",""3286""
","
","true","","","","","","","","","","","",""
"audio-keyboard-response","2","7908","0.0-2.0","A111","false","img/card_backs/set1/red.gif","img/card_backs/set1/yellow.gif","img/card_backs/set1/purple.gif","img/card_backs/set1/green.gif","img/card_backs/set2/gray.gif","img/card_backs/set2/orange.gif","img/card_backs/set2/blue.gif","img/card_backs/set2/pink.gif","""event"",""trial"",""time""
""fullscreenenter"",""1"",""3286""
","
","
","""event"",""trial"",""time""
""fullscreenenter"",""1"",""3286""
","
","","3640","audio/beep_loop.wav","32","","","","","","","","",""
"audio-button-response","3","10022","0.0-3.0","A111","false","img/card_backs/set1/red.gif","img/card_backs/set1/yellow.gif","img/card_backs/set1/purple.gif","img/card_backs/set1/green.gif","img/card_backs/set2/gray.gif","img/card_backs/set2/orange.gif","img/card_backs/set2/blue.gif","img/card_backs/set2/pink.gif","""event"",""trial"",""time""
""fullscreenenter"",""1"",""3286""
","
","
","""event"",""trial"",""time""
""fullscreenenter"",""1"",""3286""
","
","","NaN","audio/turtle.mp3","","3","","","","","","","",""
"audio-button-response","4","12098","0.0-4.0","A111","false","img/card_backs/set1/red.gif","img/card_backs/set1/yellow.gif","img/card_backs/set1/purple.gif","img/card_backs/set1/green.gif","img/card_backs/set2/gray.gif","img/card_backs/set2/orange.gif","img/card_backs/set2/blue.gif","img/card_backs/set2/pink.gif","""event"",""trial"",""time""
""fullscreenenter"",""1"",""3286""
","
","
","""event"",""trial"",""time""
""fullscreenenter"",""1"",""3286""
","
","","NaN","audio/shark.mp3","","2","","","","","","","",""
"fullscreen","5","15193","0.0-5.0","A111","false","img/card_backs/set1/red.gif","img/card_backs/set1/yellow.gif","img/card_backs/set1/purple.gif","img/card_backs/set1/green.gif","img/card_backs/set2/gray.gif","img/card_backs/set2/orange.gif","img/card_backs/set2/blue.gif","img/card_backs/set2/pink.gif","""event"",""trial"",""time""
""fullscreenenter"",""1"",""3286""
","
","
","""event"",""trial"",""time""
""fullscreenenter"",""1"",""3286""
","
","true","","","","","","","","","","","",""
"casino-keyboard-response","6","19141","0.0-6.0-0.0","A111","false","img/card_backs/set1/red.gif","img/card_backs/set1/yellow.gif","img/card_backs/set1/purple.gif","img/card_backs/set1/green.gif","img/card_backs/set2/gray.gif","img/card_backs/set2/orange.gif","img/card_backs/set2/blue.gif","img/card_backs/set2/pink.gif","""event"",""trial"",""time""
""fullscreenenter"",""1"",""3286""
","
","
","""event"",""trial"",""time""
""fullscreenenter"",""1"",""3286""
","
","","3942.449999973178","Welcome to the casino!","71","","instructions","2021-04-02 18:19:14.716","","","","","",""
"casino-keyboard-response","7","30308","0.0-6.0-0.1","A111","false","img/card_backs/set1/red.gif","img/card_backs/set1/yellow.gif","img/card_backs/set1/purple.gif","img/card_backs/set1/green.gif","img/card_backs/set2/gray.gif","img/card_backs/set2/orange.gif","img/card_backs/set2/blue.gif","img/card_backs/set2/pink.gif","""event"",""trial"",""time""
""fullscreenenter"",""1"",""3286""
","
","
","""event"",""trial"",""time""
""fullscreenenter"",""1"",""3286""
","
","","11163.984999991953","Today you will be playing a game to earn tokens. </br> At the end of the experiment, you will be paid a bonus based on how many tokens you win. ","69","","instructions","2021-04-02 18:19:25.882","","","","","",""
"casino-keyboard-response","8","46726","0.0-6.0-0.2","A111","false","img/card_backs/set1/red.gif","img/card_backs/set1/yellow.gif","img/card_backs/set1/purple.gif","img/card_backs/set1/green.gif","img/card_backs/set2/gray.gif","img/card_backs/set2/orange.gif","img/card_backs/set2/blue.gif","img/card_backs/set2/pink.gif","""event"",""trial"",""time""
""fullscreenenter"",""1"",""3286""
","
","
","""event"",""trial"",""time""
""fullscreenenter"",""1"",""3286""
","
","","16415.41000001598","On every turn, you will be shown four different decks of cards. </br> You need to select a card from one of the four decks.  ","75","","instructions","2021-04-02 18:19:42.300","","","","","",""
"casino-keyboard-response","9","53317","0.0-6.0-0.3","A111","false","img/card_backs/set1/red.gif","img/card_backs/set1/yellow.gif","img/card_backs/set1/purple.gif","img/card_backs/set1/green.gif","img/card_backs/set2/gray.gif","img/card_backs/set2/orange.gif","img/card_backs/set2/blue.gif","img/card_backs/set2/pink.gif","""event"",""trial"",""time""
""fullscreenenter"",""1"",""3286""
","
","
","""event"",""trial"",""time""
""fullscreenenter"",""1"",""3286""
","
","","6588.289999985136","On the next screen, you will see what the decks will look like. ","66","","instructions","2021-04-02 18:19:48.891","","","","","",""
"card-selection-trial","10","57348","0.0-7.0-0.0","A111","false","img/card_backs/set1/red.gif","img/card_backs/set1/yellow.gif","img/card_backs/set1/purple.gif","img/card_backs/set1/green.gif","img/card_backs/set2/gray.gif","img/card_backs/set2/orange.gif","img/card_backs/set2/blue.gif","img/card_backs/set2/pink.gif","""event"",""trial"",""time""
""fullscreenenter"",""1"",""3286""
","
","
","""event"",""trial"",""time""
""fullscreenenter"",""1"",""3286""
","
","","null","","","","practice","2021-04-02 18:19:52.923","null","null","null","0","",""
"casino-keyboard-response","11","66368","0.0-8.0-0.0","A111","false","img/card_backs/set1/red.gif","img/card_backs/set1/yellow.gif","img/card_backs/set1/purple.gif","img/card_backs/set1/green.gif","img/card_backs/set2/gray.gif","img/card_backs/set2/orange.gif","img/card_backs/set2/blue.gif","img/card_backs/set2/pink.gif","""event"",""trial"",""time""
""fullscreenenter"",""1"",""3286""
","
","
","""event"",""trial"",""time""
""fullscreenenter"",""1"",""3286""
","
","","9017.720000003465","You should pick a card from a deck using the '2', '4', '6', and '8' keys at the top of the keyboard.","85","","instructions","2021-04-02 18:20:01.942","","","","","",""
"casino-keyboard-response","12","79579","0.0-8.0-0.1","A111","false","img/card_backs/set1/red.gif","img/card_backs/set1/yellow.gif","img/card_backs/set1/purple.gif","img/card_backs/set1/green.gif","img/card_backs/set2/gray.gif","img/card_backs/set2/orange.gif","img/card_backs/set2/blue.gif","img/card_backs/set2/pink.gif","""event"",""trial"",""time""
""fullscreenenter"",""1"",""3286""
","
","
","""event"",""trial"",""time""
""fullscreenenter"",""1"",""3286""
","
","","13209.990000003017","Once you select a card, it will turn over and you will see how many tokens you earned.","83","","instructions","2021-04-02 18:20:15.153","","","","","",""
"casino-keyboard-response","13","101930","0.0-8.0-0.2","A111","false","img/card_backs/set1/red.gif","img/card_backs/set1/yellow.gif","img/card_backs/set1/purple.gif","img/card_backs/set1/green.gif","img/card_backs/set2/gray.gif","img/card_backs/set2/orange.gif","img/card_backs/set2/blue.gif","img/card_backs/set2/pink.gif","""event"",""trial"",""time""
""fullscreenenter"",""1"",""3286""
","
","
","""event"",""trial"",""time""
""fullscreenenter"",""1"",""3286""
","
","","22349.629999953322","Let's try practicing that! </br> First, try to put your fingers over the '2', '4', '6', and '8' keys. </br>  You can use whatever fingers are most comfortable for you. Try to find a comfortable position now. ","50","","instructions","2021-04-02 18:20:37.504","","","","","",""
"casino-keyboard-response","14","109939","0.0-8.0-0.3","A111","false","img/card_backs/set1/red.gif","img/card_backs/set1/yellow.gif","img/card_backs/set1/purple.gif","img/card_backs/set1/green.gif","img/card_backs/set2/gray.gif","img/card_backs/set2/orange.gif","img/card_backs/set2/blue.gif","img/card_backs/set2/pink.gif","""event"",""trial"",""time""
""fullscreenenter"",""1"",""3286""
","
","
","""event"",""trial"",""time""
""fullscreenenter"",""1"",""3286""
","
","","8007.530000002589","Okay ready? </br> On the next screen, press '2' to select the left deck. ","50","","instructions","2021-04-02 18:20:45.513","","","","","",""
"card-selection-trial","15","116342","0.0-9.0-0.0","A111","false","img/card_backs/set1/red.gif","img/card_backs/set1/yellow.gif","img/card_backs/set1/purple.gif","img/card_backs/set1/green.gif","img/card_backs/set2/gray.gif","img/card_backs/set2/orange.gif","img/card_backs/set2/blue.gif","img/card_backs/set2/pink.gif","""event"",""trial"",""time""
""fullscreenenter"",""1"",""3286""
","
","
","""event"",""trial"",""time""
""fullscreenenter"",""1"",""3286""
","
","","4362.200000032317","","","","practice_card_selection","2021-04-02 18:20:51.917","img/practice_cards/backs/dark_blue.gif","0","200","","",""
"casino-keyboard-response","16","122898","0.0-10.0-0.0","A111","false","img/card_backs/set1/red.gif","img/card_backs/set1/yellow.gif","img/card_backs/set1/purple.gif","img/card_backs/set1/green.gif","img/card_backs/set2/gray.gif","img/card_backs/set2/orange.gif","img/card_backs/set2/blue.gif","img/card_backs/set2/pink.gif","""event"",""trial"",""time""
""fullscreenenter"",""1"",""3286""
","
","
","""event"",""trial"",""time""
""fullscreenenter"",""1"",""3286""
","
","","6554.3849999667145","Great! Now on the next screen, try pressing '6' to select the third deck.","54","","instructions","2021-04-02 18:20:58.472","","","","","",""
"card-selection-trial","17","125536","0.0-11.0-0.0","A111","false","img/card_backs/set1/red.gif","img/card_backs/set1/yellow.gif","img/card_backs/set1/purple.gif","img/card_backs/set1/green.gif","img/card_backs/set2/gray.gif","img/card_backs/set2/orange.gif","img/card_backs/set2/blue.gif","img/card_backs/set2/pink.gif","""event"",""trial"",""time""
""fullscreenenter"",""1"",""3286""
","
","
","""event"",""trial"",""time""
""fullscreenenter"",""1"",""3286""
","
","","621.4100000215694","","","","practice_card_selection","2021-04-02 18:21:01.110","img/practice_cards/backs/black.gif","2","-100","","",""
"casino-keyboard-response","18","130309","0.0-12.0-0.0","A111","false","img/card_backs/set1/red.gif","img/card_backs/set1/yellow.gif","img/card_backs/set1/purple.gif","img/card_backs/set1/green.gif","img/card_backs/set2/gray.gif","img/card_backs/set2/orange.gif","img/card_backs/set2/blue.gif","img/card_backs/set2/pink.gif","""event"",""trial"",""time""
""fullscreenenter"",""1"",""3286""
","
","
","""event"",""trial"",""time""
""fullscreenenter"",""1"",""3286""
","
","","4770.649999962188","Now on the next screen, try pressing '4' to select the second deck.","52","","instructions","2021-04-02 18:21:05.883","","","","","",""
"card-selection-trial","19","133666","0.0-13.0-0.0","A111","false","img/card_backs/set1/red.gif","img/card_backs/set1/yellow.gif","img/card_backs/set1/purple.gif","img/card_backs/set1/green.gif","img/card_backs/set2/gray.gif","img/card_backs/set2/orange.gif","img/card_backs/set2/blue.gif","img/card_backs/set2/pink.gif","""event"",""trial"",""time""
""fullscreenenter"",""1"",""3286""
","
","
","""event"",""trial"",""time""
""fullscreenenter"",""1"",""3286""
","
","","1350.3649999620393","","","","practice_card_selection","2021-04-02 18:21:09.240","img/practice_cards/backs/black.gif","1","100","","",""
"casino-keyboard-response","20","138913","0.0-14.0-0.0","A111","false","img/card_backs/set1/red.gif","img/card_backs/set1/yellow.gif","img/card_backs/set1/purple.gif","img/card_backs/set1/green.gif","img/card_backs/set2/gray.gif","img/card_backs/set2/orange.gif","img/card_backs/set2/blue.gif","img/card_backs/set2/pink.gif","""event"",""trial"",""time""
""fullscreenenter"",""1"",""3286""
","
","
","""event"",""trial"",""time""
""fullscreenenter"",""1"",""3286""
","
","","5245.074999984354","Finally, try pressing '8' to select the deck all the way on the right.","56","","instructions","2021-04-02 18:21:14.487","","","","","",""
"card-selection-trial","21","141842","0.0-15.0-0.0","A111","false","img/card_backs/set1/red.gif","img/card_backs/set1/yellow.gif","img/card_backs/set1/purple.gif","img/card_backs/set1/green.gif","img/card_backs/set2/gray.gif","img/card_backs/set2/orange.gif","img/card_backs/set2/blue.gif","img/card_backs/set2/pink.gif","""event"",""trial"",""time""
""fullscreenenter"",""1"",""3286""
","
","
","""event"",""trial"",""time""
""fullscreenenter"",""1"",""3286""
","
","","912.2150000184774","","","","practice_card_selection","2021-04-02 18:21:17.416","img/practice_cards/backs/black.gif","3","100","","",""
"casino-keyboard-response","22","145282","0.0-16.0-0.0","A111","false","img/card_backs/set1/red.gif","img/card_backs/set1/yellow.gif","img/card_backs/set1/purple.gif","img/card_backs/set1/green.gif","img/card_backs/set2/gray.gif","img/card_backs/set2/orange.gif","img/card_backs/set2/blue.gif","img/card_backs/set2/pink.gif","""event"",""trial"",""time""
""fullscreenenter"",""1"",""3286""
","
","
","""event"",""trial"",""time""
""fullscreenenter"",""1"",""3286""
","
","","3437.964999990072","Great! It seems like you are getting the hang of this.","80","","instructions","2021-04-02 18:21:20.856","","","","","",""
"casino-keyboard-response","23","152434","0.0-16.0-0.1","A111","false","img/card_backs/set1/red.gif","img/card_backs/set1/yellow.gif","img/card_backs/set1/purple.gif","img/card_backs/set1/green.gif","img/card_backs/set2/gray.gif","img/card_backs/set2/orange.gif","img/card_backs/set2/blue.gif","img/card_backs/set2/pink.gif","""event"",""trial"",""time""
""fullscreenenter"",""1"",""3286""
","
","
","""event"",""trial"",""time""
""fullscreenenter"",""1"",""3286""
","
","","7148.965000000317","You may have noticed that some cards will cause you to <b> win </b> tokens while other cards will cause you to <b> lose </b>  tokens.","70","","instructions","2021-04-02 18:21:28.008","","","","","",""
"casino-keyboard-response","24","160764","0.0-16.0-0.2","A111","false","img/card_backs/set1/red.gif","img/card_backs/set1/yellow.gif","img/card_backs/set1/purple.gif","img/card_backs/set1/green.gif","img/card_backs/set2/gray.gif","img/card_backs/set2/orange.gif","img/card_backs/set2/blue.gif","img/card_backs/set2/pink.gif","""event"",""trial"",""time""
""fullscreenenter"",""1"",""3286""
","
","
","""event"",""trial"",""time""
""fullscreenenter"",""1"",""3286""
","
","","8327.945000026375","Each deck has a mix of cards that will cause you to win and lose tokens. </br> However, the cards in each colored deck are different.","73","","instructions","2021-04-02 18:21:36.339","","","","","",""
"casino-keyboard-response","25","169157","0.0-16.0-0.3","A111","false","img/card_backs/set1/red.gif","img/card_backs/set1/yellow.gif","img/card_backs/set1/purple.gif","img/card_backs/set1/green.gif","img/card_backs/set2/gray.gif","img/card_backs/set2/orange.gif","img/card_backs/set2/blue.gif","img/card_backs/set2/pink.gif","""event"",""trial"",""time""
""fullscreenenter"",""1"",""3286""
","
","
","""event"",""trial"",""time""
""fullscreenenter"",""1"",""3286""
","
","","8389.395000005607","Some colored decks are luckier than others. </br> If you choose the lucky decks, you will earn more tokens than if you choose the unlucky decks.","69","","instructions","2021-04-02 18:21:44.731","","","","","",""
"casino-keyboard-response","26","176118","0.0-16.0-0.4","A111","false","img/card_backs/set1/red.gif","img/card_backs/set1/yellow.gif","img/card_backs/set1/purple.gif","img/card_backs/set1/green.gif","img/card_backs/set2/gray.gif","img/card_backs/set2/orange.gif","img/card_backs/set2/blue.gif","img/card_backs/set2/pink.gif","""event"",""trial"",""time""
""fullscreenenter"",""1"",""3286""
","
","
","""event"",""trial"",""time""
""fullscreenenter"",""1"",""3286""
","
","","6958.225000009406","You should try to figure out which decks are lucky. </br> Then, try to choose the lucky decks so you can win the most tokens.","87","","instructions","2021-04-02 18:21:51.692","","","","","",""
"casino-keyboard-response","27","195741","0.0-16.0-0.5","A111","false","img/card_backs/set1/red.gif","img/card_backs/set1/yellow.gif","img/card_backs/set1/purple.gif","img/card_backs/set1/green.gif","img/card_backs/set2/gray.gif","img/card_backs/set2/orange.gif","img/card_backs/set2/blue.gif","img/card_backs/set2/pink.gif","""event"",""trial"",""time""
""fullscreenenter"",""1"",""3286""
","
","
","""event"",""trial"",""time""
""fullscreenenter"",""1"",""3286""
","
","","19621.204999973997","To make it trickier, the casino dealer will switch the locations of the decks on every turn. </br> The color of the deck determines how lucky it is. The location does not matter.","88","","instructions","2021-04-02 18:22:11.315","","","","","",""
"casino-keyboard-response","28","205021","0.0-16.0-0.6","A111","false","img/card_backs/set1/red.gif","img/card_backs/set1/yellow.gif","img/card_backs/set1/purple.gif","img/card_backs/set1/green.gif","img/card_backs/set2/gray.gif","img/card_backs/set2/orange.gif","img/card_backs/set2/blue.gif","img/card_backs/set2/pink.gif","""event"",""trial"",""time""
""fullscreenenter"",""1"",""3286""
","
","
","""event"",""trial"",""time""
""fullscreenenter"",""1"",""3286""
","
","","9278.950000007171","The mix of cards in each colored deck will stay the same throughout the game. </br> That means that a deck that is lucky early on will stay lucky.","79","","instructions","2021-04-02 18:22:20.595","","","","","",""
"casino-keyboard-response","29","213164","0.0-16.0-0.7","A111","false","img/card_backs/set1/red.gif","img/card_backs/set1/yellow.gif","img/card_backs/set1/purple.gif","img/card_backs/set1/green.gif","img/card_backs/set2/gray.gif","img/card_backs/set2/orange.gif","img/card_backs/set2/blue.gif","img/card_backs/set2/pink.gif","""event"",""trial"",""time""
""fullscreenenter"",""1"",""3286""
","
","
","""event"",""trial"",""time""
""fullscreenenter"",""1"",""3286""
","
","","8140.499999979511","Remember though, all the decks have a <b> mix </b> of both <b> good </b> and <b> bad </b> cards so it may take a couple of turns to figure out if a deck is lucky.","69","","instructions","2021-04-02 18:22:28.739","","","","","",""
"casino-keyboard-response","30","221374","0.0-16.0-0.8","A111","false","img/card_backs/set1/red.gif","img/card_backs/set1/yellow.gif","img/card_backs/set1/purple.gif","img/card_backs/set1/green.gif","img/card_backs/set2/gray.gif","img/card_backs/set2/orange.gif","img/card_backs/set2/blue.gif","img/card_backs/set2/pink.gif","""event"",""trial"",""time""
""fullscreenenter"",""1"",""3286""
","
","
","""event"",""trial"",""time""
""fullscreenenter"",""1"",""3286""
","
","","8206.370000028983","At the end of the game, you will be paid bonus money based on how many tokens you win. </br> If you win more tokens, you will earn more money!","72","","instructions","2021-04-02 18:22:36.948","","","","","",""
"casino-keyboard-response","31","231500","0.0-16.0-0.9","A111","false","img/card_backs/set1/red.gif","img/card_backs/set1/yellow.gif","img/card_backs/set1/purple.gif","img/card_backs/set1/green.gif","img/card_backs/set2/gray.gif","img/card_backs/set2/orange.gif","img/card_backs/set2/blue.gif","img/card_backs/set2/pink.gif","""event"",""trial"",""time""
""fullscreenenter"",""1"",""3286""
","
","
","""event"",""trial"",""time""
""fullscreenenter"",""1"",""3286""
","
","","10123.454999993555","You will never <b> lose </b> money. </br> If you end up with fewer than 0 tokens, you will earn $0 of bonus money, but you will still be paid for playing the game.","83","","instructions","2021-04-02 18:22:47.074","","","","","",""
"casino-keyboard-response","32","235495","0.0-16.0-0.10","A111","false","img/card_backs/set1/red.gif","img/card_backs/set1/yellow.gif","img/card_backs/set1/purple.gif","img/card_backs/set1/green.gif","img/card_backs/set2/gray.gif","img/card_backs/set2/orange.gif","img/card_backs/set2/blue.gif","img/card_backs/set2/pink.gif","""event"",""trial"",""time""
""fullscreenenter"",""1"",""3286""
","
","
","""event"",""trial"",""time""
""fullscreenenter"",""1"",""3286""
","
","","3989.594999991823","You will have 10 seconds to make each choice.","82","","instructions","2021-04-02 18:22:51.069","","","","","",""
"casino-keyboard-response","33","246079","0.0-16.0-0.11","A111","false","img/card_backs/set1/red.gif","img/card_backs/set1/yellow.gif","img/card_backs/set1/purple.gif","img/card_backs/set1/green.gif","img/card_backs/set2/gray.gif","img/card_backs/set2/orange.gif","img/card_backs/set2/blue.gif","img/card_backs/set2/pink.gif","""event"",""trial"",""time""
""fullscreenenter"",""1"",""3286""
","
","
","""event"",""trial"",""time""
""fullscreenenter"",""1"",""3286""
","
","","10583.545000001322","Before you play the game for real, you will play with practice decks. </br> The tokens you earn during practice won't count toward your total.","86","","instructions","2021-04-02 18:23:01.653","","","","","",""
"casino-keyboard-response","34","257687","0.0-16.0-0.12","A111","false","img/card_backs/set1/red.gif","img/card_backs/set1/yellow.gif","img/card_backs/set1/purple.gif","img/card_backs/set1/green.gif","img/card_backs/set2/gray.gif","img/card_backs/set2/orange.gif","img/card_backs/set2/blue.gif","img/card_backs/set2/pink.gif","""event"",""trial"",""time""
""fullscreenenter"",""1"",""3286""
","
","
","""event"",""trial"",""time""
""fullscreenenter"",""1"",""3286""
","
","","11605.979999992996","Ready? Remember, use the '2', '4', '6', and '8' keys to select the decks. </br> Put your fingers on those keys now and then press '2' to begin.","50","","instructions","2021-04-02 18:23:13.261","","","","","",""
"casino-fixation","35","258191","0.0-17.0-0.0","A111","false","img/card_backs/set1/red.gif","img/card_backs/set1/yellow.gif","img/card_backs/set1/purple.gif","img/card_backs/set1/green.gif","img/card_backs/set2/gray.gif","img/card_backs/set2/orange.gif","img/card_backs/set2/blue.gif","img/card_backs/set2/pink.gif","""event"",""trial"",""time""
""fullscreenenter"",""1"",""3286""
","
","
","""event"",""trial"",""time""
""fullscreenenter"",""1"",""3286""
","
","","null","","null","","fixation","2021-04-02 18:23:13.765","","","","","",""
"card-selection-trial","36","262378","0.0-17.0-1.0","A111","false","img/card_backs/set1/red.gif","img/card_backs/set1/yellow.gif","img/card_backs/set1/purple.gif","img/card_backs/set1/green.gif","img/card_backs/set2/gray.gif","img/card_backs/set2/orange.gif","img/card_backs/set2/blue.gif","img/card_backs/set2/pink.gif","""event"",""trial"",""time""
""fullscreenenter"",""1"",""3286""
","
","
","""event"",""trial"",""time""
""fullscreenenter"",""1"",""3286""
","
","","2167.8049999754876","","","","practice","2021-04-02 18:23:17.952","img/practice_cards/backs/black.gif","1","100","0","",""
"casino-fixation","37","262894","0.0-17.0-0.1","A111","false","img/card_backs/set1/red.gif","img/card_backs/set1/yellow.gif","img/card_backs/set1/purple.gif","img/card_backs/set1/green.gif","img/card_backs/set2/gray.gif","img/card_backs/set2/orange.gif","img/card_backs/set2/blue.gif","img/card_backs/set2/pink.gif","""event"",""trial"",""time""
""fullscreenenter"",""1"",""3286""
","
","
","""event"",""trial"",""time""
""fullscreenenter"",""1"",""3286""
","
","","null","","null","","fixation","2021-04-02 18:23:18.468","","","","","",""
"card-selection-trial","38","266834","0.0-17.0-1.1","A111","false","img/card_backs/set1/red.gif","img/card_backs/set1/yellow.gif","img/card_backs/set1/purple.gif","img/card_backs/set1/green.gif","img/card_backs/set2/gray.gif","img/card_backs/set2/orange.gif","img/card_backs/set2/blue.gif","img/card_backs/set2/pink.gif","""event"",""trial"",""time""
""fullscreenenter"",""1"",""3286""
","
","
","""event"",""trial"",""time""
""fullscreenenter"",""1"",""3286""
","
","","1925.5000000121072","","","","practice","2021-04-02 18:23:22.408","img/practice_cards/backs/black.gif","2","100","0","",""
"casino-fixation","39","267350","0.0-17.0-0.2","A111","false","img/card_backs/set1/red.gif","img/card_backs/set1/yellow.gif","img/card_backs/set1/purple.gif","img/card_backs/set1/green.gif","img/card_backs/set2/gray.gif","img/card_backs/set2/orange.gif","img/card_backs/set2/blue.gif","img/card_backs/set2/pink.gif","""event"",""trial"",""time""
""fullscreenenter"",""1"",""3286""
","
","
","""event"",""trial"",""time""
""fullscreenenter"",""1"",""3286""
","
","","null","","null","","fixation","2021-04-02 18:23:22.924","","","","","",""
"card-selection-trial","40","271156","0.0-17.0-1.2","A111","false","img/card_backs/set1/red.gif","img/card_backs/set1/yellow.gif","img/card_backs/set1/purple.gif","img/card_backs/set1/green.gif","img/card_backs/set2/gray.gif","img/card_backs/set2/orange.gif","img/card_backs/set2/blue.gif","img/card_backs/set2/pink.gif","""event"",""trial"",""time""
""fullscreenenter"",""1"",""3286""
","
","
","""event"",""trial"",""time""
""fullscreenenter"",""1"",""3286""
","
","","1798.334999999497","","","","practice","2021-04-02 18:23:26.730","img/practice_cards/backs/dark_green.gif","0","-200","0","",""
"casino-fixation","41","271666","0.0-17.0-0.3","A111","false","img/card_backs/set1/red.gif","img/card_backs/set1/yellow.gif","img/card_backs/set1/purple.gif","img/card_backs/set1/green.gif","img/card_backs/set2/gray.gif","img/card_backs/set2/orange.gif","img/card_backs/set2/blue.gif","img/card_backs/set2/pink.gif","""event"",""trial"",""time""
""fullscreenenter"",""1"",""3286""
","
","
","""event"",""trial"",""time""
""fullscreenenter"",""1"",""3286""
","
","","null","","null","","fixation","2021-04-02 18:23:27.240","","","","","",""
"card-selection-trial","42","274720","0.0-17.0-1.3","A111","false","img/card_backs/set1/red.gif","img/card_backs/set1/yellow.gif","img/card_backs/set1/purple.gif","img/card_backs/set1/green.gif","img/card_backs/set2/gray.gif","img/card_backs/set2/orange.gif","img/card_backs/set2/blue.gif","img/card_backs/set2/pink.gif","""event"",""trial"",""time""
""fullscreenenter"",""1"",""3286""
","
","
","""event"",""trial"",""time""
""fullscreenenter"",""1"",""3286""
","
","","1037.3949999921024","","","","practice","2021-04-02 18:23:30.294","img/practice_cards/backs/dark_blue.gif","1","200","0","",""
"casino-fixation","43","275232","0.0-17.0-0.4","A111","false","img/card_backs/set1/red.gif","img/card_backs/set1/yellow.gif","img/card_backs/set1/purple.gif","img/card_backs/set1/green.gif","img/card_backs/set2/gray.gif","img/card_backs/set2/orange.gif","img/card_backs/set2/blue.gif","img/card_backs/set2/pink.gif","""event"",""trial"",""time""
""fullscreenenter"",""1"",""3286""
","
","
","""event"",""trial"",""time""
""fullscreenenter"",""1"",""3286""
","
","","null","","null","","fixation","2021-04-02 18:23:30.806","","","","","",""
"card-selection-trial","44","279441","0.0-17.0-1.4","A111","false","img/card_backs/set1/red.gif","img/card_backs/set1/yellow.gif","img/card_backs/set1/purple.gif","img/card_backs/set1/green.gif","img/card_backs/set2/gray.gif","img/card_backs/set2/orange.gif","img/card_backs/set2/blue.gif","img/card_backs/set2/pink.gif","""event"",""trial"",""time""
""fullscreenenter"",""1"",""3286""
","
","
","""event"",""trial"",""time""
""fullscreenenter"",""1"",""3286""
","
","","2193.4149999869987","","","","practice","2021-04-02 18:23:35.015","img/practice_cards/backs/brown.gif","3","-100","0","",""
"casino-fixation","45","279953","0.0-17.0-0.5","A111","false","img/card_backs/set1/red.gif","img/card_backs/set1/yellow.gif","img/card_backs/set1/purple.gif","img/card_backs/set1/green.gif","img/card_backs/set2/gray.gif","img/card_backs/set2/orange.gif","img/card_backs/set2/blue.gif","img/card_backs/set2/pink.gif","""event"",""trial"",""time""
""fullscreenenter"",""1"",""3286""
","
","
","""event"",""trial"",""time""
""fullscreenenter"",""1"",""3286""
","
","","null","","null","","fixation","2021-04-02 18:23:35.527","","","","","",""
"card-selection-trial","46","290978","0.0-17.0-1.5","A111","false","img/card_backs/set1/red.gif","img/card_backs/set1/yellow.gif","img/card_backs/set1/purple.gif","img/card_backs/set1/green.gif","img/card_backs/set2/gray.gif","img/card_backs/set2/orange.gif","img/card_backs/set2/blue.gif","img/card_backs/set2/pink.gif","""event"",""trial"",""time""
""fullscreenenter"",""1"",""3286""
","
","
","""event"",""trial"",""time""
""fullscreenenter"",""1"",""3286""
","
","","9017.0999999973","","","","practice","2021-04-02 18:23:46.552","img/practice_cards/backs/dark_blue.gif","1","-200","0","",""
"casino-fixation","47","291481","0.0-17.0-0.6","A111","false","img/card_backs/set1/red.gif","img/card_backs/set1/yellow.gif","img/card_backs/set1/purple.gif","img/card_backs/set1/green.gif","img/card_backs/set2/gray.gif","img/card_backs/set2/orange.gif","img/card_backs/set2/blue.gif","img/card_backs/set2/pink.gif","""event"",""trial"",""time""
""fullscreenenter"",""1"",""3286""
","
","
","""event"",""trial"",""time""
""fullscreenenter"",""1"",""3286""
","
","","null","","null","","fixation","2021-04-02 18:23:47.055","","","","","",""
"card-selection-trial","48","295016","0.0-17.0-1.6","A111","false","img/card_backs/set1/red.gif","img/card_backs/set1/yellow.gif","img/card_backs/set1/purple.gif","img/card_backs/set1/green.gif","img/card_backs/set2/gray.gif","img/card_backs/set2/orange.gif","img/card_backs/set2/blue.gif","img/card_backs/set2/pink.gif","""event"",""trial"",""time""
""fullscreenenter"",""1"",""3286""
","
","
","""event"",""trial"",""time""
""fullscreenenter"",""1"",""3286""
","
","","1528.0500000226311","","","","practice","2021-04-02 18:23:50.590","img/practice_cards/backs/brown.gif","2","100","0","",""
"casino-fixation","49","295519","0.0-17.0-0.7","A111","false","img/card_backs/set1/red.gif","img/card_backs/set1/yellow.gif","img/card_backs/set1/purple.gif","img/card_backs/set1/green.gif","img/card_backs/set2/gray.gif","img/card_backs/set2/orange.gif","img/card_backs/set2/blue.gif","img/card_backs/set2/pink.gif","""event"",""trial"",""time""
""fullscreenenter"",""1"",""3286""
","
","
","""event"",""trial"",""time""
""fullscreenenter"",""1"",""3286""
","
","","null","","null","","fixation","2021-04-02 18:23:51.093","","","","","",""
"card-selection-trial","50","299779","0.0-17.0-1.7","A111","false","img/card_backs/set1/red.gif","img/card_backs/set1/yellow.gif","img/card_backs/set1/purple.gif","img/card_backs/set1/green.gif","img/card_backs/set2/gray.gif","img/card_backs/set2/orange.gif","img/card_backs/set2/blue.gif","img/card_backs/set2/pink.gif","""event"",""trial"",""time""
""fullscreenenter"",""1"",""3286""
","
","
","""event"",""trial"",""time""
""fullscreenenter"",""1"",""3286""
","
","","2251.879999996163","","","","practice","2021-04-02 18:23:55.354","img/practice_cards/backs/dark_green.gif","3","200","0","",""
"casino-fixation","51","300282","0.0-17.0-0.8","A111","false","img/card_backs/set1/red.gif","img/card_backs/set1/yellow.gif","img/card_backs/set1/purple.gif","img/card_backs/set1/green.gif","img/card_backs/set2/gray.gif","img/card_backs/set2/orange.gif","img/card_backs/set2/blue.gif","img/card_backs/set2/pink.gif","""event"",""trial"",""time""
""fullscreenenter"",""1"",""3286""
","
","
","""event"",""trial"",""time""
""fullscreenenter"",""1"",""3286""
","
","","null","","null","","fixation","2021-04-02 18:23:55.856","","","","","",""
"card-selection-trial","52","303358","0.0-17.0-1.8","A111","false","img/card_backs/set1/red.gif","img/card_backs/set1/yellow.gif","img/card_backs/set1/purple.gif","img/card_backs/set1/green.gif","img/card_backs/set2/gray.gif","img/card_backs/set2/orange.gif","img/card_backs/set2/blue.gif","img/card_backs/set2/pink.gif","""event"",""trial"",""time""
""fullscreenenter"",""1"",""3286""
","
","
","""event"",""trial"",""time""
""fullscreenenter"",""1"",""3286""
","
","","1067.6400000229478","","","","practice","2021-04-02 18:23:58.932","img/practice_cards/backs/dark_green.gif","3","-200","0","",""
"casino-fixation","53","303860","0.0-17.0-0.9","A111","false","img/card_backs/set1/red.gif","img/card_backs/set1/yellow.gif","img/card_backs/set1/purple.gif","img/card_backs/set1/green.gif","img/card_backs/set2/gray.gif","img/card_backs/set2/orange.gif","img/card_backs/set2/blue.gif","img/card_backs/set2/pink.gif","""event"",""trial"",""time""
""fullscreenenter"",""1"",""3286""
","
","
","""event"",""trial"",""time""
""fullscreenenter"",""1"",""3286""
","
","","null","","null","","fixation","2021-04-02 18:23:59.434","","","","","",""
"card-selection-trial","54","309942","0.0-17.0-1.9","A111","false","img/card_backs/set1/red.gif","img/card_backs/set1/yellow.gif","img/card_backs/set1/purple.gif","img/card_backs/set1/green.gif","img/card_backs/set2/gray.gif","img/card_backs/set2/orange.gif","img/card_backs/set2/blue.gif","img/card_backs/set2/pink.gif","""event"",""trial"",""time""
""fullscreenenter"",""1"",""3286""
","
","
","""event"",""trial"",""time""
""fullscreenenter"",""1"",""3286""
","
","","4076.5249999822117","","","","practice","2021-04-02 18:24:05.516","img/practice_cards/backs/black.gif","0","-100","0","",""
"casino-keyboard-response","55","312929","0.0-18.0","A111","false","img/card_backs/set1/red.gif","img/card_backs/set1/yellow.gif","img/card_backs/set1/purple.gif","img/card_backs/set1/green.gif","img/card_backs/set2/gray.gif","img/card_backs/set2/orange.gif","img/card_backs/set2/blue.gif","img/card_backs/set2/pink.gif","""event"",""trial"",""time""
""fullscreenenter"",""1"",""3286""
","
","
","""event"",""trial"",""time""
""fullscreenenter"",""1"",""3286""
","
","","2985.6049999943934","You earned -100 tokens during the practice round!","82","","","2021-04-02 18:24:08.504","","","","","",""
"casino-keyboard-response","56","317146","0.0-19.0-0.0","A111","false","img/card_backs/set1/red.gif","img/card_backs/set1/yellow.gif","img/card_backs/set1/purple.gif","img/card_backs/set1/green.gif","img/card_backs/set2/gray.gif","img/card_backs/set2/orange.gif","img/card_backs/set2/blue.gif","img/card_backs/set2/pink.gif","""event"",""trial"",""time""
""fullscreenenter"",""1"",""3286""
","
","
","""event"",""trial"",""time""
""fullscreenenter"",""1"",""3286""
","
","","4216.1099999793805","Nice job! You are almost ready to play the real game.","86","","instructions","2021-04-02 18:24:12.720","","","","","",""
"casino-keyboard-response","57","323408","0.0-19.0-0.1","A111","false","img/card_backs/set1/red.gif","img/card_backs/set1/yellow.gif","img/card_backs/set1/purple.gif","img/card_backs/set1/green.gif","img/card_backs/set2/gray.gif","img/card_backs/set2/orange.gif","img/card_backs/set2/blue.gif","img/card_backs/set2/pink.gif","""event"",""trial"",""time""
""fullscreenenter"",""1"",""3286""
","
","
","""event"",""trial"",""time""
""fullscreenenter"",""1"",""3286""
","
","","6261.224999965634","You will play two rounds of the real game. In each round, you will pick 100 cards in total.","73","","instructions","2021-04-02 18:24:18.982","","","","","",""
"casino-keyboard-response","58","327517","0.0-19.0-0.2","A111","false","img/card_backs/set1/red.gif","img/card_backs/set1/yellow.gif","img/card_backs/set1/purple.gif","img/card_backs/set1/green.gif","img/card_backs/set2/gray.gif","img/card_backs/set2/orange.gif","img/card_backs/set2/blue.gif","img/card_backs/set2/pink.gif","""event"",""trial"",""time""
""fullscreenenter"",""1"",""3286""
","
","
","""event"",""trial"",""time""
""fullscreenenter"",""1"",""3286""
","
","","4106.2000000383705","We are now going to ask you some questions about how the game works.","66","","instructions","2021-04-02 18:24:23.091","","","","","",""
"casino-keyboard-response","59","333705","0.0-19.0-0.3","A111","false","img/card_backs/set1/red.gif","img/card_backs/set1/yellow.gif","img/card_backs/set1/purple.gif","img/card_backs/set1/green.gif","img/card_backs/set2/gray.gif","img/card_backs/set2/orange.gif","img/card_backs/set2/blue.gif","img/card_backs/set2/pink.gif","""event"",""trial"",""time""
""fullscreenenter"",""1"",""3286""
","
","
","""event"",""trial"",""time""
""fullscreenenter"",""1"",""3286""
","
","","6186.13499996718","Answer carefully. You will not be able to begin the game until you answer them correctly.","67","","instructions","2021-04-02 18:24:29.280","","","","","",""
"casino-comp_q","60","340266","0.0-20.0-0.0","A111","false","img/card_backs/set1/red.gif","img/card_backs/set1/yellow.gif","img/card_backs/set1/purple.gif","img/card_backs/set1/green.gif","img/card_backs/set2/gray.gif","img/card_backs/set2/orange.gif","img/card_backs/set2/blue.gif","img/card_backs/set2/pink.gif","""event"",""trial"",""time""
""fullscreenenter"",""1"",""3286""
","
","
","""event"",""trial"",""time""
""fullscreenenter"",""1"",""3286""
","
","","6556.99499999173","True or False: All the decks have some cards that cause you to win tokens and some cards that cause you to lose tokens.","84","","","2021-04-02 18:24:35.840","","","","","",""
"casino-keyboard-response","61","343121","0.0-20.0-1.0","A111","false","img/card_backs/set1/red.gif","img/card_backs/set1/yellow.gif","img/card_backs/set1/purple.gif","img/card_backs/set1/green.gif","img/card_backs/set2/gray.gif","img/card_backs/set2/orange.gif","img/card_backs/set2/blue.gif","img/card_backs/set2/pink.gif","""event"",""trial"",""time""
""fullscreenenter"",""1"",""3286""
","
","
","""event"",""trial"",""time""
""fullscreenenter"",""1"",""3286""
","
","","2852.2700000321493","True is correct! All the decks have a mix of winning and losing cards.","77","","","2021-04-02 18:24:38.696","","","","","true",""
"casino-comp_q","62","348051","0.0-21.0-0.0","A111","false","img/card_backs/set1/red.gif","img/card_backs/set1/yellow.gif","img/card_backs/set1/purple.gif","img/card_backs/set1/green.gif","img/card_backs/set2/gray.gif","img/card_backs/set2/orange.gif","img/card_backs/set2/blue.gif","img/card_backs/set2/pink.gif","""event"",""trial"",""time""
""fullscreenenter"",""1"",""3286""
","
","
","""event"",""trial"",""time""
""fullscreenenter"",""1"",""3286""
","
","","4923.910000012256","True or False: You will have as much time as you want to make your response.","70","","","2021-04-02 18:24:43.625","","","","","",""
"casino-keyboard-response","63","350958","0.0-21.0-1.0","A111","false","img/card_backs/set1/red.gif","img/card_backs/set1/yellow.gif","img/card_backs/set1/purple.gif","img/card_backs/set1/green.gif","img/card_backs/set2/gray.gif","img/card_backs/set2/orange.gif","img/card_backs/set2/blue.gif","img/card_backs/set2/pink.gif","""event"",""trial"",""time""
""fullscreenenter"",""1"",""3286""
","
","
","""event"",""trial"",""time""
""fullscreenenter"",""1"",""3286""
","
","","2904.2500000214204","False is correct! You will only have 10 seconds to make each choice.","75","","","2021-04-02 18:24:46.532","","","","","true",""
"casino-comp_q","64","355082","0.0-22.0-0.0","A111","false","img/card_backs/set1/red.gif","img/card_backs/set1/yellow.gif","img/card_backs/set1/purple.gif","img/card_backs/set1/green.gif","img/card_backs/set2/gray.gif","img/card_backs/set2/orange.gif","img/card_backs/set2/blue.gif","img/card_backs/set2/pink.gif","""event"",""trial"",""time""
""fullscreenenter"",""1"",""3286""
","
","
","""event"",""trial"",""time""
""fullscreenenter"",""1"",""3286""
","
","","4122.474999981932","True or False: The location of the deck determines how lucky it is.","70","","","2021-04-02 18:24:50.656","","","","","",""
"casino-keyboard-response","65","359585","0.0-22.0-1.0","A111","false","img/card_backs/set1/red.gif","img/card_backs/set1/yellow.gif","img/card_backs/set1/purple.gif","img/card_backs/set1/green.gif","img/card_backs/set2/gray.gif","img/card_backs/set2/orange.gif","img/card_backs/set2/blue.gif","img/card_backs/set2/pink.gif","""event"",""trial"",""time""
""fullscreenenter"",""1"",""3286""
","
","
","""event"",""trial"",""time""
""fullscreenenter"",""1"",""3286""
","
","","4499.874999979511","False is correct! The <i>color</i>  of the deck determines how lucky or unlucky it is.","68","","","2021-04-02 18:24:55.159","","","","","true",""
"casino-keyboard-response","66","363744","0.0-23.0-0.0","A111","false","img/card_backs/set1/red.gif","img/card_backs/set1/yellow.gif","img/card_backs/set1/purple.gif","img/card_backs/set1/green.gif","img/card_backs/set2/gray.gif","img/card_backs/set2/orange.gif","img/card_backs/set2/blue.gif","img/card_backs/set2/pink.gif","""event"",""trial"",""time""
""fullscreenenter"",""1"",""3286""
","
","
","""event"",""trial"",""time""
""fullscreenenter"",""1"",""3286""
","
","","4155.614999996033","Great job! Now it's time to start the real game.","82","","instructions","2021-04-02 18:24:59.318","","","","","",""
"casino-keyboard-response","67","368898","0.0-23.0-0.1","A111","false","img/card_backs/set1/red.gif","img/card_backs/set1/yellow.gif","img/card_backs/set1/purple.gif","img/card_backs/set1/green.gif","img/card_backs/set2/gray.gif","img/card_backs/set2/orange.gif","img/card_backs/set2/blue.gif","img/card_backs/set2/pink.gif","""event"",""trial"",""time""
""fullscreenenter"",""1"",""3286""
","
","
","""event"",""trial"",""time""
""fullscreenenter"",""1"",""3286""
","
","","5152.250000042841","Before we start, we're going to head into a new room of the casino.","86","","instructions","2021-04-02 18:25:04.473","","","","","",""
"casino-keyboard-response","68","375154","0.0-24.0-0.0","A111","false","img/card_backs/set1/red.gif","img/card_backs/set1/yellow.gif","img/card_backs/set1/purple.gif","img/card_backs/set1/green.gif","img/card_backs/set2/gray.gif","img/card_backs/set2/orange.gif","img/card_backs/set2/blue.gif","img/card_backs/set2/pink.gif","""event"",""trial"",""time""
""fullscreenenter"",""1"",""3286""
","
","
","""event"",""trial"",""time""
""fullscreenenter"",""1"",""3286""
","
","","6252.679999975953","Here we are! The real game will use different cards, but the rules will be the same.","71","","instructions","2021-04-02 18:25:10.728","","","","","",""
"casino-keyboard-response","69","382554","0.0-24.0-0.1","A111","false","img/card_backs/set1/red.gif","img/card_backs/set1/yellow.gif","img/card_backs/set1/purple.gif","img/card_backs/set1/green.gif","img/card_backs/set2/gray.gif","img/card_backs/set2/orange.gif","img/card_backs/set2/blue.gif","img/card_backs/set2/pink.gif","""event"",""trial"",""time""
""fullscreenenter"",""1"",""3286""
","
","
","""event"",""trial"",""time""
""fullscreenenter"",""1"",""3286""
","
","","7397.685000032652","Ready? Put your fingers over the '2', '4', 6', and '8' keys so you are ready to play the game. </br> Then press 2 to start.","50","","instructions","2021-04-02 18:25:18.128","","","","","",""
"casino-fixation","70","383059","0.0-25.0-0.0","A111","false","img/card_backs/set1/red.gif","img/card_backs/set1/yellow.gif","img/card_backs/set1/purple.gif","img/card_backs/set1/green.gif","img/card_backs/set2/gray.gif","img/card_backs/set2/orange.gif","img/card_backs/set2/blue.gif","img/card_backs/set2/pink.gif","""event"",""trial"",""time""
""fullscreenenter"",""1"",""3286""
","
","
","""event"",""trial"",""time""
""fullscreenenter"",""1"",""3286""
","
","","null","","null","","fixation","2021-04-02 18:25:18.633","","","","","",""
"card-selection-trial","71","387829","0.0-25.0-1.0","A111","false","img/card_backs/set1/red.gif","img/card_backs/set1/yellow.gif","img/card_backs/set1/purple.gif","img/card_backs/set1/green.gif","img/card_backs/set2/gray.gif","img/card_backs/set2/orange.gif","img/card_backs/set2/blue.gif","img/card_backs/set2/pink.gif","""event"",""trial"",""time""
""fullscreenenter"",""1"",""3286""
","
","
","""event"",""trial"",""time""
""fullscreenenter"",""1"",""3286""
","
","","2761.0500000300817","","","","real_trial","2021-04-02 18:25:23.404","img/card_backs/set1/purple.gif","0","110","1","",""
"casino-fixation","72","388339","0.0-25.0-0.1","A111","false","img/card_backs/set1/red.gif","img/card_backs/set1/yellow.gif","img/card_backs/set1/purple.gif","img/card_backs/set1/green.gif","img/card_backs/set2/gray.gif","img/card_backs/set2/orange.gif","img/card_backs/set2/blue.gif","img/card_backs/set2/pink.gif","""event"",""trial"",""time""
""fullscreenenter"",""1"",""3286""
","
","
","""event"",""trial"",""time""
""fullscreenenter"",""1"",""3286""
","
","","null","","null","","fixation","2021-04-02 18:25:23.913","","","","","",""
"card-selection-trial","73","392369","0.0-25.0-1.1","A111","false","img/card_backs/set1/red.gif","img/card_backs/set1/yellow.gif","img/card_backs/set1/purple.gif","img/card_backs/set1/green.gif","img/card_backs/set2/gray.gif","img/card_backs/set2/orange.gif","img/card_backs/set2/blue.gif","img/card_backs/set2/pink.gif","""event"",""trial"",""time""
""fullscreenenter"",""1"",""3286""
","
","
","""event"",""trial"",""time""
""fullscreenenter"",""1"",""3286""
","
","","2019.9499999871477","","","","real_trial","2021-04-02 18:25:27.943","img/card_backs/set1/red.gif","1","-240","1","",""
"casino-fixation","74","392880","0.0-25.0-0.2","A111","false","img/card_backs/set1/red.gif","img/card_backs/set1/yellow.gif","img/card_backs/set1/purple.gif","img/card_backs/set1/green.gif","img/card_backs/set2/gray.gif","img/card_backs/set2/orange.gif","img/card_backs/set2/blue.gif","img/card_backs/set2/pink.gif","""event"",""trial"",""time""
""fullscreenenter"",""1"",""3286""
","
","
","""event"",""trial"",""time""
""fullscreenenter"",""1"",""3286""
","
","","null","","null","","fixation","2021-04-02 18:25:28.457","","","","","",""
"card-selection-trial","75","399181","0.0-25.0-1.2","A111","false","img/card_backs/set1/red.gif","img/card_backs/set1/yellow.gif","img/card_backs/set1/purple.gif","img/card_backs/set1/green.gif","img/card_backs/set2/gray.gif","img/card_backs/set2/orange.gif","img/card_backs/set2/blue.gif","img/card_backs/set2/pink.gif","""event"",""trial"",""time""
""fullscreenenter"",""1"",""3286""
","
","
","""event"",""trial"",""time""
""fullscreenenter"",""1"",""3286""
","
","","4290.975000010803","","","","real_trial","2021-04-02 18:25:34.755","img/card_backs/set1/yellow.gif","0","200","1","",""
"casino-fixation","76","399684","0.0-25.0-0.3","A111","false","img/card_backs/set1/red.gif","img/card_backs/set1/yellow.gif","img/card_backs/set1/purple.gif","img/card_backs/set1/green.gif","img/card_backs/set2/gray.gif","img/card_backs/set2/orange.gif","img/card_backs/set2/blue.gif","img/card_backs/set2/pink.gif","""event"",""trial"",""time""
""fullscreenenter"",""1"",""3286""
","
","
","""event"",""trial"",""time""
""fullscreenenter"",""1"",""3286""
","
","","null","","null","","fixation","2021-04-02 18:25:35.258","","","","","",""
"card-selection-trial","77","405078","0.0-25.0-1.3","A111","false","img/card_backs/set1/red.gif","img/card_backs/set1/yellow.gif","img/card_backs/set1/purple.gif","img/card_backs/set1/green.gif","img/card_backs/set2/gray.gif","img/card_backs/set2/orange.gif","img/card_backs/set2/blue.gif","img/card_backs/set2/pink.gif","""event"",""trial"",""time""
""fullscreenenter"",""1"",""3286""
","
","
","""event"",""trial"",""time""
""fullscreenenter"",""1"",""3286""
","
","","3383.075000019744","","","","real_trial","2021-04-02 18:25:40.653","img/card_backs/set1/green.gif","2","-50","1","",""
"casino-fixation","78","405593","0.0-25.0-0.4","A111","false","img/card_backs/set1/red.gif","img/card_backs/set1/yellow.gif","img/card_backs/set1/purple.gif","img/card_backs/set1/green.gif","img/card_backs/set2/gray.gif","img/card_backs/set2/orange.gif","img/card_backs/set2/blue.gif","img/card_backs/set2/pink.gif","""event"",""trial"",""time""
""fullscreenenter"",""1"",""3286""
","
","
","""event"",""trial"",""time""
""fullscreenenter"",""1"",""3286""
","
","","null","","null","","fixation","2021-04-02 18:25:41.167","","","","","",""
"card-selection-trial","79","411460","0.0-25.0-1.4","A111","false","img/card_backs/set1/red.gif","img/card_backs/set1/yellow.gif","img/card_backs/set1/purple.gif","img/card_backs/set1/green.gif","img/card_backs/set2/gray.gif","img/card_backs/set2/orange.gif","img/card_backs/set2/blue.gif","img/card_backs/set2/pink.gif","""event"",""trial"",""time""
""fullscreenenter"",""1"",""3286""
","
","
","""event"",""trial"",""time""
""fullscreenenter"",""1"",""3286""
","
","","3844.455000013113","","","","real_trial","2021-04-02 18:25:47.034","img/card_backs/set1/yellow.gif","1","-230","1","",""
"casino-fixation","80","411971","0.0-25.0-0.5","A111","false","img/card_backs/set1/red.gif","img/card_backs/set1/yellow.gif","img/card_backs/set1/purple.gif","img/card_backs/set1/green.gif","img/card_backs/set2/gray.gif","img/card_backs/set2/orange.gif","img/card_backs/set2/blue.gif","img/card_backs/set2/pink.gif","""event"",""trial"",""time""
""fullscreenenter"",""1"",""3286""
","
","
","""event"",""trial"",""time""
""fullscreenenter"",""1"",""3286""
","
","","null","","null","","fixation","2021-04-02 18:25:47.545","","","","","",""
"card-selection-trial","81","415344","0.0-25.0-1.5","A111","false","img/card_backs/set1/red.gif","img/card_backs/set1/yellow.gif","img/card_backs/set1/purple.gif","img/card_backs/set1/green.gif","img/card_backs/set2/gray.gif","img/card_backs/set2/orange.gif","img/card_backs/set2/blue.gif","img/card_backs/set2/pink.gif","""event"",""trial"",""time""
""fullscreenenter"",""1"",""3286""
","
","
","""event"",""trial"",""time""
""fullscreenenter"",""1"",""3286""
","
","","1368.834999972023","","","","real_trial","2021-04-02 18:25:50.918","img/card_backs/set1/green.gif","3","-50","1","",""
"casino-fixation","82","415847","0.0-25.0-0.6","A111","false","img/card_backs/set1/red.gif","img/card_backs/set1/yellow.gif","img/card_backs/set1/purple.gif","img/card_backs/set1/green.gif","img/card_backs/set2/gray.gif","img/card_backs/set2/orange.gif","img/card_backs/set2/blue.gif","img/card_backs/set2/pink.gif","""event"",""trial"",""time""
""fullscreenenter"",""1"",""3286""
","
","
","""event"",""trial"",""time""
""fullscreenenter"",""1"",""3286""
","
","","null","","null","","fixation","2021-04-02 18:25:51.421","","","","","",""
"card-selection-trial","83","419049","0.0-25.0-1.6","A111","false","img/card_backs/set1/red.gif","img/card_backs/set1/yellow.gif","img/card_backs/set1/purple.gif","img/card_backs/set1/green.gif","img/card_backs/set2/gray.gif","img/card_backs/set2/orange.gif","img/card_backs/set2/blue.gif","img/card_backs/set2/pink.gif","""event"",""trial"",""time""
""fullscreenenter"",""1"",""3286""
","
","
","""event"",""trial"",""time""
""fullscreenenter"",""1"",""3286""
","
","","1195.3099999809638","","","","real_trial","2021-04-02 18:25:54.623","img/card_backs/set1/green.gif","0","-60","1","",""
"casino-fixation","84","419552","0.0-25.0-0.7","A111","false","img/card_backs/set1/red.gif","img/card_backs/set1/yellow.gif","img/card_backs/set1/purple.gif","img/card_backs/set1/green.gif","img/card_backs/set2/gray.gif","img/card_backs/set2/orange.gif","img/card_backs/set2/blue.gif","img/card_backs/set2/pink.gif","""event"",""trial"",""time""
""fullscreenenter"",""1"",""3286""
","
","
","""event"",""trial"",""time""
""fullscreenenter"",""1"",""3286""
","
","","null","","null","","fixation","2021-04-02 18:25:55.126","","","","","",""
"card-selection-trial","85","426667","0.0-25.0-1.7","A111","false","img/card_backs/set1/red.gif","img/card_backs/set1/yellow.gif","img/card_backs/set1/purple.gif","img/card_backs/set1/green.gif","img/card_backs/set2/gray.gif","img/card_backs/set2/orange.gif","img/card_backs/set2/blue.gif","img/card_backs/set2/pink.gif","""event"",""trial"",""time""
""fullscreenenter"",""1"",""3286""
","
","
","""event"",""trial"",""time""
""fullscreenenter"",""1"",""3286""
","
","","5108.57500002021","","","","real_trial","2021-04-02 18:26:02.241","img/card_backs/set1/purple.gif","2","-60","1","",""
"casino-fixation","86","427186","0.0-25.0-0.8","A111","false","img/card_backs/set1/red.gif","img/card_backs/set1/yellow.gif","img/card_backs/set1/purple.gif","img/card_backs/set1/green.gif","img/card_backs/set2/gray.gif","img/card_backs/set2/orange.gif","img/card_backs/set2/blue.gif","img/card_backs/set2/pink.gif","""event"",""trial"",""time""
""fullscreenenter"",""1"",""3286""
","
","
","""event"",""trial"",""time""
""fullscreenenter"",""1"",""3286""
","
","","null","","null","","fixation","2021-04-02 18:26:02.760","","","","","",""
"card-selection-trial","87","430107","0.0-25.0-1.8","A111","false","img/card_backs/set1/red.gif","img/card_backs/set1/yellow.gif","img/card_backs/set1/purple.gif","img/card_backs/set1/green.gif","img/card_backs/set2/gray.gif","img/card_backs/set2/orange.gif","img/card_backs/set2/blue.gif","img/card_backs/set2/pink.gif","""event"",""trial"",""time""
""fullscreenenter"",""1"",""3286""
","
","
","""event"",""trial"",""time""
""fullscreenenter"",""1"",""3286""
","
","","914.7450000164099","","","","real_trial","2021-04-02 18:26:05.681","img/card_backs/set1/red.gif","0","-250","1","",""
"casino-fixation","88","430609","0.0-25.0-0.9","A111","false","img/card_backs/set1/red.gif","img/card_backs/set1/yellow.gif","img/card_backs/set1/purple.gif","img/card_backs/set1/green.gif","img/card_backs/set2/gray.gif","img/card_backs/set2/orange.gif","img/card_backs/set2/blue.gif","img/card_backs/set2/pink.gif","""event"",""trial"",""time""
""fullscreenenter"",""1"",""3286""
","
","
","""event"",""trial"",""time""
""fullscreenenter"",""1"",""3286""
","
","","null","","null","","fixation","2021-04-02 18:26:06.183","","","","","",""
"card-selection-trial","89","434206","0.0-25.0-1.9","A111","false","img/card_backs/set1/red.gif","img/card_backs/set1/yellow.gif","img/card_backs/set1/purple.gif","img/card_backs/set1/green.gif","img/card_backs/set2/gray.gif","img/card_backs/set2/orange.gif","img/card_backs/set2/blue.gif","img/card_backs/set2/pink.gif","""event"",""trial"",""time""
""fullscreenenter"",""1"",""3286""
","
","
","""event"",""trial"",""time""
""fullscreenenter"",""1"",""3286""
","
","","1590.0350000010803","","","","real_trial","2021-04-02 18:26:09.780","img/card_backs/set1/yellow.gif","3","-250","1","",""
"casino-fixation","90","434710","0.0-25.0-0.10","A111","false","img/card_backs/set1/red.gif","img/card_backs/set1/yellow.gif","img/card_backs/set1/purple.gif","img/card_backs/set1/green.gif","img/card_backs/set2/gray.gif","img/card_backs/set2/orange.gif","img/card_backs/set2/blue.gif","img/card_backs/set2/pink.gif","""event"",""trial"",""time""
""fullscreenenter"",""1"",""3286""
","
","
","""event"",""trial"",""time""
""fullscreenenter"",""1"",""3286""
","
","","null","","null","","fixation","2021-04-02 18:26:10.284","","","","","",""
"card-selection-trial","91","439765","0.0-25.0-1.10","A111","false","img/card_backs/set1/red.gif","img/card_backs/set1/yellow.gif","img/card_backs/set1/purple.gif","img/card_backs/set1/green.gif","img/card_backs/set2/gray.gif","img/card_backs/set2/orange.gif","img/card_backs/set2/blue.gif","img/card_backs/set2/pink.gif","""event"",""trial"",""time""
""fullscreenenter"",""1"",""3286""
","
","
","""event"",""trial"",""time""
""fullscreenenter"",""1"",""3286""
","
","","3046.4600000414066","","","","real_trial","2021-04-02 18:26:15.339","img/card_backs/set1/green.gif","1","120","1","",""
"casino-fixation","92","440270","0.0-25.0-0.11","A111","false","img/card_backs/set1/red.gif","img/card_backs/set1/yellow.gif","img/card_backs/set1/purple.gif","img/card_backs/set1/green.gif","img/card_backs/set2/gray.gif","img/card_backs/set2/orange.gif","img/card_backs/set2/blue.gif","img/card_backs/set2/pink.gif","""event"",""trial"",""time""
""fullscreenenter"",""1"",""3286""
","
","
","""event"",""trial"",""time""
""fullscreenenter"",""1"",""3286""
","
","","null","","null","","fixation","2021-04-02 18:26:15.844","","","","","",""
"card-selection-trial","93","448071","0.0-25.0-1.11","A111","false","img/card_backs/set1/red.gif","img/card_backs/set1/yellow.gif","img/card_backs/set1/purple.gif","img/card_backs/set1/green.gif","img/card_backs/set2/gray.gif","img/card_backs/set2/orange.gif","img/card_backs/set2/blue.gif","img/card_backs/set2/pink.gif","""event"",""trial"",""time""
""fullscreenenter"",""1"",""3286""
","
","
","""event"",""trial"",""time""
""fullscreenenter"",""1"",""3286""
","
","","5789.170000003651","","","","real_trial","2021-04-02 18:26:23.646","img/card_backs/set1/red.gif","1","-230","1","",""
"casino-fixation","94","448574","0.0-25.0-0.12","A111","false","img/card_backs/set1/red.gif","img/card_backs/set1/yellow.gif","img/card_backs/set1/purple.gif","img/card_backs/set1/green.gif","img/card_backs/set2/gray.gif","img/card_backs/set2/orange.gif","img/card_backs/set2/blue.gif","img/card_backs/set2/pink.gif","""event"",""trial"",""time""
""fullscreenenter"",""1"",""3286""
","
","
","""event"",""trial"",""time""
""fullscreenenter"",""1"",""3286""
","
","","null","","null","","fixation","2021-04-02 18:26:24.148","","","","","",""
"card-selection-trial","95","453814","0.0-25.0-1.12","A111","false","img/card_backs/set1/red.gif","img/card_backs/set1/yellow.gif","img/card_backs/set1/purple.gif","img/card_backs/set1/green.gif","img/card_backs/set2/gray.gif","img/card_backs/set2/orange.gif","img/card_backs/set2/blue.gif","img/card_backs/set2/pink.gif","""event"",""trial"",""time""
""fullscreenenter"",""1"",""3286""
","
","
","""event"",""trial"",""time""
""fullscreenenter"",""1"",""3286""
","
","","3223.0950000230223","","","","real_trial","2021-04-02 18:26:29.388","img/card_backs/set1/purple.gif","1","100","1","",""
"casino-fixation","96","454317","0.0-25.0-0.13","A111","false","img/card_backs/set1/red.gif","img/card_backs/set1/yellow.gif","img/card_backs/set1/purple.gif","img/card_backs/set1/green.gif","img/card_backs/set2/gray.gif","img/card_backs/set2/orange.gif","img/card_backs/set2/blue.gif","img/card_backs/set2/pink.gif","""event"",""trial"",""time""
""fullscreenenter"",""1"",""3286""
","
","
","""event"",""trial"",""time""
""fullscreenenter"",""1"",""3286""
","
","","null","","null","","fixation","2021-04-02 18:26:29.891","","","","","",""
"card-selection-trial","97","458101","0.0-25.0-1.13","A111","false","img/card_backs/set1/red.gif","img/card_backs/set1/yellow.gif","img/card_backs/set1/purple.gif","img/card_backs/set1/green.gif","img/card_backs/set2/gray.gif","img/card_backs/set2/orange.gif","img/card_backs/set2/blue.gif","img/card_backs/set2/pink.gif","""event"",""trial"",""time""
""fullscreenenter"",""1"",""3286""
","
","
","""event"",""trial"",""time""
""fullscreenenter"",""1"",""3286""
","
","","1776.8350000260398","","","","real_trial","2021-04-02 18:26:33.675","img/card_backs/set1/red.gif","2","200","1","",""
"casino-fixation","98","458602","0.0-25.0-0.14","A111","false","img/card_backs/set1/red.gif","img/card_backs/set1/yellow.gif","img/card_backs/set1/purple.gif","img/card_backs/set1/green.gif","img/card_backs/set2/gray.gif","img/card_backs/set2/orange.gif","img/card_backs/set2/blue.gif","img/card_backs/set2/pink.gif","""event"",""trial"",""time""
""fullscreenenter"",""1"",""3286""
","
","
","""event"",""trial"",""time""
""fullscreenenter"",""1"",""3286""
","
","","null","","null","","fixation","2021-04-02 18:26:34.176","","","","","",""
"card-selection-trial","99","461459","0.0-25.0-1.14","A111","false","img/card_backs/set1/red.gif","img/card_backs/set1/yellow.gif","img/card_backs/set1/purple.gif","img/card_backs/set1/green.gif","img/card_backs/set2/gray.gif","img/card_backs/set2/orange.gif","img/card_backs/set2/blue.gif","img/card_backs/set2/pink.gif","""event"",""trial"",""time""
""fullscreenenter"",""1"",""3286""
","
","
","""event"",""trial"",""time""
""fullscreenenter"",""1"",""3286""
","
","","849.2899999837391","","","","real_trial","2021-04-02 18:26:37.033","img/card_backs/set1/red.gif","0","180","1","",""
"casino-fixation","100","461961","0.0-25.0-0.15","A111","false","img/card_backs/set1/red.gif","img/card_backs/set1/yellow.gif","img/card_backs/set1/purple.gif","img/card_backs/set1/green.gif","img/card_backs/set2/gray.gif","img/card_backs/set2/orange.gif","img/card_backs/set2/blue.gif","img/card_backs/set2/pink.gif","""event"",""trial"",""time""
""fullscreenenter"",""1"",""3286""
","
","
","""event"",""trial"",""time""
""fullscreenenter"",""1"",""3286""
","
","","null","","null","","fixation","2021-04-02 18:26:37.535","","","","","",""
"card-selection-trial","101","465051","0.0-25.0-1.15","A111","false","img/card_backs/set1/red.gif","img/card_backs/set1/yellow.gif","img/card_backs/set1/purple.gif","img/card_backs/set1/green.gif","img/card_backs/set2/gray.gif","img/card_backs/set2/orange.gif","img/card_backs/set2/blue.gif","img/card_backs/set2/pink.gif","""event"",""trial"",""time""
""fullscreenenter"",""1"",""3286""
","
","
","""event"",""trial"",""time""
""fullscreenenter"",""1"",""3286""
","
","","1082.2649999754503","","","","real_trial","2021-04-02 18:26:40.625","img/card_backs/set1/red.gif","3","-230","1","",""
"casino-fixation","102","465554","0.0-25.0-0.16","A111","false","img/card_backs/set1/red.gif","img/card_backs/set1/yellow.gif","img/card_backs/set1/purple.gif","img/card_backs/set1/green.gif","img/card_backs/set2/gray.gif","img/card_backs/set2/orange.gif","img/card_backs/set2/blue.gif","img/card_backs/set2/pink.gif","""event"",""trial"",""time""
""fullscreenenter"",""1"",""3286""
","
","
","""event"",""trial"",""time""
""fullscreenenter"",""1"",""3286""
","
","","null","","null","","fixation","2021-04-02 18:26:41.128","","","","","",""
"card-selection-trial","103","469530","0.0-25.0-1.16","A111","false","img/card_backs/set1/red.gif","img/card_backs/set1/yellow.gif","img/card_backs/set1/purple.gif","img/card_backs/set1/green.gif","img/card_backs/set2/gray.gif","img/card_backs/set2/orange.gif","img/card_backs/set2/blue.gif","img/card_backs/set2/pink.gif","""event"",""trial"",""time""
""fullscreenenter"",""1"",""3286""
","
","
","""event"",""trial"",""time""
""fullscreenenter"",""1"",""3286""
","
","","1969.5749999955297","","","","real_trial","2021-04-02 18:26:45.104","img/card_backs/set1/red.gif","2","180","1","",""
"casino-fixation","104","470033","0.0-25.0-0.17","A111","false","img/card_backs/set1/red.gif","img/card_backs/set1/yellow.gif","img/card_backs/set1/purple.gif","img/card_backs/set1/green.gif","img/card_backs/set2/gray.gif","img/card_backs/set2/orange.gif","img/card_backs/set2/blue.gif","img/card_backs/set2/pink.gif","""event"",""trial"",""time""
""fullscreenenter"",""1"",""3286""
","
","
","""event"",""trial"",""time""
""fullscreenenter"",""1"",""3286""
","
","","null","","null","","fixation","2021-04-02 18:26:45.607","","","","","",""
"card-selection-trial","105","473099","0.0-25.0-1.17","A111","false","img/card_backs/set1/red.gif","img/card_backs/set1/yellow.gif","img/card_backs/set1/purple.gif","img/card_backs/set1/green.gif","img/card_backs/set2/gray.gif","img/card_backs/set2/orange.gif","img/card_backs/set2/blue.gif","img/card_backs/set2/pink.gif","""event"",""trial"",""time""
""fullscreenenter"",""1"",""3286""
","
","
","""event"",""trial"",""time""
""fullscreenenter"",""1"",""3286""
","
","","1050.6550000282004","","","","real_trial","2021-04-02 18:26:48.674","img/card_backs/set1/red.gif","3","200","1","",""
"casino-fixation","106","473602","0.0-25.0-0.18","A111","false","img/card_backs/set1/red.gif","img/card_backs/set1/yellow.gif","img/card_backs/set1/purple.gif","img/card_backs/set1/green.gif","img/card_backs/set2/gray.gif","img/card_backs/set2/orange.gif","img/card_backs/set2/blue.gif","img/card_backs/set2/pink.gif","""event"",""trial"",""time""
""fullscreenenter"",""1"",""3286""
","
","
","""event"",""trial"",""time""
""fullscreenenter"",""1"",""3286""
","
","","null","","null","","fixation","2021-04-02 18:26:49.176","","","","","",""
"card-selection-trial","107","476608","0.0-25.0-1.18","A111","false","img/card_backs/set1/red.gif","img/card_backs/set1/yellow.gif","img/card_backs/set1/purple.gif","img/card_backs/set1/green.gif","img/card_backs/set2/gray.gif","img/card_backs/set2/orange.gif","img/card_backs/set2/blue.gif","img/card_backs/set2/pink.gif","""event"",""trial"",""time""
""fullscreenenter"",""1"",""3286""
","
","
","""event"",""trial"",""time""
""fullscreenenter"",""1"",""3286""
","
","","998.2299999683164","","","","real_trial","2021-04-02 18:26:52.182","img/card_backs/set1/red.gif","3","-240","1","",""
"casino-fixation","108","477111","0.0-25.0-0.19","A111","false","img/card_backs/set1/red.gif","img/card_backs/set1/yellow.gif","img/card_backs/set1/purple.gif","img/card_backs/set1/green.gif","img/card_backs/set2/gray.gif","img/card_backs/set2/orange.gif","img/card_backs/set2/blue.gif","img/card_backs/set2/pink.gif","""event"",""trial"",""time""
""fullscreenenter"",""1"",""3286""
","
","
","""event"",""trial"",""time""
""fullscreenenter"",""1"",""3286""
","
","","null","","null","","fixation","2021-04-02 18:26:52.685","","","","","",""
"card-selection-trial","109","480477","0.0-25.0-1.19","A111","false","img/card_backs/set1/red.gif","img/card_backs/set1/yellow.gif","img/card_backs/set1/purple.gif","img/card_backs/set1/green.gif","img/card_backs/set2/gray.gif","img/card_backs/set2/orange.gif","img/card_backs/set2/blue.gif","img/card_backs/set2/pink.gif","""event"",""trial"",""time""
""fullscreenenter"",""1"",""3286""
","
","
","""event"",""trial"",""time""
""fullscreenenter"",""1"",""3286""
","
","","1359.0299999923445","","","","real_trial","2021-04-02 18:26:56.051","img/card_backs/set1/red.gif","1","180","1","",""
"casino-fixation","110","480979","0.0-25.0-0.20","A111","false","img/card_backs/set1/red.gif","img/card_backs/set1/yellow.gif","img/card_backs/set1/purple.gif","img/card_backs/set1/green.gif","img/card_backs/set2/gray.gif","img/card_backs/set2/orange.gif","img/card_backs/set2/blue.gif","img/card_backs/set2/pink.gif","""event"",""trial"",""time""
""fullscreenenter"",""1"",""3286""
","
","
","""event"",""trial"",""time""
""fullscreenenter"",""1"",""3286""
","
","","null","","null","","fixation","2021-04-02 18:26:56.553","","","","","",""
"card-selection-trial","111","484042","0.0-25.0-1.20","A111","false","img/card_backs/set1/red.gif","img/card_backs/set1/yellow.gif","img/card_backs/set1/purple.gif","img/card_backs/set1/green.gif","img/card_backs/set2/gray.gif","img/card_backs/set2/orange.gif","img/card_backs/set2/blue.gif","img/card_backs/set2/pink.gif","""event"",""trial"",""time""
""fullscreenenter"",""1"",""3286""
","
","
","""event"",""trial"",""time""
""fullscreenenter"",""1"",""3286""
","
","","1057.044999965001","","","","real_trial","2021-04-02 18:26:59.616","img/card_backs/set1/red.gif","0","200","1","",""
"casino-fixation","112","484544","0.0-25.0-0.21","A111","false","img/card_backs/set1/red.gif","img/card_backs/set1/yellow.gif","img/card_backs/set1/purple.gif","img/card_backs/set1/green.gif","img/card_backs/set2/gray.gif","img/card_backs/set2/orange.gif","img/card_backs/set2/blue.gif","img/card_backs/set2/pink.gif","""event"",""trial"",""time""
""fullscreenenter"",""1"",""3286""
","
","
","""event"",""trial"",""time""
""fullscreenenter"",""1"",""3286""
","
","","null","","null","","fixation","2021-04-02 18:27:00.119","","","","","",""
"card-selection-trial","113","487624","0.0-25.0-1.21","A111","false","img/card_backs/set1/red.gif","img/card_backs/set1/yellow.gif","img/card_backs/set1/purple.gif","img/card_backs/set1/green.gif","img/card_backs/set2/gray.gif","img/card_backs/set2/orange.gif","img/card_backs/set2/blue.gif","img/card_backs/set2/pink.gif","""event"",""trial"",""time""
""fullscreenenter"",""1"",""3286""
","
","
","""event"",""trial"",""time""
""fullscreenenter"",""1"",""3286""
","
","","1070.8449999801815","","","","real_trial","2021-04-02 18:27:03.198","img/card_backs/set1/red.gif","2","-240","1","",""
"casino-fixation","114","488139","0.0-25.0-0.22","A111","false","img/card_backs/set1/red.gif","img/card_backs/set1/yellow.gif","img/card_backs/set1/purple.gif","img/card_backs/set1/green.gif","img/card_backs/set2/gray.gif","img/card_backs/set2/orange.gif","img/card_backs/set2/blue.gif","img/card_backs/set2/pink.gif","""event"",""trial"",""time""
""fullscreenenter"",""1"",""3286""
","
","
","""event"",""trial"",""time""
""fullscreenenter"",""1"",""3286""
","
","","null","","null","","fixation","2021-04-02 18:27:03.713","","","","","",""
"card-selection-trial","115","491137","0.0-25.0-1.22","A111","false","img/card_backs/set1/red.gif","img/card_backs/set1/yellow.gif","img/card_backs/set1/purple.gif","img/card_backs/set1/green.gif","img/card_backs/set2/gray.gif","img/card_backs/set2/orange.gif","img/card_backs/set2/blue.gif","img/card_backs/set2/pink.gif","""event"",""trial"",""time""
""fullscreenenter"",""1"",""3286""
","
","
","""event"",""trial"",""time""
""fullscreenenter"",""1"",""3286""
","
","","982.4200000148267","","","","real_trial","2021-04-02 18:27:06.711","img/card_backs/set1/red.gif","2","190","1","",""
"casino-fixation","116","491639","0.0-25.0-0.23","A111","false","img/card_backs/set1/red.gif","img/card_backs/set1/yellow.gif","img/card_backs/set1/purple.gif","img/card_backs/set1/green.gif","img/card_backs/set2/gray.gif","img/card_backs/set2/orange.gif","img/card_backs/set2/blue.gif","img/card_backs/set2/pink.gif","""event"",""trial"",""time""
""fullscreenenter"",""1"",""3286""
","
","
","""event"",""trial"",""time""
""fullscreenenter"",""1"",""3286""
","
","","null","","null","","fixation","2021-04-02 18:27:07.213","","","","","",""
"card-selection-trial","117","494471","0.0-25.0-1.23","A111","false","img/card_backs/set1/red.gif","img/card_backs/set1/yellow.gif","img/card_backs/set1/purple.gif","img/card_backs/set1/green.gif","img/card_backs/set2/gray.gif","img/card_backs/set2/orange.gif","img/card_backs/set2/blue.gif","img/card_backs/set2/pink.gif","""event"",""trial"",""time""
""fullscreenenter"",""1"",""3286""
","
","
","""event"",""trial"",""time""
""fullscreenenter"",""1"",""3286""
","
","","825.2600000123493","","","","real_trial","2021-04-02 18:27:10.045","img/card_backs/set1/red.gif","2","-240","1","",""
"casino-fixation","118","494975","0.0-25.0-0.24","A111","false","img/card_backs/set1/red.gif","img/card_backs/set1/yellow.gif","img/card_backs/set1/purple.gif","img/card_backs/set1/green.gif","img/card_backs/set2/gray.gif","img/card_backs/set2/orange.gif","img/card_backs/set2/blue.gif","img/card_backs/set2/pink.gif","""event"",""trial"",""time""
""fullscreenenter"",""1"",""3286""
","
","
","""event"",""trial"",""time""
""fullscreenenter"",""1"",""3286""
","
","","null","","null","","fixation","2021-04-02 18:27:10.549","","","","","",""
"card-selection-trial","119","497935","0.0-25.0-1.24","A111","false","img/card_backs/set1/red.gif","img/card_backs/set1/yellow.gif","img/card_backs/set1/purple.gif","img/card_backs/set1/green.gif","img/card_backs/set2/gray.gif","img/card_backs/set2/orange.gif","img/card_backs/set2/blue.gif","img/card_backs/set2/pink.gif","""event"",""trial"",""time""
""fullscreenenter"",""1"",""3286""
","
","
","""event"",""trial"",""time""
""fullscreenenter"",""1"",""3286""
","
","","953.9349999977276","","","","real_trial","2021-04-02 18:27:13.509","img/card_backs/set1/red.gif","3","200","1","",""
"casino-fixation","120","498437","0.0-25.0-0.25","A111","false","img/card_backs/set1/red.gif","img/card_backs/set1/yellow.gif","img/card_backs/set1/purple.gif","img/card_backs/set1/green.gif","img/card_backs/set2/gray.gif","img/card_backs/set2/orange.gif","img/card_backs/set2/blue.gif","img/card_backs/set2/pink.gif","""event"",""trial"",""time""
""fullscreenenter"",""1"",""3286""
","
","
","""event"",""trial"",""time""
""fullscreenenter"",""1"",""3286""
","
","","null","","null","","fixation","2021-04-02 18:27:14.011","","","","","",""
"card-selection-trial","121","501329","0.0-25.0-1.25","A111","false","img/card_backs/set1/red.gif","img/card_backs/set1/yellow.gif","img/card_backs/set1/purple.gif","img/card_backs/set1/green.gif","img/card_backs/set2/gray.gif","img/card_backs/set2/orange.gif","img/card_backs/set2/blue.gif","img/card_backs/set2/pink.gif","""event"",""trial"",""time""
""fullscreenenter"",""1"",""3286""
","
","
","""event"",""trial"",""time""
""fullscreenenter"",""1"",""3286""
","
","","886.0100000165403","","","","real_trial","2021-04-02 18:27:16.904","img/card_backs/set1/red.gif","3","-240","1","",""
"casino-fixation","122","501833","0.0-25.0-0.26","A111","false","img/card_backs/set1/red.gif","img/card_backs/set1/yellow.gif","img/card_backs/set1/purple.gif","img/card_backs/set1/green.gif","img/card_backs/set2/gray.gif","img/card_backs/set2/orange.gif","img/card_backs/set2/blue.gif","img/card_backs/set2/pink.gif","""event"",""trial"",""time""
""fullscreenenter"",""1"",""3286""
","
","
","""event"",""trial"",""time""
""fullscreenenter"",""1"",""3286""
","
","","null","","null","","fixation","2021-04-02 18:27:17.407","","","","","",""
"card-selection-trial","123","504818","0.0-25.0-1.26","A111","false","img/card_backs/set1/red.gif","img/card_backs/set1/yellow.gif","img/card_backs/set1/purple.gif","img/card_backs/set1/green.gif","img/card_backs/set2/gray.gif","img/card_backs/set2/orange.gif","img/card_backs/set2/blue.gif","img/card_backs/set2/pink.gif","""event"",""trial"",""time""
""fullscreenenter"",""1"",""3286""
","
","
","""event"",""trial"",""time""
""fullscreenenter"",""1"",""3286""
","
","","979.0500000235625","","","","real_trial","2021-04-02 18:27:20.392","img/card_backs/set1/red.gif","2","190","1","",""
"casino-fixation","124","505321","0.0-25.0-0.27","A111","false","img/card_backs/set1/red.gif","img/card_backs/set1/yellow.gif","img/card_backs/set1/purple.gif","img/card_backs/set1/green.gif","img/card_backs/set2/gray.gif","img/card_backs/set2/orange.gif","img/card_backs/set2/blue.gif","img/card_backs/set2/pink.gif","""event"",""trial"",""time""
""fullscreenenter"",""1"",""3286""
","
","
","""event"",""trial"",""time""
""fullscreenenter"",""1"",""3286""
","
","","null","","null","","fixation","2021-04-02 18:27:20.895","","","","","",""
"card-selection-trial","125","509357","0.0-25.0-1.27","A111","false","img/card_backs/set1/red.gif","img/card_backs/set1/yellow.gif","img/card_backs/set1/purple.gif","img/card_backs/set1/green.gif","img/card_backs/set2/gray.gif","img/card_backs/set2/orange.gif","img/card_backs/set2/blue.gif","img/card_backs/set2/pink.gif","""event"",""trial"",""time""
""fullscreenenter"",""1"",""3286""
","
","
","""event"",""trial"",""time""
""fullscreenenter"",""1"",""3286""
","
","","2029.2550000012852","","","","real_trial","2021-04-02 18:27:24.931","img/card_backs/set1/green.gif","1","-70","1","",""
"casino-fixation","126","509860","0.0-25.0-0.28","A111","false","img/card_backs/set1/red.gif","img/card_backs/set1/yellow.gif","img/card_backs/set1/purple.gif","img/card_backs/set1/green.gif","img/card_backs/set2/gray.gif","img/card_backs/set2/orange.gif","img/card_backs/set2/blue.gif","img/card_backs/set2/pink.gif","""event"",""trial"",""time""
""fullscreenenter"",""1"",""3286""
","
","
","""event"",""trial"",""time""
""fullscreenenter"",""1"",""3286""
","
","","null","","null","","fixation","2021-04-02 18:27:25.434","","","","","",""
"card-selection-trial","127","513075","0.0-25.0-1.28","A111","false","img/card_backs/set1/red.gif","img/card_backs/set1/yellow.gif","img/card_backs/set1/purple.gif","img/card_backs/set1/green.gif","img/card_backs/set2/gray.gif","img/card_backs/set2/orange.gif","img/card_backs/set2/blue.gif","img/card_backs/set2/pink.gif","""event"",""trial"",""time""
""fullscreenenter"",""1"",""3286""
","
","
","""event"",""trial"",""time""
""fullscreenenter"",""1"",""3286""
","
","","1208.7649999884889","","","","real_trial","2021-04-02 18:27:28.649","img/card_backs/set1/green.gif","3","100","1","",""
"casino-fixation","128","513577","0.0-25.0-0.29","A111","false","img/card_backs/set1/red.gif","img/card_backs/set1/yellow.gif","img/card_backs/set1/purple.gif","img/card_backs/set1/green.gif","img/card_backs/set2/gray.gif","img/card_backs/set2/orange.gif","img/card_backs/set2/blue.gif","img/card_backs/set2/pink.gif","""event"",""trial"",""time""
""fullscreenenter"",""1"",""3286""
","
","
","""event"",""trial"",""time""
""fullscreenenter"",""1"",""3286""
","
","","null","","null","","fixation","2021-04-02 18:27:29.152","","","","","",""
"card-selection-trial","129","517275","0.0-25.0-1.29","A111","false","img/card_backs/set1/red.gif","img/card_backs/set1/yellow.gif","img/card_backs/set1/purple.gif","img/card_backs/set1/green.gif","img/card_backs/set2/gray.gif","img/card_backs/set2/orange.gif","img/card_backs/set2/blue.gif","img/card_backs/set2/pink.gif","""event"",""trial"",""time""
""fullscreenenter"",""1"",""3286""
","
","
","""event"",""trial"",""time""
""fullscreenenter"",""1"",""3286""
","
","","1679.0800000308082","","","","real_trial","2021-04-02 18:27:32.849","img/card_backs/set1/green.gif","2","-70","1","",""
"casino-fixation","130","517779","0.0-25.0-0.30","A111","false","img/card_backs/set1/red.gif","img/card_backs/set1/yellow.gif","img/card_backs/set1/purple.gif","img/card_backs/set1/green.gif","img/card_backs/set2/gray.gif","img/card_backs/set2/orange.gif","img/card_backs/set2/blue.gif","img/card_backs/set2/pink.gif","""event"",""trial"",""time""
""fullscreenenter"",""1"",""3286""
","
","
","""event"",""trial"",""time""
""fullscreenenter"",""1"",""3286""
","
","","null","","null","","fixation","2021-04-02 18:27:33.353","","","","","",""
"card-selection-trial","131","522285","0.0-25.0-1.30","A111","false","img/card_backs/set1/red.gif","img/card_backs/set1/yellow.gif","img/card_backs/set1/purple.gif","img/card_backs/set1/green.gif","img/card_backs/set2/gray.gif","img/card_backs/set2/orange.gif","img/card_backs/set2/blue.gif","img/card_backs/set2/pink.gif","""event"",""trial"",""time""
""fullscreenenter"",""1"",""3286""
","
","
","""event"",""trial"",""time""
""fullscreenenter"",""1"",""3286""
","
","","2499.3600000161678","","","","real_trial","2021-04-02 18:27:37.859","img/card_backs/set1/green.gif","3","-60","1","",""
"casino-fixation","132","522788","0.0-25.0-0.31","A111","false","img/card_backs/set1/red.gif","img/card_backs/set1/yellow.gif","img/card_backs/set1/purple.gif","img/card_backs/set1/green.gif","img/card_backs/set2/gray.gif","img/card_backs/set2/orange.gif","img/card_backs/set2/blue.gif","img/card_backs/set2/pink.gif","""event"",""trial"",""time""
""fullscreenenter"",""1"",""3286""
","
","
","""event"",""trial"",""time""
""fullscreenenter"",""1"",""3286""
","
","","null","","null","","fixation","2021-04-02 18:27:38.362","","","","","",""
"card-selection-trial","133","526902","0.0-25.0-1.31","A111","false","img/card_backs/set1/red.gif","img/card_backs/set1/yellow.gif","img/card_backs/set1/purple.gif","img/card_backs/set1/green.gif","img/card_backs/set2/gray.gif","img/card_backs/set2/orange.gif","img/card_backs/set2/blue.gif","img/card_backs/set2/pink.gif","""event"",""trial"",""time""
""fullscreenenter"",""1"",""3286""
","
","
","""event"",""trial"",""time""
""fullscreenenter"",""1"",""3286""
","
","","2106.2899999669753","","","","real_trial","2021-04-02 18:27:42.476","img/card_backs/set1/green.gif","3","-70","1","",""
"casino-fixation","134","527405","0.0-25.0-0.32","A111","false","img/card_backs/set1/red.gif","img/card_backs/set1/yellow.gif","img/card_backs/set1/purple.gif","img/card_backs/set1/green.gif","img/card_backs/set2/gray.gif","img/card_backs/set2/orange.gif","img/card_backs/set2/blue.gif","img/card_backs/set2/pink.gif","""event"",""trial"",""time""
""fullscreenenter"",""1"",""3286""
","
","
","""event"",""trial"",""time""
""fullscreenenter"",""1"",""3286""
","
","","null","","null","","fixation","2021-04-02 18:27:42.979","","","","","",""
"card-selection-trial","135","530611","0.0-25.0-1.32","A111","false","img/card_backs/set1/red.gif","img/card_backs/set1/yellow.gif","img/card_backs/set1/purple.gif","img/card_backs/set1/green.gif","img/card_backs/set2/gray.gif","img/card_backs/set2/orange.gif","img/card_backs/set2/blue.gif","img/card_backs/set2/pink.gif","""event"",""trial"",""time""
""fullscreenenter"",""1"",""3286""
","
","
","""event"",""trial"",""time""
""fullscreenenter"",""1"",""3286""
","
","","1199.2800000007264","","","","real_trial","2021-04-02 18:27:46.185","img/card_backs/set1/green.gif","2","110","1","",""
"casino-fixation","136","531114","0.0-25.0-0.33","A111","false","img/card_backs/set1/red.gif","img/card_backs/set1/yellow.gif","img/card_backs/set1/purple.gif","img/card_backs/set1/green.gif","img/card_backs/set2/gray.gif","img/card_backs/set2/orange.gif","img/card_backs/set2/blue.gif","img/card_backs/set2/pink.gif","""event"",""trial"",""time""
""fullscreenenter"",""1"",""3286""
","
","
","""event"",""trial"",""time""
""fullscreenenter"",""1"",""3286""
","
","","null","","null","","fixation","2021-04-02 18:27:46.688","","","","","",""
"card-selection-trial","137","534585","0.0-25.0-1.33","A111","false","img/card_backs/set1/red.gif","img/card_backs/set1/yellow.gif","img/card_backs/set1/purple.gif","img/card_backs/set1/green.gif","img/card_backs/set2/gray.gif","img/card_backs/set2/orange.gif","img/card_backs/set2/blue.gif","img/card_backs/set2/pink.gif","""event"",""trial"",""time""
""fullscreenenter"",""1"",""3286""
","
","
","""event"",""trial"",""time""
""fullscreenenter"",""1"",""3286""
","
","","1461.3499999977648","","","","real_trial","2021-04-02 18:27:50.159","img/card_backs/set1/green.gif","0","-50","1","",""
"casino-fixation","138","535087","0.0-25.0-0.34","A111","false","img/card_backs/set1/red.gif","img/card_backs/set1/yellow.gif","img/card_backs/set1/purple.gif","img/card_backs/set1/green.gif","img/card_backs/set2/gray.gif","img/card_backs/set2/orange.gif","img/card_backs/set2/blue.gif","img/card_backs/set2/pink.gif","""event"",""trial"",""time""
""fullscreenenter"",""1"",""3286""
","
","
","""event"",""trial"",""time""
""fullscreenenter"",""1"",""3286""
","
","","null","","null","","fixation","2021-04-02 18:27:50.661","","","","","",""
"card-selection-trial","139","540799","0.0-25.0-1.34","A111","false","img/card_backs/set1/red.gif","img/card_backs/set1/yellow.gif","img/card_backs/set1/purple.gif","img/card_backs/set1/green.gif","img/card_backs/set2/gray.gif","img/card_backs/set2/orange.gif","img/card_backs/set2/blue.gif","img/card_backs/set2/pink.gif","""event"",""trial"",""time""
""fullscreenenter"",""1"",""3286""
","
","
","""event"",""trial"",""time""
""fullscreenenter"",""1"",""3286""
","
","","3705.1099999807775","","","","real_trial","2021-04-02 18:27:56.373","img/card_backs/set1/yellow.gif","1","-230","1","",""
"casino-fixation","140","541302","0.0-25.0-0.35","A111","false","img/card_backs/set1/red.gif","img/card_backs/set1/yellow.gif","img/card_backs/set1/purple.gif","img/card_backs/set1/green.gif","img/card_backs/set2/gray.gif","img/card_backs/set2/orange.gif","img/card_backs/set2/blue.gif","img/card_backs/set2/pink.gif","""event"",""trial"",""time""
""fullscreenenter"",""1"",""3286""
","
","
","""event"",""trial"",""time""
""fullscreenenter"",""1"",""3286""
","
","","null","","null","","fixation","2021-04-02 18:27:56.876","","","","","",""
"card-selection-trial","141","545037","0.0-25.0-1.35","A111","false","img/card_backs/set1/red.gif","img/card_backs/set1/yellow.gif","img/card_backs/set1/purple.gif","img/card_backs/set1/green.gif","img/card_backs/set2/gray.gif","img/card_backs/set2/orange.gif","img/card_backs/set2/blue.gif","img/card_backs/set2/pink.gif","""event"",""trial"",""time""
""fullscreenenter"",""1"",""3286""
","
","
","""event"",""trial"",""time""
""fullscreenenter"",""1"",""3286""
","
","","1726.9800000358373","","","","real_trial","2021-04-02 18:28:00.611","img/card_backs/set1/yellow.gif","0","200","1","",""
"casino-fixation","142","545540","0.0-25.0-0.36","A111","false","img/card_backs/set1/red.gif","img/card_backs/set1/yellow.gif","img/card_backs/set1/purple.gif","img/card_backs/set1/green.gif","img/card_backs/set2/gray.gif","img/card_backs/set2/orange.gif","img/card_backs/set2/blue.gif","img/card_backs/set2/pink.gif","""event"",""trial"",""time""
""fullscreenenter"",""1"",""3286""
","
","
","""event"",""trial"",""time""
""fullscreenenter"",""1"",""3286""
","
","","null","","null","","fixation","2021-04-02 18:28:01.114","","","","","",""
"card-selection-trial","143","550548","0.0-25.0-1.36","A111","false","img/card_backs/set1/red.gif","img/card_backs/set1/yellow.gif","img/card_backs/set1/purple.gif","img/card_backs/set1/green.gif","img/card_backs/set2/gray.gif","img/card_backs/set2/orange.gif","img/card_backs/set2/blue.gif","img/card_backs/set2/pink.gif","""event"",""trial"",""time""
""fullscreenenter"",""1"",""3286""
","
","
","""event"",""trial"",""time""
""fullscreenenter"",""1"",""3286""
","
","","3003.0450000194833","","","","real_trial","2021-04-02 18:28:06.122","img/card_backs/set1/yellow.gif","0","-250","1","",""
"casino-fixation","144","551051","0.0-25.0-0.37","A111","false","img/card_backs/set1/red.gif","img/card_backs/set1/yellow.gif","img/card_backs/set1/purple.gif","img/card_backs/set1/green.gif","img/card_backs/set2/gray.gif","img/card_backs/set2/orange.gif","img/card_backs/set2/blue.gif","img/card_backs/set2/pink.gif","""event"",""trial"",""time""
""fullscreenenter"",""1"",""3286""
","
","
","""event"",""trial"",""time""
""fullscreenenter"",""1"",""3286""
","
","","null","","null","","fixation","2021-04-02 18:28:06.625","","","","","",""
"card-selection-trial","145","554771","0.0-25.0-1.37","A111","false","img/card_backs/set1/red.gif","img/card_backs/set1/yellow.gif","img/card_backs/set1/purple.gif","img/card_backs/set1/green.gif","img/card_backs/set2/gray.gif","img/card_backs/set2/orange.gif","img/card_backs/set2/blue.gif","img/card_backs/set2/pink.gif","""event"",""trial"",""time""
""fullscreenenter"",""1"",""3286""
","
","
","""event"",""trial"",""time""
""fullscreenenter"",""1"",""3286""
","
","","1711.814999987837","","","","real_trial","2021-04-02 18:28:10.345","img/card_backs/set1/yellow.gif","2","180","1","",""
"casino-fixation","146","555275","0.0-25.0-0.38","A111","false","img/card_backs/set1/red.gif","img/card_backs/set1/yellow.gif","img/card_backs/set1/purple.gif","img/card_backs/set1/green.gif","img/card_backs/set2/gray.gif","img/card_backs/set2/orange.gif","img/card_backs/set2/blue.gif","img/card_backs/set2/pink.gif","""event"",""trial"",""time""
""fullscreenenter"",""1"",""3286""
","
","
","""event"",""trial"",""time""
""fullscreenenter"",""1"",""3286""
","
","","null","","null","","fixation","2021-04-02 18:28:10.849","","","","","",""
"card-selection-trial","147","558363","0.0-25.0-1.38","A111","false","img/card_backs/set1/red.gif","img/card_backs/set1/yellow.gif","img/card_backs/set1/purple.gif","img/card_backs/set1/green.gif","img/card_backs/set2/gray.gif","img/card_backs/set2/orange.gif","img/card_backs/set2/blue.gif","img/card_backs/set2/pink.gif","""event"",""trial"",""time""
""fullscreenenter"",""1"",""3286""
","
","
","""event"",""trial"",""time""
""fullscreenenter"",""1"",""3286""
","
","","1081.7349999560975","","","","real_trial","2021-04-02 18:28:13.937","img/card_backs/set1/yellow.gif","2","200","1","",""
"casino-fixation","148","558866","0.0-25.0-0.39","A111","false","img/card_backs/set1/red.gif","img/card_backs/set1/yellow.gif","img/card_backs/set1/purple.gif","img/card_backs/set1/green.gif","img/card_backs/set2/gray.gif","img/card_backs/set2/orange.gif","img/card_backs/set2/blue.gif","img/card_backs/set2/pink.gif","""event"",""trial"",""time""
""fullscreenenter"",""1"",""3286""
","
","
","""event"",""trial"",""time""
""fullscreenenter"",""1"",""3286""
","
","","null","","null","","fixation","2021-04-02 18:28:14.440","","","","","",""
"card-selection-trial","149","562946","0.0-25.0-1.39","A111","false","img/card_backs/set1/red.gif","img/card_backs/set1/yellow.gif","img/card_backs/set1/purple.gif","img/card_backs/set1/green.gif","img/card_backs/set2/gray.gif","img/card_backs/set2/orange.gif","img/card_backs/set2/blue.gif","img/card_backs/set2/pink.gif","""event"",""trial"",""time""
""fullscreenenter"",""1"",""3286""
","
","
","""event"",""trial"",""time""
""fullscreenenter"",""1"",""3286""
","
","","2072.16999999946","","","","real_trial","2021-04-02 18:28:18.520","img/card_backs/set1/yellow.gif","0","-250","1","",""
"casino-fixation","150","563453","0.0-25.0-0.40","A111","false","img/card_backs/set1/red.gif","img/card_backs/set1/yellow.gif","img/card_backs/set1/purple.gif","img/card_backs/set1/green.gif","img/card_backs/set2/gray.gif","img/card_backs/set2/orange.gif","img/card_backs/set2/blue.gif","img/card_backs/set2/pink.gif","""event"",""trial"",""time""
""fullscreenenter"",""1"",""3286""
","
","
","""event"",""trial"",""time""
""fullscreenenter"",""1"",""3286""
","
","","null","","null","","fixation","2021-04-02 18:28:19.027","","","","","",""
"card-selection-trial","151","566463","0.0-25.0-1.40","A111","false","img/card_backs/set1/red.gif","img/card_backs/set1/yellow.gif","img/card_backs/set1/purple.gif","img/card_backs/set1/green.gif","img/card_backs/set2/gray.gif","img/card_backs/set2/orange.gif","img/card_backs/set2/blue.gif","img/card_backs/set2/pink.gif","""event"",""trial"",""time""
""fullscreenenter"",""1"",""3286""
","
","
","""event"",""trial"",""time""
""fullscreenenter"",""1"",""3286""
","
","","1002.6499999803491","","","","real_trial","2021-04-02 18:28:22.038","img/card_backs/set1/yellow.gif","2","180","1","",""
"casino-fixation","152","566966","0.0-25.0-0.41","A111","false","img/card_backs/set1/red.gif","img/card_backs/set1/yellow.gif","img/card_backs/set1/purple.gif","img/card_backs/set1/green.gif","img/card_backs/set2/gray.gif","img/card_backs/set2/orange.gif","img/card_backs/set2/blue.gif","img/card_backs/set2/pink.gif","""event"",""trial"",""time""
""fullscreenenter"",""1"",""3286""
","
","
","""event"",""trial"",""time""
""fullscreenenter"",""1"",""3286""
","
","","null","","null","","fixation","2021-04-02 18:28:22.540","","","","","",""
"card-selection-trial","153","574160","0.0-25.0-1.41","A111","false","img/card_backs/set1/red.gif","img/card_backs/set1/yellow.gif","img/card_backs/set1/purple.gif","img/card_backs/set1/green.gif","img/card_backs/set2/gray.gif","img/card_backs/set2/orange.gif","img/card_backs/set2/blue.gif","img/card_backs/set2/pink.gif","""event"",""trial"",""time""
""fullscreenenter"",""1"",""3286""
","
","
","""event"",""trial"",""time""
""fullscreenenter"",""1"",""3286""
","
","","5185.170000011567","","","","real_trial","2021-04-02 18:28:29.734","img/card_backs/set1/yellow.gif","3","190","1","",""
"casino-fixation","154","574663","0.0-25.0-0.42","A111","false","img/card_backs/set1/red.gif","img/card_backs/set1/yellow.gif","img/card_backs/set1/purple.gif","img/card_backs/set1/green.gif","img/card_backs/set2/gray.gif","img/card_backs/set2/orange.gif","img/card_backs/set2/blue.gif","img/card_backs/set2/pink.gif","""event"",""trial"",""time""
""fullscreenenter"",""1"",""3286""
","
","
","""event"",""trial"",""time""
""fullscreenenter"",""1"",""3286""
","
","","null","","null","","fixation","2021-04-02 18:28:30.237","","","","","",""
"card-selection-trial","155","577600","0.0-25.0-1.42","A111","false","img/card_backs/set1/red.gif","img/card_backs/set1/yellow.gif","img/card_backs/set1/purple.gif","img/card_backs/set1/green.gif","img/card_backs/set2/gray.gif","img/card_backs/set2/orange.gif","img/card_backs/set2/blue.gif","img/card_backs/set2/pink.gif","""event"",""trial"",""time""
""fullscreenenter"",""1"",""3286""
","
","
","""event"",""trial"",""time""
""fullscreenenter"",""1"",""3286""
","
","","930.3700000164099","","","","real_trial","2021-04-02 18:28:33.174","img/card_backs/set1/yellow.gif","2","-250","1","",""
"casino-fixation","156","578101","0.0-25.0-0.43","A111","false","img/card_backs/set1/red.gif","img/card_backs/set1/yellow.gif","img/card_backs/set1/purple.gif","img/card_backs/set1/green.gif","img/card_backs/set2/gray.gif","img/card_backs/set2/orange.gif","img/card_backs/set2/blue.gif","img/card_backs/set2/pink.gif","""event"",""trial"",""time""
""fullscreenenter"",""1"",""3286""
","
","
","""event"",""trial"",""time""
""fullscreenenter"",""1"",""3286""
","
","","null","","null","","fixation","2021-04-02 18:28:33.675","","","","","",""
"card-selection-trial","157","581096","0.0-25.0-1.43","A111","false","img/card_backs/set1/red.gif","img/card_backs/set1/yellow.gif","img/card_backs/set1/purple.gif","img/card_backs/set1/green.gif","img/card_backs/set2/gray.gif","img/card_backs/set2/orange.gif","img/card_backs/set2/blue.gif","img/card_backs/set2/pink.gif","""event"",""trial"",""time""
""fullscreenenter"",""1"",""3286""
","
","
","""event"",""trial"",""time""
""fullscreenenter"",""1"",""3286""
","
","","987.9599999985658","","","","real_trial","2021-04-02 18:28:36.670","img/card_backs/set1/yellow.gif","2","-230","1","",""
"casino-fixation","158","581598","0.0-25.0-0.44","A111","false","img/card_backs/set1/red.gif","img/card_backs/set1/yellow.gif","img/card_backs/set1/purple.gif","img/card_backs/set1/green.gif","img/card_backs/set2/gray.gif","img/card_backs/set2/orange.gif","img/card_backs/set2/blue.gif","img/card_backs/set2/pink.gif","""event"",""trial"",""time""
""fullscreenenter"",""1"",""3286""
","
","
","""event"",""trial"",""time""
""fullscreenenter"",""1"",""3286""
","
","","null","","null","","fixation","2021-04-02 18:28:37.173","","","","","",""
"card-selection-trial","159","586607","0.0-25.0-1.44","A111","false","img/card_backs/set1/red.gif","img/card_backs/set1/yellow.gif","img/card_backs/set1/purple.gif","img/card_backs/set1/green.gif","img/card_backs/set2/gray.gif","img/card_backs/set2/orange.gif","img/card_backs/set2/blue.gif","img/card_backs/set2/pink.gif","""event"",""trial"",""time""
""fullscreenenter"",""1"",""3286""
","
","
","""event"",""trial"",""time""
""fullscreenenter"",""1"",""3286""
","
","","3004.7149999882095","","","","real_trial","2021-04-02 18:28:42.181","img/card_backs/set1/red.gif","3","-240","1","",""
"casino-fixation","160","587111","0.0-25.0-0.45","A111","false","img/card_backs/set1/red.gif","img/card_backs/set1/yellow.gif","img/card_backs/set1/purple.gif","img/card_backs/set1/green.gif","img/card_backs/set2/gray.gif","img/card_backs/set2/orange.gif","img/card_backs/set2/blue.gif","img/card_backs/set2/pink.gif","""event"",""trial"",""time""
""fullscreenenter"",""1"",""3286""
","
","
","""event"",""trial"",""time""
""fullscreenenter"",""1"",""3286""
","
","","null","","null","","fixation","2021-04-02 18:28:42.685","","","","","",""
"card-selection-trial","161","596512","0.0-25.0-1.45","A111","false","img/card_backs/set1/red.gif","img/card_backs/set1/yellow.gif","img/card_backs/set1/purple.gif","img/card_backs/set1/green.gif","img/card_backs/set2/gray.gif","img/card_backs/set2/orange.gif","img/card_backs/set2/blue.gif","img/card_backs/set2/pink.gif","""event"",""trial"",""time""
""fullscreenenter"",""1"",""3286""
","
","
","""event"",""trial"",""time""
""fullscreenenter"",""1"",""3286""
","
","","7384.889999986626","","","","real_trial","2021-04-02 18:28:52.086","img/card_backs/set1/red.gif","1","-240","1","",""
"casino-fixation","162","597015","0.0-25.0-0.46","A111","false","img/card_backs/set1/red.gif","img/card_backs/set1/yellow.gif","img/card_backs/set1/purple.gif","img/card_backs/set1/green.gif","img/card_backs/set2/gray.gif","img/card_backs/set2/orange.gif","img/card_backs/set2/blue.gif","img/card_backs/set2/pink.gif","""event"",""trial"",""time""
""fullscreenenter"",""1"",""3286""
","
","
","""event"",""trial"",""time""
""fullscreenenter"",""1"",""3286""
","
","","null","","null","","fixation","2021-04-02 18:28:52.589","","","","","",""
"card-selection-trial","163","600573","0.0-25.0-1.46","A111","false","img/card_backs/set1/red.gif","img/card_backs/set1/yellow.gif","img/card_backs/set1/purple.gif","img/card_backs/set1/green.gif","img/card_backs/set2/gray.gif","img/card_backs/set2/orange.gif","img/card_backs/set2/blue.gif","img/card_backs/set2/pink.gif","""event"",""trial"",""time""
""fullscreenenter"",""1"",""3286""
","
","
","""event"",""trial"",""time""
""fullscreenenter"",""1"",""3286""
","
","","1552.0350000006147","","","","real_trial","2021-04-02 18:28:56.147","img/card_backs/set1/red.gif","1","200","1","",""
"casino-fixation","164","601077","0.0-25.0-0.47","A111","false","img/card_backs/set1/red.gif","img/card_backs/set1/yellow.gif","img/card_backs/set1/purple.gif","img/card_backs/set1/green.gif","img/card_backs/set2/gray.gif","img/card_backs/set2/orange.gif","img/card_backs/set2/blue.gif","img/card_backs/set2/pink.gif","""event"",""trial"",""time""
""fullscreenenter"",""1"",""3286""
","
","
","""event"",""trial"",""time""
""fullscreenenter"",""1"",""3286""
","
","","null","","null","","fixation","2021-04-02 18:28:56.651","","","","","",""
"card-selection-trial","165","605985","0.0-25.0-1.47","A111","false","img/card_backs/set1/red.gif","img/card_backs/set1/yellow.gif","img/card_backs/set1/purple.gif","img/card_backs/set1/green.gif","img/card_backs/set2/gray.gif","img/card_backs/set2/orange.gif","img/card_backs/set2/blue.gif","img/card_backs/set2/pink.gif","""event"",""trial"",""time""
""fullscreenenter"",""1"",""3286""
","
","
","""event"",""trial"",""time""
""fullscreenenter"",""1"",""3286""
","
","","2898.7749999505468","","","","real_trial","2021-04-02 18:29:01.559","img/card_backs/set1/red.gif","0","-240","1","",""
"casino-fixation","166","606488","0.0-25.0-0.48","A111","false","img/card_backs/set1/red.gif","img/card_backs/set1/yellow.gif","img/card_backs/set1/purple.gif","img/card_backs/set1/green.gif","img/card_backs/set2/gray.gif","img/card_backs/set2/orange.gif","img/card_backs/set2/blue.gif","img/card_backs/set2/pink.gif","""event"",""trial"",""time""
""fullscreenenter"",""1"",""3286""
","
","
","""event"",""trial"",""time""
""fullscreenenter"",""1"",""3286""
","
","","null","","null","","fixation","2021-04-02 18:29:02.062","","","","","",""
