"trial_type","trial_index","time_elapsed","internal_node_id","sub_id","risk_good_first","block1_A","block1_B","block1_C","block1_D","block2_A","block2_B","block2_C","block2_D","interactions","blur_events","focus_events","fullscreenenter_events","fullscreenexit_events","success","rt","stimulus","key_press","button_pressed","task_part","timestamp","card_choice","choice_position","points_earned","block","correct","response"
"pavlovia","0","9","0.0-0.0","513","true","img/card_backs/set1/red.gif","img/card_backs/set1/yellow.gif","img/card_backs/set1/purple.gif","img/card_backs/set1/green.gif","img/card_backs/set2/orange.gif","img/card_backs/set2/pink.gif","img/card_backs/set2/gray.gif","img/card_backs/set2/blue.gif","""event"",""trial"",""time""
""fullscreenenter"",""1"",""12220""
","
","
","""event"",""trial"",""time""
""fullscreenenter"",""1"",""12220""
","
","","","","","","","","","","","","",""
"fullscreen","1","13203","0.0-1.0","513","true","img/card_backs/set1/red.gif","img/card_backs/set1/yellow.gif","img/card_backs/set1/purple.gif","img/card_backs/set1/green.gif","img/card_backs/set2/orange.gif","img/card_backs/set2/pink.gif","img/card_backs/set2/gray.gif","img/card_backs/set2/blue.gif","""event"",""trial"",""time""
""fullscreenenter"",""1"",""12220""
","
","
","""event"",""trial"",""time""
""fullscreenenter"",""1"",""12220""
","
","true","","","","","","","","","","","",""
"audio-keyboard-response","2","14594","0.0-2.0","513","true","img/card_backs/set1/red.gif","img/card_backs/set1/yellow.gif","img/card_backs/set1/purple.gif","img/card_backs/set1/green.gif","img/card_backs/set2/orange.gif","img/card_backs/set2/pink.gif","img/card_backs/set2/gray.gif","img/card_backs/set2/blue.gif","""event"",""trial"",""time""
""fullscreenenter"",""1"",""12220""
","
","
","""event"",""trial"",""time""
""fullscreenenter"",""1"",""12220""
","
","","1312","audio/beep_loop.wav","32","","","","","","","","",""
"audio-button-response","3","16411","0.0-3.0","513","true","img/card_backs/set1/red.gif","img/card_backs/set1/yellow.gif","img/card_backs/set1/purple.gif","img/card_backs/set1/green.gif","img/card_backs/set2/orange.gif","img/card_backs/set2/pink.gif","img/card_backs/set2/gray.gif","img/card_backs/set2/blue.gif","""event"",""trial"",""time""
""fullscreenenter"",""1"",""12220""
","
","
","""event"",""trial"",""time""
""fullscreenenter"",""1"",""12220""
","
","","NaN","audio/turtle.mp3","","3","","","","","","","",""
"audio-button-response","4","18711","0.0-4.0","513","true","img/card_backs/set1/red.gif","img/card_backs/set1/yellow.gif","img/card_backs/set1/purple.gif","img/card_backs/set1/green.gif","img/card_backs/set2/orange.gif","img/card_backs/set2/pink.gif","img/card_backs/set2/gray.gif","img/card_backs/set2/blue.gif","""event"",""trial"",""time""
""fullscreenenter"",""1"",""12220""
","
","
","""event"",""trial"",""time""
""fullscreenenter"",""1"",""12220""
","
","","NaN","audio/shark.mp3","","2","","","","","","","",""
"fullscreen","5","94276","0.0-5.0","513","true","img/card_backs/set1/red.gif","img/card_backs/set1/yellow.gif","img/card_backs/set1/purple.gif","img/card_backs/set1/green.gif","img/card_backs/set2/orange.gif","img/card_backs/set2/pink.gif","img/card_backs/set2/gray.gif","img/card_backs/set2/blue.gif","""event"",""trial"",""time""
""fullscreenenter"",""1"",""12220""
","
","
","""event"",""trial"",""time""
""fullscreenenter"",""1"",""12220""
","
","true","","","","","","","","","","","",""
"casino-keyboard-response","6","97425","0.0-6.0-0.0","513","true","img/card_backs/set1/red.gif","img/card_backs/set1/yellow.gif","img/card_backs/set1/purple.gif","img/card_backs/set1/green.gif","img/card_backs/set2/orange.gif","img/card_backs/set2/pink.gif","img/card_backs/set2/gray.gif","img/card_backs/set2/blue.gif","""event"",""trial"",""time""
""fullscreenenter"",""1"",""12220""
","
","
","""event"",""trial"",""time""
""fullscreenenter"",""1"",""12220""
","
","","3145.375","Welcome to the casino!","71","","instructions","2021-06-03 20:32:36.526","","","","","",""
"casino-keyboard-response","7","107898","0.0-6.0-0.1","513","true","img/card_backs/set1/red.gif","img/card_backs/set1/yellow.gif","img/card_backs/set1/purple.gif","img/card_backs/set1/green.gif","img/card_backs/set2/orange.gif","img/card_backs/set2/pink.gif","img/card_backs/set2/gray.gif","img/card_backs/set2/blue.gif","""event"",""trial"",""time""
""fullscreenenter"",""1"",""12220""
","
","
","""event"",""trial"",""time""
""fullscreenenter"",""1"",""12220""
","
","","10470.995000000024","Today you will be playing a game to earn tokens. </br> At the end of the experiment, you will be paid a bonus based on how many tokens you win. ","69","","instructions","2021-06-03 20:32:46.998","","","","","",""
"casino-keyboard-response","8","115729","0.0-6.0-0.2","513","true","img/card_backs/set1/red.gif","img/card_backs/set1/yellow.gif","img/card_backs/set1/purple.gif","img/card_backs/set1/green.gif","img/card_backs/set2/orange.gif","img/card_backs/set2/pink.gif","img/card_backs/set2/gray.gif","img/card_backs/set2/blue.gif","""event"",""trial"",""time""
""fullscreenenter"",""1"",""12220""
","
","
","""event"",""trial"",""time""
""fullscreenenter"",""1"",""12220""
","
","","7829.184999999983","On every turn, you will be shown four different decks of cards. </br> You need to select a card from one of the four decks.  ","75","","instructions","2021-06-03 20:32:54.829","","","","","",""
"casino-keyboard-response","9","121103","0.0-6.0-0.3","513","true","img/card_backs/set1/red.gif","img/card_backs/set1/yellow.gif","img/card_backs/set1/purple.gif","img/card_backs/set1/green.gif","img/card_backs/set2/orange.gif","img/card_backs/set2/pink.gif","img/card_backs/set2/gray.gif","img/card_backs/set2/blue.gif","""event"",""trial"",""time""
""fullscreenenter"",""1"",""12220""
","
","
","""event"",""trial"",""time""
""fullscreenenter"",""1"",""12220""
","
","","5371.399999999994","On the next screen, you will see what the decks will look like. ","66","","instructions","2021-06-03 20:33:00.203","","","","","",""
"card-selection-trial","10","125108","0.0-7.0-0.0","513","true","img/card_backs/set1/red.gif","img/card_backs/set1/yellow.gif","img/card_backs/set1/purple.gif","img/card_backs/set1/green.gif","img/card_backs/set2/orange.gif","img/card_backs/set2/pink.gif","img/card_backs/set2/gray.gif","img/card_backs/set2/blue.gif","""event"",""trial"",""time""
""fullscreenenter"",""1"",""12220""
","
","
","""event"",""trial"",""time""
""fullscreenenter"",""1"",""12220""
","
","","null","","","","practice","2021-06-03 20:33:04.208","null","null","null","0","",""
"casino-keyboard-response","11","132597","0.0-8.0-0.0","513","true","img/card_backs/set1/red.gif","img/card_backs/set1/yellow.gif","img/card_backs/set1/purple.gif","img/card_backs/set1/green.gif","img/card_backs/set2/orange.gif","img/card_backs/set2/pink.gif","img/card_backs/set2/gray.gif","img/card_backs/set2/blue.gif","""event"",""trial"",""time""
""fullscreenenter"",""1"",""12220""
","
","
","""event"",""trial"",""time""
""fullscreenenter"",""1"",""12220""
","
","","7487.3949999999895","You should pick a card from a deck using the '2', '4', '6', and '8' keys at the top of the keyboard.","85","","instructions","2021-06-03 20:33:11.697","","","","","",""
"casino-keyboard-response","12","137810","0.0-8.0-0.1","513","true","img/card_backs/set1/red.gif","img/card_backs/set1/yellow.gif","img/card_backs/set1/purple.gif","img/card_backs/set1/green.gif","img/card_backs/set2/orange.gif","img/card_backs/set2/pink.gif","img/card_backs/set2/gray.gif","img/card_backs/set2/blue.gif","""event"",""trial"",""time""
""fullscreenenter"",""1"",""12220""
","
","
","""event"",""trial"",""time""
""fullscreenenter"",""1"",""12220""
","
","","5210.755000000034","Once you select a card, it will turn over and you will see how many tokens you earned.","83","","instructions","2021-06-03 20:33:16.910","","","","","",""
"casino-keyboard-response","13","152008","0.0-8.0-0.2","513","true","img/card_backs/set1/red.gif","img/card_backs/set1/yellow.gif","img/card_backs/set1/purple.gif","img/card_backs/set1/green.gif","img/card_backs/set2/orange.gif","img/card_backs/set2/pink.gif","img/card_backs/set2/gray.gif","img/card_backs/set2/blue.gif","""event"",""trial"",""time""
""fullscreenenter"",""1"",""12220""
","
","
","""event"",""trial"",""time""
""fullscreenenter"",""1"",""12220""
","
","","14196.160000000033","Let's try practicing that! </br> First, try to put your fingers over the '2', '4', '6', and '8' keys. </br>  You can use whatever fingers are most comfortable for you. Try to find a comfortable position now. ","50","","instructions","2021-06-03 20:33:31.108","","","","","",""
"casino-keyboard-response","14","157656","0.0-8.0-0.3","513","true","img/card_backs/set1/red.gif","img/card_backs/set1/yellow.gif","img/card_backs/set1/purple.gif","img/card_backs/set1/green.gif","img/card_backs/set2/orange.gif","img/card_backs/set2/pink.gif","img/card_backs/set2/gray.gif","img/card_backs/set2/blue.gif","""event"",""trial"",""time""
""fullscreenenter"",""1"",""12220""
","
","
","""event"",""trial"",""time""
""fullscreenenter"",""1"",""12220""
","
","","5645.435000000027","Okay ready? </br> On the next screen, press '2' to select the left deck. ","50","","instructions","2021-06-03 20:33:36.756","","","","","",""
"card-selection-trial","15","160469","0.0-9.0-0.0","513","true","img/card_backs/set1/red.gif","img/card_backs/set1/yellow.gif","img/card_backs/set1/purple.gif","img/card_backs/set1/green.gif","img/card_backs/set2/orange.gif","img/card_backs/set2/pink.gif","img/card_backs/set2/gray.gif","img/card_backs/set2/blue.gif","""event"",""trial"",""time""
""fullscreenenter"",""1"",""12220""
","
","
","""event"",""trial"",""time""
""fullscreenenter"",""1"",""12220""
","
","","766.5849999999627","","","","practice_card_selection","2021-06-03 20:33:39.569","img/practice_cards/backs/dark_green.gif","0","200","","",""
"casino-keyboard-response","16","166150","0.0-10.0-0.0","513","true","img/card_backs/set1/red.gif","img/card_backs/set1/yellow.gif","img/card_backs/set1/purple.gif","img/card_backs/set1/green.gif","img/card_backs/set2/orange.gif","img/card_backs/set2/pink.gif","img/card_backs/set2/gray.gif","img/card_backs/set2/blue.gif","""event"",""trial"",""time""
""fullscreenenter"",""1"",""12220""
","
","
","""event"",""trial"",""time""
""fullscreenenter"",""1"",""12220""
","
","","5678.979999999981","Great! Now on the next screen, try pressing '6' to select the third deck.","54","","instructions","2021-06-03 20:33:45.250","","","","","",""
"card-selection-trial","17","168614","0.0-11.0-0.0","513","true","img/card_backs/set1/red.gif","img/card_backs/set1/yellow.gif","img/card_backs/set1/purple.gif","img/card_backs/set1/green.gif","img/card_backs/set2/orange.gif","img/card_backs/set2/pink.gif","img/card_backs/set2/gray.gif","img/card_backs/set2/blue.gif","""event"",""trial"",""time""
""fullscreenenter"",""1"",""12220""
","
","
","""event"",""trial"",""time""
""fullscreenenter"",""1"",""12220""
","
","","456.46000000005006","","","","practice_card_selection","2021-06-03 20:33:47.714","img/practice_cards/backs/black.gif","2","-100","","",""
"casino-keyboard-response","18","173644","0.0-12.0-0.0","513","true","img/card_backs/set1/red.gif","img/card_backs/set1/yellow.gif","img/card_backs/set1/purple.gif","img/card_backs/set1/green.gif","img/card_backs/set2/orange.gif","img/card_backs/set2/pink.gif","img/card_backs/set2/gray.gif","img/card_backs/set2/blue.gif","""event"",""trial"",""time""
""fullscreenenter"",""1"",""12220""
","
","
","""event"",""trial"",""time""
""fullscreenenter"",""1"",""12220""
","
","","5028.6050000000105","Now on the next screen, try pressing '4' to select the second deck.","52","","instructions","2021-06-03 20:33:52.744","","","","","",""
"card-selection-trial","19","176130","0.0-13.0-0.0","513","true","img/card_backs/set1/red.gif","img/card_backs/set1/yellow.gif","img/card_backs/set1/purple.gif","img/card_backs/set1/green.gif","img/card_backs/set2/orange.gif","img/card_backs/set2/pink.gif","img/card_backs/set2/gray.gif","img/card_backs/set2/blue.gif","""event"",""trial"",""time""
""fullscreenenter"",""1"",""12220""
","
","
","""event"",""trial"",""time""
""fullscreenenter"",""1"",""12220""
","
","","475.9300000000221","","","","practice_card_selection","2021-06-03 20:33:55.230","img/practice_cards/backs/dark_green.gif","1","200","","",""
"casino-keyboard-response","20","180339","0.0-14.0-0.0","513","true","img/card_backs/set1/red.gif","img/card_backs/set1/yellow.gif","img/card_backs/set1/purple.gif","img/card_backs/set1/green.gif","img/card_backs/set2/orange.gif","img/card_backs/set2/pink.gif","img/card_backs/set2/gray.gif","img/card_backs/set2/blue.gif","""event"",""trial"",""time""
""fullscreenenter"",""1"",""12220""
","
","
","""event"",""trial"",""time""
""fullscreenenter"",""1"",""12220""
","
","","4206.5749999999825","Finally, try pressing '8' to select the deck all the way on the right.","56","","instructions","2021-06-03 20:33:59.439","","","","","",""
"card-selection-trial","21","182834","0.0-15.0-0.0","513","true","img/card_backs/set1/red.gif","img/card_backs/set1/yellow.gif","img/card_backs/set1/purple.gif","img/card_backs/set1/green.gif","img/card_backs/set2/orange.gif","img/card_backs/set2/pink.gif","img/card_backs/set2/gray.gif","img/card_backs/set2/blue.gif","""event"",""trial"",""time""
""fullscreenenter"",""1"",""12220""
","
","
","""event"",""trial"",""time""
""fullscreenenter"",""1"",""12220""
","
","","489.97000000003027","","","","practice_card_selection","2021-06-03 20:34:01.934","img/practice_cards/backs/dark_green.gif","3","200","","",""
"casino-keyboard-response","22","188078","0.0-16.0-0.0","513","true","img/card_backs/set1/red.gif","img/card_backs/set1/yellow.gif","img/card_backs/set1/purple.gif","img/card_backs/set1/green.gif","img/card_backs/set2/orange.gif","img/card_backs/set2/pink.gif","img/card_backs/set2/gray.gif","img/card_backs/set2/blue.gif","""event"",""trial"",""time""
""fullscreenenter"",""1"",""12220""
","
","
","""event"",""trial"",""time""
""fullscreenenter"",""1"",""12220""
","
","","5242.475000000006","Great! It seems like you are getting the hang of this.","80","","instructions","2021-06-03 20:34:07.178","","","","","",""
"casino-keyboard-response","23","196781","0.0-16.0-0.1","513","true","img/card_backs/set1/red.gif","img/card_backs/set1/yellow.gif","img/card_backs/set1/purple.gif","img/card_backs/set1/green.gif","img/card_backs/set2/orange.gif","img/card_backs/set2/pink.gif","img/card_backs/set2/gray.gif","img/card_backs/set2/blue.gif","""event"",""trial"",""time""
""fullscreenenter"",""1"",""12220""
","
","
","""event"",""trial"",""time""
""fullscreenenter"",""1"",""12220""
","
","","8700.775000000023","You may have noticed that some cards will cause you to <b> win </b> tokens while other cards will cause you to <b> lose </b>  tokens.","70","","instructions","2021-06-03 20:34:15.881","","","","","",""
"casino-keyboard-response","24","206537","0.0-16.0-0.2","513","true","img/card_backs/set1/red.gif","img/card_backs/set1/yellow.gif","img/card_backs/set1/purple.gif","img/card_backs/set1/green.gif","img/card_backs/set2/orange.gif","img/card_backs/set2/pink.gif","img/card_backs/set2/gray.gif","img/card_backs/set2/blue.gif","""event"",""trial"",""time""
""fullscreenenter"",""1"",""12220""
","
","
","""event"",""trial"",""time""
""fullscreenenter"",""1"",""12220""
","
","","9754.005000000063","Each deck has a mix of cards that will cause you to win and lose tokens. </br> However, the cards in each colored deck are different.","73","","instructions","2021-06-03 20:34:25.637","","","","","",""
"casino-keyboard-response","25","220612","0.0-16.0-0.3","513","true","img/card_backs/set1/red.gif","img/card_backs/set1/yellow.gif","img/card_backs/set1/purple.gif","img/card_backs/set1/green.gif","img/card_backs/set2/orange.gif","img/card_backs/set2/pink.gif","img/card_backs/set2/gray.gif","img/card_backs/set2/blue.gif","""event"",""trial"",""time""
""fullscreenenter"",""1"",""12220""
","
","
","""event"",""trial"",""time""
""fullscreenenter"",""1"",""12220""
","
","","14073.065000000031","Some colored decks are luckier than others. </br> If you choose the lucky decks, you will earn more tokens than if you choose the unlucky decks.","69","","instructions","2021-06-03 20:34:39.712","","","","","",""
"casino-keyboard-response","26","227626","0.0-16.0-0.4","513","true","img/card_backs/set1/red.gif","img/card_backs/set1/yellow.gif","img/card_backs/set1/purple.gif","img/card_backs/set1/green.gif","img/card_backs/set2/orange.gif","img/card_backs/set2/pink.gif","img/card_backs/set2/gray.gif","img/card_backs/set2/blue.gif","""event"",""trial"",""time""
""fullscreenenter"",""1"",""12220""
","
","
","""event"",""trial"",""time""
""fullscreenenter"",""1"",""12220""
","
","","7011.76999999996","You should try to figure out which decks are lucky. </br> Then, try to choose the lucky decks so you can win the most tokens.","87","","instructions","2021-06-03 20:34:46.726","","","","","",""
"casino-keyboard-response","27","238897","0.0-16.0-0.5","513","true","img/card_backs/set1/red.gif","img/card_backs/set1/yellow.gif","img/card_backs/set1/purple.gif","img/card_backs/set1/green.gif","img/card_backs/set2/orange.gif","img/card_backs/set2/pink.gif","img/card_backs/set2/gray.gif","img/card_backs/set2/blue.gif","""event"",""trial"",""time""
""fullscreenenter"",""1"",""12220""
","
","
","""event"",""trial"",""time""
""fullscreenenter"",""1"",""12220""
","
","","11269.165000000037","To make it trickier, the casino dealer will switch the locations of the decks on every turn. </br> The color of the deck determines how lucky it is. The location does not matter.","88","","instructions","2021-06-03 20:34:57.997","","","","","",""
"casino-keyboard-response","28","252032","0.0-16.0-0.6","513","true","img/card_backs/set1/red.gif","img/card_backs/set1/yellow.gif","img/card_backs/set1/purple.gif","img/card_backs/set1/green.gif","img/card_backs/set2/orange.gif","img/card_backs/set2/pink.gif","img/card_backs/set2/gray.gif","img/card_backs/set2/blue.gif","""event"",""trial"",""time""
""fullscreenenter"",""1"",""12220""
","
","
","""event"",""trial"",""time""
""fullscreenenter"",""1"",""12220""
","
","","13132.499999999913","The mix of cards in each colored deck will stay the same throughout the game. </br> That means that a deck that is lucky early on will stay lucky.","79","","instructions","2021-06-03 20:35:11.132","","","","","",""
"casino-keyboard-response","29","266641","0.0-16.0-0.7","513","true","img/card_backs/set1/red.gif","img/card_backs/set1/yellow.gif","img/card_backs/set1/purple.gif","img/card_backs/set1/green.gif","img/card_backs/set2/orange.gif","img/card_backs/set2/pink.gif","img/card_backs/set2/gray.gif","img/card_backs/set2/blue.gif","""event"",""trial"",""time""
""fullscreenenter"",""1"",""12220""
","
","
","""event"",""trial"",""time""
""fullscreenenter"",""1"",""12220""
","
","","14607.145000000048","Remember though, all the decks have a <b> mix </b> of both <b> good </b> and <b> bad </b> cards so it may take a couple of turns to figure out if a deck is lucky.","69","","instructions","2021-06-03 20:35:25.741","","","","","",""
"casino-keyboard-response","30","274934","0.0-16.0-0.8","513","true","img/card_backs/set1/red.gif","img/card_backs/set1/yellow.gif","img/card_backs/set1/purple.gif","img/card_backs/set1/green.gif","img/card_backs/set2/orange.gif","img/card_backs/set2/pink.gif","img/card_backs/set2/gray.gif","img/card_backs/set2/blue.gif","""event"",""trial"",""time""
""fullscreenenter"",""1"",""12220""
","
","
","""event"",""trial"",""time""
""fullscreenenter"",""1"",""12220""
","
","","8291.359999999928","At the end of the game, you will be paid bonus money based on how many tokens you win. </br> If you win more tokens, you will earn more money!","72","","instructions","2021-06-03 20:35:34.034","","","","","",""
"casino-keyboard-response","31","285028","0.0-16.0-0.9","513","true","img/card_backs/set1/red.gif","img/card_backs/set1/yellow.gif","img/card_backs/set1/purple.gif","img/card_backs/set1/green.gif","img/card_backs/set2/orange.gif","img/card_backs/set2/pink.gif","img/card_backs/set2/gray.gif","img/card_backs/set2/blue.gif","""event"",""trial"",""time""
""fullscreenenter"",""1"",""12220""
","
","
","""event"",""trial"",""time""
""fullscreenenter"",""1"",""12220""
","
","","10091.389999999956","You will never <b> lose </b> money. </br> If you end up with fewer than 0 tokens, you will earn $0 of bonus money, but you will still be paid for playing the game.","83","","instructions","2021-06-03 20:35:44.128","","","","","",""
"casino-keyboard-response","32","290744","0.0-16.0-0.10","513","true","img/card_backs/set1/red.gif","img/card_backs/set1/yellow.gif","img/card_backs/set1/purple.gif","img/card_backs/set1/green.gif","img/card_backs/set2/orange.gif","img/card_backs/set2/pink.gif","img/card_backs/set2/gray.gif","img/card_backs/set2/blue.gif","""event"",""trial"",""time""
""fullscreenenter"",""1"",""12220""
","
","
","""event"",""trial"",""time""
""fullscreenenter"",""1"",""12220""
","
","","5714.449999999953","You will have 10 seconds to make each choice.","82","","instructions","2021-06-03 20:35:49.844","","","","","",""
"casino-keyboard-response","33","299219","0.0-16.0-0.11","513","true","img/card_backs/set1/red.gif","img/card_backs/set1/yellow.gif","img/card_backs/set1/purple.gif","img/card_backs/set1/green.gif","img/card_backs/set2/orange.gif","img/card_backs/set2/pink.gif","img/card_backs/set2/gray.gif","img/card_backs/set2/blue.gif","""event"",""trial"",""time""
""fullscreenenter"",""1"",""12220""
","
","
","""event"",""trial"",""time""
""fullscreenenter"",""1"",""12220""
","
","","8469.689999999886","Before you play the game for real, you will play with practice decks. </br> The tokens you earn during practice won't count toward your total.","86","","instructions","2021-06-03 20:35:58.320","","","","","",""
"casino-keyboard-response","34","313305","0.0-16.0-0.12","513","true","img/card_backs/set1/red.gif","img/card_backs/set1/yellow.gif","img/card_backs/set1/purple.gif","img/card_backs/set1/green.gif","img/card_backs/set2/orange.gif","img/card_backs/set2/pink.gif","img/card_backs/set2/gray.gif","img/card_backs/set2/blue.gif","""event"",""trial"",""time""
""fullscreenenter"",""1"",""12220""
","
","
","""event"",""trial"",""time""
""fullscreenenter"",""1"",""12220""
","
","","14083.31500000006","Ready? Remember, use the '2', '4', '6', and '8' keys to select the decks. </br> Put your fingers on those keys now and then press '2' to begin.","50","","instructions","2021-06-03 20:36:12.405","","","","","",""
"casino-fixation","35","313808","0.0-17.0-0.0","513","true","img/card_backs/set1/red.gif","img/card_backs/set1/yellow.gif","img/card_backs/set1/purple.gif","img/card_backs/set1/green.gif","img/card_backs/set2/orange.gif","img/card_backs/set2/pink.gif","img/card_backs/set2/gray.gif","img/card_backs/set2/blue.gif","""event"",""trial"",""time""
""fullscreenenter"",""1"",""12220""
","
","
","""event"",""trial"",""time""
""fullscreenenter"",""1"",""12220""
","
","","null","","null","","fixation","2021-06-03 20:36:12.908","","","","","",""
"card-selection-trial","36","316766","0.0-17.0-1.0","513","true","img/card_backs/set1/red.gif","img/card_backs/set1/yellow.gif","img/card_backs/set1/purple.gif","img/card_backs/set1/green.gif","img/card_backs/set2/orange.gif","img/card_backs/set2/pink.gif","img/card_backs/set2/gray.gif","img/card_backs/set2/blue.gif","""event"",""trial"",""time""
""fullscreenenter"",""1"",""12220""
","
","
","""event"",""trial"",""time""
""fullscreenenter"",""1"",""12220""
","
","","945.570000000007","","","","practice","2021-06-03 20:36:15.866","img/practice_cards/backs/dark_green.gif","0","200","0","",""
"casino-fixation","37","317268","0.0-17.0-0.1","513","true","img/card_backs/set1/red.gif","img/card_backs/set1/yellow.gif","img/card_backs/set1/purple.gif","img/card_backs/set1/green.gif","img/card_backs/set2/orange.gif","img/card_backs/set2/pink.gif","img/card_backs/set2/gray.gif","img/card_backs/set2/blue.gif","""event"",""trial"",""time""
""fullscreenenter"",""1"",""12220""
","
","
","""event"",""trial"",""time""
""fullscreenenter"",""1"",""12220""
","
","","null","","null","","fixation","2021-06-03 20:36:16.368","","","","","",""
"card-selection-trial","38","320022","0.0-17.0-1.1","513","true","img/card_backs/set1/red.gif","img/card_backs/set1/yellow.gif","img/card_backs/set1/purple.gif","img/card_backs/set1/green.gif","img/card_backs/set2/orange.gif","img/card_backs/set2/pink.gif","img/card_backs/set2/gray.gif","img/card_backs/set2/blue.gif","""event"",""trial"",""time""
""fullscreenenter"",""1"",""12220""
","
","
","""event"",""trial"",""time""
""fullscreenenter"",""1"",""12220""
","
","","747.3150000000023","","","","practice","2021-06-03 20:36:19.122","img/practice_cards/backs/dark_green.gif","0","-200","0","",""
"casino-fixation","39","320524","0.0-17.0-0.2","513","true","img/card_backs/set1/red.gif","img/card_backs/set1/yellow.gif","img/card_backs/set1/purple.gif","img/card_backs/set1/green.gif","img/card_backs/set2/orange.gif","img/card_backs/set2/pink.gif","img/card_backs/set2/gray.gif","img/card_backs/set2/blue.gif","""event"",""trial"",""time""
""fullscreenenter"",""1"",""12220""
","
","
","""event"",""trial"",""time""
""fullscreenenter"",""1"",""12220""
","
","","null","","null","","fixation","2021-06-03 20:36:19.624","","","","","",""
"card-selection-trial","40","324141","0.0-17.0-1.2","513","true","img/card_backs/set1/red.gif","img/card_backs/set1/yellow.gif","img/card_backs/set1/purple.gif","img/card_backs/set1/green.gif","img/card_backs/set2/orange.gif","img/card_backs/set2/pink.gif","img/card_backs/set2/gray.gif","img/card_backs/set2/blue.gif","""event"",""trial"",""time""
""fullscreenenter"",""1"",""12220""
","
","
","""event"",""trial"",""time""
""fullscreenenter"",""1"",""12220""
","
","","1610.899999999965","","","","practice","2021-06-03 20:36:23.242","img/practice_cards/backs/dark_green.gif","3","200","0","",""
"casino-fixation","41","324644","0.0-17.0-0.3","513","true","img/card_backs/set1/red.gif","img/card_backs/set1/yellow.gif","img/card_backs/set1/purple.gif","img/card_backs/set1/green.gif","img/card_backs/set2/orange.gif","img/card_backs/set2/pink.gif","img/card_backs/set2/gray.gif","img/card_backs/set2/blue.gif","""event"",""trial"",""time""
""fullscreenenter"",""1"",""12220""
","
","
","""event"",""trial"",""time""
""fullscreenenter"",""1"",""12220""
","
","","null","","null","","fixation","2021-06-03 20:36:23.744","","","","","",""
"card-selection-trial","42","327473","0.0-17.0-1.3","513","true","img/card_backs/set1/red.gif","img/card_backs/set1/yellow.gif","img/card_backs/set1/purple.gif","img/card_backs/set1/green.gif","img/card_backs/set2/orange.gif","img/card_backs/set2/pink.gif","img/card_backs/set2/gray.gif","img/card_backs/set2/blue.gif","""event"",""trial"",""time""
""fullscreenenter"",""1"",""12220""
","
","
","""event"",""trial"",""time""
""fullscreenenter"",""1"",""12220""
","
","","822.1300000000047","","","","practice","2021-06-03 20:36:26.573","img/practice_cards/backs/dark_green.gif","0","-200","0","",""
"casino-fixation","43","327975","0.0-17.0-0.4","513","true","img/card_backs/set1/red.gif","img/card_backs/set1/yellow.gif","img/card_backs/set1/purple.gif","img/card_backs/set1/green.gif","img/card_backs/set2/orange.gif","img/card_backs/set2/pink.gif","img/card_backs/set2/gray.gif","img/card_backs/set2/blue.gif","""event"",""trial"",""time""
""fullscreenenter"",""1"",""12220""
","
","
","""event"",""trial"",""time""
""fullscreenenter"",""1"",""12220""
","
","","null","","null","","fixation","2021-06-03 20:36:27.075","","","","","",""
"card-selection-trial","44","331965","0.0-17.0-1.4","513","true","img/card_backs/set1/red.gif","img/card_backs/set1/yellow.gif","img/card_backs/set1/purple.gif","img/card_backs/set1/green.gif","img/card_backs/set2/orange.gif","img/card_backs/set2/pink.gif","img/card_backs/set2/gray.gif","img/card_backs/set2/blue.gif","""event"",""trial"",""time""
""fullscreenenter"",""1"",""12220""
","
","
","""event"",""trial"",""time""
""fullscreenenter"",""1"",""12220""
","
","","1981.2849999999744","","","","practice","2021-06-03 20:36:31.065","img/practice_cards/backs/dark_green.gif","2","200","0","",""
"casino-fixation","45","332466","0.0-17.0-0.5","513","true","img/card_backs/set1/red.gif","img/card_backs/set1/yellow.gif","img/card_backs/set1/purple.gif","img/card_backs/set1/green.gif","img/card_backs/set2/orange.gif","img/card_backs/set2/pink.gif","img/card_backs/set2/gray.gif","img/card_backs/set2/blue.gif","""event"",""trial"",""time""
""fullscreenenter"",""1"",""12220""
","
","
","""event"",""trial"",""time""
""fullscreenenter"",""1"",""12220""
","
","","null","","null","","fixation","2021-06-03 20:36:31.567","","","","","",""
"card-selection-trial","46","335168","0.0-17.0-1.5","513","true","img/card_backs/set1/red.gif","img/card_backs/set1/yellow.gif","img/card_backs/set1/purple.gif","img/card_backs/set1/green.gif","img/card_backs/set2/orange.gif","img/card_backs/set2/pink.gif","img/card_backs/set2/gray.gif","img/card_backs/set2/blue.gif","""event"",""trial"",""time""
""fullscreenenter"",""1"",""12220""
","
","
","""event"",""trial"",""time""
""fullscreenenter"",""1"",""12220""
","
","","694.429999999993","","","","practice","2021-06-03 20:36:34.268","img/practice_cards/backs/dark_green.gif","2","-200","0","",""
"casino-fixation","47","335669","0.0-17.0-0.6","513","true","img/card_backs/set1/red.gif","img/card_backs/set1/yellow.gif","img/card_backs/set1/purple.gif","img/card_backs/set1/green.gif","img/card_backs/set2/orange.gif","img/card_backs/set2/pink.gif","img/card_backs/set2/gray.gif","img/card_backs/set2/blue.gif","""event"",""trial"",""time""
""fullscreenenter"",""1"",""12220""
","
","
","""event"",""trial"",""time""
""fullscreenenter"",""1"",""12220""
","
","","null","","null","","fixation","2021-06-03 20:36:34.770","","","","","",""
"card-selection-trial","48","339245","0.0-17.0-1.6","513","true","img/card_backs/set1/red.gif","img/card_backs/set1/yellow.gif","img/card_backs/set1/purple.gif","img/card_backs/set1/green.gif","img/card_backs/set2/orange.gif","img/card_backs/set2/pink.gif","img/card_backs/set2/gray.gif","img/card_backs/set2/blue.gif","""event"",""trial"",""time""
""fullscreenenter"",""1"",""12220""
","
","
","""event"",""trial"",""time""
""fullscreenenter"",""1"",""12220""
","
","","1568.7449999999953","","","","practice","2021-06-03 20:36:38.345","img/practice_cards/backs/black.gif","1","-100","0","",""
"casino-fixation","49","339748","0.0-17.0-0.7","513","true","img/card_backs/set1/red.gif","img/card_backs/set1/yellow.gif","img/card_backs/set1/purple.gif","img/card_backs/set1/green.gif","img/card_backs/set2/orange.gif","img/card_backs/set2/pink.gif","img/card_backs/set2/gray.gif","img/card_backs/set2/blue.gif","""event"",""trial"",""time""
""fullscreenenter"",""1"",""12220""
","
","
","""event"",""trial"",""time""
""fullscreenenter"",""1"",""12220""
","
","","null","","null","","fixation","2021-06-03 20:36:38.848","","","","","",""
"card-selection-trial","50","343081","0.0-17.0-1.7","513","true","img/card_backs/set1/red.gif","img/card_backs/set1/yellow.gif","img/card_backs/set1/purple.gif","img/card_backs/set1/green.gif","img/card_backs/set2/orange.gif","img/card_backs/set2/pink.gif","img/card_backs/set2/gray.gif","img/card_backs/set2/blue.gif","""event"",""trial"",""time""
""fullscreenenter"",""1"",""12220""
","
","
","""event"",""trial"",""time""
""fullscreenenter"",""1"",""12220""
","
","","1326.1549999999697","","","","practice","2021-06-03 20:36:42.181","img/practice_cards/backs/brown.gif","3","-100","0","",""
"casino-fixation","51","343582","0.0-17.0-0.8","513","true","img/card_backs/set1/red.gif","img/card_backs/set1/yellow.gif","img/card_backs/set1/purple.gif","img/card_backs/set1/green.gif","img/card_backs/set2/orange.gif","img/card_backs/set2/pink.gif","img/card_backs/set2/gray.gif","img/card_backs/set2/blue.gif","""event"",""trial"",""time""
""fullscreenenter"",""1"",""12220""
","
","
","""event"",""trial"",""time""
""fullscreenenter"",""1"",""12220""
","
","","null","","null","","fixation","2021-06-03 20:36:42.683","","","","","",""
"card-selection-trial","52","345984","0.0-17.0-1.8","513","true","img/card_backs/set1/red.gif","img/card_backs/set1/yellow.gif","img/card_backs/set1/purple.gif","img/card_backs/set1/green.gif","img/card_backs/set2/orange.gif","img/card_backs/set2/pink.gif","img/card_backs/set2/gray.gif","img/card_backs/set2/blue.gif","""event"",""trial"",""time""
""fullscreenenter"",""1"",""12220""
","
","
","""event"",""trial"",""time""
""fullscreenenter"",""1"",""12220""
","
","","385.13000000000466","","","","practice","2021-06-03 20:36:45.084","img/practice_cards/backs/dark_green.gif","2","200","0","",""
"casino-fixation","53","346486","0.0-17.0-0.9","513","true","img/card_backs/set1/red.gif","img/card_backs/set1/yellow.gif","img/card_backs/set1/purple.gif","img/card_backs/set1/green.gif","img/card_backs/set2/orange.gif","img/card_backs/set2/pink.gif","img/card_backs/set2/gray.gif","img/card_backs/set2/blue.gif","""event"",""trial"",""time""
""fullscreenenter"",""1"",""12220""
","
","
","""event"",""trial"",""time""
""fullscreenenter"",""1"",""12220""
","
","","null","","null","","fixation","2021-06-03 20:36:45.586","","","","","",""
"card-selection-trial","54","348966","0.0-17.0-1.9","513","true","img/card_backs/set1/red.gif","img/card_backs/set1/yellow.gif","img/card_backs/set1/purple.gif","img/card_backs/set1/green.gif","img/card_backs/set2/orange.gif","img/card_backs/set2/pink.gif","img/card_backs/set2/gray.gif","img/card_backs/set2/blue.gif","""event"",""trial"",""time""
""fullscreenenter"",""1"",""12220""
","
","
","""event"",""trial"",""time""
""fullscreenenter"",""1"",""12220""
","
","","473.15499999996973","","","","practice","2021-06-03 20:36:48.066","img/practice_cards/backs/dark_green.gif","2","200","0","",""
"casino-keyboard-response","55","351799","0.0-18.0","513","true","img/card_backs/set1/red.gif","img/card_backs/set1/yellow.gif","img/card_backs/set1/purple.gif","img/card_backs/set1/green.gif","img/card_backs/set2/orange.gif","img/card_backs/set2/pink.gif","img/card_backs/set2/gray.gif","img/card_backs/set2/blue.gif","""event"",""trial"",""time""
""fullscreenenter"",""1"",""12220""
","
","
","""event"",""trial"",""time""
""fullscreenenter"",""1"",""12220""
","
","","2831.780000000028","You earned 200 tokens during the practice round!","82","","","2021-06-03 20:36:50.900","","","","","",""
"casino-keyboard-response","56","356265","0.0-19.0-0.0","513","true","img/card_backs/set1/red.gif","img/card_backs/set1/yellow.gif","img/card_backs/set1/purple.gif","img/card_backs/set1/green.gif","img/card_backs/set2/orange.gif","img/card_backs/set2/pink.gif","img/card_backs/set2/gray.gif","img/card_backs/set2/blue.gif","""event"",""trial"",""time""
""fullscreenenter"",""1"",""12220""
","
","
","""event"",""trial"",""time""
""fullscreenenter"",""1"",""12220""
","
","","4463.450000000012","Nice job! You are almost ready to play the real game.","86","","instructions","2021-06-03 20:36:55.365","","","","","",""
"casino-keyboard-response","57","362996","0.0-19.0-0.1","513","true","img/card_backs/set1/red.gif","img/card_backs/set1/yellow.gif","img/card_backs/set1/purple.gif","img/card_backs/set1/green.gif","img/card_backs/set2/orange.gif","img/card_backs/set2/pink.gif","img/card_backs/set2/gray.gif","img/card_backs/set2/blue.gif","""event"",""trial"",""time""
""fullscreenenter"",""1"",""12220""
","
","
","""event"",""trial"",""time""
""fullscreenenter"",""1"",""12220""
","
","","6729.244999999995","You will play two rounds of the real game. In each round, you will pick 100 cards in total.","73","","instructions","2021-06-03 20:37:02.096","","","","","",""
"casino-keyboard-response","58","367869","0.0-19.0-0.2","513","true","img/card_backs/set1/red.gif","img/card_backs/set1/yellow.gif","img/card_backs/set1/purple.gif","img/card_backs/set1/green.gif","img/card_backs/set2/orange.gif","img/card_backs/set2/pink.gif","img/card_backs/set2/gray.gif","img/card_backs/set2/blue.gif","""event"",""trial"",""time""
""fullscreenenter"",""1"",""12220""
","
","
","""event"",""trial"",""time""
""fullscreenenter"",""1"",""12220""
","
","","4871.629999999946","We are now going to ask you some questions about how the game works.","66","","instructions","2021-06-03 20:37:06.969","","","","","",""
"casino-keyboard-response","59","373824","0.0-19.0-0.3","513","true","img/card_backs/set1/red.gif","img/card_backs/set1/yellow.gif","img/card_backs/set1/purple.gif","img/card_backs/set1/green.gif","img/card_backs/set2/orange.gif","img/card_backs/set2/pink.gif","img/card_backs/set2/gray.gif","img/card_backs/set2/blue.gif","""event"",""trial"",""time""
""fullscreenenter"",""1"",""12220""
","
","
","""event"",""trial"",""time""
""fullscreenenter"",""1"",""12220""
","
","","5953.044999999984","Answer carefully. You will not be able to begin the game until you answer them correctly.","67","","instructions","2021-06-03 20:37:12.924","","","","","",""
"casino-comp_q","60","379243","0.0-20.0-0.0","513","true","img/card_backs/set1/red.gif","img/card_backs/set1/yellow.gif","img/card_backs/set1/purple.gif","img/card_backs/set1/green.gif","img/card_backs/set2/orange.gif","img/card_backs/set2/pink.gif","img/card_backs/set2/gray.gif","img/card_backs/set2/blue.gif","""event"",""trial"",""time""
""fullscreenenter"",""1"",""12220""
","
","
","""event"",""trial"",""time""
""fullscreenenter"",""1"",""12220""
","
","","5416.559999999998","True or False: All the decks have some cards that cause you to win tokens and some cards that cause you to lose tokens.","84","","","2021-06-03 20:37:18.343","","","","","",""
"casino-keyboard-response","61","382577","0.0-20.0-1.0","513","true","img/card_backs/set1/red.gif","img/card_backs/set1/yellow.gif","img/card_backs/set1/purple.gif","img/card_backs/set1/green.gif","img/card_backs/set2/orange.gif","img/card_backs/set2/pink.gif","img/card_backs/set2/gray.gif","img/card_backs/set2/blue.gif","""event"",""trial"",""time""
""fullscreenenter"",""1"",""12220""
","
","
","""event"",""trial"",""time""
""fullscreenenter"",""1"",""12220""
","
","","3332.109999999928","True is correct! All the decks have a mix of winning and losing cards.","77","","","2021-06-03 20:37:21.678","","","","","true",""
"casino-comp_q","62","384485","0.0-21.0-0.0","513","true","img/card_backs/set1/red.gif","img/card_backs/set1/yellow.gif","img/card_backs/set1/purple.gif","img/card_backs/set1/green.gif","img/card_backs/set2/orange.gif","img/card_backs/set2/pink.gif","img/card_backs/set2/gray.gif","img/card_backs/set2/blue.gif","""event"",""trial"",""time""
""fullscreenenter"",""1"",""12220""
","
","
","""event"",""trial"",""time""
""fullscreenenter"",""1"",""12220""
","
","","1905.219999999972","True or False: You will have as much time as you want to make your response.","70","","","2021-06-03 20:37:23.585","","","","","",""
"casino-keyboard-response","63","387168","0.0-21.0-1.0","513","true","img/card_backs/set1/red.gif","img/card_backs/set1/yellow.gif","img/card_backs/set1/purple.gif","img/card_backs/set1/green.gif","img/card_backs/set2/orange.gif","img/card_backs/set2/pink.gif","img/card_backs/set2/gray.gif","img/card_backs/set2/blue.gif","""event"",""trial"",""time""
""fullscreenenter"",""1"",""12220""
","
","
","""event"",""trial"",""time""
""fullscreenenter"",""1"",""12220""
","
","","2679.9000000000233","False is correct! You will only have 10 seconds to make each choice.","75","","","2021-06-03 20:37:26.268","","","","","true",""
"casino-comp_q","64","390546","0.0-22.0-0.0","513","true","img/card_backs/set1/red.gif","img/card_backs/set1/yellow.gif","img/card_backs/set1/purple.gif","img/card_backs/set1/green.gif","img/card_backs/set2/orange.gif","img/card_backs/set2/pink.gif","img/card_backs/set2/gray.gif","img/card_backs/set2/blue.gif","""event"",""trial"",""time""
""fullscreenenter"",""1"",""12220""
","
","
","""event"",""trial"",""time""
""fullscreenenter"",""1"",""12220""
","
","","3376.2299999999814","True or False: The location of the deck determines how lucky it is.","70","","","2021-06-03 20:37:29.646","","","","","",""
"casino-keyboard-response","65","397723","0.0-22.0-1.0","513","true","img/card_backs/set1/red.gif","img/card_backs/set1/yellow.gif","img/card_backs/set1/purple.gif","img/card_backs/set1/green.gif","img/card_backs/set2/orange.gif","img/card_backs/set2/pink.gif","img/card_backs/set2/gray.gif","img/card_backs/set2/blue.gif","""event"",""trial"",""time""
""fullscreenenter"",""1"",""12220""
","
","
","""event"",""trial"",""time""
""fullscreenenter"",""1"",""12220""
","
","","7175.050000000047","False is correct! The <i>color</i>  of the deck determines how lucky or unlucky it is.","68","","","2021-06-03 20:37:36.823","","","","","true",""
"casino-keyboard-response","66","401830","0.0-23.0-0.0","513","true","img/card_backs/set1/red.gif","img/card_backs/set1/yellow.gif","img/card_backs/set1/purple.gif","img/card_backs/set1/green.gif","img/card_backs/set2/orange.gif","img/card_backs/set2/pink.gif","img/card_backs/set2/gray.gif","img/card_backs/set2/blue.gif","""event"",""trial"",""time""
""fullscreenenter"",""1"",""12220""
","
","
","""event"",""trial"",""time""
""fullscreenenter"",""1"",""12220""
","
","","4104.365000000049","Great job! Now it's time to start the real game.","82","","instructions","2021-06-03 20:37:40.930","","","","","",""
"casino-keyboard-response","67","406827","0.0-23.0-0.1","513","true","img/card_backs/set1/red.gif","img/card_backs/set1/yellow.gif","img/card_backs/set1/purple.gif","img/card_backs/set1/green.gif","img/card_backs/set2/orange.gif","img/card_backs/set2/pink.gif","img/card_backs/set2/gray.gif","img/card_backs/set2/blue.gif","""event"",""trial"",""time""
""fullscreenenter"",""1"",""12220""
","
","
","""event"",""trial"",""time""
""fullscreenenter"",""1"",""12220""
","
","","4995.684999999998","Before we start, we're going to head into a new room of the casino.","86","","instructions","2021-06-03 20:37:45.927","","","","","",""
"casino-keyboard-response","68","412950","0.0-24.0-0.0","513","true","img/card_backs/set1/red.gif","img/card_backs/set1/yellow.gif","img/card_backs/set1/purple.gif","img/card_backs/set1/green.gif","img/card_backs/set2/orange.gif","img/card_backs/set2/pink.gif","img/card_backs/set2/gray.gif","img/card_backs/set2/blue.gif","""event"",""trial"",""time""
""fullscreenenter"",""1"",""12220""
","
","
","""event"",""trial"",""time""
""fullscreenenter"",""1"",""12220""
","
","","6120.179999999993","Here we are! The real game will use different cards, but the rules will be the same.","71","","instructions","2021-06-03 20:37:52.050","","","","","",""
"casino-keyboard-response","69","422566","0.0-24.0-0.1","513","true","img/card_backs/set1/red.gif","img/card_backs/set1/yellow.gif","img/card_backs/set1/purple.gif","img/card_backs/set1/green.gif","img/card_backs/set2/orange.gif","img/card_backs/set2/pink.gif","img/card_backs/set2/gray.gif","img/card_backs/set2/blue.gif","""event"",""trial"",""time""
""fullscreenenter"",""1"",""12220""
","
","
","""event"",""trial"",""time""
""fullscreenenter"",""1"",""12220""
","
","","9614.589999999967","Ready? Put your fingers over the '2', '4', 6', and '8' keys so you are ready to play the game. </br> Then press 2 to start.","50","","instructions","2021-06-03 20:38:01.666","","","","","",""
"casino-fixation","70","423068","0.0-25.0-0.0","513","true","img/card_backs/set1/red.gif","img/card_backs/set1/yellow.gif","img/card_backs/set1/purple.gif","img/card_backs/set1/green.gif","img/card_backs/set2/orange.gif","img/card_backs/set2/pink.gif","img/card_backs/set2/gray.gif","img/card_backs/set2/blue.gif","""event"",""trial"",""time""
""fullscreenenter"",""1"",""12220""
","
","
","""event"",""trial"",""time""
""fullscreenenter"",""1"",""12220""
","
","","null","","null","","fixation","2021-06-03 20:38:02.168","","","","","",""
"card-selection-trial","71","426200","0.0-25.0-1.0","513","true","img/card_backs/set1/red.gif","img/card_backs/set1/yellow.gif","img/card_backs/set1/purple.gif","img/card_backs/set1/green.gif","img/card_backs/set2/orange.gif","img/card_backs/set2/pink.gif","img/card_backs/set2/gray.gif","img/card_backs/set2/blue.gif","""event"",""trial"",""time""
""fullscreenenter"",""1"",""12220""
","
","
","""event"",""trial"",""time""
""fullscreenenter"",""1"",""12220""
","
","","1123.200000000128","","","","real_trial","2021-06-03 20:38:05.300","img/card_backs/set1/green.gif","1","40","1","",""
"casino-fixation","72","426701","0.0-25.0-0.1","513","true","img/card_backs/set1/red.gif","img/card_backs/set1/yellow.gif","img/card_backs/set1/purple.gif","img/card_backs/set1/green.gif","img/card_backs/set2/orange.gif","img/card_backs/set2/pink.gif","img/card_backs/set2/gray.gif","img/card_backs/set2/blue.gif","""event"",""trial"",""time""
""fullscreenenter"",""1"",""12220""
","
","
","""event"",""trial"",""time""
""fullscreenenter"",""1"",""12220""
","
","","null","","null","","fixation","2021-06-03 20:38:05.801","","","","","",""
"card-selection-trial","73","429923","0.0-25.0-1.1","513","true","img/card_backs/set1/red.gif","img/card_backs/set1/yellow.gif","img/card_backs/set1/purple.gif","img/card_backs/set1/green.gif","img/card_backs/set2/orange.gif","img/card_backs/set2/pink.gif","img/card_backs/set2/gray.gif","img/card_backs/set2/blue.gif","""event"",""trial"",""time""
""fullscreenenter"",""1"",""12220""
","
","
","""event"",""trial"",""time""
""fullscreenenter"",""1"",""12220""
","
","","1214.7399999999907","","","","real_trial","2021-06-03 20:38:09.023","img/card_backs/set1/green.gif","3","60","1","",""
"casino-fixation","74","430425","0.0-25.0-0.2","513","true","img/card_backs/set1/red.gif","img/card_backs/set1/yellow.gif","img/card_backs/set1/purple.gif","img/card_backs/set1/green.gif","img/card_backs/set2/orange.gif","img/card_backs/set2/pink.gif","img/card_backs/set2/gray.gif","img/card_backs/set2/blue.gif","""event"",""trial"",""time""
""fullscreenenter"",""1"",""12220""
","
","
","""event"",""trial"",""time""
""fullscreenenter"",""1"",""12220""
","
","","null","","null","","fixation","2021-06-03 20:38:09.525","","","","","",""
"card-selection-trial","75","433279","0.0-25.0-1.2","513","true","img/card_backs/set1/red.gif","img/card_backs/set1/yellow.gif","img/card_backs/set1/purple.gif","img/card_backs/set1/green.gif","img/card_backs/set2/orange.gif","img/card_backs/set2/pink.gif","img/card_backs/set2/gray.gif","img/card_backs/set2/blue.gif","""event"",""trial"",""time""
""fullscreenenter"",""1"",""12220""
","
","
","""event"",""trial"",""time""
""fullscreenenter"",""1"",""12220""
","
","","847.4799999999814","","","","real_trial","2021-06-03 20:38:12.379","img/card_backs/set1/green.gif","1","40","1","",""
"casino-fixation","76","433780","0.0-25.0-0.3","513","true","img/card_backs/set1/red.gif","img/card_backs/set1/yellow.gif","img/card_backs/set1/purple.gif","img/card_backs/set1/green.gif","img/card_backs/set2/orange.gif","img/card_backs/set2/pink.gif","img/card_backs/set2/gray.gif","img/card_backs/set2/blue.gif","""event"",""trial"",""time""
""fullscreenenter"",""1"",""12220""
","
","
","""event"",""trial"",""time""
""fullscreenenter"",""1"",""12220""
","
","","null","","null","","fixation","2021-06-03 20:38:12.881","","","","","",""
"card-selection-trial","77","437903","0.0-25.0-1.3","513","true","img/card_backs/set1/red.gif","img/card_backs/set1/yellow.gif","img/card_backs/set1/purple.gif","img/card_backs/set1/green.gif","img/card_backs/set2/orange.gif","img/card_backs/set2/pink.gif","img/card_backs/set2/gray.gif","img/card_backs/set2/blue.gif","""event"",""trial"",""time""
""fullscreenenter"",""1"",""12220""
","
","
","""event"",""trial"",""time""
""fullscreenenter"",""1"",""12220""
","
","","2116.7699999999604","","","","real_trial","2021-06-03 20:38:17.003","img/card_backs/set1/green.gif","1","-90","1","",""
"casino-fixation","78","438405","0.0-25.0-0.4","513","true","img/card_backs/set1/red.gif","img/card_backs/set1/yellow.gif","img/card_backs/set1/purple.gif","img/card_backs/set1/green.gif","img/card_backs/set2/orange.gif","img/card_backs/set2/pink.gif","img/card_backs/set2/gray.gif","img/card_backs/set2/blue.gif","""event"",""trial"",""time""
""fullscreenenter"",""1"",""12220""
","
","
","""event"",""trial"",""time""
""fullscreenenter"",""1"",""12220""
","
","","null","","null","","fixation","2021-06-03 20:38:17.506","","","","","",""
"card-selection-trial","79","441356","0.0-25.0-1.4","513","true","img/card_backs/set1/red.gif","img/card_backs/set1/yellow.gif","img/card_backs/set1/purple.gif","img/card_backs/set1/green.gif","img/card_backs/set2/orange.gif","img/card_backs/set2/pink.gif","img/card_backs/set2/gray.gif","img/card_backs/set2/blue.gif","""event"",""trial"",""time""
""fullscreenenter"",""1"",""12220""
","
","
","""event"",""trial"",""time""
""fullscreenenter"",""1"",""12220""
","
","","944.1549999999115","","","","real_trial","2021-06-03 20:38:20.456","img/card_backs/set1/green.gif","1","-110","1","",""
"casino-fixation","80","441857","0.0-25.0-0.5","513","true","img/card_backs/set1/red.gif","img/card_backs/set1/yellow.gif","img/card_backs/set1/purple.gif","img/card_backs/set1/green.gif","img/card_backs/set2/orange.gif","img/card_backs/set2/pink.gif","img/card_backs/set2/gray.gif","img/card_backs/set2/blue.gif","""event"",""trial"",""time""
""fullscreenenter"",""1"",""12220""
","
","
","""event"",""trial"",""time""
""fullscreenenter"",""1"",""12220""
","
","","null","","null","","fixation","2021-06-03 20:38:20.957","","","","","",""
"card-selection-trial","81","445229","0.0-25.0-1.5","513","true","img/card_backs/set1/red.gif","img/card_backs/set1/yellow.gif","img/card_backs/set1/purple.gif","img/card_backs/set1/green.gif","img/card_backs/set2/orange.gif","img/card_backs/set2/pink.gif","img/card_backs/set2/gray.gif","img/card_backs/set2/blue.gif","""event"",""trial"",""time""
""fullscreenenter"",""1"",""12220""
","
","
","""event"",""trial"",""time""
""fullscreenenter"",""1"",""12220""
","
","","1365.5249999999069","","","","real_trial","2021-06-03 20:38:24.329","img/card_backs/set1/purple.gif","0","60","1","",""
"casino-fixation","82","445731","0.0-25.0-0.6","513","true","img/card_backs/set1/red.gif","img/card_backs/set1/yellow.gif","img/card_backs/set1/purple.gif","img/card_backs/set1/green.gif","img/card_backs/set2/orange.gif","img/card_backs/set2/pink.gif","img/card_backs/set2/gray.gif","img/card_backs/set2/blue.gif","""event"",""trial"",""time""
""fullscreenenter"",""1"",""12220""
","
","
","""event"",""trial"",""time""
""fullscreenenter"",""1"",""12220""
","
","","null","","null","","fixation","2021-06-03 20:38:24.831","","","","","",""
"card-selection-trial","83","448627","0.0-25.0-1.6","513","true","img/card_backs/set1/red.gif","img/card_backs/set1/yellow.gif","img/card_backs/set1/purple.gif","img/card_backs/set1/green.gif","img/card_backs/set2/orange.gif","img/card_backs/set2/pink.gif","img/card_backs/set2/gray.gif","img/card_backs/set2/blue.gif","""event"",""trial"",""time""
""fullscreenenter"",""1"",""12220""
","
","
","""event"",""trial"",""time""
""fullscreenenter"",""1"",""12220""
","
","","889.4399999999441","","","","real_trial","2021-06-03 20:38:27.727","img/card_backs/set1/yellow.gif","3","-210","1","",""
"casino-fixation","84","449128","0.0-25.0-0.7","513","true","img/card_backs/set1/red.gif","img/card_backs/set1/yellow.gif","img/card_backs/set1/purple.gif","img/card_backs/set1/green.gif","img/card_backs/set2/orange.gif","img/card_backs/set2/pink.gif","img/card_backs/set2/gray.gif","img/card_backs/set2/blue.gif","""event"",""trial"",""time""
""fullscreenenter"",""1"",""12220""
","
","
","""event"",""trial"",""time""
""fullscreenenter"",""1"",""12220""
","
","","null","","null","","fixation","2021-06-03 20:38:28.229","","","","","",""
"card-selection-trial","85","455773","0.0-25.0-1.7","513","true","img/card_backs/set1/red.gif","img/card_backs/set1/yellow.gif","img/card_backs/set1/purple.gif","img/card_backs/set1/green.gif","img/card_backs/set2/orange.gif","img/card_backs/set2/pink.gif","img/card_backs/set2/gray.gif","img/card_backs/set2/blue.gif","""event"",""trial"",""time""
""fullscreenenter"",""1"",""12220""
","
","
","""event"",""trial"",""time""
""fullscreenenter"",""1"",""12220""
","
","","4636.634999999951","","","","real_trial","2021-06-03 20:38:34.873","img/card_backs/set1/green.gif","3","-90","1","",""
"casino-fixation","86","456275","0.0-25.0-0.8","513","true","img/card_backs/set1/red.gif","img/card_backs/set1/yellow.gif","img/card_backs/set1/purple.gif","img/card_backs/set1/green.gif","img/card_backs/set2/orange.gif","img/card_backs/set2/pink.gif","img/card_backs/set2/gray.gif","img/card_backs/set2/blue.gif","""event"",""trial"",""time""
""fullscreenenter"",""1"",""12220""
","
","
","""event"",""trial"",""time""
""fullscreenenter"",""1"",""12220""
","
","","null","","null","","fixation","2021-06-03 20:38:35.375","","","","","",""
"card-selection-trial","87","460190","0.0-25.0-1.8","513","true","img/card_backs/set1/red.gif","img/card_backs/set1/yellow.gif","img/card_backs/set1/purple.gif","img/card_backs/set1/green.gif","img/card_backs/set2/orange.gif","img/card_backs/set2/pink.gif","img/card_backs/set2/gray.gif","img/card_backs/set2/blue.gif","""event"",""trial"",""time""
""fullscreenenter"",""1"",""12220""
","
","
","""event"",""trial"",""time""
""fullscreenenter"",""1"",""12220""
","
","","1908.8800000000629","","","","real_trial","2021-06-03 20:38:39.291","img/card_backs/set1/red.gif","1","-210","1","",""
"casino-fixation","88","460692","0.0-25.0-0.9","513","true","img/card_backs/set1/red.gif","img/card_backs/set1/yellow.gif","img/card_backs/set1/purple.gif","img/card_backs/set1/green.gif","img/card_backs/set2/orange.gif","img/card_backs/set2/pink.gif","img/card_backs/set2/gray.gif","img/card_backs/set2/blue.gif","""event"",""trial"",""time""
""fullscreenenter"",""1"",""12220""
","
","
","""event"",""trial"",""time""
""fullscreenenter"",""1"",""12220""
","
","","null","","null","","fixation","2021-06-03 20:38:39.792","","","","","",""
"card-selection-trial","89","463896","0.0-25.0-1.9","513","true","img/card_backs/set1/red.gif","img/card_backs/set1/yellow.gif","img/card_backs/set1/purple.gif","img/card_backs/set1/green.gif","img/card_backs/set2/orange.gif","img/card_backs/set2/pink.gif","img/card_backs/set2/gray.gif","img/card_backs/set2/blue.gif","""event"",""trial"",""time""
""fullscreenenter"",""1"",""12220""
","
","
","""event"",""trial"",""time""
""fullscreenenter"",""1"",""12220""
","
","","1196.054999999993","","","","real_trial","2021-06-03 20:38:42.996","img/card_backs/set1/green.gif","2","-100","1","",""
"casino-fixation","90","464398","0.0-25.0-0.10","513","true","img/card_backs/set1/red.gif","img/card_backs/set1/yellow.gif","img/card_backs/set1/purple.gif","img/card_backs/set1/green.gif","img/card_backs/set2/orange.gif","img/card_backs/set2/pink.gif","img/card_backs/set2/gray.gif","img/card_backs/set2/blue.gif","""event"",""trial"",""time""
""fullscreenenter"",""1"",""12220""
","
","
","""event"",""trial"",""time""
""fullscreenenter"",""1"",""12220""
","
","","null","","null","","fixation","2021-06-03 20:38:43.498","","","","","",""
"card-selection-trial","91","467520","0.0-25.0-1.10","513","true","img/card_backs/set1/red.gif","img/card_backs/set1/yellow.gif","img/card_backs/set1/purple.gif","img/card_backs/set1/green.gif","img/card_backs/set2/orange.gif","img/card_backs/set2/pink.gif","img/card_backs/set2/gray.gif","img/card_backs/set2/blue.gif","""event"",""trial"",""time""
""fullscreenenter"",""1"",""12220""
","
","
","""event"",""trial"",""time""
""fullscreenenter"",""1"",""12220""
","
","","1116.3950000000186","","","","real_trial","2021-06-03 20:38:46.620","img/card_backs/set1/green.gif","3","60","1","",""
"casino-fixation","92","468022","0.0-25.0-0.11","513","true","img/card_backs/set1/red.gif","img/card_backs/set1/yellow.gif","img/card_backs/set1/purple.gif","img/card_backs/set1/green.gif","img/card_backs/set2/orange.gif","img/card_backs/set2/pink.gif","img/card_backs/set2/gray.gif","img/card_backs/set2/blue.gif","""event"",""trial"",""time""
""fullscreenenter"",""1"",""12220""
","
","
","""event"",""trial"",""time""
""fullscreenenter"",""1"",""12220""
","
","","null","","null","","fixation","2021-06-03 20:38:47.122","","","","","",""
"card-selection-trial","93","471017","0.0-25.0-1.11","513","true","img/card_backs/set1/red.gif","img/card_backs/set1/yellow.gif","img/card_backs/set1/purple.gif","img/card_backs/set1/green.gif","img/card_backs/set2/orange.gif","img/card_backs/set2/pink.gif","img/card_backs/set2/gray.gif","img/card_backs/set2/blue.gif","""event"",""trial"",""time""
""fullscreenenter"",""1"",""12220""
","
","
","""event"",""trial"",""time""
""fullscreenenter"",""1"",""12220""
","
","","988.5599999999977","","","","real_trial","2021-06-03 20:38:50.117","img/card_backs/set1/green.gif","3","40","1","",""
"casino-fixation","94","471519","0.0-25.0-0.12","513","true","img/card_backs/set1/red.gif","img/card_backs/set1/yellow.gif","img/card_backs/set1/purple.gif","img/card_backs/set1/green.gif","img/card_backs/set2/orange.gif","img/card_backs/set2/pink.gif","img/card_backs/set2/gray.gif","img/card_backs/set2/blue.gif","""event"",""trial"",""time""
""fullscreenenter"",""1"",""12220""
","
","
","""event"",""trial"",""time""
""fullscreenenter"",""1"",""12220""
","
","","null","","null","","fixation","2021-06-03 20:38:50.619","","","","","",""
"card-selection-trial","95","476550","0.0-25.0-1.12","513","true","img/card_backs/set1/red.gif","img/card_backs/set1/yellow.gif","img/card_backs/set1/purple.gif","img/card_backs/set1/green.gif","img/card_backs/set2/orange.gif","img/card_backs/set2/pink.gif","img/card_backs/set2/gray.gif","img/card_backs/set2/blue.gif","""event"",""trial"",""time""
""fullscreenenter"",""1"",""12220""
","
","
","""event"",""trial"",""time""
""fullscreenenter"",""1"",""12220""
","
","","3024.920000000042","","","","real_trial","2021-06-03 20:38:55.650","img/card_backs/set1/purple.gif","0","60","1","",""
"casino-fixation","96","477052","0.0-25.0-0.13","513","true","img/card_backs/set1/red.gif","img/card_backs/set1/yellow.gif","img/card_backs/set1/purple.gif","img/card_backs/set1/green.gif","img/card_backs/set2/orange.gif","img/card_backs/set2/pink.gif","img/card_backs/set2/gray.gif","img/card_backs/set2/blue.gif","""event"",""trial"",""time""
""fullscreenenter"",""1"",""12220""
","
","
","""event"",""trial"",""time""
""fullscreenenter"",""1"",""12220""
","
","","null","","null","","fixation","2021-06-03 20:38:56.152","","","","","",""
"card-selection-trial","97","479870","0.0-25.0-1.13","513","true","img/card_backs/set1/red.gif","img/card_backs/set1/yellow.gif","img/card_backs/set1/purple.gif","img/card_backs/set1/green.gif","img/card_backs/set2/orange.gif","img/card_backs/set2/pink.gif","img/card_backs/set2/gray.gif","img/card_backs/set2/blue.gif","""event"",""trial"",""time""
""fullscreenenter"",""1"",""12220""
","
","
","""event"",""trial"",""time""
""fullscreenenter"",""1"",""12220""
","
","","810.3949999999604","","","","real_trial","2021-06-03 20:38:58.970","img/card_backs/set1/purple.gif","0","-100","1","",""
"casino-fixation","98","480372","0.0-25.0-0.14","513","true","img/card_backs/set1/red.gif","img/card_backs/set1/yellow.gif","img/card_backs/set1/purple.gif","img/card_backs/set1/green.gif","img/card_backs/set2/orange.gif","img/card_backs/set2/pink.gif","img/card_backs/set2/gray.gif","img/card_backs/set2/blue.gif","""event"",""trial"",""time""
""fullscreenenter"",""1"",""12220""
","
","
","""event"",""trial"",""time""
""fullscreenenter"",""1"",""12220""
","
","","null","","null","","fixation","2021-06-03 20:38:59.472","","","","","",""
"card-selection-trial","99","483296","0.0-25.0-1.14","513","true","img/card_backs/set1/red.gif","img/card_backs/set1/yellow.gif","img/card_backs/set1/purple.gif","img/card_backs/set1/green.gif","img/card_backs/set2/orange.gif","img/card_backs/set2/pink.gif","img/card_backs/set2/gray.gif","img/card_backs/set2/blue.gif","""event"",""trial"",""time""
""fullscreenenter"",""1"",""12220""
","
","
","""event"",""trial"",""time""
""fullscreenenter"",""1"",""12220""
","
","","918.4400000000023","","","","real_trial","2021-06-03 20:39:02.397","img/card_backs/set1/green.gif","1","-110","1","",""
"casino-fixation","100","483798","0.0-25.0-0.15","513","true","img/card_backs/set1/red.gif","img/card_backs/set1/yellow.gif","img/card_backs/set1/purple.gif","img/card_backs/set1/green.gif","img/card_backs/set2/orange.gif","img/card_backs/set2/pink.gif","img/card_backs/set2/gray.gif","img/card_backs/set2/blue.gif","""event"",""trial"",""time""
""fullscreenenter"",""1"",""12220""
","
","
","""event"",""trial"",""time""
""fullscreenenter"",""1"",""12220""
","
","","null","","null","","fixation","2021-06-03 20:39:02.898","","","","","",""
"card-selection-trial","101","486779","0.0-25.0-1.15","513","true","img/card_backs/set1/red.gif","img/card_backs/set1/yellow.gif","img/card_backs/set1/purple.gif","img/card_backs/set1/green.gif","img/card_backs/set2/orange.gif","img/card_backs/set2/pink.gif","img/card_backs/set2/gray.gif","img/card_backs/set2/blue.gif","""event"",""trial"",""time""
""fullscreenenter"",""1"",""12220""
","
","
","""event"",""trial"",""time""
""fullscreenenter"",""1"",""12220""
","
","","974.2949999999837","","","","real_trial","2021-06-03 20:39:05.879","img/card_backs/set1/green.gif","2","-110","1","",""
"casino-fixation","102","487281","0.0-25.0-0.16","513","true","img/card_backs/set1/red.gif","img/card_backs/set1/yellow.gif","img/card_backs/set1/purple.gif","img/card_backs/set1/green.gif","img/card_backs/set2/orange.gif","img/card_backs/set2/pink.gif","img/card_backs/set2/gray.gif","img/card_backs/set2/blue.gif","""event"",""trial"",""time""
""fullscreenenter"",""1"",""12220""
","
","
","""event"",""trial"",""time""
""fullscreenenter"",""1"",""12220""
","
","","null","","null","","fixation","2021-06-03 20:39:06.381","","","","","",""
"card-selection-trial","103","489807","0.0-25.0-1.16","513","true","img/card_backs/set1/red.gif","img/card_backs/set1/yellow.gif","img/card_backs/set1/purple.gif","img/card_backs/set1/green.gif","img/card_backs/set2/orange.gif","img/card_backs/set2/pink.gif","img/card_backs/set2/gray.gif","img/card_backs/set2/blue.gif","""event"",""trial"",""time""
""fullscreenenter"",""1"",""12220""
","
","
","""event"",""trial"",""time""
""fullscreenenter"",""1"",""12220""
","
","","519.8750000000582","","","","real_trial","2021-06-03 20:39:08.907","img/card_backs/set1/yellow.gif","3","250","1","",""
"casino-fixation","104","490309","0.0-25.0-0.17","513","true","img/card_backs/set1/red.gif","img/card_backs/set1/yellow.gif","img/card_backs/set1/purple.gif","img/card_backs/set1/green.gif","img/card_backs/set2/orange.gif","img/card_backs/set2/pink.gif","img/card_backs/set2/gray.gif","img/card_backs/set2/blue.gif","""event"",""trial"",""time""
""fullscreenenter"",""1"",""12220""
","
","
","""event"",""trial"",""time""
""fullscreenenter"",""1"",""12220""
","
","","null","","null","","fixation","2021-06-03 20:39:09.409","","","","","",""
"card-selection-trial","105","495363","0.0-25.0-1.17","513","true","img/card_backs/set1/red.gif","img/card_backs/set1/yellow.gif","img/card_backs/set1/purple.gif","img/card_backs/set1/green.gif","img/card_backs/set2/orange.gif","img/card_backs/set2/pink.gif","img/card_backs/set2/gray.gif","img/card_backs/set2/blue.gif","""event"",""trial"",""time""
""fullscreenenter"",""1"",""12220""
","
","
","""event"",""trial"",""time""
""fullscreenenter"",""1"",""12220""
","
","","3047.305000000051","","","","real_trial","2021-06-03 20:39:14.463","img/card_backs/set1/red.gif","3","-190","1","",""
"casino-fixation","106","495866","0.0-25.0-0.18","513","true","img/card_backs/set1/red.gif","img/card_backs/set1/yellow.gif","img/card_backs/set1/purple.gif","img/card_backs/set1/green.gif","img/card_backs/set2/orange.gif","img/card_backs/set2/pink.gif","img/card_backs/set2/gray.gif","img/card_backs/set2/blue.gif","""event"",""trial"",""time""
""fullscreenenter"",""1"",""12220""
","
","
","""event"",""trial"",""time""
""fullscreenenter"",""1"",""12220""
","
","","null","","null","","fixation","2021-06-03 20:39:14.966","","","","","",""
"card-selection-trial","107","499719","0.0-25.0-1.18","513","true","img/card_backs/set1/red.gif","img/card_backs/set1/yellow.gif","img/card_backs/set1/purple.gif","img/card_backs/set1/green.gif","img/card_backs/set2/orange.gif","img/card_backs/set2/pink.gif","img/card_backs/set2/gray.gif","img/card_backs/set2/blue.gif","""event"",""trial"",""time""
""fullscreenenter"",""1"",""12220""
","
","
","""event"",""trial"",""time""
""fullscreenenter"",""1"",""12220""
","
","","1846.1149999999325","","","","real_trial","2021-06-03 20:39:18.819","img/card_backs/set1/green.gif","2","50","1","",""
"casino-fixation","108","500221","0.0-25.0-0.19","513","true","img/card_backs/set1/red.gif","img/card_backs/set1/yellow.gif","img/card_backs/set1/purple.gif","img/card_backs/set1/green.gif","img/card_backs/set2/orange.gif","img/card_backs/set2/pink.gif","img/card_backs/set2/gray.gif","img/card_backs/set2/blue.gif","""event"",""trial"",""time""
""fullscreenenter"",""1"",""12220""
","
","
","""event"",""trial"",""time""
""fullscreenenter"",""1"",""12220""
","
","","null","","null","","fixation","2021-06-03 20:39:19.321","","","","","",""
"card-selection-trial","109","507904","0.0-25.0-1.19","513","true","img/card_backs/set1/red.gif","img/card_backs/set1/yellow.gif","img/card_backs/set1/purple.gif","img/card_backs/set1/green.gif","img/card_backs/set2/orange.gif","img/card_backs/set2/pink.gif","img/card_backs/set2/gray.gif","img/card_backs/set2/blue.gif","""event"",""trial"",""time""
""fullscreenenter"",""1"",""12220""
","
","
","""event"",""trial"",""time""
""fullscreenenter"",""1"",""12220""
","
","","5676.554999999993","","","","real_trial","2021-06-03 20:39:27.004","img/card_backs/set1/yellow.gif","2","-190","1","",""
"casino-fixation","110","508406","0.0-25.0-0.20","513","true","img/card_backs/set1/red.gif","img/card_backs/set1/yellow.gif","img/card_backs/set1/purple.gif","img/card_backs/set1/green.gif","img/card_backs/set2/orange.gif","img/card_backs/set2/pink.gif","img/card_backs/set2/gray.gif","img/card_backs/set2/blue.gif","""event"",""trial"",""time""
""fullscreenenter"",""1"",""12220""
","
","
","""event"",""trial"",""time""
""fullscreenenter"",""1"",""12220""
","
","","null","","null","","fixation","2021-06-03 20:39:27.506","","","","","",""
"card-selection-trial","111","511420","0.0-25.0-1.20","513","true","img/card_backs/set1/red.gif","img/card_backs/set1/yellow.gif","img/card_backs/set1/purple.gif","img/card_backs/set1/green.gif","img/card_backs/set2/orange.gif","img/card_backs/set2/pink.gif","img/card_backs/set2/gray.gif","img/card_backs/set2/blue.gif","""event"",""trial"",""time""
""fullscreenenter"",""1"",""12220""
","
","
","""event"",""trial"",""time""
""fullscreenenter"",""1"",""12220""
","
","","1007.5399999999208","","","","real_trial","2021-06-03 20:39:30.520","img/card_backs/set1/purple.gif","1","50","1","",""
"casino-fixation","112","511922","0.0-25.0-0.21","513","true","img/card_backs/set1/red.gif","img/card_backs/set1/yellow.gif","img/card_backs/set1/purple.gif","img/card_backs/set1/green.gif","img/card_backs/set2/orange.gif","img/card_backs/set2/pink.gif","img/card_backs/set2/gray.gif","img/card_backs/set2/blue.gif","""event"",""trial"",""time""
""fullscreenenter"",""1"",""12220""
","
","
","""event"",""trial"",""time""
""fullscreenenter"",""1"",""12220""
","
","","null","","null","","fixation","2021-06-03 20:39:31.022","","","","","",""
"card-selection-trial","113","514780","0.0-25.0-1.21","513","true","img/card_backs/set1/red.gif","img/card_backs/set1/yellow.gif","img/card_backs/set1/purple.gif","img/card_backs/set1/green.gif","img/card_backs/set2/orange.gif","img/card_backs/set2/pink.gif","img/card_backs/set2/gray.gif","img/card_backs/set2/blue.gif","""event"",""trial"",""time""
""fullscreenenter"",""1"",""12220""
","
","
","""event"",""trial"",""time""
""fullscreenenter"",""1"",""12220""
","
","","851.585000000021","","","","real_trial","2021-06-03 20:39:33.880","img/card_backs/set1/green.gif","1","60","1","",""
"casino-fixation","114","515282","0.0-25.0-0.22","513","true","img/card_backs/set1/red.gif","img/card_backs/set1/yellow.gif","img/card_backs/set1/purple.gif","img/card_backs/set1/green.gif","img/card_backs/set2/orange.gif","img/card_backs/set2/pink.gif","img/card_backs/set2/gray.gif","img/card_backs/set2/blue.gif","""event"",""trial"",""time""
""fullscreenenter"",""1"",""12220""
","
","
","""event"",""trial"",""time""
""fullscreenenter"",""1"",""12220""
","
","","null","","null","","fixation","2021-06-03 20:39:34.382","","","","","",""
"card-selection-trial","115","518121","0.0-25.0-1.22","513","true","img/card_backs/set1/red.gif","img/card_backs/set1/yellow.gif","img/card_backs/set1/purple.gif","img/card_backs/set1/green.gif","img/card_backs/set2/orange.gif","img/card_backs/set2/pink.gif","img/card_backs/set2/gray.gif","img/card_backs/set2/blue.gif","""event"",""trial"",""time""
""fullscreenenter"",""1"",""12220""
","
","
","""event"",""trial"",""time""
""fullscreenenter"",""1"",""12220""
","
","","832.5350000000326","","","","real_trial","2021-06-03 20:39:37.221","img/card_backs/set1/green.gif","0","-100","1","",""
"casino-fixation","116","518622","0.0-25.0-0.23","513","true","img/card_backs/set1/red.gif","img/card_backs/set1/yellow.gif","img/card_backs/set1/purple.gif","img/card_backs/set1/green.gif","img/card_backs/set2/orange.gif","img/card_backs/set2/pink.gif","img/card_backs/set2/gray.gif","img/card_backs/set2/blue.gif","""event"",""trial"",""time""
""fullscreenenter"",""1"",""12220""
","
","
","""event"",""trial"",""time""
""fullscreenenter"",""1"",""12220""
","
","","null","","null","","fixation","2021-06-03 20:39:37.722","","","","","",""
"card-selection-trial","117","521725","0.0-25.0-1.23","513","true","img/card_backs/set1/red.gif","img/card_backs/set1/yellow.gif","img/card_backs/set1/purple.gif","img/card_backs/set1/green.gif","img/card_backs/set2/orange.gif","img/card_backs/set2/pink.gif","img/card_backs/set2/gray.gif","img/card_backs/set2/blue.gif","""event"",""trial"",""time""
""fullscreenenter"",""1"",""12220""
","
","
","""event"",""trial"",""time""
""fullscreenenter"",""1"",""12220""
","
","","1096.7450000001118","","","","real_trial","2021-06-03 20:39:40.825","img/card_backs/set1/green.gif","2","-100","1","",""
"casino-fixation","118","522226","0.0-25.0-0.24","513","true","img/card_backs/set1/red.gif","img/card_backs/set1/yellow.gif","img/card_backs/set1/purple.gif","img/card_backs/set1/green.gif","img/card_backs/set2/orange.gif","img/card_backs/set2/pink.gif","img/card_backs/set2/gray.gif","img/card_backs/set2/blue.gif","""event"",""trial"",""time""
""fullscreenenter"",""1"",""12220""
","
","
","""event"",""trial"",""time""
""fullscreenenter"",""1"",""12220""
","
","","null","","null","","fixation","2021-06-03 20:39:41.326","","","","","",""
"card-selection-trial","119","525326","0.0-25.0-1.24","513","true","img/card_backs/set1/red.gif","img/card_backs/set1/yellow.gif","img/card_backs/set1/purple.gif","img/card_backs/set1/green.gif","img/card_backs/set2/orange.gif","img/card_backs/set2/pink.gif","img/card_backs/set2/gray.gif","img/card_backs/set2/blue.gif","""event"",""trial"",""time""
""fullscreenenter"",""1"",""12220""
","
","
","""event"",""trial"",""time""
""fullscreenenter"",""1"",""12220""
","
","","1093.3200000000652","","","","real_trial","2021-06-03 20:39:44.426","img/card_backs/set1/red.gif","3","-200","1","",""
"casino-fixation","120","525828","0.0-25.0-0.25","513","true","img/card_backs/set1/red.gif","img/card_backs/set1/yellow.gif","img/card_backs/set1/purple.gif","img/card_backs/set1/green.gif","img/card_backs/set2/orange.gif","img/card_backs/set2/pink.gif","img/card_backs/set2/gray.gif","img/card_backs/set2/blue.gif","""event"",""trial"",""time""
""fullscreenenter"",""1"",""12220""
","
","
","""event"",""trial"",""time""
""fullscreenenter"",""1"",""12220""
","
","","null","","null","","fixation","2021-06-03 20:39:44.928","","","","","",""
"card-selection-trial","121","529008","0.0-25.0-1.25","513","true","img/card_backs/set1/red.gif","img/card_backs/set1/yellow.gif","img/card_backs/set1/purple.gif","img/card_backs/set1/green.gif","img/card_backs/set2/orange.gif","img/card_backs/set2/pink.gif","img/card_backs/set2/gray.gif","img/card_backs/set2/blue.gif","""event"",""trial"",""time""
""fullscreenenter"",""1"",""12220""
","
","
","""event"",""trial"",""time""
""fullscreenenter"",""1"",""12220""
","
","","1172.984999999986","","","","real_trial","2021-06-03 20:39:48.108","img/card_backs/set1/red.gif","1","-210","1","",""
"casino-fixation","122","529509","0.0-25.0-0.26","513","true","img/card_backs/set1/red.gif","img/card_backs/set1/yellow.gif","img/card_backs/set1/purple.gif","img/card_backs/set1/green.gif","img/card_backs/set2/orange.gif","img/card_backs/set2/pink.gif","img/card_backs/set2/gray.gif","img/card_backs/set2/blue.gif","""event"",""trial"",""time""
""fullscreenenter"",""1"",""12220""
","
","
","""event"",""trial"",""time""
""fullscreenenter"",""1"",""12220""
","
","","null","","null","","fixation","2021-06-03 20:39:48.610","","","","","",""
"card-selection-trial","123","533061","0.0-25.0-1.26","513","true","img/card_backs/set1/red.gif","img/card_backs/set1/yellow.gif","img/card_backs/set1/purple.gif","img/card_backs/set1/green.gif","img/card_backs/set2/orange.gif","img/card_backs/set2/pink.gif","img/card_backs/set2/gray.gif","img/card_backs/set2/blue.gif","""event"",""trial"",""time""
""fullscreenenter"",""1"",""12220""
","
","
","""event"",""trial"",""time""
""fullscreenenter"",""1"",""12220""
","
","","1545.199999999837","","","","real_trial","2021-06-03 20:39:52.161","img/card_backs/set1/green.gif","0","-110","1","",""
"casino-fixation","124","533563","0.0-25.0-0.27","513","true","img/card_backs/set1/red.gif","img/card_backs/set1/yellow.gif","img/card_backs/set1/purple.gif","img/card_backs/set1/green.gif","img/card_backs/set2/orange.gif","img/card_backs/set2/pink.gif","img/card_backs/set2/gray.gif","img/card_backs/set2/blue.gif","""event"",""trial"",""time""
""fullscreenenter"",""1"",""12220""
","
","
","""event"",""trial"",""time""
""fullscreenenter"",""1"",""12220""
","
","","null","","null","","fixation","2021-06-03 20:39:52.663","","","","","",""
"card-selection-trial","125","537157","0.0-25.0-1.27","513","true","img/card_backs/set1/red.gif","img/card_backs/set1/yellow.gif","img/card_backs/set1/purple.gif","img/card_backs/set1/green.gif","img/card_backs/set2/orange.gif","img/card_backs/set2/pink.gif","img/card_backs/set2/gray.gif","img/card_backs/set2/blue.gif","""event"",""trial"",""time""
""fullscreenenter"",""1"",""12220""
","
","
","""event"",""trial"",""time""
""fullscreenenter"",""1"",""12220""
","
","","1586.1799999999348","","","","real_trial","2021-06-03 20:39:56.257","img/card_backs/set1/green.gif","2","-110","1","",""
"casino-fixation","126","537659","0.0-25.0-0.28","513","true","img/card_backs/set1/red.gif","img/card_backs/set1/yellow.gif","img/card_backs/set1/purple.gif","img/card_backs/set1/green.gif","img/card_backs/set2/orange.gif","img/card_backs/set2/pink.gif","img/card_backs/set2/gray.gif","img/card_backs/set2/blue.gif","""event"",""trial"",""time""
""fullscreenenter"",""1"",""12220""
","
","
","""event"",""trial"",""time""
""fullscreenenter"",""1"",""12220""
","
","","null","","null","","fixation","2021-06-03 20:39:56.759","","","","","",""
"card-selection-trial","127","540947","0.0-25.0-1.28","513","true","img/card_backs/set1/red.gif","img/card_backs/set1/yellow.gif","img/card_backs/set1/purple.gif","img/card_backs/set1/green.gif","img/card_backs/set2/orange.gif","img/card_backs/set2/pink.gif","img/card_backs/set2/gray.gif","img/card_backs/set2/blue.gif","""event"",""trial"",""time""
""fullscreenenter"",""1"",""12220""
","
","
","""event"",""trial"",""time""
""fullscreenenter"",""1"",""12220""
","
","","1282.265000000014","","","","real_trial","2021-06-03 20:40:00.047","img/card_backs/set1/green.gif","2","-90","1","",""
"casino-fixation","128","541449","0.0-25.0-0.29","513","true","img/card_backs/set1/red.gif","img/card_backs/set1/yellow.gif","img/card_backs/set1/purple.gif","img/card_backs/set1/green.gif","img/card_backs/set2/orange.gif","img/card_backs/set2/pink.gif","img/card_backs/set2/gray.gif","img/card_backs/set2/blue.gif","""event"",""trial"",""time""
""fullscreenenter"",""1"",""12220""
","
","
","""event"",""trial"",""time""
""fullscreenenter"",""1"",""12220""
","
","","null","","null","","fixation","2021-06-03 20:40:00.549","","","","","",""
"card-selection-trial","129","544727","0.0-25.0-1.29","513","true","img/card_backs/set1/red.gif","img/card_backs/set1/yellow.gif","img/card_backs/set1/purple.gif","img/card_backs/set1/green.gif","img/card_backs/set2/orange.gif","img/card_backs/set2/pink.gif","img/card_backs/set2/gray.gif","img/card_backs/set2/blue.gif","""event"",""trial"",""time""
""fullscreenenter"",""1"",""12220""
","
","
","""event"",""trial"",""time""
""fullscreenenter"",""1"",""12220""
","
","","1271.7899999999208","","","","real_trial","2021-06-03 20:40:03.827","img/card_backs/set1/green.gif","1","-90","1","",""
"casino-fixation","130","545229","0.0-25.0-0.30","513","true","img/card_backs/set1/red.gif","img/card_backs/set1/yellow.gif","img/card_backs/set1/purple.gif","img/card_backs/set1/green.gif","img/card_backs/set2/orange.gif","img/card_backs/set2/pink.gif","img/card_backs/set2/gray.gif","img/card_backs/set2/blue.gif","""event"",""trial"",""time""
""fullscreenenter"",""1"",""12220""
","
","
","""event"",""trial"",""time""
""fullscreenenter"",""1"",""12220""
","
","","null","","null","","fixation","2021-06-03 20:40:04.329","","","","","",""
"card-selection-trial","131","548615","0.0-25.0-1.30","513","true","img/card_backs/set1/red.gif","img/card_backs/set1/yellow.gif","img/card_backs/set1/purple.gif","img/card_backs/set1/green.gif","img/card_backs/set2/orange.gif","img/card_backs/set2/pink.gif","img/card_backs/set2/gray.gif","img/card_backs/set2/blue.gif","""event"",""trial"",""time""
""fullscreenenter"",""1"",""12220""
","
","
","""event"",""trial"",""time""
""fullscreenenter"",""1"",""12220""
","
","","1378.8349999999627","","","","real_trial","2021-06-03 20:40:07.715","img/card_backs/set1/red.gif","0","250","1","",""
"casino-fixation","132","549117","0.0-25.0-0.31","513","true","img/card_backs/set1/red.gif","img/card_backs/set1/yellow.gif","img/card_backs/set1/purple.gif","img/card_backs/set1/green.gif","img/card_backs/set2/orange.gif","img/card_backs/set2/pink.gif","img/card_backs/set2/gray.gif","img/card_backs/set2/blue.gif","""event"",""trial"",""time""
""fullscreenenter"",""1"",""12220""
","
","
","""event"",""trial"",""time""
""fullscreenenter"",""1"",""12220""
","
","","null","","null","","fixation","2021-06-03 20:40:08.217","","","","","",""
"card-selection-trial","133","555068","0.0-25.0-1.31","513","true","img/card_backs/set1/red.gif","img/card_backs/set1/yellow.gif","img/card_backs/set1/purple.gif","img/card_backs/set1/green.gif","img/card_backs/set2/orange.gif","img/card_backs/set2/pink.gif","img/card_backs/set2/gray.gif","img/card_backs/set2/blue.gif","""event"",""trial"",""time""
""fullscreenenter"",""1"",""12220""
","
","
","""event"",""trial"",""time""
""fullscreenenter"",""1"",""12220""
","
","","3941.8349999999627","","","","real_trial","2021-06-03 20:40:14.168","img/card_backs/set1/green.gif","1","60","1","",""
"casino-fixation","134","555570","0.0-25.0-0.32","513","true","img/card_backs/set1/red.gif","img/card_backs/set1/yellow.gif","img/card_backs/set1/purple.gif","img/card_backs/set1/green.gif","img/card_backs/set2/orange.gif","img/card_backs/set2/pink.gif","img/card_backs/set2/gray.gif","img/card_backs/set2/blue.gif","""event"",""trial"",""time""
""fullscreenenter"",""1"",""12220""
","
","
","""event"",""trial"",""time""
""fullscreenenter"",""1"",""12220""
","
","","null","","null","","fixation","2021-06-03 20:40:14.670","","","","","",""
"card-selection-trial","135","558836","0.0-25.0-1.32","513","true","img/card_backs/set1/red.gif","img/card_backs/set1/yellow.gif","img/card_backs/set1/purple.gif","img/card_backs/set1/green.gif","img/card_backs/set2/orange.gif","img/card_backs/set2/pink.gif","img/card_backs/set2/gray.gif","img/card_backs/set2/blue.gif","""event"",""trial"",""time""
""fullscreenenter"",""1"",""12220""
","
","
","""event"",""trial"",""time""
""fullscreenenter"",""1"",""12220""
","
","","1259.875","","","","real_trial","2021-06-03 20:40:17.936","img/card_backs/set1/red.gif","3","-190","1","",""
"casino-fixation","136","559338","0.0-25.0-0.33","513","true","img/card_backs/set1/red.gif","img/card_backs/set1/yellow.gif","img/card_backs/set1/purple.gif","img/card_backs/set1/green.gif","img/card_backs/set2/orange.gif","img/card_backs/set2/pink.gif","img/card_backs/set2/gray.gif","img/card_backs/set2/blue.gif","""event"",""trial"",""time""
""fullscreenenter"",""1"",""12220""
","
","
","""event"",""trial"",""time""
""fullscreenenter"",""1"",""12220""
","
","","null","","null","","fixation","2021-06-03 20:40:18.438","","","","","",""
"card-selection-trial","137","563039","0.0-25.0-1.33","513","true","img/card_backs/set1/red.gif","img/card_backs/set1/yellow.gif","img/card_backs/set1/purple.gif","img/card_backs/set1/green.gif","img/card_backs/set2/orange.gif","img/card_backs/set2/pink.gif","img/card_backs/set2/gray.gif","img/card_backs/set2/blue.gif","""event"",""trial"",""time""
""fullscreenenter"",""1"",""12220""
","
","
","""event"",""trial"",""time""
""fullscreenenter"",""1"",""12220""
","
","","1694.1900000000605","","","","real_trial","2021-06-03 20:40:22.139","img/card_backs/set1/green.gif","1","-100","1","",""
"casino-fixation","138","563541","0.0-25.0-0.34","513","true","img/card_backs/set1/red.gif","img/card_backs/set1/yellow.gif","img/card_backs/set1/purple.gif","img/card_backs/set1/green.gif","img/card_backs/set2/orange.gif","img/card_backs/set2/pink.gif","img/card_backs/set2/gray.gif","img/card_backs/set2/blue.gif","""event"",""trial"",""time""
""fullscreenenter"",""1"",""12220""
","
","
","""event"",""trial"",""time""
""fullscreenenter"",""1"",""12220""
","
","","null","","null","","fixation","2021-06-03 20:40:22.641","","","","","",""
"card-selection-trial","139","566875","0.0-25.0-1.34","513","true","img/card_backs/set1/red.gif","img/card_backs/set1/yellow.gif","img/card_backs/set1/purple.gif","img/card_backs/set1/green.gif","img/card_backs/set2/orange.gif","img/card_backs/set2/pink.gif","img/card_backs/set2/gray.gif","img/card_backs/set2/blue.gif","""event"",""trial"",""time""
""fullscreenenter"",""1"",""12220""
","
","
","""event"",""trial"",""time""
""fullscreenenter"",""1"",""12220""
","
","","1326.890000000014","","","","real_trial","2021-06-03 20:40:25.975","img/card_backs/set1/green.gif","0","-110","1","",""
"casino-fixation","140","567377","0.0-25.0-0.35","513","true","img/card_backs/set1/red.gif","img/card_backs/set1/yellow.gif","img/card_backs/set1/purple.gif","img/card_backs/set1/green.gif","img/card_backs/set2/orange.gif","img/card_backs/set2/pink.gif","img/card_backs/set2/gray.gif","img/card_backs/set2/blue.gif","""event"",""trial"",""time""
""fullscreenenter"",""1"",""12220""
","
","
","""event"",""trial"",""time""
""fullscreenenter"",""1"",""12220""
","
","","null","","null","","fixation","2021-06-03 20:40:26.477","","","","","",""
"card-selection-trial","141","569947","0.0-25.0-1.35","513","true","img/card_backs/set1/red.gif","img/card_backs/set1/yellow.gif","img/card_backs/set1/purple.gif","img/card_backs/set1/green.gif","img/card_backs/set2/orange.gif","img/card_backs/set2/pink.gif","img/card_backs/set2/gray.gif","img/card_backs/set2/blue.gif","""event"",""trial"",""time""
""fullscreenenter"",""1"",""12220""
","
","
","""event"",""trial"",""time""
""fullscreenenter"",""1"",""12220""
","
","","564.2449999999953","","","","real_trial","2021-06-03 20:40:29.048","img/card_backs/set1/purple.gif","3","40","1","",""
"casino-fixation","142","570449","0.0-25.0-0.36","513","true","img/card_backs/set1/red.gif","img/card_backs/set1/yellow.gif","img/card_backs/set1/purple.gif","img/card_backs/set1/green.gif","img/card_backs/set2/orange.gif","img/card_backs/set2/pink.gif","img/card_backs/set2/gray.gif","img/card_backs/set2/blue.gif","""event"",""trial"",""time""
""fullscreenenter"",""1"",""12220""
","
","
","""event"",""trial"",""time""
""fullscreenenter"",""1"",""12220""
","
","","null","","null","","fixation","2021-06-03 20:40:29.549","","","","","",""
"card-selection-trial","143","573928","0.0-25.0-1.36","513","true","img/card_backs/set1/red.gif","img/card_backs/set1/yellow.gif","img/card_backs/set1/purple.gif","img/card_backs/set1/green.gif","img/card_backs/set2/orange.gif","img/card_backs/set2/pink.gif","img/card_backs/set2/gray.gif","img/card_backs/set2/blue.gif","""event"",""trial"",""time""
""fullscreenenter"",""1"",""12220""
","
","
","""event"",""trial"",""time""
""fullscreenenter"",""1"",""12220""
","
","","1471.109999999986","","","","real_trial","2021-06-03 20:40:33.028","img/card_backs/set1/green.gif","1","-110","1","",""
"casino-fixation","144","574430","0.0-25.0-0.37","513","true","img/card_backs/set1/red.gif","img/card_backs/set1/yellow.gif","img/card_backs/set1/purple.gif","img/card_backs/set1/green.gif","img/card_backs/set2/orange.gif","img/card_backs/set2/pink.gif","img/card_backs/set2/gray.gif","img/card_backs/set2/blue.gif","""event"",""trial"",""time""
""fullscreenenter"",""1"",""12220""
","
","
","""event"",""trial"",""time""
""fullscreenenter"",""1"",""12220""
","
","","null","","null","","fixation","2021-06-03 20:40:33.530","","","","","",""
"card-selection-trial","145","576889","0.0-25.0-1.37","513","true","img/card_backs/set1/red.gif","img/card_backs/set1/yellow.gif","img/card_backs/set1/purple.gif","img/card_backs/set1/green.gif","img/card_backs/set2/orange.gif","img/card_backs/set2/pink.gif","img/card_backs/set2/gray.gif","img/card_backs/set2/blue.gif","""event"",""trial"",""time""
""fullscreenenter"",""1"",""12220""
","
","
","""event"",""trial"",""time""
""fullscreenenter"",""1"",""12220""
","
","","452.6099999998696","","","","real_trial","2021-06-03 20:40:35.989","img/card_backs/set1/green.gif","2","50","1","",""
"casino-fixation","146","577391","0.0-25.0-0.38","513","true","img/card_backs/set1/red.gif","img/card_backs/set1/yellow.gif","img/card_backs/set1/purple.gif","img/card_backs/set1/green.gif","img/card_backs/set2/orange.gif","img/card_backs/set2/pink.gif","img/card_backs/set2/gray.gif","img/card_backs/set2/blue.gif","""event"",""trial"",""time""
""fullscreenenter"",""1"",""12220""
","
","
","""event"",""trial"",""time""
""fullscreenenter"",""1"",""12220""
","
","","null","","null","","fixation","2021-06-03 20:40:36.492","","","","","",""
"card-selection-trial","147","580310","0.0-25.0-1.38","513","true","img/card_backs/set1/red.gif","img/card_backs/set1/yellow.gif","img/card_backs/set1/purple.gif","img/card_backs/set1/green.gif","img/card_backs/set2/orange.gif","img/card_backs/set2/pink.gif","img/card_backs/set2/gray.gif","img/card_backs/set2/blue.gif","""event"",""trial"",""time""
""fullscreenenter"",""1"",""12220""
","
","
","""event"",""trial"",""time""
""fullscreenenter"",""1"",""12220""
","
","","910.8700000001118","","","","real_trial","2021-06-03 20:40:39.410","img/card_backs/set1/red.gif","2","-190","1","",""
"casino-fixation","148","580811","0.0-25.0-0.39","513","true","img/card_backs/set1/red.gif","img/card_backs/set1/yellow.gif","img/card_backs/set1/purple.gif","img/card_backs/set1/green.gif","img/card_backs/set2/orange.gif","img/card_backs/set2/pink.gif","img/card_backs/set2/gray.gif","img/card_backs/set2/blue.gif","""event"",""trial"",""time""
""fullscreenenter"",""1"",""12220""
","
","
","""event"",""trial"",""time""
""fullscreenenter"",""1"",""12220""
","
","","null","","null","","fixation","2021-06-03 20:40:39.911","","","","","",""
"card-selection-trial","149","584672","0.0-25.0-1.39","513","true","img/card_backs/set1/red.gif","img/card_backs/set1/yellow.gif","img/card_backs/set1/purple.gif","img/card_backs/set1/green.gif","img/card_backs/set2/orange.gif","img/card_backs/set2/pink.gif","img/card_backs/set2/gray.gif","img/card_backs/set2/blue.gif","""event"",""trial"",""time""
""fullscreenenter"",""1"",""12220""
","
","
","""event"",""trial"",""time""
""fullscreenenter"",""1"",""12220""
","
","","1854.1050000000978","","","","real_trial","2021-06-03 20:40:43.772","img/card_backs/set1/yellow.gif","3","250","1","",""
"casino-fixation","150","585174","0.0-25.0-0.40","513","true","img/card_backs/set1/red.gif","img/card_backs/set1/yellow.gif","img/card_backs/set1/purple.gif","img/card_backs/set1/green.gif","img/card_backs/set2/orange.gif","img/card_backs/set2/pink.gif","img/card_backs/set2/gray.gif","img/card_backs/set2/blue.gif","""event"",""trial"",""time""
""fullscreenenter"",""1"",""12220""
","
","
","""event"",""trial"",""time""
""fullscreenenter"",""1"",""12220""
","
","","null","","null","","fixation","2021-06-03 20:40:44.275","","","","","",""
"card-selection-trial","151","589528","0.0-25.0-1.40","513","true","img/card_backs/set1/red.gif","img/card_backs/set1/yellow.gif","img/card_backs/set1/purple.gif","img/card_backs/set1/green.gif","img/card_backs/set2/orange.gif","img/card_backs/set2/pink.gif","img/card_backs/set2/gray.gif","img/card_backs/set2/blue.gif","""event"",""trial"",""time""
""fullscreenenter"",""1"",""12220""
","
","
","""event"",""trial"",""time""
""fullscreenenter"",""1"",""12220""
","
","","2345.95000000007","","","","real_trial","2021-06-03 20:40:48.628","img/card_backs/set1/red.gif","1","-200","1","",""
"casino-fixation","152","590030","0.0-25.0-0.41","513","true","img/card_backs/set1/red.gif","img/card_backs/set1/yellow.gif","img/card_backs/set1/purple.gif","img/card_backs/set1/green.gif","img/card_backs/set2/orange.gif","img/card_backs/set2/pink.gif","img/card_backs/set2/gray.gif","img/card_backs/set2/blue.gif","""event"",""trial"",""time""
""fullscreenenter"",""1"",""12220""
","
","
","""event"",""trial"",""time""
""fullscreenenter"",""1"",""12220""
","
","","null","","null","","fixation","2021-06-03 20:40:49.130","","","","","",""
"card-selection-trial","153","592759","0.0-25.0-1.41","513","true","img/card_backs/set1/red.gif","img/card_backs/set1/yellow.gif","img/card_backs/set1/purple.gif","img/card_backs/set1/green.gif","img/card_backs/set2/orange.gif","img/card_backs/set2/pink.gif","img/card_backs/set2/gray.gif","img/card_backs/set2/blue.gif","""event"",""trial"",""time""
""fullscreenenter"",""1"",""12220""
","
","
","""event"",""trial"",""time""
""fullscreenenter"",""1"",""12220""
","
","","714.7750000000233","","","","real_trial","2021-06-03 20:40:51.859","img/card_backs/set1/green.gif","0","40","1","",""
"casino-fixation","154","593261","0.0-25.0-0.42","513","true","img/card_backs/set1/red.gif","img/card_backs/set1/yellow.gif","img/card_backs/set1/purple.gif","img/card_backs/set1/green.gif","img/card_backs/set2/orange.gif","img/card_backs/set2/pink.gif","img/card_backs/set2/gray.gif","img/card_backs/set2/blue.gif","""event"",""trial"",""time""
""fullscreenenter"",""1"",""12220""
","
","
","""event"",""trial"",""time""
""fullscreenenter"",""1"",""12220""
","
","","null","","null","","fixation","2021-06-03 20:40:52.361","","","","","",""
"card-selection-trial","155","596103","0.0-25.0-1.42","513","true","img/card_backs/set1/red.gif","img/card_backs/set1/yellow.gif","img/card_backs/set1/purple.gif","img/card_backs/set1/green.gif","img/card_backs/set2/orange.gif","img/card_backs/set2/pink.gif","img/card_backs/set2/gray.gif","img/card_backs/set2/blue.gif","""event"",""trial"",""time""
""fullscreenenter"",""1"",""12220""
","
","
","""event"",""trial"",""time""
""fullscreenenter"",""1"",""12220""
","
","","834.5350000000326","","","","real_trial","2021-06-03 20:40:55.203","img/card_backs/set1/green.gif","3","40","1","",""
"casino-fixation","156","596605","0.0-25.0-0.43","513","true","img/card_backs/set1/red.gif","img/card_backs/set1/yellow.gif","img/card_backs/set1/purple.gif","img/card_backs/set1/green.gif","img/card_backs/set2/orange.gif","img/card_backs/set2/pink.gif","img/card_backs/set2/gray.gif","img/card_backs/set2/blue.gif","""event"",""trial"",""time""
""fullscreenenter"",""1"",""12220""
","
","
","""event"",""trial"",""time""
""fullscreenenter"",""1"",""12220""
","
","","null","","null","","fixation","2021-06-03 20:40:55.705","","","","","",""
"card-selection-trial","157","599597","0.0-25.0-1.43","513","true","img/card_backs/set1/red.gif","img/card_backs/set1/yellow.gif","img/card_backs/set1/purple.gif","img/card_backs/set1/green.gif","img/card_backs/set2/orange.gif","img/card_backs/set2/pink.gif","img/card_backs/set2/gray.gif","img/card_backs/set2/blue.gif","""event"",""trial"",""time""
""fullscreenenter"",""1"",""12220""
","
","
","""event"",""trial"",""time""
""fullscreenenter"",""1"",""12220""
","
","","985.390000000014","","","","real_trial","2021-06-03 20:40:58.697","img/card_backs/set1/green.gif","2","-90","1","",""
"casino-fixation","158","600099","0.0-25.0-0.44","513","true","img/card_backs/set1/red.gif","img/card_backs/set1/yellow.gif","img/card_backs/set1/purple.gif","img/card_backs/set1/green.gif","img/card_backs/set2/orange.gif","img/card_backs/set2/pink.gif","img/card_backs/set2/gray.gif","img/card_backs/set2/blue.gif","""event"",""trial"",""time""
""fullscreenenter"",""1"",""12220""
","
","
","""event"",""trial"",""time""
""fullscreenenter"",""1"",""12220""
","
","","null","","null","","fixation","2021-06-03 20:40:59.199","","","","","",""
"card-selection-trial","159","603552","0.0-25.0-1.44","513","true","img/card_backs/set1/red.gif","img/card_backs/set1/yellow.gif","img/card_backs/set1/purple.gif","img/card_backs/set1/green.gif","img/card_backs/set2/orange.gif","img/card_backs/set2/pink.gif","img/card_backs/set2/gray.gif","img/card_backs/set2/blue.gif","""event"",""trial"",""time""
""fullscreenenter"",""1"",""12220""
","
","
","""event"",""trial"",""time""
""fullscreenenter"",""1"",""12220""
","
","","1447.0849999999627","","","","real_trial","2021-06-03 20:41:02.652","img/card_backs/set1/green.gif","0","-90","1","",""
"casino-fixation","160","604054","0.0-25.0-0.45","513","true","img/card_backs/set1/red.gif","img/card_backs/set1/yellow.gif","img/card_backs/set1/purple.gif","img/card_backs/set1/green.gif","img/card_backs/set2/orange.gif","img/card_backs/set2/pink.gif","img/card_backs/set2/gray.gif","img/card_backs/set2/blue.gif","""event"",""trial"",""time""
""fullscreenenter"",""1"",""12220""
","
","
","""event"",""trial"",""time""
""fullscreenenter"",""1"",""12220""
","
","","null","","null","","fixation","2021-06-03 20:41:03.154","","","","","",""
"card-selection-trial","161","607468","0.0-25.0-1.45","513","true","img/card_backs/set1/red.gif","img/card_backs/set1/yellow.gif","img/card_backs/set1/purple.gif","img/card_backs/set1/green.gif","img/card_backs/set2/orange.gif","img/card_backs/set2/pink.gif","img/card_backs/set2/gray.gif","img/card_backs/set2/blue.gif","""event"",""trial"",""time""
""fullscreenenter"",""1"",""12220""
","
","
","""event"",""trial"",""time""
""fullscreenenter"",""1"",""12220""
","
","","1405.5650000000605","","","","real_trial","2021-06-03 20:41:06.568","img/card_backs/set1/purple.gif","1","60","1","",""
"casino-fixation","162","607970","0.0-25.0-0.46","513","true","img/card_backs/set1/red.gif","img/card_backs/set1/yellow.gif","img/card_backs/set1/purple.gif","img/card_backs/set1/green.gif","img/card_backs/set2/orange.gif","img/card_backs/set2/pink.gif","img/card_backs/set2/gray.gif","img/card_backs/set2/blue.gif","""event"",""trial"",""time""
""fullscreenenter"",""1"",""12220""
","
","
","""event"",""trial"",""time""
""fullscreenenter"",""1"",""12220""
","
","","null","","null","","fixation","2021-06-03 20:41:07.070","","","","","",""
"card-selection-trial","163","611494","0.0-25.0-1.46","513","true","img/card_backs/set1/red.gif","img/card_backs/set1/yellow.gif","img/card_backs/set1/purple.gif","img/card_backs/set1/green.gif","img/card_backs/set2/orange.gif","img/card_backs/set2/pink.gif","img/card_backs/set2/gray.gif","img/card_backs/set2/blue.gif","""event"",""trial"",""time""
""fullscreenenter"",""1"",""12220""
","
","
","""event"",""trial"",""time""
""fullscreenenter"",""1"",""12220""
","
","","1517.515000000014","","","","real_trial","2021-06-03 20:41:10.594","img/card_backs/set1/yellow.gif","2","-210","1","",""
"casino-fixation","164","611996","0.0-25.0-0.47","513","true","img/card_backs/set1/red.gif","img/card_backs/set1/yellow.gif","img/card_backs/set1/purple.gif","img/card_backs/set1/green.gif","img/card_backs/set2/orange.gif","img/card_backs/set2/pink.gif","img/card_backs/set2/gray.gif","img/card_backs/set2/blue.gif","""event"",""trial"",""time""
""fullscreenenter"",""1"",""12220""
","
","
","""event"",""trial"",""time""
""fullscreenenter"",""1"",""12220""
","
","","null","","null","","fixation","2021-06-03 20:41:11.096","","","","","",""
"card-selection-trial","165","615333","0.0-25.0-1.47","513","true","img/card_backs/set1/red.gif","img/card_backs/set1/yellow.gif","img/card_backs/set1/purple.gif","img/card_backs/set1/green.gif","img/card_backs/set2/orange.gif","img/card_backs/set2/pink.gif","img/card_backs/set2/gray.gif","img/card_backs/set2/blue.gif","""event"",""trial"",""time""
""fullscreenenter"",""1"",""12220""
","
","
","""event"",""trial"",""time""
""fullscreenenter"",""1"",""12220""
","
","","1329.1950000000652","","","","real_trial","2021-06-03 20:41:14.433","img/card_backs/set1/green.gif","3","50","1","",""
"casino-fixation","166","615835","0.0-25.0-0.48","513","true","img/card_backs/set1/red.gif","img/card_backs/set1/yellow.gif","img/card_backs/set1/purple.gif","img/card_backs/set1/green.gif","img/card_backs/set2/orange.gif","img/card_backs/set2/pink.gif","img/card_backs/set2/gray.gif","img/card_backs/set2/blue.gif","""event"",""trial"",""time""
""fullscreenenter"",""1"",""12220""
","
","
","""event"",""trial"",""time""
""fullscreenenter"",""1"",""12220""
","
","","null","","null","","fixation","2021-06-03 20:41:14.936","","","","","",""
