"trial_type","trial_index","time_elapsed","internal_node_id","sub_id","risk_good_first","block1_A","block1_B","block1_C","block1_D","block2_A","block2_B","block2_C","block2_D","interactions","blur_events","focus_events","fullscreenenter_events","fullscreenexit_events","success","rt","stimulus","key_press","button_pressed","task_part","timestamp","card_choice","choice_position","points_earned","block","correct","response"
"pavlovia","0","4","0.0-0.0","809","true","img/card_backs/set1/yellow.gif","img/card_backs/set1/red.gif","img/card_backs/set1/green.gif","img/card_backs/set1/purple.gif","img/card_backs/set2/blue.gif","img/card_backs/set2/pink.gif","img/card_backs/set2/gray.gif","img/card_backs/set2/orange.gif","""event"",""trial"",""time""
""blur"",""0"",""0""
""focus"",""1"",""4046""
""fullscreenenter"",""1"",""14342""
","""event"",""trial"",""time""
""blur"",""0"",""0""
","""event"",""trial"",""time""
""focus"",""1"",""4046""
","""event"",""trial"",""time""
""fullscreenenter"",""1"",""14342""
","
","","","","","","","","","","","","",""
"fullscreen","1","15237","0.0-1.0","809","true","img/card_backs/set1/yellow.gif","img/card_backs/set1/red.gif","img/card_backs/set1/green.gif","img/card_backs/set1/purple.gif","img/card_backs/set2/blue.gif","img/card_backs/set2/pink.gif","img/card_backs/set2/gray.gif","img/card_backs/set2/orange.gif","""event"",""trial"",""time""
""blur"",""0"",""0""
""focus"",""1"",""4046""
""fullscreenenter"",""1"",""14342""
","""event"",""trial"",""time""
""blur"",""0"",""0""
","""event"",""trial"",""time""
""focus"",""1"",""4046""
","""event"",""trial"",""time""
""fullscreenenter"",""1"",""14342""
","
","true","","","","","","","","","","","",""
"audio-keyboard-response","2","19631","0.0-2.0","809","true","img/card_backs/set1/yellow.gif","img/card_backs/set1/red.gif","img/card_backs/set1/green.gif","img/card_backs/set1/purple.gif","img/card_backs/set2/blue.gif","img/card_backs/set2/pink.gif","img/card_backs/set2/gray.gif","img/card_backs/set2/orange.gif","""event"",""trial"",""time""
""blur"",""0"",""0""
""focus"",""1"",""4046""
""fullscreenenter"",""1"",""14342""
","""event"",""trial"",""time""
""blur"",""0"",""0""
","""event"",""trial"",""time""
""focus"",""1"",""4046""
","""event"",""trial"",""time""
""fullscreenenter"",""1"",""14342""
","
","","4389","audio/beep_loop.wav","32","","","","","","","","",""
"audio-button-response","3","22671","0.0-3.0","809","true","img/card_backs/set1/yellow.gif","img/card_backs/set1/red.gif","img/card_backs/set1/green.gif","img/card_backs/set1/purple.gif","img/card_backs/set2/blue.gif","img/card_backs/set2/pink.gif","img/card_backs/set2/gray.gif","img/card_backs/set2/orange.gif","""event"",""trial"",""time""
""blur"",""0"",""0""
""focus"",""1"",""4046""
""fullscreenenter"",""1"",""14342""
","""event"",""trial"",""time""
""blur"",""0"",""0""
","""event"",""trial"",""time""
""focus"",""1"",""4046""
","""event"",""trial"",""time""
""fullscreenenter"",""1"",""14342""
","
","","NaN","audio/turtle.mp3","","3","","","","","","","",""
"audio-button-response","4","25930","0.0-4.0","809","true","img/card_backs/set1/yellow.gif","img/card_backs/set1/red.gif","img/card_backs/set1/green.gif","img/card_backs/set1/purple.gif","img/card_backs/set2/blue.gif","img/card_backs/set2/pink.gif","img/card_backs/set2/gray.gif","img/card_backs/set2/orange.gif","""event"",""trial"",""time""
""blur"",""0"",""0""
""focus"",""1"",""4046""
""fullscreenenter"",""1"",""14342""
","""event"",""trial"",""time""
""blur"",""0"",""0""
","""event"",""trial"",""time""
""focus"",""1"",""4046""
","""event"",""trial"",""time""
""fullscreenenter"",""1"",""14342""
","
","","NaN","audio/shark.mp3","","2","","","","","","","",""
"fullscreen","5","38744","0.0-5.0","809","true","img/card_backs/set1/yellow.gif","img/card_backs/set1/red.gif","img/card_backs/set1/green.gif","img/card_backs/set1/purple.gif","img/card_backs/set2/blue.gif","img/card_backs/set2/pink.gif","img/card_backs/set2/gray.gif","img/card_backs/set2/orange.gif","""event"",""trial"",""time""
""blur"",""0"",""0""
""focus"",""1"",""4046""
""fullscreenenter"",""1"",""14342""
","""event"",""trial"",""time""
""blur"",""0"",""0""
","""event"",""trial"",""time""
""focus"",""1"",""4046""
","""event"",""trial"",""time""
""fullscreenenter"",""1"",""14342""
","
","true","","","","","","","","","","","",""
"casino-keyboard-response","6","51732","0.0-6.0-0.0","809","true","img/card_backs/set1/yellow.gif","img/card_backs/set1/red.gif","img/card_backs/set1/green.gif","img/card_backs/set1/purple.gif","img/card_backs/set2/blue.gif","img/card_backs/set2/pink.gif","img/card_backs/set2/gray.gif","img/card_backs/set2/orange.gif","""event"",""trial"",""time""
""blur"",""0"",""0""
""focus"",""1"",""4046""
""fullscreenenter"",""1"",""14342""
","""event"",""trial"",""time""
""blur"",""0"",""0""
","""event"",""trial"",""time""
""focus"",""1"",""4046""
","""event"",""trial"",""time""
""fullscreenenter"",""1"",""14342""
","
","","12974.994999996852","Welcome to the casino!","71","","instructions","2021-05-03 22:48:53.899","","","","","",""
"casino-keyboard-response","7","62077","0.0-6.0-0.1","809","true","img/card_backs/set1/yellow.gif","img/card_backs/set1/red.gif","img/card_backs/set1/green.gif","img/card_backs/set1/purple.gif","img/card_backs/set2/blue.gif","img/card_backs/set2/pink.gif","img/card_backs/set2/gray.gif","img/card_backs/set2/orange.gif","""event"",""trial"",""time""
""blur"",""0"",""0""
""focus"",""1"",""4046""
""fullscreenenter"",""1"",""14342""
","""event"",""trial"",""time""
""blur"",""0"",""0""
","""event"",""trial"",""time""
""focus"",""1"",""4046""
","""event"",""trial"",""time""
""fullscreenenter"",""1"",""14342""
","
","","10339.954999973997","Today you will be playing a game to earn tokens. </br> At the end of the experiment, you will be paid a bonus based on how many tokens you win. ","69","","instructions","2021-05-03 22:49:04.244","","","","","",""
"casino-keyboard-response","8","69597","0.0-6.0-0.2","809","true","img/card_backs/set1/yellow.gif","img/card_backs/set1/red.gif","img/card_backs/set1/green.gif","img/card_backs/set1/purple.gif","img/card_backs/set2/blue.gif","img/card_backs/set2/pink.gif","img/card_backs/set2/gray.gif","img/card_backs/set2/orange.gif","""event"",""trial"",""time""
""blur"",""0"",""0""
""focus"",""1"",""4046""
""fullscreenenter"",""1"",""14342""
","""event"",""trial"",""time""
""blur"",""0"",""0""
","""event"",""trial"",""time""
""focus"",""1"",""4046""
","""event"",""trial"",""time""
""fullscreenenter"",""1"",""14342""
","
","","7514.209999993909","On every turn, you will be shown four different decks of cards. </br> You need to select a card from one of the four decks.  ","75","","instructions","2021-05-03 22:49:11.763","","","","","",""
"casino-keyboard-response","9","74776","0.0-6.0-0.3","809","true","img/card_backs/set1/yellow.gif","img/card_backs/set1/red.gif","img/card_backs/set1/green.gif","img/card_backs/set1/purple.gif","img/card_backs/set2/blue.gif","img/card_backs/set2/pink.gif","img/card_backs/set2/gray.gif","img/card_backs/set2/orange.gif","""event"",""trial"",""time""
""blur"",""0"",""0""
""focus"",""1"",""4046""
""fullscreenenter"",""1"",""14342""
","""event"",""trial"",""time""
""blur"",""0"",""0""
","""event"",""trial"",""time""
""focus"",""1"",""4046""
","""event"",""trial"",""time""
""fullscreenenter"",""1"",""14342""
","
","","5172.840000013821","On the next screen, you will see what the decks will look like. ","66","","instructions","2021-05-03 22:49:16.942","","","","","",""
"card-selection-trial","10","78807","0.0-7.0-0.0","809","true","img/card_backs/set1/yellow.gif","img/card_backs/set1/red.gif","img/card_backs/set1/green.gif","img/card_backs/set1/purple.gif","img/card_backs/set2/blue.gif","img/card_backs/set2/pink.gif","img/card_backs/set2/gray.gif","img/card_backs/set2/orange.gif","""event"",""trial"",""time""
""blur"",""0"",""0""
""focus"",""1"",""4046""
""fullscreenenter"",""1"",""14342""
","""event"",""trial"",""time""
""blur"",""0"",""0""
","""event"",""trial"",""time""
""focus"",""1"",""4046""
","""event"",""trial"",""time""
""fullscreenenter"",""1"",""14342""
","
","","null","","","","practice","2021-05-03 22:49:20.974","null","null","null","0","",""
"casino-keyboard-response","11","93618","0.0-8.0-0.0","809","true","img/card_backs/set1/yellow.gif","img/card_backs/set1/red.gif","img/card_backs/set1/green.gif","img/card_backs/set1/purple.gif","img/card_backs/set2/blue.gif","img/card_backs/set2/pink.gif","img/card_backs/set2/gray.gif","img/card_backs/set2/orange.gif","""event"",""trial"",""time""
""blur"",""0"",""0""
""focus"",""1"",""4046""
""fullscreenenter"",""1"",""14342""
","""event"",""trial"",""time""
""blur"",""0"",""0""
","""event"",""trial"",""time""
""focus"",""1"",""4046""
","""event"",""trial"",""time""
""fullscreenenter"",""1"",""14342""
","
","","14805.600000021514","You should pick a card from a deck using the '2', '4', '6', and '8' keys at the top of the keyboard.","85","","instructions","2021-05-03 22:49:35.784","","","","","",""
"casino-keyboard-response","12","99589","0.0-8.0-0.1","809","true","img/card_backs/set1/yellow.gif","img/card_backs/set1/red.gif","img/card_backs/set1/green.gif","img/card_backs/set1/purple.gif","img/card_backs/set2/blue.gif","img/card_backs/set2/pink.gif","img/card_backs/set2/gray.gif","img/card_backs/set2/orange.gif","""event"",""trial"",""time""
""blur"",""0"",""0""
""focus"",""1"",""4046""
""fullscreenenter"",""1"",""14342""
","""event"",""trial"",""time""
""blur"",""0"",""0""
","""event"",""trial"",""time""
""focus"",""1"",""4046""
","""event"",""trial"",""time""
""fullscreenenter"",""1"",""14342""
","
","","5965.870000014547","Once you select a card, it will turn over and you will see how many tokens you earned.","83","","instructions","2021-05-03 22:49:41.755","","","","","",""
"casino-keyboard-response","13","114518","0.0-8.0-0.2","809","true","img/card_backs/set1/yellow.gif","img/card_backs/set1/red.gif","img/card_backs/set1/green.gif","img/card_backs/set1/purple.gif","img/card_backs/set2/blue.gif","img/card_backs/set2/pink.gif","img/card_backs/set2/gray.gif","img/card_backs/set2/orange.gif","""event"",""trial"",""time""
""blur"",""0"",""0""
""focus"",""1"",""4046""
""fullscreenenter"",""1"",""14342""
","""event"",""trial"",""time""
""blur"",""0"",""0""
","""event"",""trial"",""time""
""focus"",""1"",""4046""
","""event"",""trial"",""time""
""fullscreenenter"",""1"",""14342""
","
","","14921.57499998575","Let's try practicing that! </br> First, try to put your fingers over the '2', '4', '6', and '8' keys. </br>  You can use whatever fingers are most comfortable for you. Try to find a comfortable position now. ","50","","instructions","2021-05-03 22:49:56.684","","","","","",""
"casino-keyboard-response","14","122539","0.0-8.0-0.3","809","true","img/card_backs/set1/yellow.gif","img/card_backs/set1/red.gif","img/card_backs/set1/green.gif","img/card_backs/set1/purple.gif","img/card_backs/set2/blue.gif","img/card_backs/set2/pink.gif","img/card_backs/set2/gray.gif","img/card_backs/set2/orange.gif","""event"",""trial"",""time""
""blur"",""0"",""0""
""focus"",""1"",""4046""
""fullscreenenter"",""1"",""14342""
","""event"",""trial"",""time""
""blur"",""0"",""0""
","""event"",""trial"",""time""
""focus"",""1"",""4046""
","""event"",""trial"",""time""
""fullscreenenter"",""1"",""14342""
","
","","8014.63499997044","Okay ready? </br> On the next screen, press '2' to select the left deck. ","50","","instructions","2021-05-03 22:50:04.705","","","","","",""
"card-selection-trial","15","125537","0.0-9.0-0.0","809","true","img/card_backs/set1/yellow.gif","img/card_backs/set1/red.gif","img/card_backs/set1/green.gif","img/card_backs/set1/purple.gif","img/card_backs/set2/blue.gif","img/card_backs/set2/pink.gif","img/card_backs/set2/gray.gif","img/card_backs/set2/orange.gif","""event"",""trial"",""time""
""blur"",""0"",""0""
""focus"",""1"",""4046""
""fullscreenenter"",""1"",""14342""
","""event"",""trial"",""time""
""blur"",""0"",""0""
","""event"",""trial"",""time""
""focus"",""1"",""4046""
","""event"",""trial"",""time""
""fullscreenenter"",""1"",""14342""
","
","","954.6150000533089","","","","practice_card_selection","2021-05-03 22:50:07.703","img/practice_cards/backs/black.gif","0","100","","",""
"casino-keyboard-response","16","131096","0.0-10.0-0.0","809","true","img/card_backs/set1/yellow.gif","img/card_backs/set1/red.gif","img/card_backs/set1/green.gif","img/card_backs/set1/purple.gif","img/card_backs/set2/blue.gif","img/card_backs/set2/pink.gif","img/card_backs/set2/gray.gif","img/card_backs/set2/orange.gif","""event"",""trial"",""time""
""blur"",""0"",""0""
""focus"",""1"",""4046""
""fullscreenenter"",""1"",""14342""
","""event"",""trial"",""time""
""blur"",""0"",""0""
","""event"",""trial"",""time""
""focus"",""1"",""4046""
","""event"",""trial"",""time""
""fullscreenenter"",""1"",""14342""
","
","","5555.305000045337","Great! Now on the next screen, try pressing '6' to select the third deck.","54","","instructions","2021-05-03 22:50:13.262","","","","","",""
"card-selection-trial","17","134767","0.0-11.0-0.0","809","true","img/card_backs/set1/yellow.gif","img/card_backs/set1/red.gif","img/card_backs/set1/green.gif","img/card_backs/set1/purple.gif","img/card_backs/set2/blue.gif","img/card_backs/set2/pink.gif","img/card_backs/set2/gray.gif","img/card_backs/set2/orange.gif","""event"",""trial"",""time""
""blur"",""0"",""0""
""focus"",""1"",""4046""
""fullscreenenter"",""1"",""14342""
","""event"",""trial"",""time""
""blur"",""0"",""0""
","""event"",""trial"",""time""
""focus"",""1"",""4046""
","""event"",""trial"",""time""
""fullscreenenter"",""1"",""14342""
","
","","1645.7100000116043","","","","practice_card_selection","2021-05-03 22:50:16.933","img/practice_cards/backs/black.gif","2","100","","",""
"casino-keyboard-response","18","138947","0.0-12.0-0.0","809","true","img/card_backs/set1/yellow.gif","img/card_backs/set1/red.gif","img/card_backs/set1/green.gif","img/card_backs/set1/purple.gif","img/card_backs/set2/blue.gif","img/card_backs/set2/pink.gif","img/card_backs/set2/gray.gif","img/card_backs/set2/orange.gif","""event"",""trial"",""time""
""blur"",""0"",""0""
""focus"",""1"",""4046""
""fullscreenenter"",""1"",""14342""
","""event"",""trial"",""time""
""blur"",""0"",""0""
","""event"",""trial"",""time""
""focus"",""1"",""4046""
","""event"",""trial"",""time""
""fullscreenenter"",""1"",""14342""
","
","","4175.724999979138","Now on the next screen, try pressing '4' to select the second deck.","52","","instructions","2021-05-03 22:50:21.113","","","","","",""
"card-selection-trial","19","141425","0.0-13.0-0.0","809","true","img/card_backs/set1/yellow.gif","img/card_backs/set1/red.gif","img/card_backs/set1/green.gif","img/card_backs/set1/purple.gif","img/card_backs/set2/blue.gif","img/card_backs/set2/pink.gif","img/card_backs/set2/gray.gif","img/card_backs/set2/orange.gif","""event"",""trial"",""time""
""blur"",""0"",""0""
""focus"",""1"",""4046""
""fullscreenenter"",""1"",""14342""
","""event"",""trial"",""time""
""blur"",""0"",""0""
","""event"",""trial"",""time""
""focus"",""1"",""4046""
","""event"",""trial"",""time""
""fullscreenenter"",""1"",""14342""
","
","","460.53500002017245","","","","practice_card_selection","2021-05-03 22:50:23.591","img/practice_cards/backs/brown.gif","1","100","","",""
"casino-keyboard-response","20","142548","0.0-14.0-0.0","809","true","img/card_backs/set1/yellow.gif","img/card_backs/set1/red.gif","img/card_backs/set1/green.gif","img/card_backs/set1/purple.gif","img/card_backs/set2/blue.gif","img/card_backs/set2/pink.gif","img/card_backs/set2/gray.gif","img/card_backs/set2/orange.gif","""event"",""trial"",""time""
""blur"",""0"",""0""
""focus"",""1"",""4046""
""fullscreenenter"",""1"",""14342""
","""event"",""trial"",""time""
""blur"",""0"",""0""
","""event"",""trial"",""time""
""focus"",""1"",""4046""
","""event"",""trial"",""time""
""fullscreenenter"",""1"",""14342""
","
","","1119.6249999920838","Finally, try pressing '8' to select the deck all the way on the right.","56","","instructions","2021-05-03 22:50:24.715","","","","","",""
"card-selection-trial","21","145304","0.0-15.0-0.0","809","true","img/card_backs/set1/yellow.gif","img/card_backs/set1/red.gif","img/card_backs/set1/green.gif","img/card_backs/set1/purple.gif","img/card_backs/set2/blue.gif","img/card_backs/set2/pink.gif","img/card_backs/set2/gray.gif","img/card_backs/set2/orange.gif","""event"",""trial"",""time""
""blur"",""0"",""0""
""focus"",""1"",""4046""
""fullscreenenter"",""1"",""14342""
","""event"",""trial"",""time""
""blur"",""0"",""0""
","""event"",""trial"",""time""
""focus"",""1"",""4046""
","""event"",""trial"",""time""
""fullscreenenter"",""1"",""14342""
","
","","732.895000022836","","","","practice_card_selection","2021-05-03 22:50:27.470","img/practice_cards/backs/brown.gif","3","-100","","",""
"casino-keyboard-response","22","149426","0.0-16.0-0.0","809","true","img/card_backs/set1/yellow.gif","img/card_backs/set1/red.gif","img/card_backs/set1/green.gif","img/card_backs/set1/purple.gif","img/card_backs/set2/blue.gif","img/card_backs/set2/pink.gif","img/card_backs/set2/gray.gif","img/card_backs/set2/orange.gif","""event"",""trial"",""time""
""blur"",""0"",""0""
""focus"",""1"",""4046""
""fullscreenenter"",""1"",""14342""
","""event"",""trial"",""time""
""blur"",""0"",""0""
","""event"",""trial"",""time""
""focus"",""1"",""4046""
","""event"",""trial"",""time""
""fullscreenenter"",""1"",""14342""
","
","","4116.515000001527","Great! It seems like you are getting the hang of this.","80","","instructions","2021-05-03 22:50:31.592","","","","","",""
"casino-keyboard-response","23","157507","0.0-16.0-0.1","809","true","img/card_backs/set1/yellow.gif","img/card_backs/set1/red.gif","img/card_backs/set1/green.gif","img/card_backs/set1/purple.gif","img/card_backs/set2/blue.gif","img/card_backs/set2/pink.gif","img/card_backs/set2/gray.gif","img/card_backs/set2/orange.gif","""event"",""trial"",""time""
""blur"",""0"",""0""
""focus"",""1"",""4046""
""fullscreenenter"",""1"",""14342""
","""event"",""trial"",""time""
""blur"",""0"",""0""
","""event"",""trial"",""time""
""focus"",""1"",""4046""
","""event"",""trial"",""time""
""fullscreenenter"",""1"",""14342""
","
","","8074.790000042412","You may have noticed that some cards will cause you to <b> win </b> tokens while other cards will cause you to <b> lose </b>  tokens.","70","","instructions","2021-05-03 22:50:39.673","","","","","",""
"casino-keyboard-response","24","166880","0.0-16.0-0.2","809","true","img/card_backs/set1/yellow.gif","img/card_backs/set1/red.gif","img/card_backs/set1/green.gif","img/card_backs/set1/purple.gif","img/card_backs/set2/blue.gif","img/card_backs/set2/pink.gif","img/card_backs/set2/gray.gif","img/card_backs/set2/orange.gif","""event"",""trial"",""time""
""blur"",""0"",""0""
""focus"",""1"",""4046""
""fullscreenenter"",""1"",""14342""
","""event"",""trial"",""time""
""blur"",""0"",""0""
","""event"",""trial"",""time""
""focus"",""1"",""4046""
","""event"",""trial"",""time""
""fullscreenenter"",""1"",""14342""
","
","","9368.309999990743","Each deck has a mix of cards that will cause you to win and lose tokens. </br> However, the cards in each colored deck are different.","73","","instructions","2021-05-03 22:50:49.046","","","","","",""
"casino-keyboard-response","25","176089","0.0-16.0-0.3","809","true","img/card_backs/set1/yellow.gif","img/card_backs/set1/red.gif","img/card_backs/set1/green.gif","img/card_backs/set1/purple.gif","img/card_backs/set2/blue.gif","img/card_backs/set2/pink.gif","img/card_backs/set2/gray.gif","img/card_backs/set2/orange.gif","""event"",""trial"",""time""
""blur"",""0"",""0""
""focus"",""1"",""4046""
""fullscreenenter"",""1"",""14342""
","""event"",""trial"",""time""
""blur"",""0"",""0""
","""event"",""trial"",""time""
""focus"",""1"",""4046""
","""event"",""trial"",""time""
""fullscreenenter"",""1"",""14342""
","
","","9201.689999958035","Some colored decks are luckier than others. </br> If you choose the lucky decks, you will earn more tokens than if you choose the unlucky decks.","69","","instructions","2021-05-03 22:50:58.256","","","","","",""
"casino-keyboard-response","26","184410","0.0-16.0-0.4","809","true","img/card_backs/set1/yellow.gif","img/card_backs/set1/red.gif","img/card_backs/set1/green.gif","img/card_backs/set1/purple.gif","img/card_backs/set2/blue.gif","img/card_backs/set2/pink.gif","img/card_backs/set2/gray.gif","img/card_backs/set2/orange.gif","""event"",""trial"",""time""
""blur"",""0"",""0""
""focus"",""1"",""4046""
""fullscreenenter"",""1"",""14342""
","""event"",""trial"",""time""
""blur"",""0"",""0""
","""event"",""trial"",""time""
""focus"",""1"",""4046""
","""event"",""trial"",""time""
""fullscreenenter"",""1"",""14342""
","
","","8314.530000032391","You should try to figure out which decks are lucky. </br> Then, try to choose the lucky decks so you can win the most tokens.","87","","instructions","2021-05-03 22:51:06.576","","","","","",""
"casino-keyboard-response","27","201076","0.0-16.0-0.5","809","true","img/card_backs/set1/yellow.gif","img/card_backs/set1/red.gif","img/card_backs/set1/green.gif","img/card_backs/set1/purple.gif","img/card_backs/set2/blue.gif","img/card_backs/set2/pink.gif","img/card_backs/set2/gray.gif","img/card_backs/set2/orange.gif","""event"",""trial"",""time""
""blur"",""0"",""0""
""focus"",""1"",""4046""
""fullscreenenter"",""1"",""14342""
","""event"",""trial"",""time""
""blur"",""0"",""0""
","""event"",""trial"",""time""
""focus"",""1"",""4046""
","""event"",""trial"",""time""
""fullscreenenter"",""1"",""14342""
","
","","16661.16499999771","To make it trickier, the casino dealer will switch the locations of the decks on every turn. </br> The color of the deck determines how lucky it is. The location does not matter.","88","","instructions","2021-05-03 22:51:23.242","","","","","",""
"casino-keyboard-response","28","211409","0.0-16.0-0.6","809","true","img/card_backs/set1/yellow.gif","img/card_backs/set1/red.gif","img/card_backs/set1/green.gif","img/card_backs/set1/purple.gif","img/card_backs/set2/blue.gif","img/card_backs/set2/pink.gif","img/card_backs/set2/gray.gif","img/card_backs/set2/orange.gif","""event"",""trial"",""time""
""blur"",""0"",""0""
""focus"",""1"",""4046""
""fullscreenenter"",""1"",""14342""
","""event"",""trial"",""time""
""blur"",""0"",""0""
","""event"",""trial"",""time""
""focus"",""1"",""4046""
","""event"",""trial"",""time""
""fullscreenenter"",""1"",""14342""
","
","","10326.714999973774","The mix of cards in each colored deck will stay the same throughout the game. </br> That means that a deck that is lucky early on will stay lucky.","79","","instructions","2021-05-03 22:51:33.575","","","","","",""
"casino-keyboard-response","29","220460","0.0-16.0-0.7","809","true","img/card_backs/set1/yellow.gif","img/card_backs/set1/red.gif","img/card_backs/set1/green.gif","img/card_backs/set1/purple.gif","img/card_backs/set2/blue.gif","img/card_backs/set2/pink.gif","img/card_backs/set2/gray.gif","img/card_backs/set2/orange.gif","""event"",""trial"",""time""
""blur"",""0"",""0""
""focus"",""1"",""4046""
""fullscreenenter"",""1"",""14342""
","""event"",""trial"",""time""
""blur"",""0"",""0""
","""event"",""trial"",""time""
""focus"",""1"",""4046""
","""event"",""trial"",""time""
""fullscreenenter"",""1"",""14342""
","
","","9043.01999998279","Remember though, all the decks have a <b> mix </b> of both <b> good </b> and <b> bad </b> cards so it may take a couple of turns to figure out if a deck is lucky.","69","","instructions","2021-05-03 22:51:42.626","","","","","",""
"casino-keyboard-response","30","229207","0.0-16.0-0.8","809","true","img/card_backs/set1/yellow.gif","img/card_backs/set1/red.gif","img/card_backs/set1/green.gif","img/card_backs/set1/purple.gif","img/card_backs/set2/blue.gif","img/card_backs/set2/pink.gif","img/card_backs/set2/gray.gif","img/card_backs/set2/orange.gif","""event"",""trial"",""time""
""blur"",""0"",""0""
""focus"",""1"",""4046""
""fullscreenenter"",""1"",""14342""
","""event"",""trial"",""time""
""blur"",""0"",""0""
","""event"",""trial"",""time""
""focus"",""1"",""4046""
","""event"",""trial"",""time""
""fullscreenenter"",""1"",""14342""
","
","","8742.314999981318","At the end of the game, you will be paid bonus money based on how many tokens you win. </br> If you win more tokens, you will earn more money!","72","","instructions","2021-05-03 22:51:51.373","","","","","",""
"casino-keyboard-response","31","239551","0.0-16.0-0.9","809","true","img/card_backs/set1/yellow.gif","img/card_backs/set1/red.gif","img/card_backs/set1/green.gif","img/card_backs/set1/purple.gif","img/card_backs/set2/blue.gif","img/card_backs/set2/pink.gif","img/card_backs/set2/gray.gif","img/card_backs/set2/orange.gif","""event"",""trial"",""time""
""blur"",""0"",""0""
""focus"",""1"",""4046""
""fullscreenenter"",""1"",""14342""
","""event"",""trial"",""time""
""blur"",""0"",""0""
","""event"",""trial"",""time""
""focus"",""1"",""4046""
","""event"",""trial"",""time""
""fullscreenenter"",""1"",""14342""
","
","","10334.595000022091","You will never <b> lose </b> money. </br> If you end up with fewer than 0 tokens, you will earn $0 of bonus money, but you will still be paid for playing the game.","83","","instructions","2021-05-03 22:52:01.717","","","","","",""
"casino-keyboard-response","32","244499","0.0-16.0-0.10","809","true","img/card_backs/set1/yellow.gif","img/card_backs/set1/red.gif","img/card_backs/set1/green.gif","img/card_backs/set1/purple.gif","img/card_backs/set2/blue.gif","img/card_backs/set2/pink.gif","img/card_backs/set2/gray.gif","img/card_backs/set2/orange.gif","""event"",""trial"",""time""
""blur"",""0"",""0""
""focus"",""1"",""4046""
""fullscreenenter"",""1"",""14342""
","""event"",""trial"",""time""
""blur"",""0"",""0""
","""event"",""trial"",""time""
""focus"",""1"",""4046""
","""event"",""trial"",""time""
""fullscreenenter"",""1"",""14342""
","
","","4943.399999989197","You will have 10 seconds to make each choice.","82","","instructions","2021-05-03 22:52:06.665","","","","","",""
"casino-keyboard-response","33","252627","0.0-16.0-0.11","809","true","img/card_backs/set1/yellow.gif","img/card_backs/set1/red.gif","img/card_backs/set1/green.gif","img/card_backs/set1/purple.gif","img/card_backs/set2/blue.gif","img/card_backs/set2/pink.gif","img/card_backs/set2/gray.gif","img/card_backs/set2/orange.gif","""event"",""trial"",""time""
""blur"",""0"",""0""
""focus"",""1"",""4046""
""fullscreenenter"",""1"",""14342""
","""event"",""trial"",""time""
""blur"",""0"",""0""
","""event"",""trial"",""time""
""focus"",""1"",""4046""
","""event"",""trial"",""time""
""fullscreenenter"",""1"",""14342""
","
","","8121.550000039861","Before you play the game for real, you will play with practice decks. </br> The tokens you earn during practice won't count toward your total.","86","","instructions","2021-05-03 22:52:14.793","","","","","",""
"casino-keyboard-response","34","257269","0.0-16.0-0.12","809","true","img/card_backs/set1/yellow.gif","img/card_backs/set1/red.gif","img/card_backs/set1/green.gif","img/card_backs/set1/purple.gif","img/card_backs/set2/blue.gif","img/card_backs/set2/pink.gif","img/card_backs/set2/gray.gif","img/card_backs/set2/orange.gif","""event"",""trial"",""time""
""blur"",""0"",""0""
""focus"",""1"",""4046""
""fullscreenenter"",""1"",""14342""
","""event"",""trial"",""time""
""blur"",""0"",""0""
","""event"",""trial"",""time""
""focus"",""1"",""4046""
","""event"",""trial"",""time""
""fullscreenenter"",""1"",""14342""
","
","","4637.519999989308","Ready? Remember, use the '2', '4', '6', and '8' keys to select the decks. </br> Put your fingers on those keys now and then press '2' to begin.","50","","instructions","2021-05-03 22:52:19.435","","","","","",""
"casino-fixation","35","257776","0.0-17.0-0.0","809","true","img/card_backs/set1/yellow.gif","img/card_backs/set1/red.gif","img/card_backs/set1/green.gif","img/card_backs/set1/purple.gif","img/card_backs/set2/blue.gif","img/card_backs/set2/pink.gif","img/card_backs/set2/gray.gif","img/card_backs/set2/orange.gif","""event"",""trial"",""time""
""blur"",""0"",""0""
""focus"",""1"",""4046""
""fullscreenenter"",""1"",""14342""
","""event"",""trial"",""time""
""blur"",""0"",""0""
","""event"",""trial"",""time""
""focus"",""1"",""4046""
","""event"",""trial"",""time""
""fullscreenenter"",""1"",""14342""
","
","","null","","null","","fixation","2021-05-03 22:52:19.943","","","","","",""
"card-selection-trial","36","261973","0.0-17.0-1.0","809","true","img/card_backs/set1/yellow.gif","img/card_backs/set1/red.gif","img/card_backs/set1/green.gif","img/card_backs/set1/purple.gif","img/card_backs/set2/blue.gif","img/card_backs/set2/pink.gif","img/card_backs/set2/gray.gif","img/card_backs/set2/orange.gif","""event"",""trial"",""time""
""blur"",""0"",""0""
""focus"",""1"",""4046""
""fullscreenenter"",""1"",""14342""
","""event"",""trial"",""time""
""blur"",""0"",""0""
","""event"",""trial"",""time""
""focus"",""1"",""4046""
","""event"",""trial"",""time""
""fullscreenenter"",""1"",""14342""
","
","","2181.144999980461","","","","practice","2021-05-03 22:52:24.139","img/practice_cards/backs/dark_blue.gif","1","-200","0","",""
"casino-fixation","37","262486","0.0-17.0-0.1","809","true","img/card_backs/set1/yellow.gif","img/card_backs/set1/red.gif","img/card_backs/set1/green.gif","img/card_backs/set1/purple.gif","img/card_backs/set2/blue.gif","img/card_backs/set2/pink.gif","img/card_backs/set2/gray.gif","img/card_backs/set2/orange.gif","""event"",""trial"",""time""
""blur"",""0"",""0""
""focus"",""1"",""4046""
""fullscreenenter"",""1"",""14342""
","""event"",""trial"",""time""
""blur"",""0"",""0""
","""event"",""trial"",""time""
""focus"",""1"",""4046""
","""event"",""trial"",""time""
""fullscreenenter"",""1"",""14342""
","
","","null","","null","","fixation","2021-05-03 22:52:24.653","","","","","",""
"card-selection-trial","38","266176","0.0-17.0-1.1","809","true","img/card_backs/set1/yellow.gif","img/card_backs/set1/red.gif","img/card_backs/set1/green.gif","img/card_backs/set1/purple.gif","img/card_backs/set2/blue.gif","img/card_backs/set2/pink.gif","img/card_backs/set2/gray.gif","img/card_backs/set2/orange.gif","""event"",""trial"",""time""
""blur"",""0"",""0""
""focus"",""1"",""4046""
""fullscreenenter"",""1"",""14342""
","""event"",""trial"",""time""
""blur"",""0"",""0""
","""event"",""trial"",""time""
""focus"",""1"",""4046""
","""event"",""trial"",""time""
""fullscreenenter"",""1"",""14342""
","
","","1667.4249999923632","","","","practice","2021-05-03 22:52:28.343","img/practice_cards/backs/black.gif","2","-100","0","",""
"casino-fixation","39","266685","0.0-17.0-0.2","809","true","img/card_backs/set1/yellow.gif","img/card_backs/set1/red.gif","img/card_backs/set1/green.gif","img/card_backs/set1/purple.gif","img/card_backs/set2/blue.gif","img/card_backs/set2/pink.gif","img/card_backs/set2/gray.gif","img/card_backs/set2/orange.gif","""event"",""trial"",""time""
""blur"",""0"",""0""
""focus"",""1"",""4046""
""fullscreenenter"",""1"",""14342""
","""event"",""trial"",""time""
""blur"",""0"",""0""
","""event"",""trial"",""time""
""focus"",""1"",""4046""
","""event"",""trial"",""time""
""fullscreenenter"",""1"",""14342""
","
","","null","","null","","fixation","2021-05-03 22:52:28.852","","","","","",""
"card-selection-trial","40","269407","0.0-17.0-1.2","809","true","img/card_backs/set1/yellow.gif","img/card_backs/set1/red.gif","img/card_backs/set1/green.gif","img/card_backs/set1/purple.gif","img/card_backs/set2/blue.gif","img/card_backs/set2/pink.gif","img/card_backs/set2/gray.gif","img/card_backs/set2/orange.gif","""event"",""trial"",""time""
""blur"",""0"",""0""
""focus"",""1"",""4046""
""fullscreenenter"",""1"",""14342""
","""event"",""trial"",""time""
""blur"",""0"",""0""
","""event"",""trial"",""time""
""focus"",""1"",""4046""
","""event"",""trial"",""time""
""fullscreenenter"",""1"",""14342""
","
","","701.1300000012852","","","","practice","2021-05-03 22:52:31.573","img/practice_cards/backs/dark_green.gif","3","-200","0","",""
"casino-fixation","41","269916","0.0-17.0-0.3","809","true","img/card_backs/set1/yellow.gif","img/card_backs/set1/red.gif","img/card_backs/set1/green.gif","img/card_backs/set1/purple.gif","img/card_backs/set2/blue.gif","img/card_backs/set2/pink.gif","img/card_backs/set2/gray.gif","img/card_backs/set2/orange.gif","""event"",""trial"",""time""
""blur"",""0"",""0""
""focus"",""1"",""4046""
""fullscreenenter"",""1"",""14342""
","""event"",""trial"",""time""
""blur"",""0"",""0""
","""event"",""trial"",""time""
""focus"",""1"",""4046""
","""event"",""trial"",""time""
""fullscreenenter"",""1"",""14342""
","
","","null","","null","","fixation","2021-05-03 22:52:32.083","","","","","",""
"card-selection-trial","42","272267","0.0-17.0-1.3","809","true","img/card_backs/set1/yellow.gif","img/card_backs/set1/red.gif","img/card_backs/set1/green.gif","img/card_backs/set1/purple.gif","img/card_backs/set2/blue.gif","img/card_backs/set2/pink.gif","img/card_backs/set2/gray.gif","img/card_backs/set2/orange.gif","""event"",""trial"",""time""
""blur"",""0"",""0""
""focus"",""1"",""4046""
""fullscreenenter"",""1"",""14342""
","""event"",""trial"",""time""
""blur"",""0"",""0""
","""event"",""trial"",""time""
""focus"",""1"",""4046""
","""event"",""trial"",""time""
""fullscreenenter"",""1"",""14342""
","
","","331.70000003883615","","","","practice","2021-05-03 22:52:34.433","img/practice_cards/backs/black.gif","0","100","0","",""
"casino-fixation","43","272776","0.0-17.0-0.4","809","true","img/card_backs/set1/yellow.gif","img/card_backs/set1/red.gif","img/card_backs/set1/green.gif","img/card_backs/set1/purple.gif","img/card_backs/set2/blue.gif","img/card_backs/set2/pink.gif","img/card_backs/set2/gray.gif","img/card_backs/set2/orange.gif","""event"",""trial"",""time""
""blur"",""0"",""0""
""focus"",""1"",""4046""
""fullscreenenter"",""1"",""14342""
","""event"",""trial"",""time""
""blur"",""0"",""0""
","""event"",""trial"",""time""
""focus"",""1"",""4046""
","""event"",""trial"",""time""
""fullscreenenter"",""1"",""14342""
","
","","null","","null","","fixation","2021-05-03 22:52:34.942","","","","","",""
"card-selection-trial","44","276746","0.0-17.0-1.4","809","true","img/card_backs/set1/yellow.gif","img/card_backs/set1/red.gif","img/card_backs/set1/green.gif","img/card_backs/set1/purple.gif","img/card_backs/set2/blue.gif","img/card_backs/set2/pink.gif","img/card_backs/set2/gray.gif","img/card_backs/set2/orange.gif","""event"",""trial"",""time""
""blur"",""0"",""0""
""focus"",""1"",""4046""
""fullscreenenter"",""1"",""14342""
","""event"",""trial"",""time""
""blur"",""0"",""0""
","""event"",""trial"",""time""
""focus"",""1"",""4046""
","""event"",""trial"",""time""
""fullscreenenter"",""1"",""14342""
","
","","1957.2550000157207","","","","practice","2021-05-03 22:52:38.913","img/practice_cards/backs/black.gif","2","100","0","",""
"casino-fixation","45","277256","0.0-17.0-0.5","809","true","img/card_backs/set1/yellow.gif","img/card_backs/set1/red.gif","img/card_backs/set1/green.gif","img/card_backs/set1/purple.gif","img/card_backs/set2/blue.gif","img/card_backs/set2/pink.gif","img/card_backs/set2/gray.gif","img/card_backs/set2/orange.gif","""event"",""trial"",""time""
""blur"",""0"",""0""
""focus"",""1"",""4046""
""fullscreenenter"",""1"",""14342""
","""event"",""trial"",""time""
""blur"",""0"",""0""
","""event"",""trial"",""time""
""focus"",""1"",""4046""
","""event"",""trial"",""time""
""fullscreenenter"",""1"",""14342""
","
","","null","","null","","fixation","2021-05-03 22:52:39.422","","","","","",""
"card-selection-trial","46","280404","0.0-17.0-1.5","809","true","img/card_backs/set1/yellow.gif","img/card_backs/set1/red.gif","img/card_backs/set1/green.gif","img/card_backs/set1/purple.gif","img/card_backs/set2/blue.gif","img/card_backs/set2/pink.gif","img/card_backs/set2/gray.gif","img/card_backs/set2/orange.gif","""event"",""trial"",""time""
""blur"",""0"",""0""
""focus"",""1"",""4046""
""fullscreenenter"",""1"",""14342""
","""event"",""trial"",""time""
""blur"",""0"",""0""
","""event"",""trial"",""time""
""focus"",""1"",""4046""
","""event"",""trial"",""time""
""fullscreenenter"",""1"",""14342""
","
","","1127.295000012964","","","","practice","2021-05-03 22:52:42.570","img/practice_cards/backs/dark_blue.gif","3","200","0","",""
"casino-fixation","47","280922","0.0-17.0-0.6","809","true","img/card_backs/set1/yellow.gif","img/card_backs/set1/red.gif","img/card_backs/set1/green.gif","img/card_backs/set1/purple.gif","img/card_backs/set2/blue.gif","img/card_backs/set2/pink.gif","img/card_backs/set2/gray.gif","img/card_backs/set2/orange.gif","""event"",""trial"",""time""
""blur"",""0"",""0""
""focus"",""1"",""4046""
""fullscreenenter"",""1"",""14342""
","""event"",""trial"",""time""
""blur"",""0"",""0""
","""event"",""trial"",""time""
""focus"",""1"",""4046""
","""event"",""trial"",""time""
""fullscreenenter"",""1"",""14342""
","
","","null","","null","","fixation","2021-05-03 22:52:43.088","","","","","",""
"card-selection-trial","48","284421","0.0-17.0-1.6","809","true","img/card_backs/set1/yellow.gif","img/card_backs/set1/red.gif","img/card_backs/set1/green.gif","img/card_backs/set1/purple.gif","img/card_backs/set2/blue.gif","img/card_backs/set2/pink.gif","img/card_backs/set2/gray.gif","img/card_backs/set2/orange.gif","""event"",""trial"",""time""
""blur"",""0"",""0""
""focus"",""1"",""4046""
""fullscreenenter"",""1"",""14342""
","""event"",""trial"",""time""
""blur"",""0"",""0""
","""event"",""trial"",""time""
""focus"",""1"",""4046""
","""event"",""trial"",""time""
""fullscreenenter"",""1"",""14342""
","
","","1485.6450000079349","","","","practice","2021-05-03 22:52:46.588","img/practice_cards/backs/brown.gif","0","-100","0","",""
"casino-fixation","49","284947","0.0-17.0-0.7","809","true","img/card_backs/set1/yellow.gif","img/card_backs/set1/red.gif","img/card_backs/set1/green.gif","img/card_backs/set1/purple.gif","img/card_backs/set2/blue.gif","img/card_backs/set2/pink.gif","img/card_backs/set2/gray.gif","img/card_backs/set2/orange.gif","""event"",""trial"",""time""
""blur"",""0"",""0""
""focus"",""1"",""4046""
""fullscreenenter"",""1"",""14342""
","""event"",""trial"",""time""
""blur"",""0"",""0""
","""event"",""trial"",""time""
""focus"",""1"",""4046""
","""event"",""trial"",""time""
""fullscreenenter"",""1"",""14342""
","
","","null","","null","","fixation","2021-05-03 22:52:47.113","","","","","",""
"card-selection-trial","50","288349","0.0-17.0-1.7","809","true","img/card_backs/set1/yellow.gif","img/card_backs/set1/red.gif","img/card_backs/set1/green.gif","img/card_backs/set1/purple.gif","img/card_backs/set2/blue.gif","img/card_backs/set2/pink.gif","img/card_backs/set2/gray.gif","img/card_backs/set2/orange.gif","""event"",""trial"",""time""
""blur"",""0"",""0""
""focus"",""1"",""4046""
""fullscreenenter"",""1"",""14342""
","""event"",""trial"",""time""
""blur"",""0"",""0""
","""event"",""trial"",""time""
""focus"",""1"",""4046""
","""event"",""trial"",""time""
""fullscreenenter"",""1"",""14342""
","
","","1387.479999975767","","","","practice","2021-05-03 22:52:50.515","img/practice_cards/backs/dark_green.gif","1","-200","0","",""
"casino-fixation","51","288856","0.0-17.0-0.8","809","true","img/card_backs/set1/yellow.gif","img/card_backs/set1/red.gif","img/card_backs/set1/green.gif","img/card_backs/set1/purple.gif","img/card_backs/set2/blue.gif","img/card_backs/set2/pink.gif","img/card_backs/set2/gray.gif","img/card_backs/set2/orange.gif","""event"",""trial"",""time""
""blur"",""0"",""0""
""focus"",""1"",""4046""
""fullscreenenter"",""1"",""14342""
","""event"",""trial"",""time""
""blur"",""0"",""0""
","""event"",""trial"",""time""
""focus"",""1"",""4046""
","""event"",""trial"",""time""
""fullscreenenter"",""1"",""14342""
","
","","null","","null","","fixation","2021-05-03 22:52:51.023","","","","","",""
"card-selection-trial","52","292699","0.0-17.0-1.8","809","true","img/card_backs/set1/yellow.gif","img/card_backs/set1/red.gif","img/card_backs/set1/green.gif","img/card_backs/set1/purple.gif","img/card_backs/set2/blue.gif","img/card_backs/set2/pink.gif","img/card_backs/set2/gray.gif","img/card_backs/set2/orange.gif","""event"",""trial"",""time""
""blur"",""0"",""0""
""focus"",""1"",""4046""
""fullscreenenter"",""1"",""14342""
","""event"",""trial"",""time""
""blur"",""0"",""0""
","""event"",""trial"",""time""
""focus"",""1"",""4046""
","""event"",""trial"",""time""
""fullscreenenter"",""1"",""14342""
","
","","1818.9399999682792","","","","practice","2021-05-03 22:52:54.866","img/practice_cards/backs/dark_blue.gif","3","-200","0","",""
"casino-fixation","53","293206","0.0-17.0-0.9","809","true","img/card_backs/set1/yellow.gif","img/card_backs/set1/red.gif","img/card_backs/set1/green.gif","img/card_backs/set1/purple.gif","img/card_backs/set2/blue.gif","img/card_backs/set2/pink.gif","img/card_backs/set2/gray.gif","img/card_backs/set2/orange.gif","""event"",""trial"",""time""
""blur"",""0"",""0""
""focus"",""1"",""4046""
""fullscreenenter"",""1"",""14342""
","""event"",""trial"",""time""
""blur"",""0"",""0""
","""event"",""trial"",""time""
""focus"",""1"",""4046""
","""event"",""trial"",""time""
""fullscreenenter"",""1"",""14342""
","
","","null","","null","","fixation","2021-05-03 22:52:55.372","","","","","",""
"card-selection-trial","54","296481","0.0-17.0-1.9","809","true","img/card_backs/set1/yellow.gif","img/card_backs/set1/red.gif","img/card_backs/set1/green.gif","img/card_backs/set1/purple.gif","img/card_backs/set2/blue.gif","img/card_backs/set2/pink.gif","img/card_backs/set2/gray.gif","img/card_backs/set2/orange.gif","""event"",""trial"",""time""
""blur"",""0"",""0""
""focus"",""1"",""4046""
""fullscreenenter"",""1"",""14342""
","""event"",""trial"",""time""
""blur"",""0"",""0""
","""event"",""trial"",""time""
""focus"",""1"",""4046""
","""event"",""trial"",""time""
""fullscreenenter"",""1"",""14342""
","
","","1261.2000000081025","","","","practice","2021-05-03 22:52:58.647","img/practice_cards/backs/brown.gif","0","-100","0","",""
"casino-keyboard-response","55","300843","0.0-18.0","809","true","img/card_backs/set1/yellow.gif","img/card_backs/set1/red.gif","img/card_backs/set1/green.gif","img/card_backs/set1/purple.gif","img/card_backs/set2/blue.gif","img/card_backs/set2/pink.gif","img/card_backs/set2/gray.gif","img/card_backs/set2/orange.gif","""event"",""trial"",""time""
""blur"",""0"",""0""
""focus"",""1"",""4046""
""fullscreenenter"",""1"",""14342""
","""event"",""trial"",""time""
""blur"",""0"",""0""
","""event"",""trial"",""time""
""focus"",""1"",""4046""
","""event"",""trial"",""time""
""fullscreenenter"",""1"",""14342""
","
","","4358.294999983627","You earned -700 tokens during the practice round!","82","","","2021-05-03 22:53:03.010","","","","","",""
"casino-keyboard-response","56","305249","0.0-19.0-0.0","809","true","img/card_backs/set1/yellow.gif","img/card_backs/set1/red.gif","img/card_backs/set1/green.gif","img/card_backs/set1/purple.gif","img/card_backs/set2/blue.gif","img/card_backs/set2/pink.gif","img/card_backs/set2/gray.gif","img/card_backs/set2/orange.gif","""event"",""trial"",""time""
""blur"",""0"",""0""
""focus"",""1"",""4046""
""fullscreenenter"",""1"",""14342""
","""event"",""trial"",""time""
""blur"",""0"",""0""
","""event"",""trial"",""time""
""focus"",""1"",""4046""
","""event"",""trial"",""time""
""fullscreenenter"",""1"",""14342""
","
","","4394.3449999787845","Nice job! You are almost ready to play the real game.","86","","instructions","2021-05-03 22:53:07.415","","","","","",""
"casino-keyboard-response","57","313052","0.0-19.0-0.1","809","true","img/card_backs/set1/yellow.gif","img/card_backs/set1/red.gif","img/card_backs/set1/green.gif","img/card_backs/set1/purple.gif","img/card_backs/set2/blue.gif","img/card_backs/set2/pink.gif","img/card_backs/set2/gray.gif","img/card_backs/set2/orange.gif","""event"",""trial"",""time""
""blur"",""0"",""0""
""focus"",""1"",""4046""
""fullscreenenter"",""1"",""14342""
","""event"",""trial"",""time""
""blur"",""0"",""0""
","""event"",""trial"",""time""
""focus"",""1"",""4046""
","""event"",""trial"",""time""
""fullscreenenter"",""1"",""14342""
","
","","7798.199999961071","You will play two rounds of the real game. In each round, you will pick 100 cards in total.","73","","instructions","2021-05-03 22:53:15.218","","","","","",""
"casino-keyboard-response","58","318614","0.0-19.0-0.2","809","true","img/card_backs/set1/yellow.gif","img/card_backs/set1/red.gif","img/card_backs/set1/green.gif","img/card_backs/set1/purple.gif","img/card_backs/set2/blue.gif","img/card_backs/set2/pink.gif","img/card_backs/set2/gray.gif","img/card_backs/set2/orange.gif","""event"",""trial"",""time""
""blur"",""0"",""0""
""focus"",""1"",""4046""
""fullscreenenter"",""1"",""14342""
","""event"",""trial"",""time""
""blur"",""0"",""0""
","""event"",""trial"",""time""
""focus"",""1"",""4046""
","""event"",""trial"",""time""
""fullscreenenter"",""1"",""14342""
","
","","5557.499999995343","We are now going to ask you some questions about how the game works.","66","","instructions","2021-05-03 22:53:20.781","","","","","",""
"casino-keyboard-response","59","324995","0.0-19.0-0.3","809","true","img/card_backs/set1/yellow.gif","img/card_backs/set1/red.gif","img/card_backs/set1/green.gif","img/card_backs/set1/purple.gif","img/card_backs/set2/blue.gif","img/card_backs/set2/pink.gif","img/card_backs/set2/gray.gif","img/card_backs/set2/orange.gif","""event"",""trial"",""time""
""blur"",""0"",""0""
""focus"",""1"",""4046""
""fullscreenenter"",""1"",""14342""
","""event"",""trial"",""time""
""blur"",""0"",""0""
","""event"",""trial"",""time""
""focus"",""1"",""4046""
","""event"",""trial"",""time""
""fullscreenenter"",""1"",""14342""
","
","","6372.849999985192","Answer carefully. You will not be able to begin the game until you answer them correctly.","67","","instructions","2021-05-03 22:53:27.161","","","","","",""
"casino-comp_q","60","331289","0.0-20.0-0.0","809","true","img/card_backs/set1/yellow.gif","img/card_backs/set1/red.gif","img/card_backs/set1/green.gif","img/card_backs/set1/purple.gif","img/card_backs/set2/blue.gif","img/card_backs/set2/pink.gif","img/card_backs/set2/gray.gif","img/card_backs/set2/orange.gif","""event"",""trial"",""time""
""blur"",""0"",""0""
""focus"",""1"",""4046""
""fullscreenenter"",""1"",""14342""
","""event"",""trial"",""time""
""blur"",""0"",""0""
","""event"",""trial"",""time""
""focus"",""1"",""4046""
","""event"",""trial"",""time""
""fullscreenenter"",""1"",""14342""
","
","","6288.889999967068","True or False: All the decks have some cards that cause you to win tokens and some cards that cause you to lose tokens.","84","","","2021-05-03 22:53:33.456","","","","","",""
"casino-keyboard-response","61","334409","0.0-20.0-1.0","809","true","img/card_backs/set1/yellow.gif","img/card_backs/set1/red.gif","img/card_backs/set1/green.gif","img/card_backs/set1/purple.gif","img/card_backs/set2/blue.gif","img/card_backs/set2/pink.gif","img/card_backs/set2/gray.gif","img/card_backs/set2/orange.gif","""event"",""trial"",""time""
""blur"",""0"",""0""
""focus"",""1"",""4046""
""fullscreenenter"",""1"",""14342""
","""event"",""trial"",""time""
""blur"",""0"",""0""
","""event"",""trial"",""time""
""focus"",""1"",""4046""
","""event"",""trial"",""time""
""fullscreenenter"",""1"",""14342""
","
","","3115.4199999873526","True is correct! All the decks have a mix of winning and losing cards.","77","","","2021-05-03 22:53:36.576","","","","","true",""
"casino-comp_q","62","339346","0.0-21.0-0.0","809","true","img/card_backs/set1/yellow.gif","img/card_backs/set1/red.gif","img/card_backs/set1/green.gif","img/card_backs/set1/purple.gif","img/card_backs/set2/blue.gif","img/card_backs/set2/pink.gif","img/card_backs/set2/gray.gif","img/card_backs/set2/orange.gif","""event"",""trial"",""time""
""blur"",""0"",""0""
""focus"",""1"",""4046""
""fullscreenenter"",""1"",""14342""
","""event"",""trial"",""time""
""blur"",""0"",""0""
","""event"",""trial"",""time""
""focus"",""1"",""4046""
","""event"",""trial"",""time""
""fullscreenenter"",""1"",""14342""
","
","","4930.775000015274","True or False: You will have as much time as you want to make your response.","70","","","2021-05-03 22:53:41.512","","","","","",""
"casino-keyboard-response","63","342089","0.0-21.0-1.0","809","true","img/card_backs/set1/yellow.gif","img/card_backs/set1/red.gif","img/card_backs/set1/green.gif","img/card_backs/set1/purple.gif","img/card_backs/set2/blue.gif","img/card_backs/set2/pink.gif","img/card_backs/set2/gray.gif","img/card_backs/set2/orange.gif","""event"",""trial"",""time""
""blur"",""0"",""0""
""focus"",""1"",""4046""
""fullscreenenter"",""1"",""14342""
","""event"",""trial"",""time""
""blur"",""0"",""0""
","""event"",""trial"",""time""
""focus"",""1"",""4046""
","""event"",""trial"",""time""
""fullscreenenter"",""1"",""14342""
","
","","2738.8349999673665","False is correct! You will only have 10 seconds to make each choice.","75","","","2021-05-03 22:53:44.255","","","","","true",""
"casino-comp_q","64","347128","0.0-22.0-0.0","809","true","img/card_backs/set1/yellow.gif","img/card_backs/set1/red.gif","img/card_backs/set1/green.gif","img/card_backs/set1/purple.gif","img/card_backs/set2/blue.gif","img/card_backs/set2/pink.gif","img/card_backs/set2/gray.gif","img/card_backs/set2/orange.gif","""event"",""trial"",""time""
""blur"",""0"",""0""
""focus"",""1"",""4046""
""fullscreenenter"",""1"",""14342""
","""event"",""trial"",""time""
""blur"",""0"",""0""
","""event"",""trial"",""time""
""focus"",""1"",""4046""
","""event"",""trial"",""time""
""fullscreenenter"",""1"",""14342""
","
","","5034.454999957234","True or False: The location of the deck determines how lucky it is.","70","","","2021-05-03 22:53:49.294","","","","","",""
"casino-keyboard-response","65","350146","0.0-22.0-1.0","809","true","img/card_backs/set1/yellow.gif","img/card_backs/set1/red.gif","img/card_backs/set1/green.gif","img/card_backs/set1/purple.gif","img/card_backs/set2/blue.gif","img/card_backs/set2/pink.gif","img/card_backs/set2/gray.gif","img/card_backs/set2/orange.gif","""event"",""trial"",""time""
""blur"",""0"",""0""
""focus"",""1"",""4046""
""fullscreenenter"",""1"",""14342""
","""event"",""trial"",""time""
""blur"",""0"",""0""
","""event"",""trial"",""time""
""focus"",""1"",""4046""
","""event"",""trial"",""time""
""fullscreenenter"",""1"",""14342""
","
","","3012.9699999815784","False is correct! The <i>color</i>  of the deck determines how lucky or unlucky it is.","68","","","2021-05-03 22:53:52.312","","","","","true",""
"casino-keyboard-response","66","355030","0.0-23.0-0.0","809","true","img/card_backs/set1/yellow.gif","img/card_backs/set1/red.gif","img/card_backs/set1/green.gif","img/card_backs/set1/purple.gif","img/card_backs/set2/blue.gif","img/card_backs/set2/pink.gif","img/card_backs/set2/gray.gif","img/card_backs/set2/orange.gif","""event"",""trial"",""time""
""blur"",""0"",""0""
""focus"",""1"",""4046""
""fullscreenenter"",""1"",""14342""
","""event"",""trial"",""time""
""blur"",""0"",""0""
","""event"",""trial"",""time""
""focus"",""1"",""4046""
","""event"",""trial"",""time""
""fullscreenenter"",""1"",""14342""
","
","","4878.33000003593","Great job! Now it's time to start the real game.","82","","instructions","2021-05-03 22:53:57.196","","","","","",""
"casino-keyboard-response","67","360224","0.0-23.0-0.1","809","true","img/card_backs/set1/yellow.gif","img/card_backs/set1/red.gif","img/card_backs/set1/green.gif","img/card_backs/set1/purple.gif","img/card_backs/set2/blue.gif","img/card_backs/set2/pink.gif","img/card_backs/set2/gray.gif","img/card_backs/set2/orange.gif","""event"",""trial"",""time""
""blur"",""0"",""0""
""focus"",""1"",""4046""
""fullscreenenter"",""1"",""14342""
","""event"",""trial"",""time""
""blur"",""0"",""0""
","""event"",""trial"",""time""
""focus"",""1"",""4046""
","""event"",""trial"",""time""
""fullscreenenter"",""1"",""14342""
","
","","5190.49000000814","Before we start, we're going to head into a new room of the casino.","86","","instructions","2021-05-03 22:54:02.391","","","","","",""
"casino-keyboard-response","68","366409","0.0-24.0-0.0","809","true","img/card_backs/set1/yellow.gif","img/card_backs/set1/red.gif","img/card_backs/set1/green.gif","img/card_backs/set1/purple.gif","img/card_backs/set2/blue.gif","img/card_backs/set2/pink.gif","img/card_backs/set2/gray.gif","img/card_backs/set2/orange.gif","""event"",""trial"",""time""
""blur"",""0"",""0""
""focus"",""1"",""4046""
""fullscreenenter"",""1"",""14342""
","""event"",""trial"",""time""
""blur"",""0"",""0""
","""event"",""trial"",""time""
""focus"",""1"",""4046""
","""event"",""trial"",""time""
""fullscreenenter"",""1"",""14342""
","
","","6180.82000000868","Here we are! The real game will use different cards, but the rules will be the same.","71","","instructions","2021-05-03 22:54:08.576","","","","","",""
"casino-keyboard-response","69","373479","0.0-24.0-0.1","809","true","img/card_backs/set1/yellow.gif","img/card_backs/set1/red.gif","img/card_backs/set1/green.gif","img/card_backs/set1/purple.gif","img/card_backs/set2/blue.gif","img/card_backs/set2/pink.gif","img/card_backs/set2/gray.gif","img/card_backs/set2/orange.gif","""event"",""trial"",""time""
""blur"",""0"",""0""
""focus"",""1"",""4046""
""fullscreenenter"",""1"",""14342""
","""event"",""trial"",""time""
""blur"",""0"",""0""
","""event"",""trial"",""time""
""focus"",""1"",""4046""
","""event"",""trial"",""time""
""fullscreenenter"",""1"",""14342""
","
","","7064.684999990277","Ready? Put your fingers over the '2', '4', 6', and '8' keys so you are ready to play the game. </br> Then press 2 to start.","50","","instructions","2021-05-03 22:54:15.645","","","","","",""
"casino-fixation","70","373996","0.0-25.0-0.0","809","true","img/card_backs/set1/yellow.gif","img/card_backs/set1/red.gif","img/card_backs/set1/green.gif","img/card_backs/set1/purple.gif","img/card_backs/set2/blue.gif","img/card_backs/set2/pink.gif","img/card_backs/set2/gray.gif","img/card_backs/set2/orange.gif","""event"",""trial"",""time""
""blur"",""0"",""0""
""focus"",""1"",""4046""
""fullscreenenter"",""1"",""14342""
","""event"",""trial"",""time""
""blur"",""0"",""0""
","""event"",""trial"",""time""
""focus"",""1"",""4046""
","""event"",""trial"",""time""
""fullscreenenter"",""1"",""14342""
","
","","null","","null","","fixation","2021-05-03 22:54:16.162","","","","","",""
"card-selection-trial","71","380296","0.0-25.0-1.0","809","true","img/card_backs/set1/yellow.gif","img/card_backs/set1/red.gif","img/card_backs/set1/green.gif","img/card_backs/set1/purple.gif","img/card_backs/set2/blue.gif","img/card_backs/set2/pink.gif","img/card_backs/set2/gray.gif","img/card_backs/set2/orange.gif","""event"",""trial"",""time""
""blur"",""0"",""0""
""focus"",""1"",""4046""
""fullscreenenter"",""1"",""14342""
","""event"",""trial"",""time""
""blur"",""0"",""0""
","""event"",""trial"",""time""
""focus"",""1"",""4046""
","""event"",""trial"",""time""
""fullscreenenter"",""1"",""14342""
","
","","4278.590000001714","","","","real_trial","2021-05-03 22:54:22.462","img/card_backs/set1/yellow.gif","2","-210","1","",""
"casino-fixation","72","380815","0.0-25.0-0.1","809","true","img/card_backs/set1/yellow.gif","img/card_backs/set1/red.gif","img/card_backs/set1/green.gif","img/card_backs/set1/purple.gif","img/card_backs/set2/blue.gif","img/card_backs/set2/pink.gif","img/card_backs/set2/gray.gif","img/card_backs/set2/orange.gif","""event"",""trial"",""time""
""blur"",""0"",""0""
""focus"",""1"",""4046""
""fullscreenenter"",""1"",""14342""
","""event"",""trial"",""time""
""blur"",""0"",""0""
","""event"",""trial"",""time""
""focus"",""1"",""4046""
","""event"",""trial"",""time""
""fullscreenenter"",""1"",""14342""
","
","","null","","null","","fixation","2021-05-03 22:54:22.981","","","","","",""
"card-selection-trial","73","384476","0.0-25.0-1.1","809","true","img/card_backs/set1/yellow.gif","img/card_backs/set1/red.gif","img/card_backs/set1/green.gif","img/card_backs/set1/purple.gif","img/card_backs/set2/blue.gif","img/card_backs/set2/pink.gif","img/card_backs/set2/gray.gif","img/card_backs/set2/orange.gif","""event"",""trial"",""time""
""blur"",""0"",""0""
""focus"",""1"",""4046""
""fullscreenenter"",""1"",""14342""
","""event"",""trial"",""time""
""blur"",""0"",""0""
","""event"",""trial"",""time""
""focus"",""1"",""4046""
","""event"",""trial"",""time""
""fullscreenenter"",""1"",""14342""
","
","","1641.0299999988638","","","","real_trial","2021-05-03 22:54:26.642","img/card_backs/set1/yellow.gif","3","-210","1","",""
"casino-fixation","74","384985","0.0-25.0-0.2","809","true","img/card_backs/set1/yellow.gif","img/card_backs/set1/red.gif","img/card_backs/set1/green.gif","img/card_backs/set1/purple.gif","img/card_backs/set2/blue.gif","img/card_backs/set2/pink.gif","img/card_backs/set2/gray.gif","img/card_backs/set2/orange.gif","""event"",""trial"",""time""
""blur"",""0"",""0""
""focus"",""1"",""4046""
""fullscreenenter"",""1"",""14342""
","""event"",""trial"",""time""
""blur"",""0"",""0""
","""event"",""trial"",""time""
""focus"",""1"",""4046""
","""event"",""trial"",""time""
""fullscreenenter"",""1"",""14342""
","
","","null","","null","","fixation","2021-05-03 22:54:27.151","","","","","",""
"card-selection-trial","75","388626","0.0-25.0-1.2","809","true","img/card_backs/set1/yellow.gif","img/card_backs/set1/red.gif","img/card_backs/set1/green.gif","img/card_backs/set1/purple.gif","img/card_backs/set2/blue.gif","img/card_backs/set2/pink.gif","img/card_backs/set2/gray.gif","img/card_backs/set2/orange.gif","""event"",""trial"",""time""
""blur"",""0"",""0""
""focus"",""1"",""4046""
""fullscreenenter"",""1"",""14342""
","""event"",""trial"",""time""
""blur"",""0"",""0""
","""event"",""trial"",""time""
""focus"",""1"",""4046""
","""event"",""trial"",""time""
""fullscreenenter"",""1"",""14342""
","
","","1616.5349999791943","","","","real_trial","2021-05-03 22:54:30.792","img/card_backs/set1/green.gif","0","40","1","",""
"casino-fixation","76","389135","0.0-25.0-0.3","809","true","img/card_backs/set1/yellow.gif","img/card_backs/set1/red.gif","img/card_backs/set1/green.gif","img/card_backs/set1/purple.gif","img/card_backs/set2/blue.gif","img/card_backs/set2/pink.gif","img/card_backs/set2/gray.gif","img/card_backs/set2/orange.gif","""event"",""trial"",""time""
""blur"",""0"",""0""
""focus"",""1"",""4046""
""fullscreenenter"",""1"",""14342""
","""event"",""trial"",""time""
""blur"",""0"",""0""
","""event"",""trial"",""time""
""focus"",""1"",""4046""
","""event"",""trial"",""time""
""fullscreenenter"",""1"",""14342""
","
","","null","","null","","fixation","2021-05-03 22:54:31.301","","","","","",""
"card-selection-trial","77","392696","0.0-25.0-1.3","809","true","img/card_backs/set1/yellow.gif","img/card_backs/set1/red.gif","img/card_backs/set1/green.gif","img/card_backs/set1/purple.gif","img/card_backs/set2/blue.gif","img/card_backs/set2/pink.gif","img/card_backs/set2/gray.gif","img/card_backs/set2/orange.gif","""event"",""trial"",""time""
""blur"",""0"",""0""
""focus"",""1"",""4046""
""fullscreenenter"",""1"",""14342""
","""event"",""trial"",""time""
""blur"",""0"",""0""
","""event"",""trial"",""time""
""focus"",""1"",""4046""
","""event"",""trial"",""time""
""fullscreenenter"",""1"",""14342""
","
","","1540.6549999606796","","","","real_trial","2021-05-03 22:54:34.862","img/card_backs/set1/green.gif","2","40","1","",""
"casino-fixation","78","393206","0.0-25.0-0.4","809","true","img/card_backs/set1/yellow.gif","img/card_backs/set1/red.gif","img/card_backs/set1/green.gif","img/card_backs/set1/purple.gif","img/card_backs/set2/blue.gif","img/card_backs/set2/pink.gif","img/card_backs/set2/gray.gif","img/card_backs/set2/orange.gif","""event"",""trial"",""time""
""blur"",""0"",""0""
""focus"",""1"",""4046""
""fullscreenenter"",""1"",""14342""
","""event"",""trial"",""time""
""blur"",""0"",""0""
","""event"",""trial"",""time""
""focus"",""1"",""4046""
","""event"",""trial"",""time""
""fullscreenenter"",""1"",""14342""
","
","","null","","null","","fixation","2021-05-03 22:54:35.372","","","","","",""
"card-selection-trial","79","397106","0.0-25.0-1.4","809","true","img/card_backs/set1/yellow.gif","img/card_backs/set1/red.gif","img/card_backs/set1/green.gif","img/card_backs/set1/purple.gif","img/card_backs/set2/blue.gif","img/card_backs/set2/pink.gif","img/card_backs/set2/gray.gif","img/card_backs/set2/orange.gif","""event"",""trial"",""time""
""blur"",""0"",""0""
""focus"",""1"",""4046""
""fullscreenenter"",""1"",""14342""
","""event"",""trial"",""time""
""blur"",""0"",""0""
","""event"",""trial"",""time""
""focus"",""1"",""4046""
","""event"",""trial"",""time""
""fullscreenenter"",""1"",""14342""
","
","","1871.6000000131316","","","","real_trial","2021-05-03 22:54:39.272","img/card_backs/set1/green.gif","3","60","1","",""
"casino-fixation","80","397615","0.0-25.0-0.5","809","true","img/card_backs/set1/yellow.gif","img/card_backs/set1/red.gif","img/card_backs/set1/green.gif","img/card_backs/set1/purple.gif","img/card_backs/set2/blue.gif","img/card_backs/set2/pink.gif","img/card_backs/set2/gray.gif","img/card_backs/set2/orange.gif","""event"",""trial"",""time""
""blur"",""0"",""0""
""focus"",""1"",""4046""
""fullscreenenter"",""1"",""14342""
","""event"",""trial"",""time""
""blur"",""0"",""0""
","""event"",""trial"",""time""
""focus"",""1"",""4046""
","""event"",""trial"",""time""
""fullscreenenter"",""1"",""14342""
","
","","null","","null","","fixation","2021-05-03 22:54:39.782","","","","","",""
"card-selection-trial","81","400836","0.0-25.0-1.5","809","true","img/card_backs/set1/yellow.gif","img/card_backs/set1/red.gif","img/card_backs/set1/green.gif","img/card_backs/set1/purple.gif","img/card_backs/set2/blue.gif","img/card_backs/set2/pink.gif","img/card_backs/set2/gray.gif","img/card_backs/set2/orange.gif","""event"",""trial"",""time""
""blur"",""0"",""0""
""focus"",""1"",""4046""
""fullscreenenter"",""1"",""14342""
","""event"",""trial"",""time""
""blur"",""0"",""0""
","""event"",""trial"",""time""
""focus"",""1"",""4046""
","""event"",""trial"",""time""
""fullscreenenter"",""1"",""14342""
","
","","1196.814999973867","","","","real_trial","2021-05-03 22:54:43.002","img/card_backs/set1/yellow.gif","0","-190","1","",""
"casino-fixation","82","401345","0.0-25.0-0.6","809","true","img/card_backs/set1/yellow.gif","img/card_backs/set1/red.gif","img/card_backs/set1/green.gif","img/card_backs/set1/purple.gif","img/card_backs/set2/blue.gif","img/card_backs/set2/pink.gif","img/card_backs/set2/gray.gif","img/card_backs/set2/orange.gif","""event"",""trial"",""time""
""blur"",""0"",""0""
""focus"",""1"",""4046""
""fullscreenenter"",""1"",""14342""
","""event"",""trial"",""time""
""blur"",""0"",""0""
","""event"",""trial"",""time""
""focus"",""1"",""4046""
","""event"",""trial"",""time""
""fullscreenenter"",""1"",""14342""
","
","","null","","null","","fixation","2021-05-03 22:54:43.512","","","","","",""
"card-selection-trial","83","407323","0.0-25.0-1.6","809","true","img/card_backs/set1/yellow.gif","img/card_backs/set1/red.gif","img/card_backs/set1/green.gif","img/card_backs/set1/purple.gif","img/card_backs/set2/blue.gif","img/card_backs/set2/pink.gif","img/card_backs/set2/gray.gif","img/card_backs/set2/orange.gif","""event"",""trial"",""time""
""blur"",""0"",""0""
""focus"",""1"",""4046""
""fullscreenenter"",""1"",""14342""
","""event"",""trial"",""time""
""blur"",""0"",""0""
","""event"",""trial"",""time""
""focus"",""1"",""4046""
","""event"",""trial"",""time""
""fullscreenenter"",""1"",""14342""
","
","","3957.1799999685027","","","","real_trial","2021-05-03 22:54:49.489","img/card_backs/set1/green.gif","1","-90","1","",""
"casino-fixation","84","407833","0.0-25.0-0.7","809","true","img/card_backs/set1/yellow.gif","img/card_backs/set1/red.gif","img/card_backs/set1/green.gif","img/card_backs/set1/purple.gif","img/card_backs/set2/blue.gif","img/card_backs/set2/pink.gif","img/card_backs/set2/gray.gif","img/card_backs/set2/orange.gif","""event"",""trial"",""time""
""blur"",""0"",""0""
""focus"",""1"",""4046""
""fullscreenenter"",""1"",""14342""
","""event"",""trial"",""time""
""blur"",""0"",""0""
","""event"",""trial"",""time""
""focus"",""1"",""4046""
","""event"",""trial"",""time""
""fullscreenenter"",""1"",""14342""
","
","","null","","null","","fixation","2021-05-03 22:54:50.000","","","","","",""
"card-selection-trial","85","410867","0.0-25.0-1.7","809","true","img/card_backs/set1/yellow.gif","img/card_backs/set1/red.gif","img/card_backs/set1/green.gif","img/card_backs/set1/purple.gif","img/card_backs/set2/blue.gif","img/card_backs/set2/pink.gif","img/card_backs/set2/gray.gif","img/card_backs/set2/orange.gif","""event"",""trial"",""time""
""blur"",""0"",""0""
""focus"",""1"",""4046""
""fullscreenenter"",""1"",""14342""
","""event"",""trial"",""time""
""blur"",""0"",""0""
","""event"",""trial"",""time""
""focus"",""1"",""4046""
","""event"",""trial"",""time""
""fullscreenenter"",""1"",""14342""
","
","","1015.5849999864586","","","","real_trial","2021-05-03 22:54:53.033","img/card_backs/set1/purple.gif","2","60","1","",""
"casino-fixation","86","411374","0.0-25.0-0.8","809","true","img/card_backs/set1/yellow.gif","img/card_backs/set1/red.gif","img/card_backs/set1/green.gif","img/card_backs/set1/purple.gif","img/card_backs/set2/blue.gif","img/card_backs/set2/pink.gif","img/card_backs/set2/gray.gif","img/card_backs/set2/orange.gif","""event"",""trial"",""time""
""blur"",""0"",""0""
""focus"",""1"",""4046""
""fullscreenenter"",""1"",""14342""
","""event"",""trial"",""time""
""blur"",""0"",""0""
","""event"",""trial"",""time""
""focus"",""1"",""4046""
","""event"",""trial"",""time""
""fullscreenenter"",""1"",""14342""
","
","","null","","null","","fixation","2021-05-03 22:54:53.540","","","","","",""
"card-selection-trial","87","414161","0.0-25.0-1.8","809","true","img/card_backs/set1/yellow.gif","img/card_backs/set1/red.gif","img/card_backs/set1/green.gif","img/card_backs/set1/purple.gif","img/card_backs/set2/blue.gif","img/card_backs/set2/pink.gif","img/card_backs/set2/gray.gif","img/card_backs/set2/orange.gif","""event"",""trial"",""time""
""blur"",""0"",""0""
""focus"",""1"",""4046""
""fullscreenenter"",""1"",""14342""
","""event"",""trial"",""time""
""blur"",""0"",""0""
","""event"",""trial"",""time""
""focus"",""1"",""4046""
","""event"",""trial"",""time""
""fullscreenenter"",""1"",""14342""
","
","","770.4249999951571","","","","real_trial","2021-05-03 22:54:56.327","img/card_backs/set1/yellow.gif","2","-200","1","",""
"casino-fixation","88","414667","0.0-25.0-0.9","809","true","img/card_backs/set1/yellow.gif","img/card_backs/set1/red.gif","img/card_backs/set1/green.gif","img/card_backs/set1/purple.gif","img/card_backs/set2/blue.gif","img/card_backs/set2/pink.gif","img/card_backs/set2/gray.gif","img/card_backs/set2/orange.gif","""event"",""trial"",""time""
""blur"",""0"",""0""
""focus"",""1"",""4046""
""fullscreenenter"",""1"",""14342""
","""event"",""trial"",""time""
""blur"",""0"",""0""
","""event"",""trial"",""time""
""focus"",""1"",""4046""
","""event"",""trial"",""time""
""fullscreenenter"",""1"",""14342""
","
","","null","","null","","fixation","2021-05-03 22:54:56.833","","","","","",""
"card-selection-trial","89","418449","0.0-25.0-1.9","809","true","img/card_backs/set1/yellow.gif","img/card_backs/set1/red.gif","img/card_backs/set1/green.gif","img/card_backs/set1/purple.gif","img/card_backs/set2/blue.gif","img/card_backs/set2/pink.gif","img/card_backs/set2/gray.gif","img/card_backs/set2/orange.gif","""event"",""trial"",""time""
""blur"",""0"",""0""
""focus"",""1"",""4046""
""fullscreenenter"",""1"",""14342""
","""event"",""trial"",""time""
""blur"",""0"",""0""
","""event"",""trial"",""time""
""focus"",""1"",""4046""
","""event"",""trial"",""time""
""fullscreenenter"",""1"",""14342""
","
","","1761.1800000304356","","","","real_trial","2021-05-03 22:55:00.615","img/card_backs/set1/red.gif","3","250","1","",""
"casino-fixation","90","418957","0.0-25.0-0.10","809","true","img/card_backs/set1/yellow.gif","img/card_backs/set1/red.gif","img/card_backs/set1/green.gif","img/card_backs/set1/purple.gif","img/card_backs/set2/blue.gif","img/card_backs/set2/pink.gif","img/card_backs/set2/gray.gif","img/card_backs/set2/orange.gif","""event"",""trial"",""time""
""blur"",""0"",""0""
""focus"",""1"",""4046""
""fullscreenenter"",""1"",""14342""
","""event"",""trial"",""time""
""blur"",""0"",""0""
","""event"",""trial"",""time""
""focus"",""1"",""4046""
","""event"",""trial"",""time""
""fullscreenenter"",""1"",""14342""
","
","","null","","null","","fixation","2021-05-03 22:55:01.123","","","","","",""
"card-selection-trial","91","425495","0.0-25.0-1.10","809","true","img/card_backs/set1/yellow.gif","img/card_backs/set1/red.gif","img/card_backs/set1/green.gif","img/card_backs/set1/purple.gif","img/card_backs/set2/blue.gif","img/card_backs/set2/pink.gif","img/card_backs/set2/gray.gif","img/card_backs/set2/orange.gif","""event"",""trial"",""time""
""blur"",""0"",""0""
""focus"",""1"",""4046""
""fullscreenenter"",""1"",""14342""
","""event"",""trial"",""time""
""blur"",""0"",""0""
","""event"",""trial"",""time""
""focus"",""1"",""4046""
","""event"",""trial"",""time""
""fullscreenenter"",""1"",""14342""
","
","","4519.245000032242","","","","real_trial","2021-05-03 22:55:07.661","img/card_backs/set1/green.gif","2","50","1","",""
"casino-fixation","92","426005","0.0-25.0-0.11","809","true","img/card_backs/set1/yellow.gif","img/card_backs/set1/red.gif","img/card_backs/set1/green.gif","img/card_backs/set1/purple.gif","img/card_backs/set2/blue.gif","img/card_backs/set2/pink.gif","img/card_backs/set2/gray.gif","img/card_backs/set2/orange.gif","""event"",""trial"",""time""
""blur"",""0"",""0""
""focus"",""1"",""4046""
""fullscreenenter"",""1"",""14342""
","""event"",""trial"",""time""
""blur"",""0"",""0""
","""event"",""trial"",""time""
""focus"",""1"",""4046""
","""event"",""trial"",""time""
""fullscreenenter"",""1"",""14342""
","
","","null","","null","","fixation","2021-05-03 22:55:08.171","","","","","",""
"card-selection-trial","93","431472","0.0-25.0-1.11","809","true","img/card_backs/set1/yellow.gif","img/card_backs/set1/red.gif","img/card_backs/set1/green.gif","img/card_backs/set1/purple.gif","img/card_backs/set2/blue.gif","img/card_backs/set2/pink.gif","img/card_backs/set2/gray.gif","img/card_backs/set2/orange.gif","""event"",""trial"",""time""
""blur"",""0"",""0""
""focus"",""1"",""4046""
""fullscreenenter"",""1"",""14342""
","""event"",""trial"",""time""
""blur"",""0"",""0""
","""event"",""trial"",""time""
""focus"",""1"",""4046""
","""event"",""trial"",""time""
""fullscreenenter"",""1"",""14342""
","
","","3445.869999995921","","","","real_trial","2021-05-03 22:55:13.639","img/card_backs/set1/red.gif","0","260","1","",""
"casino-fixation","94","431986","0.0-25.0-0.12","809","true","img/card_backs/set1/yellow.gif","img/card_backs/set1/red.gif","img/card_backs/set1/green.gif","img/card_backs/set1/purple.gif","img/card_backs/set2/blue.gif","img/card_backs/set2/pink.gif","img/card_backs/set2/gray.gif","img/card_backs/set2/orange.gif","""event"",""trial"",""time""
""blur"",""0"",""0""
""focus"",""1"",""4046""
""fullscreenenter"",""1"",""14342""
","""event"",""trial"",""time""
""blur"",""0"",""0""
","""event"",""trial"",""time""
""focus"",""1"",""4046""
","""event"",""trial"",""time""
""fullscreenenter"",""1"",""14342""
","
","","null","","null","","fixation","2021-05-03 22:55:14.153","","","","","",""
"card-selection-trial","95","438482","0.0-25.0-1.12","809","true","img/card_backs/set1/yellow.gif","img/card_backs/set1/red.gif","img/card_backs/set1/green.gif","img/card_backs/set1/purple.gif","img/card_backs/set2/blue.gif","img/card_backs/set2/pink.gif","img/card_backs/set2/gray.gif","img/card_backs/set2/orange.gif","""event"",""trial"",""time""
""blur"",""0"",""0""
""focus"",""1"",""4046""
""fullscreenenter"",""1"",""14342""
","""event"",""trial"",""time""
""blur"",""0"",""0""
","""event"",""trial"",""time""
""focus"",""1"",""4046""
","""event"",""trial"",""time""
""fullscreenenter"",""1"",""14342""
","
","","4475.7250000257045","","","","real_trial","2021-05-03 22:55:20.648","img/card_backs/set1/yellow.gif","1","240","1","",""
"casino-fixation","96","438993","0.0-25.0-0.13","809","true","img/card_backs/set1/yellow.gif","img/card_backs/set1/red.gif","img/card_backs/set1/green.gif","img/card_backs/set1/purple.gif","img/card_backs/set2/blue.gif","img/card_backs/set2/pink.gif","img/card_backs/set2/gray.gif","img/card_backs/set2/orange.gif","""event"",""trial"",""time""
""blur"",""0"",""0""
""focus"",""1"",""4046""
""fullscreenenter"",""1"",""14342""
","""event"",""trial"",""time""
""blur"",""0"",""0""
","""event"",""trial"",""time""
""focus"",""1"",""4046""
","""event"",""trial"",""time""
""fullscreenenter"",""1"",""14342""
","
","","null","","null","","fixation","2021-05-03 22:55:21.159","","","","","",""
"card-selection-trial","97","445206","0.0-25.0-1.13","809","true","img/card_backs/set1/yellow.gif","img/card_backs/set1/red.gif","img/card_backs/set1/green.gif","img/card_backs/set1/purple.gif","img/card_backs/set2/blue.gif","img/card_backs/set2/pink.gif","img/card_backs/set2/gray.gif","img/card_backs/set2/orange.gif","""event"",""trial"",""time""
""blur"",""0"",""0""
""focus"",""1"",""4046""
""fullscreenenter"",""1"",""14342""
","""event"",""trial"",""time""
""blur"",""0"",""0""
","""event"",""trial"",""time""
""focus"",""1"",""4046""
","""event"",""trial"",""time""
""fullscreenenter"",""1"",""14342""
","
","","4190.73999999091","","","","real_trial","2021-05-03 22:55:27.372","img/card_backs/set1/yellow.gif","2","-210","1","",""
"casino-fixation","98","445710","0.0-25.0-0.14","809","true","img/card_backs/set1/yellow.gif","img/card_backs/set1/red.gif","img/card_backs/set1/green.gif","img/card_backs/set1/purple.gif","img/card_backs/set2/blue.gif","img/card_backs/set2/pink.gif","img/card_backs/set2/gray.gif","img/card_backs/set2/orange.gif","""event"",""trial"",""time""
""blur"",""0"",""0""
""focus"",""1"",""4046""
""fullscreenenter"",""1"",""14342""
","""event"",""trial"",""time""
""blur"",""0"",""0""
","""event"",""trial"",""time""
""focus"",""1"",""4046""
","""event"",""trial"",""time""
""fullscreenenter"",""1"",""14342""
","
","","null","","null","","fixation","2021-05-03 22:55:27.877","","","","","",""
"card-selection-trial","99","449310","0.0-25.0-1.14","809","true","img/card_backs/set1/yellow.gif","img/card_backs/set1/red.gif","img/card_backs/set1/green.gif","img/card_backs/set1/purple.gif","img/card_backs/set2/blue.gif","img/card_backs/set2/pink.gif","img/card_backs/set2/gray.gif","img/card_backs/set2/orange.gif","""event"",""trial"",""time""
""blur"",""0"",""0""
""focus"",""1"",""4046""
""fullscreenenter"",""1"",""14342""
","""event"",""trial"",""time""
""blur"",""0"",""0""
","""event"",""trial"",""time""
""focus"",""1"",""4046""
","""event"",""trial"",""time""
""fullscreenenter"",""1"",""14342""
","
","","1585.3249999927357","","","","real_trial","2021-05-03 22:55:31.476","img/card_backs/set1/purple.gif","0","-110","1","",""
"casino-fixation","100","449819","0.0-25.0-0.15","809","true","img/card_backs/set1/yellow.gif","img/card_backs/set1/red.gif","img/card_backs/set1/green.gif","img/card_backs/set1/purple.gif","img/card_backs/set2/blue.gif","img/card_backs/set2/pink.gif","img/card_backs/set2/gray.gif","img/card_backs/set2/orange.gif","""event"",""trial"",""time""
""blur"",""0"",""0""
""focus"",""1"",""4046""
""fullscreenenter"",""1"",""14342""
","""event"",""trial"",""time""
""blur"",""0"",""0""
","""event"",""trial"",""time""
""focus"",""1"",""4046""
","""event"",""trial"",""time""
""fullscreenenter"",""1"",""14342""
","
","","null","","null","","fixation","2021-05-03 22:55:31.985","","","","","",""
"card-selection-trial","101","452975","0.0-25.0-1.15","809","true","img/card_backs/set1/yellow.gif","img/card_backs/set1/red.gif","img/card_backs/set1/green.gif","img/card_backs/set1/purple.gif","img/card_backs/set2/blue.gif","img/card_backs/set2/pink.gif","img/card_backs/set2/gray.gif","img/card_backs/set2/orange.gif","""event"",""trial"",""time""
""blur"",""0"",""0""
""focus"",""1"",""4046""
""fullscreenenter"",""1"",""14342""
","""event"",""trial"",""time""
""blur"",""0"",""0""
","""event"",""trial"",""time""
""focus"",""1"",""4046""
","""event"",""trial"",""time""
""fullscreenenter"",""1"",""14342""
","
","","1135.4049999499694","","","","real_trial","2021-05-03 22:55:35.141","img/card_backs/set1/green.gif","3","50","1","",""
"casino-fixation","102","453486","0.0-25.0-0.16","809","true","img/card_backs/set1/yellow.gif","img/card_backs/set1/red.gif","img/card_backs/set1/green.gif","img/card_backs/set1/purple.gif","img/card_backs/set2/blue.gif","img/card_backs/set2/pink.gif","img/card_backs/set2/gray.gif","img/card_backs/set2/orange.gif","""event"",""trial"",""time""
""blur"",""0"",""0""
""focus"",""1"",""4046""
""fullscreenenter"",""1"",""14342""
","""event"",""trial"",""time""
""blur"",""0"",""0""
","""event"",""trial"",""time""
""focus"",""1"",""4046""
","""event"",""trial"",""time""
""fullscreenenter"",""1"",""14342""
","
","","null","","null","","fixation","2021-05-03 22:55:35.652","","","","","",""
"card-selection-trial","103","456488","0.0-25.0-1.16","809","true","img/card_backs/set1/yellow.gif","img/card_backs/set1/red.gif","img/card_backs/set1/green.gif","img/card_backs/set1/purple.gif","img/card_backs/set2/blue.gif","img/card_backs/set2/pink.gif","img/card_backs/set2/gray.gif","img/card_backs/set2/orange.gif","""event"",""trial"",""time""
""blur"",""0"",""0""
""focus"",""1"",""4046""
""fullscreenenter"",""1"",""14342""
","""event"",""trial"",""time""
""blur"",""0"",""0""
","""event"",""trial"",""time""
""focus"",""1"",""4046""
","""event"",""trial"",""time""
""fullscreenenter"",""1"",""14342""
","
","","982.3399999877438","","","","real_trial","2021-05-03 22:55:38.654","img/card_backs/set1/green.gif","1","-90","1","",""
"casino-fixation","104","457001","0.0-25.0-0.17","809","true","img/card_backs/set1/yellow.gif","img/card_backs/set1/red.gif","img/card_backs/set1/green.gif","img/card_backs/set1/purple.gif","img/card_backs/set2/blue.gif","img/card_backs/set2/pink.gif","img/card_backs/set2/gray.gif","img/card_backs/set2/orange.gif","""event"",""trial"",""time""
""blur"",""0"",""0""
""focus"",""1"",""4046""
""fullscreenenter"",""1"",""14342""
","""event"",""trial"",""time""
""blur"",""0"",""0""
","""event"",""trial"",""time""
""focus"",""1"",""4046""
","""event"",""trial"",""time""
""fullscreenenter"",""1"",""14342""
","
","","null","","null","","fixation","2021-05-03 22:55:39.167","","","","","",""
"card-selection-trial","105","459442","0.0-25.0-1.17","809","true","img/card_backs/set1/yellow.gif","img/card_backs/set1/red.gif","img/card_backs/set1/green.gif","img/card_backs/set1/purple.gif","img/card_backs/set2/blue.gif","img/card_backs/set2/pink.gif","img/card_backs/set2/gray.gif","img/card_backs/set2/orange.gif","""event"",""trial"",""time""
""blur"",""0"",""0""
""focus"",""1"",""4046""
""fullscreenenter"",""1"",""14342""
","""event"",""trial"",""time""
""blur"",""0"",""0""
","""event"",""trial"",""time""
""focus"",""1"",""4046""
","""event"",""trial"",""time""
""fullscreenenter"",""1"",""14342""
","
","","418.4400000376627","","","","real_trial","2021-05-03 22:55:41.611","img/card_backs/set1/yellow.gif","2","-210","1","",""
"casino-fixation","106","459949","0.0-25.0-0.18","809","true","img/card_backs/set1/yellow.gif","img/card_backs/set1/red.gif","img/card_backs/set1/green.gif","img/card_backs/set1/purple.gif","img/card_backs/set2/blue.gif","img/card_backs/set2/pink.gif","img/card_backs/set2/gray.gif","img/card_backs/set2/orange.gif","""event"",""trial"",""time""
""blur"",""0"",""0""
""focus"",""1"",""4046""
""fullscreenenter"",""1"",""14342""
","""event"",""trial"",""time""
""blur"",""0"",""0""
","""event"",""trial"",""time""
""focus"",""1"",""4046""
","""event"",""trial"",""time""
""fullscreenenter"",""1"",""14342""
","
","","null","","null","","fixation","2021-05-03 22:55:42.115","","","","","",""
"card-selection-trial","107","462698","0.0-25.0-1.18","809","true","img/card_backs/set1/yellow.gif","img/card_backs/set1/red.gif","img/card_backs/set1/green.gif","img/card_backs/set1/purple.gif","img/card_backs/set2/blue.gif","img/card_backs/set2/pink.gif","img/card_backs/set2/gray.gif","img/card_backs/set2/orange.gif","""event"",""trial"",""time""
""blur"",""0"",""0""
""focus"",""1"",""4046""
""fullscreenenter"",""1"",""14342""
","""event"",""trial"",""time""
""blur"",""0"",""0""
","""event"",""trial"",""time""
""focus"",""1"",""4046""
","""event"",""trial"",""time""
""fullscreenenter"",""1"",""14342""
","
","","735.1999999955297","","","","real_trial","2021-05-03 22:55:44.864","img/card_backs/set1/purple.gif","3","60","1","",""
"casino-fixation","108","463204","0.0-25.0-0.19","809","true","img/card_backs/set1/yellow.gif","img/card_backs/set1/red.gif","img/card_backs/set1/green.gif","img/card_backs/set1/purple.gif","img/card_backs/set2/blue.gif","img/card_backs/set2/pink.gif","img/card_backs/set2/gray.gif","img/card_backs/set2/orange.gif","""event"",""trial"",""time""
""blur"",""0"",""0""
""focus"",""1"",""4046""
""fullscreenenter"",""1"",""14342""
","""event"",""trial"",""time""
""blur"",""0"",""0""
","""event"",""trial"",""time""
""focus"",""1"",""4046""
","""event"",""trial"",""time""
""fullscreenenter"",""1"",""14342""
","
","","null","","null","","fixation","2021-05-03 22:55:45.370","","","","","",""
"card-selection-trial","109","467105","0.0-25.0-1.19","809","true","img/card_backs/set1/yellow.gif","img/card_backs/set1/red.gif","img/card_backs/set1/green.gif","img/card_backs/set1/purple.gif","img/card_backs/set2/blue.gif","img/card_backs/set2/pink.gif","img/card_backs/set2/gray.gif","img/card_backs/set2/orange.gif","""event"",""trial"",""time""
""blur"",""0"",""0""
""focus"",""1"",""4046""
""fullscreenenter"",""1"",""14342""
","""event"",""trial"",""time""
""blur"",""0"",""0""
","""event"",""trial"",""time""
""focus"",""1"",""4046""
","""event"",""trial"",""time""
""fullscreenenter"",""1"",""14342""
","
","","1883.4100000094622","","","","real_trial","2021-05-03 22:55:49.271","img/card_backs/set1/yellow.gif","0","260","1","",""
"casino-fixation","110","467618","0.0-25.0-0.20","809","true","img/card_backs/set1/yellow.gif","img/card_backs/set1/red.gif","img/card_backs/set1/green.gif","img/card_backs/set1/purple.gif","img/card_backs/set2/blue.gif","img/card_backs/set2/pink.gif","img/card_backs/set2/gray.gif","img/card_backs/set2/orange.gif","""event"",""trial"",""time""
""blur"",""0"",""0""
""focus"",""1"",""4046""
""fullscreenenter"",""1"",""14342""
","""event"",""trial"",""time""
""blur"",""0"",""0""
","""event"",""trial"",""time""
""focus"",""1"",""4046""
","""event"",""trial"",""time""
""fullscreenenter"",""1"",""14342""
","
","","null","","null","","fixation","2021-05-03 22:55:49.784","","","","","",""
"card-selection-trial","111","473769","0.0-25.0-1.20","809","true","img/card_backs/set1/yellow.gif","img/card_backs/set1/red.gif","img/card_backs/set1/green.gif","img/card_backs/set1/purple.gif","img/card_backs/set2/blue.gif","img/card_backs/set2/pink.gif","img/card_backs/set2/gray.gif","img/card_backs/set2/orange.gif","""event"",""trial"",""time""
""blur"",""0"",""0""
""focus"",""1"",""4046""
""fullscreenenter"",""1"",""14342""
","""event"",""trial"",""time""
""blur"",""0"",""0""
","""event"",""trial"",""time""
""focus"",""1"",""4046""
","""event"",""trial"",""time""
""fullscreenenter"",""1"",""14342""
","
","","4134.980000031646","","","","real_trial","2021-05-03 22:55:55.935","img/card_backs/set1/yellow.gif","1","250","1","",""
"casino-fixation","112","474285","0.0-25.0-0.21","809","true","img/card_backs/set1/yellow.gif","img/card_backs/set1/red.gif","img/card_backs/set1/green.gif","img/card_backs/set1/purple.gif","img/card_backs/set2/blue.gif","img/card_backs/set2/pink.gif","img/card_backs/set2/gray.gif","img/card_backs/set2/orange.gif","""event"",""trial"",""time""
""blur"",""0"",""0""
""focus"",""1"",""4046""
""fullscreenenter"",""1"",""14342""
","""event"",""trial"",""time""
""blur"",""0"",""0""
","""event"",""trial"",""time""
""focus"",""1"",""4046""
","""event"",""trial"",""time""
""fullscreenenter"",""1"",""14342""
","
","","null","","null","","fixation","2021-05-03 22:55:56.451","","","","","",""
"card-selection-trial","113","477773","0.0-25.0-1.21","809","true","img/card_backs/set1/yellow.gif","img/card_backs/set1/red.gif","img/card_backs/set1/green.gif","img/card_backs/set1/purple.gif","img/card_backs/set2/blue.gif","img/card_backs/set2/pink.gif","img/card_backs/set2/gray.gif","img/card_backs/set2/orange.gif","""event"",""trial"",""time""
""blur"",""0"",""0""
""focus"",""1"",""4046""
""fullscreenenter"",""1"",""14342""
","""event"",""trial"",""time""
""blur"",""0"",""0""
","""event"",""trial"",""time""
""focus"",""1"",""4046""
","""event"",""trial"",""time""
""fullscreenenter"",""1"",""14342""
","
","","1472.1800000406802","","","","real_trial","2021-05-03 22:55:59.939","img/card_backs/set1/purple.gif","3","50","1","",""
"casino-fixation","114","478278","0.0-25.0-0.22","809","true","img/card_backs/set1/yellow.gif","img/card_backs/set1/red.gif","img/card_backs/set1/green.gif","img/card_backs/set1/purple.gif","img/card_backs/set2/blue.gif","img/card_backs/set2/pink.gif","img/card_backs/set2/gray.gif","img/card_backs/set2/orange.gif","""event"",""trial"",""time""
""blur"",""0"",""0""
""focus"",""1"",""4046""
""fullscreenenter"",""1"",""14342""
","""event"",""trial"",""time""
""blur"",""0"",""0""
","""event"",""trial"",""time""
""focus"",""1"",""4046""
","""event"",""trial"",""time""
""fullscreenenter"",""1"",""14342""
","
","","null","","null","","fixation","2021-05-03 22:56:00.444","","","","","",""
"card-selection-trial","115","481557","0.0-25.0-1.22","809","true","img/card_backs/set1/yellow.gif","img/card_backs/set1/red.gif","img/card_backs/set1/green.gif","img/card_backs/set1/purple.gif","img/card_backs/set2/blue.gif","img/card_backs/set2/pink.gif","img/card_backs/set2/gray.gif","img/card_backs/set2/orange.gif","""event"",""trial"",""time""
""blur"",""0"",""0""
""focus"",""1"",""4046""
""fullscreenenter"",""1"",""14342""
","""event"",""trial"",""time""
""blur"",""0"",""0""
","""event"",""trial"",""time""
""focus"",""1"",""4046""
","""event"",""trial"",""time""
""fullscreenenter"",""1"",""14342""
","
","","1261.3649999839254","","","","real_trial","2021-05-03 22:56:03.723","img/card_backs/set1/purple.gif","0","-100","1","",""
"casino-fixation","116","482077","0.0-25.0-0.23","809","true","img/card_backs/set1/yellow.gif","img/card_backs/set1/red.gif","img/card_backs/set1/green.gif","img/card_backs/set1/purple.gif","img/card_backs/set2/blue.gif","img/card_backs/set2/pink.gif","img/card_backs/set2/gray.gif","img/card_backs/set2/orange.gif","""event"",""trial"",""time""
""blur"",""0"",""0""
""focus"",""1"",""4046""
""fullscreenenter"",""1"",""14342""
","""event"",""trial"",""time""
""blur"",""0"",""0""
","""event"",""trial"",""time""
""focus"",""1"",""4046""
","""event"",""trial"",""time""
""fullscreenenter"",""1"",""14342""
","
","","null","","null","","fixation","2021-05-03 22:56:04.243","","","","","",""
"card-selection-trial","117","486383","0.0-25.0-1.23","809","true","img/card_backs/set1/yellow.gif","img/card_backs/set1/red.gif","img/card_backs/set1/green.gif","img/card_backs/set1/purple.gif","img/card_backs/set2/blue.gif","img/card_backs/set2/pink.gif","img/card_backs/set2/gray.gif","img/card_backs/set2/orange.gif","""event"",""trial"",""time""
""blur"",""0"",""0""
""focus"",""1"",""4046""
""fullscreenenter"",""1"",""14342""
","""event"",""trial"",""time""
""blur"",""0"",""0""
","""event"",""trial"",""time""
""focus"",""1"",""4046""
","""event"",""trial"",""time""
""fullscreenenter"",""1"",""14342""
","
","","2283.0700000049546","","","","real_trial","2021-05-03 22:56:08.550","img/card_backs/set1/yellow.gif","3","240","1","",""
"casino-fixation","118","486896","0.0-25.0-0.24","809","true","img/card_backs/set1/yellow.gif","img/card_backs/set1/red.gif","img/card_backs/set1/green.gif","img/card_backs/set1/purple.gif","img/card_backs/set2/blue.gif","img/card_backs/set2/pink.gif","img/card_backs/set2/gray.gif","img/card_backs/set2/orange.gif","""event"",""trial"",""time""
""blur"",""0"",""0""
""focus"",""1"",""4046""
""fullscreenenter"",""1"",""14342""
","""event"",""trial"",""time""
""blur"",""0"",""0""
","""event"",""trial"",""time""
""focus"",""1"",""4046""
","""event"",""trial"",""time""
""fullscreenenter"",""1"",""14342""
","
","","null","","null","","fixation","2021-05-03 22:56:09.063","","","","","",""
"card-selection-trial","119","490247","0.0-25.0-1.24","809","true","img/card_backs/set1/yellow.gif","img/card_backs/set1/red.gif","img/card_backs/set1/green.gif","img/card_backs/set1/purple.gif","img/card_backs/set2/blue.gif","img/card_backs/set2/pink.gif","img/card_backs/set2/gray.gif","img/card_backs/set2/orange.gif","""event"",""trial"",""time""
""blur"",""0"",""0""
""focus"",""1"",""4046""
""fullscreenenter"",""1"",""14342""
","""event"",""trial"",""time""
""blur"",""0"",""0""
","""event"",""trial"",""time""
""focus"",""1"",""4046""
","""event"",""trial"",""time""
""fullscreenenter"",""1"",""14342""
","
","","1331.9449999835342","","","","real_trial","2021-05-03 22:56:12.413","img/card_backs/set1/yellow.gif","1","-210","1","",""
"casino-fixation","120","490754","0.0-25.0-0.25","809","true","img/card_backs/set1/yellow.gif","img/card_backs/set1/red.gif","img/card_backs/set1/green.gif","img/card_backs/set1/purple.gif","img/card_backs/set2/blue.gif","img/card_backs/set2/pink.gif","img/card_backs/set2/gray.gif","img/card_backs/set2/orange.gif","""event"",""trial"",""time""
""blur"",""0"",""0""
""focus"",""1"",""4046""
""fullscreenenter"",""1"",""14342""
","""event"",""trial"",""time""
""blur"",""0"",""0""
","""event"",""trial"",""time""
""focus"",""1"",""4046""
","""event"",""trial"",""time""
""fullscreenenter"",""1"",""14342""
","
","","null","","null","","fixation","2021-05-03 22:56:12.920","","","","","",""
"card-selection-trial","121","493000","0.0-25.0-1.25","809","true","img/card_backs/set1/yellow.gif","img/card_backs/set1/red.gif","img/card_backs/set1/green.gif","img/card_backs/set1/purple.gif","img/card_backs/set2/blue.gif","img/card_backs/set2/pink.gif","img/card_backs/set2/gray.gif","img/card_backs/set2/orange.gif","""event"",""trial"",""time""
""blur"",""0"",""0""
""focus"",""1"",""4046""
""fullscreenenter"",""1"",""14342""
","""event"",""trial"",""time""
""blur"",""0"",""0""
","""event"",""trial"",""time""
""focus"",""1"",""4046""
","""event"",""trial"",""time""
""fullscreenenter"",""1"",""14342""
","
","","231.824999966193","","","","real_trial","2021-05-03 22:56:15.167","img/card_backs/set1/yellow.gif","2","-200","1","",""
"casino-fixation","122","493508","0.0-25.0-0.26","809","true","img/card_backs/set1/yellow.gif","img/card_backs/set1/red.gif","img/card_backs/set1/green.gif","img/card_backs/set1/purple.gif","img/card_backs/set2/blue.gif","img/card_backs/set2/pink.gif","img/card_backs/set2/gray.gif","img/card_backs/set2/orange.gif","""event"",""trial"",""time""
""blur"",""0"",""0""
""focus"",""1"",""4046""
""fullscreenenter"",""1"",""14342""
","""event"",""trial"",""time""
""blur"",""0"",""0""
","""event"",""trial"",""time""
""focus"",""1"",""4046""
","""event"",""trial"",""time""
""fullscreenenter"",""1"",""14342""
","
","","null","","null","","fixation","2021-05-03 22:56:15.674","","","","","",""
"card-selection-trial","123","495684","0.0-25.0-1.26","809","true","img/card_backs/set1/yellow.gif","img/card_backs/set1/red.gif","img/card_backs/set1/green.gif","img/card_backs/set1/purple.gif","img/card_backs/set2/blue.gif","img/card_backs/set2/pink.gif","img/card_backs/set2/gray.gif","img/card_backs/set2/orange.gif","""event"",""trial"",""time""
""blur"",""0"",""0""
""focus"",""1"",""4046""
""fullscreenenter"",""1"",""14342""
","""event"",""trial"",""time""
""blur"",""0"",""0""
","""event"",""trial"",""time""
""focus"",""1"",""4046""
","""event"",""trial"",""time""
""fullscreenenter"",""1"",""14342""
","
","","159.71999999601394","","","","real_trial","2021-05-03 22:56:17.850","img/card_backs/set1/green.gif","0","-90","1","",""
"casino-fixation","124","496188","0.0-25.0-0.27","809","true","img/card_backs/set1/yellow.gif","img/card_backs/set1/red.gif","img/card_backs/set1/green.gif","img/card_backs/set1/purple.gif","img/card_backs/set2/blue.gif","img/card_backs/set2/pink.gif","img/card_backs/set2/gray.gif","img/card_backs/set2/orange.gif","""event"",""trial"",""time""
""blur"",""0"",""0""
""focus"",""1"",""4046""
""fullscreenenter"",""1"",""14342""
","""event"",""trial"",""time""
""blur"",""0"",""0""
","""event"",""trial"",""time""
""focus"",""1"",""4046""
","""event"",""trial"",""time""
""fullscreenenter"",""1"",""14342""
","
","","null","","null","","fixation","2021-05-03 22:56:18.354","","","","","",""
"card-selection-trial","125","498252","0.0-25.0-1.27","809","true","img/card_backs/set1/yellow.gif","img/card_backs/set1/red.gif","img/card_backs/set1/green.gif","img/card_backs/set1/purple.gif","img/card_backs/set2/blue.gif","img/card_backs/set2/pink.gif","img/card_backs/set2/gray.gif","img/card_backs/set2/orange.gif","""event"",""trial"",""time""
""blur"",""0"",""0""
""focus"",""1"",""4046""
""fullscreenenter"",""1"",""14342""
","""event"",""trial"",""time""
""blur"",""0"",""0""
","""event"",""trial"",""time""
""focus"",""1"",""4046""
","""event"",""trial"",""time""
""fullscreenenter"",""1"",""14342""
","
","","46.359999978449196","","","","real_trial","2021-05-03 22:56:20.418","img/card_backs/set1/yellow.gif","3","260","1","",""
"casino-fixation","126","498759","0.0-25.0-0.28","809","true","img/card_backs/set1/yellow.gif","img/card_backs/set1/red.gif","img/card_backs/set1/green.gif","img/card_backs/set1/purple.gif","img/card_backs/set2/blue.gif","img/card_backs/set2/pink.gif","img/card_backs/set2/gray.gif","img/card_backs/set2/orange.gif","""event"",""trial"",""time""
""blur"",""0"",""0""
""focus"",""1"",""4046""
""fullscreenenter"",""1"",""14342""
","""event"",""trial"",""time""
""blur"",""0"",""0""
","""event"",""trial"",""time""
""focus"",""1"",""4046""
","""event"",""trial"",""time""
""fullscreenenter"",""1"",""14342""
","
","","null","","null","","fixation","2021-05-03 22:56:20.926","","","","","",""
"card-selection-trial","127","501973","0.0-25.0-1.28","809","true","img/card_backs/set1/yellow.gif","img/card_backs/set1/red.gif","img/card_backs/set1/green.gif","img/card_backs/set1/purple.gif","img/card_backs/set2/blue.gif","img/card_backs/set2/pink.gif","img/card_backs/set2/gray.gif","img/card_backs/set2/orange.gif","""event"",""trial"",""time""
""blur"",""0"",""0""
""focus"",""1"",""4046""
""fullscreenenter"",""1"",""14342""
","""event"",""trial"",""time""
""blur"",""0"",""0""
","""event"",""trial"",""time""
""focus"",""1"",""4046""
","""event"",""trial"",""time""
""fullscreenenter"",""1"",""14342""
","
","","1199.2750000208616","","","","real_trial","2021-05-03 22:56:24.139","img/card_backs/set1/red.gif","1","-210","1","",""
"casino-fixation","128","502483","0.0-25.0-0.29","809","true","img/card_backs/set1/yellow.gif","img/card_backs/set1/red.gif","img/card_backs/set1/green.gif","img/card_backs/set1/purple.gif","img/card_backs/set2/blue.gif","img/card_backs/set2/pink.gif","img/card_backs/set2/gray.gif","img/card_backs/set2/orange.gif","""event"",""trial"",""time""
""blur"",""0"",""0""
""focus"",""1"",""4046""
""fullscreenenter"",""1"",""14342""
","""event"",""trial"",""time""
""blur"",""0"",""0""
","""event"",""trial"",""time""
""focus"",""1"",""4046""
","""event"",""trial"",""time""
""fullscreenenter"",""1"",""14342""
","
","","null","","null","","fixation","2021-05-03 22:56:24.650","","","","","",""
"card-selection-trial","129","504808","0.0-25.0-1.29","809","true","img/card_backs/set1/yellow.gif","img/card_backs/set1/red.gif","img/card_backs/set1/green.gif","img/card_backs/set1/purple.gif","img/card_backs/set2/blue.gif","img/card_backs/set2/pink.gif","img/card_backs/set2/gray.gif","img/card_backs/set2/orange.gif","""event"",""trial"",""time""
""blur"",""0"",""0""
""focus"",""1"",""4046""
""fullscreenenter"",""1"",""14342""
","""event"",""trial"",""time""
""blur"",""0"",""0""
","""event"",""trial"",""time""
""focus"",""1"",""4046""
","""event"",""trial"",""time""
""fullscreenenter"",""1"",""14342""
","
","","309.1350000468083","","","","real_trial","2021-05-03 22:56:26.974","img/card_backs/set1/purple.gif","0","-90","1","",""
"casino-fixation","130","505322","0.0-25.0-0.30","809","true","img/card_backs/set1/yellow.gif","img/card_backs/set1/red.gif","img/card_backs/set1/green.gif","img/card_backs/set1/purple.gif","img/card_backs/set2/blue.gif","img/card_backs/set2/pink.gif","img/card_backs/set2/gray.gif","img/card_backs/set2/orange.gif","""event"",""trial"",""time""
""blur"",""0"",""0""
""focus"",""1"",""4046""
""fullscreenenter"",""1"",""14342""
","""event"",""trial"",""time""
""blur"",""0"",""0""
","""event"",""trial"",""time""
""focus"",""1"",""4046""
","""event"",""trial"",""time""
""fullscreenenter"",""1"",""14342""
","
","","null","","null","","fixation","2021-05-03 22:56:27.489","","","","","",""
"card-selection-trial","131","507342","0.0-25.0-1.30","809","true","img/card_backs/set1/yellow.gif","img/card_backs/set1/red.gif","img/card_backs/set1/green.gif","img/card_backs/set1/purple.gif","img/card_backs/set2/blue.gif","img/card_backs/set2/pink.gif","img/card_backs/set2/gray.gif","img/card_backs/set2/orange.gif","""event"",""trial"",""time""
""blur"",""0"",""0""
""focus"",""1"",""4046""
""fullscreenenter"",""1"",""14342""
","""event"",""trial"",""time""
""blur"",""0"",""0""
","""event"",""trial"",""time""
""focus"",""1"",""4046""
","""event"",""trial"",""time""
""fullscreenenter"",""1"",""14342""
","
","","8.190000022295862","","","","real_trial","2021-05-03 22:56:29.509","img/card_backs/set1/yellow.gif","3","-190","1","",""
