"trial_type","trial_index","time_elapsed","internal_node_id","sub_id","risk_good_first","block1_A","block1_B","block1_C","block1_D","block2_A","block2_B","block2_C","block2_D","interactions","blur_events","focus_events","fullscreenenter_events","fullscreenexit_events","success","rt","stimulus","key_press","button_pressed","task_part","timestamp","card_choice","choice_position","points_earned","block","correct","response"
"pavlovia","0","7","0.0-0.0","1054","false","img/card_backs/set1/yellow.gif","img/card_backs/set1/purple.gif","img/card_backs/set1/red.gif","img/card_backs/set1/green.gif","img/card_backs/set2/orange.gif","img/card_backs/set2/gray.gif","img/card_backs/set2/blue.gif","img/card_backs/set2/pink.gif","""event"",""trial"",""time""
""fullscreenenter"",""1"",""3394""
","
","
","""event"",""trial"",""time""
""fullscreenenter"",""1"",""3394""
","
","","","","","","","","","","","","",""
"fullscreen","1","4379","0.0-1.0","1054","false","img/card_backs/set1/yellow.gif","img/card_backs/set1/purple.gif","img/card_backs/set1/red.gif","img/card_backs/set1/green.gif","img/card_backs/set2/orange.gif","img/card_backs/set2/gray.gif","img/card_backs/set2/blue.gif","img/card_backs/set2/pink.gif","""event"",""trial"",""time""
""fullscreenenter"",""1"",""3394""
","
","
","""event"",""trial"",""time""
""fullscreenenter"",""1"",""3394""
","
","true","","","","","","","","","","","",""
"audio-keyboard-response","2","8519","0.0-2.0","1054","false","img/card_backs/set1/yellow.gif","img/card_backs/set1/purple.gif","img/card_backs/set1/red.gif","img/card_backs/set1/green.gif","img/card_backs/set2/orange.gif","img/card_backs/set2/gray.gif","img/card_backs/set2/blue.gif","img/card_backs/set2/pink.gif","""event"",""trial"",""time""
""fullscreenenter"",""1"",""3394""
","
","
","""event"",""trial"",""time""
""fullscreenenter"",""1"",""3394""
","
","","4139","audio/beep_loop.wav","32","","","","","","","","",""
"audio-button-response","3","13827","0.0-3.0","1054","false","img/card_backs/set1/yellow.gif","img/card_backs/set1/purple.gif","img/card_backs/set1/red.gif","img/card_backs/set1/green.gif","img/card_backs/set2/orange.gif","img/card_backs/set2/gray.gif","img/card_backs/set2/blue.gif","img/card_backs/set2/pink.gif","""event"",""trial"",""time""
""fullscreenenter"",""1"",""3394""
","
","
","""event"",""trial"",""time""
""fullscreenenter"",""1"",""3394""
","
","","NaN","audio/turtle.mp3","","3","","","","","","","",""
"audio-button-response","4","16671","0.0-4.0","1054","false","img/card_backs/set1/yellow.gif","img/card_backs/set1/purple.gif","img/card_backs/set1/red.gif","img/card_backs/set1/green.gif","img/card_backs/set2/orange.gif","img/card_backs/set2/gray.gif","img/card_backs/set2/blue.gif","img/card_backs/set2/pink.gif","""event"",""trial"",""time""
""fullscreenenter"",""1"",""3394""
","
","
","""event"",""trial"",""time""
""fullscreenenter"",""1"",""3394""
","
","","NaN","audio/shark.mp3","","2","","","","","","","",""
"fullscreen","5","20766","0.0-5.0","1054","false","img/card_backs/set1/yellow.gif","img/card_backs/set1/purple.gif","img/card_backs/set1/red.gif","img/card_backs/set1/green.gif","img/card_backs/set2/orange.gif","img/card_backs/set2/gray.gif","img/card_backs/set2/blue.gif","img/card_backs/set2/pink.gif","""event"",""trial"",""time""
""fullscreenenter"",""1"",""3394""
","
","
","""event"",""trial"",""time""
""fullscreenenter"",""1"",""3394""
","
","true","","","","","","","","","","","",""
"casino-keyboard-response","6","23987","0.0-6.0-0.0","1054","false","img/card_backs/set1/yellow.gif","img/card_backs/set1/purple.gif","img/card_backs/set1/red.gif","img/card_backs/set1/green.gif","img/card_backs/set2/orange.gif","img/card_backs/set2/gray.gif","img/card_backs/set2/blue.gif","img/card_backs/set2/pink.gif","""event"",""trial"",""time""
""fullscreenenter"",""1"",""3394""
","
","
","""event"",""trial"",""time""
""fullscreenenter"",""1"",""3394""
","
","","3213.29999999993","Welcome to the casino!","71","","instructions","2021-08-04 19:03:18.146","","","","","",""
"casino-keyboard-response","7","33697","0.0-6.0-0.1","1054","false","img/card_backs/set1/yellow.gif","img/card_backs/set1/purple.gif","img/card_backs/set1/red.gif","img/card_backs/set1/green.gif","img/card_backs/set2/orange.gif","img/card_backs/set2/gray.gif","img/card_backs/set2/blue.gif","img/card_backs/set2/pink.gif","""event"",""trial"",""time""
""fullscreenenter"",""1"",""3394""
","
","
","""event"",""trial"",""time""
""fullscreenenter"",""1"",""3394""
","
","","9706.399999999907","Today you will be playing a game to earn tokens. </br> At the end of the experiment, you will be paid a bonus based on how many tokens you win. ","69","","instructions","2021-08-04 19:03:27.856","","","","","",""
"casino-keyboard-response","8","41801","0.0-6.0-0.2","1054","false","img/card_backs/set1/yellow.gif","img/card_backs/set1/purple.gif","img/card_backs/set1/red.gif","img/card_backs/set1/green.gif","img/card_backs/set2/orange.gif","img/card_backs/set2/gray.gif","img/card_backs/set2/blue.gif","img/card_backs/set2/pink.gif","""event"",""trial"",""time""
""fullscreenenter"",""1"",""3394""
","
","
","""event"",""trial"",""time""
""fullscreenenter"",""1"",""3394""
","
","","8099","On every turn, you will be shown four different decks of cards. </br> You need to select a card from one of the four decks.  ","75","","instructions","2021-08-04 19:03:35.959","","","","","",""
"casino-keyboard-response","9","46370","0.0-6.0-0.3","1054","false","img/card_backs/set1/yellow.gif","img/card_backs/set1/purple.gif","img/card_backs/set1/red.gif","img/card_backs/set1/green.gif","img/card_backs/set2/orange.gif","img/card_backs/set2/gray.gif","img/card_backs/set2/blue.gif","img/card_backs/set2/pink.gif","""event"",""trial"",""time""
""fullscreenenter"",""1"",""3394""
","
","
","""event"",""trial"",""time""
""fullscreenenter"",""1"",""3394""
","
","","4565.099999999977","On the next screen, you will see what the decks will look like. ","66","","instructions","2021-08-04 19:03:40.528","","","","","",""
"card-selection-trial","10","50379","0.0-7.0-0.0","1054","false","img/card_backs/set1/yellow.gif","img/card_backs/set1/purple.gif","img/card_backs/set1/red.gif","img/card_backs/set1/green.gif","img/card_backs/set2/orange.gif","img/card_backs/set2/gray.gif","img/card_backs/set2/blue.gif","img/card_backs/set2/pink.gif","""event"",""trial"",""time""
""fullscreenenter"",""1"",""3394""
","
","
","""event"",""trial"",""time""
""fullscreenenter"",""1"",""3394""
","
","","null","","","","practice","2021-08-04 19:03:44.537","null","null","null","0","",""
"casino-keyboard-response","11","58804","0.0-8.0-0.0","1054","false","img/card_backs/set1/yellow.gif","img/card_backs/set1/purple.gif","img/card_backs/set1/red.gif","img/card_backs/set1/green.gif","img/card_backs/set2/orange.gif","img/card_backs/set2/gray.gif","img/card_backs/set2/blue.gif","img/card_backs/set2/pink.gif","""event"",""trial"",""time""
""fullscreenenter"",""1"",""3394""
","
","
","""event"",""trial"",""time""
""fullscreenenter"",""1"",""3394""
","
","","8420.800000000047","You should pick a card from a deck using the '2', '4', '6', and '8' keys at the top of the keyboard.","85","","instructions","2021-08-04 19:03:52.962","","","","","",""
"casino-keyboard-response","12","64635","0.0-8.0-0.1","1054","false","img/card_backs/set1/yellow.gif","img/card_backs/set1/purple.gif","img/card_backs/set1/red.gif","img/card_backs/set1/green.gif","img/card_backs/set2/orange.gif","img/card_backs/set2/gray.gif","img/card_backs/set2/blue.gif","img/card_backs/set2/pink.gif","""event"",""trial"",""time""
""fullscreenenter"",""1"",""3394""
","
","
","""event"",""trial"",""time""
""fullscreenenter"",""1"",""3394""
","
","","5827.099999999977","Once you select a card, it will turn over and you will see how many tokens you earned.","83","","instructions","2021-08-04 19:03:58.793","","","","","",""
"casino-keyboard-response","13","79702","0.0-8.0-0.2","1054","false","img/card_backs/set1/yellow.gif","img/card_backs/set1/purple.gif","img/card_backs/set1/red.gif","img/card_backs/set1/green.gif","img/card_backs/set2/orange.gif","img/card_backs/set2/gray.gif","img/card_backs/set2/blue.gif","img/card_backs/set2/pink.gif","""event"",""trial"",""time""
""fullscreenenter"",""1"",""3394""
","
","
","""event"",""trial"",""time""
""fullscreenenter"",""1"",""3394""
","
","","15063.099999999977","Let's try practicing that! </br> First, try to put your fingers over the '2', '4', '6', and '8' keys. </br>  You can use whatever fingers are most comfortable for you. Try to find a comfortable position now. ","50","","instructions","2021-08-04 19:04:13.860","","","","","",""
"casino-keyboard-response","14","85484","0.0-8.0-0.3","1054","false","img/card_backs/set1/yellow.gif","img/card_backs/set1/purple.gif","img/card_backs/set1/red.gif","img/card_backs/set1/green.gif","img/card_backs/set2/orange.gif","img/card_backs/set2/gray.gif","img/card_backs/set2/blue.gif","img/card_backs/set2/pink.gif","""event"",""trial"",""time""
""fullscreenenter"",""1"",""3394""
","
","
","""event"",""trial"",""time""
""fullscreenenter"",""1"",""3394""
","
","","5777.400000000023","Okay ready? </br> On the next screen, press '2' to select the left deck. ","50","","instructions","2021-08-04 19:04:19.642","","","","","",""
"card-selection-trial","15","88435","0.0-9.0-0.0","1054","false","img/card_backs/set1/yellow.gif","img/card_backs/set1/purple.gif","img/card_backs/set1/red.gif","img/card_backs/set1/green.gif","img/card_backs/set2/orange.gif","img/card_backs/set2/gray.gif","img/card_backs/set2/blue.gif","img/card_backs/set2/pink.gif","""event"",""trial"",""time""
""fullscreenenter"",""1"",""3394""
","
","
","""event"",""trial"",""time""
""fullscreenenter"",""1"",""3394""
","
","","903.1999999999534","","","","practice_card_selection","2021-08-04 19:04:22.593","img/practice_cards/backs/brown.gif","0","100","","",""
"casino-keyboard-response","16","94325","0.0-10.0-0.0","1054","false","img/card_backs/set1/yellow.gif","img/card_backs/set1/purple.gif","img/card_backs/set1/red.gif","img/card_backs/set1/green.gif","img/card_backs/set2/orange.gif","img/card_backs/set2/gray.gif","img/card_backs/set2/blue.gif","img/card_backs/set2/pink.gif","""event"",""trial"",""time""
""fullscreenenter"",""1"",""3394""
","
","
","""event"",""trial"",""time""
""fullscreenenter"",""1"",""3394""
","
","","5886","Great! Now on the next screen, try pressing '6' to select the third deck.","54","","instructions","2021-08-04 19:04:28.484","","","","","",""
"card-selection-trial","17","96964","0.0-11.0-0.0","1054","false","img/card_backs/set1/yellow.gif","img/card_backs/set1/purple.gif","img/card_backs/set1/red.gif","img/card_backs/set1/green.gif","img/card_backs/set2/orange.gif","img/card_backs/set2/gray.gif","img/card_backs/set2/blue.gif","img/card_backs/set2/pink.gif","""event"",""trial"",""time""
""fullscreenenter"",""1"",""3394""
","
","
","""event"",""trial"",""time""
""fullscreenenter"",""1"",""3394""
","
","","625.6999999999534","","","","practice_card_selection","2021-08-04 19:04:31.122","img/practice_cards/backs/dark_green.gif","2","-200","","",""
"casino-keyboard-response","18","101724","0.0-12.0-0.0","1054","false","img/card_backs/set1/yellow.gif","img/card_backs/set1/purple.gif","img/card_backs/set1/red.gif","img/card_backs/set1/green.gif","img/card_backs/set2/orange.gif","img/card_backs/set2/gray.gif","img/card_backs/set2/blue.gif","img/card_backs/set2/pink.gif","""event"",""trial"",""time""
""fullscreenenter"",""1"",""3394""
","
","
","""event"",""trial"",""time""
""fullscreenenter"",""1"",""3394""
","
","","4757.900000000023","Now on the next screen, try pressing '4' to select the second deck.","52","","instructions","2021-08-04 19:04:35.882","","","","","",""
"card-selection-trial","19","104182","0.0-13.0-0.0","1054","false","img/card_backs/set1/yellow.gif","img/card_backs/set1/purple.gif","img/card_backs/set1/red.gif","img/card_backs/set1/green.gif","img/card_backs/set2/orange.gif","img/card_backs/set2/gray.gif","img/card_backs/set2/blue.gif","img/card_backs/set2/pink.gif","""event"",""trial"",""time""
""fullscreenenter"",""1"",""3394""
","
","
","""event"",""trial"",""time""
""fullscreenenter"",""1"",""3394""
","
","","447","","","","practice_card_selection","2021-08-04 19:04:38.341","img/practice_cards/backs/dark_blue.gif","1","-200","","",""
"casino-keyboard-response","20","108642","0.0-14.0-0.0","1054","false","img/card_backs/set1/yellow.gif","img/card_backs/set1/purple.gif","img/card_backs/set1/red.gif","img/card_backs/set1/green.gif","img/card_backs/set2/orange.gif","img/card_backs/set2/gray.gif","img/card_backs/set2/blue.gif","img/card_backs/set2/pink.gif","""event"",""trial"",""time""
""fullscreenenter"",""1"",""3394""
","
","
","""event"",""trial"",""time""
""fullscreenenter"",""1"",""3394""
","
","","4456.599999999977","Finally, try pressing '8' to select the deck all the way on the right.","56","","instructions","2021-08-04 19:04:42.800","","","","","",""
"card-selection-trial","21","111040","0.0-15.0-0.0","1054","false","img/card_backs/set1/yellow.gif","img/card_backs/set1/purple.gif","img/card_backs/set1/red.gif","img/card_backs/set1/green.gif","img/card_backs/set2/orange.gif","img/card_backs/set2/gray.gif","img/card_backs/set2/blue.gif","img/card_backs/set2/pink.gif","""event"",""trial"",""time""
""fullscreenenter"",""1"",""3394""
","
","
","""event"",""trial"",""time""
""fullscreenenter"",""1"",""3394""
","
","","390.30000000004657","","","","practice_card_selection","2021-08-04 19:04:45.198","img/practice_cards/backs/dark_blue.gif","3","-200","","",""
"casino-keyboard-response","22","114734","0.0-16.0-0.0","1054","false","img/card_backs/set1/yellow.gif","img/card_backs/set1/purple.gif","img/card_backs/set1/red.gif","img/card_backs/set1/green.gif","img/card_backs/set2/orange.gif","img/card_backs/set2/gray.gif","img/card_backs/set2/blue.gif","img/card_backs/set2/pink.gif","""event"",""trial"",""time""
""fullscreenenter"",""1"",""3394""
","
","
","""event"",""trial"",""time""
""fullscreenenter"",""1"",""3394""
","
","","3690","Great! It seems like you are getting the hang of this.","80","","instructions","2021-08-04 19:04:48.892","","","","","",""
"casino-keyboard-response","23","122203","0.0-16.0-0.1","1054","false","img/card_backs/set1/yellow.gif","img/card_backs/set1/purple.gif","img/card_backs/set1/red.gif","img/card_backs/set1/green.gif","img/card_backs/set2/orange.gif","img/card_backs/set2/gray.gif","img/card_backs/set2/blue.gif","img/card_backs/set2/pink.gif","""event"",""trial"",""time""
""fullscreenenter"",""1"",""3394""
","
","
","""event"",""trial"",""time""
""fullscreenenter"",""1"",""3394""
","
","","7465.099999999977","You may have noticed that some cards will cause you to <b> win </b> tokens while other cards will cause you to <b> lose </b>  tokens.","70","","instructions","2021-08-04 19:04:56.361","","","","","",""
"casino-keyboard-response","24","136676","0.0-16.0-0.2","1054","false","img/card_backs/set1/yellow.gif","img/card_backs/set1/purple.gif","img/card_backs/set1/red.gif","img/card_backs/set1/green.gif","img/card_backs/set2/orange.gif","img/card_backs/set2/gray.gif","img/card_backs/set2/blue.gif","img/card_backs/set2/pink.gif","""event"",""trial"",""time""
""fullscreenenter"",""1"",""3394""
","
","
","""event"",""trial"",""time""
""fullscreenenter"",""1"",""3394""
","
","","14469.900000000023","Each deck has a mix of cards that will cause you to win and lose tokens. </br> However, the cards in each colored deck are different.","73","","instructions","2021-08-04 19:05:10.834","","","","","",""
"casino-keyboard-response","25","147140","0.0-16.0-0.3","1054","false","img/card_backs/set1/yellow.gif","img/card_backs/set1/purple.gif","img/card_backs/set1/red.gif","img/card_backs/set1/green.gif","img/card_backs/set2/orange.gif","img/card_backs/set2/gray.gif","img/card_backs/set2/blue.gif","img/card_backs/set2/pink.gif","""event"",""trial"",""time""
""fullscreenenter"",""1"",""3394""
","
","
","""event"",""trial"",""time""
""fullscreenenter"",""1"",""3394""
","
","","10459.29999999993","Some colored decks are luckier than others. </br> If you choose the lucky decks, you will earn more tokens than if you choose the unlucky decks.","69","","instructions","2021-08-04 19:05:21.298","","","","","",""
"casino-keyboard-response","26","155252","0.0-16.0-0.4","1054","false","img/card_backs/set1/yellow.gif","img/card_backs/set1/purple.gif","img/card_backs/set1/red.gif","img/card_backs/set1/green.gif","img/card_backs/set2/orange.gif","img/card_backs/set2/gray.gif","img/card_backs/set2/blue.gif","img/card_backs/set2/pink.gif","""event"",""trial"",""time""
""fullscreenenter"",""1"",""3394""
","
","
","""event"",""trial"",""time""
""fullscreenenter"",""1"",""3394""
","
","","8107","You should try to figure out which decks are lucky. </br> Then, try to choose the lucky decks so you can win the most tokens.","87","","instructions","2021-08-04 19:05:29.410","","","","","",""
"casino-keyboard-response","27","183093","0.0-16.0-0.5","1054","false","img/card_backs/set1/yellow.gif","img/card_backs/set1/purple.gif","img/card_backs/set1/red.gif","img/card_backs/set1/green.gif","img/card_backs/set2/orange.gif","img/card_backs/set2/gray.gif","img/card_backs/set2/blue.gif","img/card_backs/set2/pink.gif","""event"",""trial"",""time""
""fullscreenenter"",""1"",""3394""
","
","
","""event"",""trial"",""time""
""fullscreenenter"",""1"",""3394""
","
","","27837","To make it trickier, the casino dealer will switch the locations of the decks on every turn. </br> The color of the deck determines how lucky it is. The location does not matter.","88","","instructions","2021-08-04 19:05:57.251","","","","","",""
"casino-keyboard-response","28","207120","0.0-16.0-0.6","1054","false","img/card_backs/set1/yellow.gif","img/card_backs/set1/purple.gif","img/card_backs/set1/red.gif","img/card_backs/set1/green.gif","img/card_backs/set2/orange.gif","img/card_backs/set2/gray.gif","img/card_backs/set2/blue.gif","img/card_backs/set2/pink.gif","""event"",""trial"",""time""
""fullscreenenter"",""1"",""3394""
","
","
","""event"",""trial"",""time""
""fullscreenenter"",""1"",""3394""
","
","","24022.29999999993","The mix of cards in each colored deck will stay the same throughout the game. </br> That means that a deck that is lucky early on will stay lucky.","79","","instructions","2021-08-04 19:06:21.278","","","","","",""
"casino-keyboard-response","29","216936","0.0-16.0-0.7","1054","false","img/card_backs/set1/yellow.gif","img/card_backs/set1/purple.gif","img/card_backs/set1/red.gif","img/card_backs/set1/green.gif","img/card_backs/set2/orange.gif","img/card_backs/set2/gray.gif","img/card_backs/set2/blue.gif","img/card_backs/set2/pink.gif","""event"",""trial"",""time""
""fullscreenenter"",""1"",""3394""
","
","
","""event"",""trial"",""time""
""fullscreenenter"",""1"",""3394""
","
","","9812.400000000023","Remember though, all the decks have a <b> mix </b> of both <b> good </b> and <b> bad </b> cards so it may take a couple of turns to figure out if a deck is lucky.","69","","instructions","2021-08-04 19:06:31.094","","","","","",""
"casino-keyboard-response","30","226183","0.0-16.0-0.8","1054","false","img/card_backs/set1/yellow.gif","img/card_backs/set1/purple.gif","img/card_backs/set1/red.gif","img/card_backs/set1/green.gif","img/card_backs/set2/orange.gif","img/card_backs/set2/gray.gif","img/card_backs/set2/blue.gif","img/card_backs/set2/pink.gif","""event"",""trial"",""time""
""fullscreenenter"",""1"",""3394""
","
","
","""event"",""trial"",""time""
""fullscreenenter"",""1"",""3394""
","
","","9242.599999999977","At the end of the game, you will be paid bonus money based on how many tokens you win. </br> If you win more tokens, you will earn more money!","72","","instructions","2021-08-04 19:06:40.341","","","","","",""
"casino-keyboard-response","31","238257","0.0-16.0-0.9","1054","false","img/card_backs/set1/yellow.gif","img/card_backs/set1/purple.gif","img/card_backs/set1/red.gif","img/card_backs/set1/green.gif","img/card_backs/set2/orange.gif","img/card_backs/set2/gray.gif","img/card_backs/set2/blue.gif","img/card_backs/set2/pink.gif","""event"",""trial"",""time""
""fullscreenenter"",""1"",""3394""
","
","
","""event"",""trial"",""time""
""fullscreenenter"",""1"",""3394""
","
","","12070.400000000023","You will never <b> lose </b> money. </br> If you end up with fewer than 0 tokens, you will earn $0 of bonus money, but you will still be paid for playing the game.","83","","instructions","2021-08-04 19:06:52.415","","","","","",""
"casino-keyboard-response","32","283385","0.0-16.0-0.10","1054","false","img/card_backs/set1/yellow.gif","img/card_backs/set1/purple.gif","img/card_backs/set1/red.gif","img/card_backs/set1/green.gif","img/card_backs/set2/orange.gif","img/card_backs/set2/gray.gif","img/card_backs/set2/blue.gif","img/card_backs/set2/pink.gif","""event"",""trial"",""time""
""fullscreenenter"",""1"",""3394""
","
","
","""event"",""trial"",""time""
""fullscreenenter"",""1"",""3394""
","
","","45124.29999999993","You will have 10 seconds to make each choice.","82","","instructions","2021-08-04 19:07:37.543","","","","","",""
"casino-keyboard-response","33","292350","0.0-16.0-0.11","1054","false","img/card_backs/set1/yellow.gif","img/card_backs/set1/purple.gif","img/card_backs/set1/red.gif","img/card_backs/set1/green.gif","img/card_backs/set2/orange.gif","img/card_backs/set2/gray.gif","img/card_backs/set2/blue.gif","img/card_backs/set2/pink.gif","""event"",""trial"",""time""
""fullscreenenter"",""1"",""3394""
","
","
","""event"",""trial"",""time""
""fullscreenenter"",""1"",""3394""
","
","","8960","Before you play the game for real, you will play with practice decks. </br> The tokens you earn during practice won't count toward your total.","86","","instructions","2021-08-04 19:07:46.508","","","","","",""
"casino-keyboard-response","34","303994","0.0-16.0-0.12","1054","false","img/card_backs/set1/yellow.gif","img/card_backs/set1/purple.gif","img/card_backs/set1/red.gif","img/card_backs/set1/green.gif","img/card_backs/set2/orange.gif","img/card_backs/set2/gray.gif","img/card_backs/set2/blue.gif","img/card_backs/set2/pink.gif","""event"",""trial"",""time""
""fullscreenenter"",""1"",""3394""
","
","
","""event"",""trial"",""time""
""fullscreenenter"",""1"",""3394""
","
","","11640.599999999977","Ready? Remember, use the '2', '4', '6', and '8' keys to select the decks. </br> Put your fingers on those keys now and then press '2' to begin.","50","","instructions","2021-08-04 19:07:58.153","","","","","",""
"casino-fixation","35","304499","0.0-17.0-0.0","1054","false","img/card_backs/set1/yellow.gif","img/card_backs/set1/purple.gif","img/card_backs/set1/red.gif","img/card_backs/set1/green.gif","img/card_backs/set2/orange.gif","img/card_backs/set2/gray.gif","img/card_backs/set2/blue.gif","img/card_backs/set2/pink.gif","""event"",""trial"",""time""
""fullscreenenter"",""1"",""3394""
","
","
","""event"",""trial"",""time""
""fullscreenenter"",""1"",""3394""
","
","","null","","null","","fixation","2021-08-04 19:07:58.657","","","","","",""
"card-selection-trial","36","311232","0.0-17.0-1.0","1054","false","img/card_backs/set1/yellow.gif","img/card_backs/set1/purple.gif","img/card_backs/set1/red.gif","img/card_backs/set1/green.gif","img/card_backs/set2/orange.gif","img/card_backs/set2/gray.gif","img/card_backs/set2/blue.gif","img/card_backs/set2/pink.gif","""event"",""trial"",""time""
""fullscreenenter"",""1"",""3394""
","
","
","""event"",""trial"",""time""
""fullscreenenter"",""1"",""3394""
","
","","4720.699999999953","","","","practice","2021-08-04 19:08:05.390","img/practice_cards/backs/dark_green.gif","0","200","0","",""
"casino-fixation","37","311734","0.0-17.0-0.1","1054","false","img/card_backs/set1/yellow.gif","img/card_backs/set1/purple.gif","img/card_backs/set1/red.gif","img/card_backs/set1/green.gif","img/card_backs/set2/orange.gif","img/card_backs/set2/gray.gif","img/card_backs/set2/blue.gif","img/card_backs/set2/pink.gif","""event"",""trial"",""time""
""fullscreenenter"",""1"",""3394""
","
","
","""event"",""trial"",""time""
""fullscreenenter"",""1"",""3394""
","
","","null","","null","","fixation","2021-08-04 19:08:05.892","","","","","",""
"card-selection-trial","38","317073","0.0-17.0-1.1","1054","false","img/card_backs/set1/yellow.gif","img/card_backs/set1/purple.gif","img/card_backs/set1/red.gif","img/card_backs/set1/green.gif","img/card_backs/set2/orange.gif","img/card_backs/set2/gray.gif","img/card_backs/set2/blue.gif","img/card_backs/set2/pink.gif","""event"",""trial"",""time""
""fullscreenenter"",""1"",""3394""
","
","
","""event"",""trial"",""time""
""fullscreenenter"",""1"",""3394""
","
","","3327.1999999999534","","","","practice","2021-08-04 19:08:11.231","img/practice_cards/backs/black.gif","3","100","0","",""
"casino-fixation","39","317576","0.0-17.0-0.2","1054","false","img/card_backs/set1/yellow.gif","img/card_backs/set1/purple.gif","img/card_backs/set1/red.gif","img/card_backs/set1/green.gif","img/card_backs/set2/orange.gif","img/card_backs/set2/gray.gif","img/card_backs/set2/blue.gif","img/card_backs/set2/pink.gif","""event"",""trial"",""time""
""fullscreenenter"",""1"",""3394""
","
","
","""event"",""trial"",""time""
""fullscreenenter"",""1"",""3394""
","
","","null","","null","","fixation","2021-08-04 19:08:11.734","","","","","",""
"card-selection-trial","40","320625","0.0-17.0-1.2","1054","false","img/card_backs/set1/yellow.gif","img/card_backs/set1/purple.gif","img/card_backs/set1/red.gif","img/card_backs/set1/green.gif","img/card_backs/set2/orange.gif","img/card_backs/set2/gray.gif","img/card_backs/set2/blue.gif","img/card_backs/set2/pink.gif","""event"",""trial"",""time""
""fullscreenenter"",""1"",""3394""
","
","
","""event"",""trial"",""time""
""fullscreenenter"",""1"",""3394""
","
","","1038.4000000000233","","","","practice","2021-08-04 19:08:14.783","img/practice_cards/backs/brown.gif","1","100","0","",""
"casino-fixation","41","321129","0.0-17.0-0.3","1054","false","img/card_backs/set1/yellow.gif","img/card_backs/set1/purple.gif","img/card_backs/set1/red.gif","img/card_backs/set1/green.gif","img/card_backs/set2/orange.gif","img/card_backs/set2/gray.gif","img/card_backs/set2/blue.gif","img/card_backs/set2/pink.gif","""event"",""trial"",""time""
""fullscreenenter"",""1"",""3394""
","
","
","""event"",""trial"",""time""
""fullscreenenter"",""1"",""3394""
","
","","null","","null","","fixation","2021-08-04 19:08:15.287","","","","","",""
"card-selection-trial","42","323878","0.0-17.0-1.3","1054","false","img/card_backs/set1/yellow.gif","img/card_backs/set1/purple.gif","img/card_backs/set1/red.gif","img/card_backs/set1/green.gif","img/card_backs/set2/orange.gif","img/card_backs/set2/gray.gif","img/card_backs/set2/blue.gif","img/card_backs/set2/pink.gif","""event"",""trial"",""time""
""fullscreenenter"",""1"",""3394""
","
","
","""event"",""trial"",""time""
""fullscreenenter"",""1"",""3394""
","
","","739.0999999999767","","","","practice","2021-08-04 19:08:18.036","img/practice_cards/backs/black.gif","2","-100","0","",""
"casino-fixation","43","324380","0.0-17.0-0.4","1054","false","img/card_backs/set1/yellow.gif","img/card_backs/set1/purple.gif","img/card_backs/set1/red.gif","img/card_backs/set1/green.gif","img/card_backs/set2/orange.gif","img/card_backs/set2/gray.gif","img/card_backs/set2/blue.gif","img/card_backs/set2/pink.gif","""event"",""trial"",""time""
""fullscreenenter"",""1"",""3394""
","
","
","""event"",""trial"",""time""
""fullscreenenter"",""1"",""3394""
","
","","null","","null","","fixation","2021-08-04 19:08:18.538","","","","","",""
"card-selection-trial","44","327517","0.0-17.0-1.4","1054","false","img/card_backs/set1/yellow.gif","img/card_backs/set1/purple.gif","img/card_backs/set1/red.gif","img/card_backs/set1/green.gif","img/card_backs/set2/orange.gif","img/card_backs/set2/gray.gif","img/card_backs/set2/blue.gif","img/card_backs/set2/pink.gif","""event"",""trial"",""time""
""fullscreenenter"",""1"",""3394""
","
","
","""event"",""trial"",""time""
""fullscreenenter"",""1"",""3394""
","
","","1121.6000000000931","","","","practice","2021-08-04 19:08:21.675","img/practice_cards/backs/dark_blue.gif","0","200","0","",""
"casino-fixation","45","328020","0.0-17.0-0.5","1054","false","img/card_backs/set1/yellow.gif","img/card_backs/set1/purple.gif","img/card_backs/set1/red.gif","img/card_backs/set1/green.gif","img/card_backs/set2/orange.gif","img/card_backs/set2/gray.gif","img/card_backs/set2/blue.gif","img/card_backs/set2/pink.gif","""event"",""trial"",""time""
""fullscreenenter"",""1"",""3394""
","
","
","""event"",""trial"",""time""
""fullscreenenter"",""1"",""3394""
","
","","null","","null","","fixation","2021-08-04 19:08:22.178","","","","","",""
"card-selection-trial","46","331780","0.0-17.0-1.5","1054","false","img/card_backs/set1/yellow.gif","img/card_backs/set1/purple.gif","img/card_backs/set1/red.gif","img/card_backs/set1/green.gif","img/card_backs/set2/orange.gif","img/card_backs/set2/gray.gif","img/card_backs/set2/blue.gif","img/card_backs/set2/pink.gif","""event"",""trial"",""time""
""fullscreenenter"",""1"",""3394""
","
","
","""event"",""trial"",""time""
""fullscreenenter"",""1"",""3394""
","
","","1749.1000000000931","","","","practice","2021-08-04 19:08:25.938","img/practice_cards/backs/dark_blue.gif","1","200","0","",""
"casino-fixation","47","332282","0.0-17.0-0.6","1054","false","img/card_backs/set1/yellow.gif","img/card_backs/set1/purple.gif","img/card_backs/set1/red.gif","img/card_backs/set1/green.gif","img/card_backs/set2/orange.gif","img/card_backs/set2/gray.gif","img/card_backs/set2/blue.gif","img/card_backs/set2/pink.gif","""event"",""trial"",""time""
""fullscreenenter"",""1"",""3394""
","
","
","""event"",""trial"",""time""
""fullscreenenter"",""1"",""3394""
","
","","null","","null","","fixation","2021-08-04 19:08:26.440","","","","","",""
"card-selection-trial","48","334876","0.0-17.0-1.6","1054","false","img/card_backs/set1/yellow.gif","img/card_backs/set1/purple.gif","img/card_backs/set1/red.gif","img/card_backs/set1/green.gif","img/card_backs/set2/orange.gif","img/card_backs/set2/gray.gif","img/card_backs/set2/blue.gif","img/card_backs/set2/pink.gif","""event"",""trial"",""time""
""fullscreenenter"",""1"",""3394""
","
","
","""event"",""trial"",""time""
""fullscreenenter"",""1"",""3394""
","
","","583.5999999999767","","","","practice","2021-08-04 19:08:29.035","img/practice_cards/backs/dark_blue.gif","1","-200","0","",""
"casino-fixation","49","335379","0.0-17.0-0.7","1054","false","img/card_backs/set1/yellow.gif","img/card_backs/set1/purple.gif","img/card_backs/set1/red.gif","img/card_backs/set1/green.gif","img/card_backs/set2/orange.gif","img/card_backs/set2/gray.gif","img/card_backs/set2/blue.gif","img/card_backs/set2/pink.gif","""event"",""trial"",""time""
""fullscreenenter"",""1"",""3394""
","
","
","""event"",""trial"",""time""
""fullscreenenter"",""1"",""3394""
","
","","null","","null","","fixation","2021-08-04 19:08:29.537","","","","","",""
"card-selection-trial","50","341342","0.0-17.0-1.7","1054","false","img/card_backs/set1/yellow.gif","img/card_backs/set1/purple.gif","img/card_backs/set1/red.gif","img/card_backs/set1/green.gif","img/card_backs/set2/orange.gif","img/card_backs/set2/gray.gif","img/card_backs/set2/blue.gif","img/card_backs/set2/pink.gif","""event"",""trial"",""time""
""fullscreenenter"",""1"",""3394""
","
","
","""event"",""trial"",""time""
""fullscreenenter"",""1"",""3394""
","
","","3951.5","","","","practice","2021-08-04 19:08:35.500","img/practice_cards/backs/dark_green.gif","2","200","0","",""
"casino-fixation","51","341846","0.0-17.0-0.8","1054","false","img/card_backs/set1/yellow.gif","img/card_backs/set1/purple.gif","img/card_backs/set1/red.gif","img/card_backs/set1/green.gif","img/card_backs/set2/orange.gif","img/card_backs/set2/gray.gif","img/card_backs/set2/blue.gif","img/card_backs/set2/pink.gif","""event"",""trial"",""time""
""fullscreenenter"",""1"",""3394""
","
","
","""event"",""trial"",""time""
""fullscreenenter"",""1"",""3394""
","
","","null","","null","","fixation","2021-08-04 19:08:36.004","","","","","",""
"card-selection-trial","52","346107","0.0-17.0-1.8","1054","false","img/card_backs/set1/yellow.gif","img/card_backs/set1/purple.gif","img/card_backs/set1/red.gif","img/card_backs/set1/green.gif","img/card_backs/set2/orange.gif","img/card_backs/set2/gray.gif","img/card_backs/set2/blue.gif","img/card_backs/set2/pink.gif","""event"",""trial"",""time""
""fullscreenenter"",""1"",""3394""
","
","
","""event"",""trial"",""time""
""fullscreenenter"",""1"",""3394""
","
","","2250.6999999999534","","","","practice","2021-08-04 19:08:40.265","img/practice_cards/backs/black.gif","1","100","0","",""
"casino-fixation","53","346611","0.0-17.0-0.9","1054","false","img/card_backs/set1/yellow.gif","img/card_backs/set1/purple.gif","img/card_backs/set1/red.gif","img/card_backs/set1/green.gif","img/card_backs/set2/orange.gif","img/card_backs/set2/gray.gif","img/card_backs/set2/blue.gif","img/card_backs/set2/pink.gif","""event"",""trial"",""time""
""fullscreenenter"",""1"",""3394""
","
","
","""event"",""trial"",""time""
""fullscreenenter"",""1"",""3394""
","
","","null","","null","","fixation","2021-08-04 19:08:40.769","","","","","",""
"card-selection-trial","54","352358","0.0-17.0-1.9","1054","false","img/card_backs/set1/yellow.gif","img/card_backs/set1/purple.gif","img/card_backs/set1/red.gif","img/card_backs/set1/green.gif","img/card_backs/set2/orange.gif","img/card_backs/set2/gray.gif","img/card_backs/set2/blue.gif","img/card_backs/set2/pink.gif","""event"",""trial"",""time""
""fullscreenenter"",""1"",""3394""
","
","
","""event"",""trial"",""time""
""fullscreenenter"",""1"",""3394""
","
","","3732.899999999907","","","","practice","2021-08-04 19:08:46.516","img/practice_cards/backs/black.gif","0","100","0","",""
"casino-keyboard-response","55","356792","0.0-18.0","1054","false","img/card_backs/set1/yellow.gif","img/card_backs/set1/purple.gif","img/card_backs/set1/red.gif","img/card_backs/set1/green.gif","img/card_backs/set2/orange.gif","img/card_backs/set2/gray.gif","img/card_backs/set2/blue.gif","img/card_backs/set2/pink.gif","""event"",""trial"",""time""
""fullscreenenter"",""1"",""3394""
","
","
","""event"",""trial"",""time""
""fullscreenenter"",""1"",""3394""
","
","","4431.199999999953","You earned 900 tokens during the practice round!","82","","","2021-08-04 19:08:50.950","","","","","",""
"casino-keyboard-response","56","361461","0.0-19.0-0.0","1054","false","img/card_backs/set1/yellow.gif","img/card_backs/set1/purple.gif","img/card_backs/set1/red.gif","img/card_backs/set1/green.gif","img/card_backs/set2/orange.gif","img/card_backs/set2/gray.gif","img/card_backs/set2/blue.gif","img/card_backs/set2/pink.gif","""event"",""trial"",""time""
""fullscreenenter"",""1"",""3394""
","
","
","""event"",""trial"",""time""
""fullscreenenter"",""1"",""3394""
","
","","4664.699999999953","Nice job! You are almost ready to play the real game.","86","","instructions","2021-08-04 19:08:55.619","","","","","",""
"casino-keyboard-response","57","369018","0.0-19.0-0.1","1054","false","img/card_backs/set1/yellow.gif","img/card_backs/set1/purple.gif","img/card_backs/set1/red.gif","img/card_backs/set1/green.gif","img/card_backs/set2/orange.gif","img/card_backs/set2/gray.gif","img/card_backs/set2/blue.gif","img/card_backs/set2/pink.gif","""event"",""trial"",""time""
""fullscreenenter"",""1"",""3394""
","
","
","""event"",""trial"",""time""
""fullscreenenter"",""1"",""3394""
","
","","7553.90000000014","You will play two rounds of the real game. In each round, you will pick 100 cards in total.","73","","instructions","2021-08-04 19:09:03.176","","","","","",""
"casino-keyboard-response","58","373348","0.0-19.0-0.2","1054","false","img/card_backs/set1/yellow.gif","img/card_backs/set1/purple.gif","img/card_backs/set1/red.gif","img/card_backs/set1/green.gif","img/card_backs/set2/orange.gif","img/card_backs/set2/gray.gif","img/card_backs/set2/blue.gif","img/card_backs/set2/pink.gif","""event"",""trial"",""time""
""fullscreenenter"",""1"",""3394""
","
","
","""event"",""trial"",""time""
""fullscreenenter"",""1"",""3394""
","
","","4325.09999999986","We are now going to ask you some questions about how the game works.","66","","instructions","2021-08-04 19:09:07.506","","","","","",""
"casino-keyboard-response","59","379651","0.0-19.0-0.3","1054","false","img/card_backs/set1/yellow.gif","img/card_backs/set1/purple.gif","img/card_backs/set1/red.gif","img/card_backs/set1/green.gif","img/card_backs/set2/orange.gif","img/card_backs/set2/gray.gif","img/card_backs/set2/blue.gif","img/card_backs/set2/pink.gif","""event"",""trial"",""time""
""fullscreenenter"",""1"",""3394""
","
","
","""event"",""trial"",""time""
""fullscreenenter"",""1"",""3394""
","
","","6299.300000000047","Answer carefully. You will not be able to begin the game until you answer them correctly.","67","","instructions","2021-08-04 19:09:13.809","","","","","",""
"casino-comp_q","60","389396","0.0-20.0-0.0","1054","false","img/card_backs/set1/yellow.gif","img/card_backs/set1/purple.gif","img/card_backs/set1/red.gif","img/card_backs/set1/green.gif","img/card_backs/set2/orange.gif","img/card_backs/set2/gray.gif","img/card_backs/set2/blue.gif","img/card_backs/set2/pink.gif","""event"",""trial"",""time""
""fullscreenenter"",""1"",""3394""
","
","
","""event"",""trial"",""time""
""fullscreenenter"",""1"",""3394""
","
","","9740.40000000014","True or False: All the decks have some cards that cause you to win tokens and some cards that cause you to lose tokens.","84","","","2021-08-04 19:09:23.556","","","","","",""
"casino-keyboard-response","61","392524","0.0-20.0-1.0","1054","false","img/card_backs/set1/yellow.gif","img/card_backs/set1/purple.gif","img/card_backs/set1/red.gif","img/card_backs/set1/green.gif","img/card_backs/set2/orange.gif","img/card_backs/set2/gray.gif","img/card_backs/set2/blue.gif","img/card_backs/set2/pink.gif","""event"",""trial"",""time""
""fullscreenenter"",""1"",""3394""
","
","
","""event"",""trial"",""time""
""fullscreenenter"",""1"",""3394""
","
","","3122.100000000093","True is correct! All the decks have a mix of winning and losing cards.","77","","","2021-08-04 19:09:26.682","","","","","true",""
"casino-comp_q","62","397329","0.0-21.0-0.0","1054","false","img/card_backs/set1/yellow.gif","img/card_backs/set1/purple.gif","img/card_backs/set1/red.gif","img/card_backs/set1/green.gif","img/card_backs/set2/orange.gif","img/card_backs/set2/gray.gif","img/card_backs/set2/blue.gif","img/card_backs/set2/pink.gif","""event"",""trial"",""time""
""fullscreenenter"",""1"",""3394""
","
","
","""event"",""trial"",""time""
""fullscreenenter"",""1"",""3394""
","
","","4802.799999999814","True or False: You will have as much time as you want to make your response.","70","","","2021-08-04 19:09:31.487","","","","","",""
"casino-keyboard-response","63","400979","0.0-21.0-1.0","1054","false","img/card_backs/set1/yellow.gif","img/card_backs/set1/purple.gif","img/card_backs/set1/red.gif","img/card_backs/set1/green.gif","img/card_backs/set2/orange.gif","img/card_backs/set2/gray.gif","img/card_backs/set2/blue.gif","img/card_backs/set2/pink.gif","""event"",""trial"",""time""
""fullscreenenter"",""1"",""3394""
","
","
","""event"",""trial"",""time""
""fullscreenenter"",""1"",""3394""
","
","","3642.6999999999534","False is correct! You will only have 10 seconds to make each choice.","75","","","2021-08-04 19:09:35.137","","","","","true",""
"casino-comp_q","64","404518","0.0-22.0-0.0","1054","false","img/card_backs/set1/yellow.gif","img/card_backs/set1/purple.gif","img/card_backs/set1/red.gif","img/card_backs/set1/green.gif","img/card_backs/set2/orange.gif","img/card_backs/set2/gray.gif","img/card_backs/set2/blue.gif","img/card_backs/set2/pink.gif","""event"",""trial"",""time""
""fullscreenenter"",""1"",""3394""
","
","
","""event"",""trial"",""time""
""fullscreenenter"",""1"",""3394""
","
","","3534.3000000000466","True or False: The location of the deck determines how lucky it is.","70","","","2021-08-04 19:09:38.676","","","","","",""
"casino-keyboard-response","65","410119","0.0-22.0-1.0","1054","false","img/card_backs/set1/yellow.gif","img/card_backs/set1/purple.gif","img/card_backs/set1/red.gif","img/card_backs/set1/green.gif","img/card_backs/set2/orange.gif","img/card_backs/set2/gray.gif","img/card_backs/set2/blue.gif","img/card_backs/set2/pink.gif","""event"",""trial"",""time""
""fullscreenenter"",""1"",""3394""
","
","
","""event"",""trial"",""time""
""fullscreenenter"",""1"",""3394""
","
","","5597.5","False is correct! The <i>color</i>  of the deck determines how lucky or unlucky it is.","68","","","2021-08-04 19:09:44.277","","","","","true",""
"casino-keyboard-response","66","415624","0.0-23.0-0.0","1054","false","img/card_backs/set1/yellow.gif","img/card_backs/set1/purple.gif","img/card_backs/set1/red.gif","img/card_backs/set1/green.gif","img/card_backs/set2/orange.gif","img/card_backs/set2/gray.gif","img/card_backs/set2/blue.gif","img/card_backs/set2/pink.gif","""event"",""trial"",""time""
""fullscreenenter"",""1"",""3394""
","
","
","""event"",""trial"",""time""
""fullscreenenter"",""1"",""3394""
","
","","5500.300000000047","Great job! Now it's time to start the real game.","82","","instructions","2021-08-04 19:09:49.782","","","","","",""
"casino-keyboard-response","67","421000","0.0-23.0-0.1","1054","false","img/card_backs/set1/yellow.gif","img/card_backs/set1/purple.gif","img/card_backs/set1/red.gif","img/card_backs/set1/green.gif","img/card_backs/set2/orange.gif","img/card_backs/set2/gray.gif","img/card_backs/set2/blue.gif","img/card_backs/set2/pink.gif","""event"",""trial"",""time""
""fullscreenenter"",""1"",""3394""
","
","
","""event"",""trial"",""time""
""fullscreenenter"",""1"",""3394""
","
","","5372.40000000014","Before we start, we're going to head into a new room of the casino.","86","","instructions","2021-08-04 19:09:55.158","","","","","",""
"casino-keyboard-response","68","430240","0.0-24.0-0.0","1054","false","img/card_backs/set1/yellow.gif","img/card_backs/set1/purple.gif","img/card_backs/set1/red.gif","img/card_backs/set1/green.gif","img/card_backs/set2/orange.gif","img/card_backs/set2/gray.gif","img/card_backs/set2/blue.gif","img/card_backs/set2/pink.gif","""event"",""trial"",""time""
""fullscreenenter"",""1"",""3394""
","
","
","""event"",""trial"",""time""
""fullscreenenter"",""1"",""3394""
","
","","9236.300000000047","Here we are! The real game will use different cards, but the rules will be the same.","71","","instructions","2021-08-04 19:10:04.398","","","","","",""
"casino-keyboard-response","69","439621","0.0-24.0-0.1","1054","false","img/card_backs/set1/yellow.gif","img/card_backs/set1/purple.gif","img/card_backs/set1/red.gif","img/card_backs/set1/green.gif","img/card_backs/set2/orange.gif","img/card_backs/set2/gray.gif","img/card_backs/set2/blue.gif","img/card_backs/set2/pink.gif","""event"",""trial"",""time""
""fullscreenenter"",""1"",""3394""
","
","
","""event"",""trial"",""time""
""fullscreenenter"",""1"",""3394""
","
","","9377.100000000093","Ready? Put your fingers over the '2', '4', 6', and '8' keys so you are ready to play the game. </br> Then press 2 to start.","50","","instructions","2021-08-04 19:10:13.779","","","","","",""
"casino-fixation","70","440125","0.0-25.0-0.0","1054","false","img/card_backs/set1/yellow.gif","img/card_backs/set1/purple.gif","img/card_backs/set1/red.gif","img/card_backs/set1/green.gif","img/card_backs/set2/orange.gif","img/card_backs/set2/gray.gif","img/card_backs/set2/blue.gif","img/card_backs/set2/pink.gif","""event"",""trial"",""time""
""fullscreenenter"",""1"",""3394""
","
","
","""event"",""trial"",""time""
""fullscreenenter"",""1"",""3394""
","
","","null","","null","","fixation","2021-08-04 19:10:14.283","","","","","",""
"card-selection-trial","71","443880","0.0-25.0-1.0","1054","false","img/card_backs/set1/yellow.gif","img/card_backs/set1/purple.gif","img/card_backs/set1/red.gif","img/card_backs/set1/green.gif","img/card_backs/set2/orange.gif","img/card_backs/set2/gray.gif","img/card_backs/set2/blue.gif","img/card_backs/set2/pink.gif","""event"",""trial"",""time""
""fullscreenenter"",""1"",""3394""
","
","
","""event"",""trial"",""time""
""fullscreenenter"",""1"",""3394""
","
","","1745.2000000001863","","","","real_trial","2021-08-04 19:10:18.038","img/card_backs/set1/purple.gif","1","-240","1","",""
"casino-fixation","72","444383","0.0-25.0-0.1","1054","false","img/card_backs/set1/yellow.gif","img/card_backs/set1/purple.gif","img/card_backs/set1/red.gif","img/card_backs/set1/green.gif","img/card_backs/set2/orange.gif","img/card_backs/set2/gray.gif","img/card_backs/set2/blue.gif","img/card_backs/set2/pink.gif","""event"",""trial"",""time""
""fullscreenenter"",""1"",""3394""
","
","
","""event"",""trial"",""time""
""fullscreenenter"",""1"",""3394""
","
","","null","","null","","fixation","2021-08-04 19:10:18.542","","","","","",""
"card-selection-trial","73","448646","0.0-25.0-1.1","1054","false","img/card_backs/set1/yellow.gif","img/card_backs/set1/purple.gif","img/card_backs/set1/red.gif","img/card_backs/set1/green.gif","img/card_backs/set2/orange.gif","img/card_backs/set2/gray.gif","img/card_backs/set2/blue.gif","img/card_backs/set2/pink.gif","""event"",""trial"",""time""
""fullscreenenter"",""1"",""3394""
","
","
","""event"",""trial"",""time""
""fullscreenenter"",""1"",""3394""
","
","","2252.1999999999534","","","","real_trial","2021-08-04 19:10:22.804","img/card_backs/set1/yellow.gif","2","180","1","",""
"casino-fixation","74","449149","0.0-25.0-0.2","1054","false","img/card_backs/set1/yellow.gif","img/card_backs/set1/purple.gif","img/card_backs/set1/red.gif","img/card_backs/set1/green.gif","img/card_backs/set2/orange.gif","img/card_backs/set2/gray.gif","img/card_backs/set2/blue.gif","img/card_backs/set2/pink.gif","""event"",""trial"",""time""
""fullscreenenter"",""1"",""3394""
","
","
","""event"",""trial"",""time""
""fullscreenenter"",""1"",""3394""
","
","","null","","null","","fixation","2021-08-04 19:10:23.308","","","","","",""
"card-selection-trial","75","453070","0.0-25.0-1.2","1054","false","img/card_backs/set1/yellow.gif","img/card_backs/set1/purple.gif","img/card_backs/set1/red.gif","img/card_backs/set1/green.gif","img/card_backs/set2/orange.gif","img/card_backs/set2/gray.gif","img/card_backs/set2/blue.gif","img/card_backs/set2/pink.gif","""event"",""trial"",""time""
""fullscreenenter"",""1"",""3394""
","
","
","""event"",""trial"",""time""
""fullscreenenter"",""1"",""3394""
","
","","1910.6999999999534","","","","real_trial","2021-08-04 19:10:27.229","img/card_backs/set1/green.gif","3","100","1","",""
"casino-fixation","76","453574","0.0-25.0-0.3","1054","false","img/card_backs/set1/yellow.gif","img/card_backs/set1/purple.gif","img/card_backs/set1/red.gif","img/card_backs/set1/green.gif","img/card_backs/set2/orange.gif","img/card_backs/set2/gray.gif","img/card_backs/set2/blue.gif","img/card_backs/set2/pink.gif","""event"",""trial"",""time""
""fullscreenenter"",""1"",""3394""
","
","
","""event"",""trial"",""time""
""fullscreenenter"",""1"",""3394""
","
","","null","","null","","fixation","2021-08-04 19:10:27.732","","","","","",""
"card-selection-trial","77","457079","0.0-25.0-1.3","1054","false","img/card_backs/set1/yellow.gif","img/card_backs/set1/purple.gif","img/card_backs/set1/red.gif","img/card_backs/set1/green.gif","img/card_backs/set2/orange.gif","img/card_backs/set2/gray.gif","img/card_backs/set2/blue.gif","img/card_backs/set2/pink.gif","""event"",""trial"",""time""
""fullscreenenter"",""1"",""3394""
","
","
","""event"",""trial"",""time""
""fullscreenenter"",""1"",""3394""
","
","","1494.2000000001863","","","","real_trial","2021-08-04 19:10:31.237","img/card_backs/set1/green.gif","0","100","1","",""
"casino-fixation","78","457582","0.0-25.0-0.4","1054","false","img/card_backs/set1/yellow.gif","img/card_backs/set1/purple.gif","img/card_backs/set1/red.gif","img/card_backs/set1/green.gif","img/card_backs/set2/orange.gif","img/card_backs/set2/gray.gif","img/card_backs/set2/blue.gif","img/card_backs/set2/pink.gif","""event"",""trial"",""time""
""fullscreenenter"",""1"",""3394""
","
","
","""event"",""trial"",""time""
""fullscreenenter"",""1"",""3394""
","
","","null","","null","","fixation","2021-08-04 19:10:31.740","","","","","",""
"card-selection-trial","79","463299","0.0-25.0-1.4","1054","false","img/card_backs/set1/yellow.gif","img/card_backs/set1/purple.gif","img/card_backs/set1/red.gif","img/card_backs/set1/green.gif","img/card_backs/set2/orange.gif","img/card_backs/set2/gray.gif","img/card_backs/set2/blue.gif","img/card_backs/set2/pink.gif","""event"",""trial"",""time""
""fullscreenenter"",""1"",""3394""
","
","
","""event"",""trial"",""time""
""fullscreenenter"",""1"",""3394""
","
","","3705","","","","real_trial","2021-08-04 19:10:37.457","img/card_backs/set1/green.gif","2","-60","1","",""
"casino-fixation","80","463803","0.0-25.0-0.5","1054","false","img/card_backs/set1/yellow.gif","img/card_backs/set1/purple.gif","img/card_backs/set1/red.gif","img/card_backs/set1/green.gif","img/card_backs/set2/orange.gif","img/card_backs/set2/gray.gif","img/card_backs/set2/blue.gif","img/card_backs/set2/pink.gif","""event"",""trial"",""time""
""fullscreenenter"",""1"",""3394""
","
","
","""event"",""trial"",""time""
""fullscreenenter"",""1"",""3394""
","
","","null","","null","","fixation","2021-08-04 19:10:37.962","","","","","",""
"card-selection-trial","81","466203","0.0-25.0-1.5","1054","false","img/card_backs/set1/yellow.gif","img/card_backs/set1/purple.gif","img/card_backs/set1/red.gif","img/card_backs/set1/green.gif","img/card_backs/set2/orange.gif","img/card_backs/set2/gray.gif","img/card_backs/set2/blue.gif","img/card_backs/set2/pink.gif","""event"",""trial"",""time""
""fullscreenenter"",""1"",""3394""
","
","
","""event"",""trial"",""time""
""fullscreenenter"",""1"",""3394""
","
","","387.89999999990687","","","","real_trial","2021-08-04 19:10:40.361","img/card_backs/set1/purple.gif","1","190","1","",""
"casino-fixation","82","466705","0.0-25.0-0.6","1054","false","img/card_backs/set1/yellow.gif","img/card_backs/set1/purple.gif","img/card_backs/set1/red.gif","img/card_backs/set1/green.gif","img/card_backs/set2/orange.gif","img/card_backs/set2/gray.gif","img/card_backs/set2/blue.gif","img/card_backs/set2/pink.gif","""event"",""trial"",""time""
""fullscreenenter"",""1"",""3394""
","
","
","""event"",""trial"",""time""
""fullscreenenter"",""1"",""3394""
","
","","null","","null","","fixation","2021-08-04 19:10:40.864","","","","","",""
"card-selection-trial","83","469477","0.0-25.0-1.6","1054","false","img/card_backs/set1/yellow.gif","img/card_backs/set1/purple.gif","img/card_backs/set1/red.gif","img/card_backs/set1/green.gif","img/card_backs/set2/orange.gif","img/card_backs/set2/gray.gif","img/card_backs/set2/blue.gif","img/card_backs/set2/pink.gif","""event"",""trial"",""time""
""fullscreenenter"",""1"",""3394""
","
","
","""event"",""trial"",""time""
""fullscreenenter"",""1"",""3394""
","
","","760.6999999999534","","","","real_trial","2021-08-04 19:10:43.635","img/card_backs/set1/green.gif","3","-70","1","",""
"casino-fixation","84","469979","0.0-25.0-0.7","1054","false","img/card_backs/set1/yellow.gif","img/card_backs/set1/purple.gif","img/card_backs/set1/red.gif","img/card_backs/set1/green.gif","img/card_backs/set2/orange.gif","img/card_backs/set2/gray.gif","img/card_backs/set2/blue.gif","img/card_backs/set2/pink.gif","""event"",""trial"",""time""
""fullscreenenter"",""1"",""3394""
","
","
","""event"",""trial"",""time""
""fullscreenenter"",""1"",""3394""
","
","","null","","null","","fixation","2021-08-04 19:10:44.137","","","","","",""
"card-selection-trial","85","472855","0.0-25.0-1.7","1054","false","img/card_backs/set1/yellow.gif","img/card_backs/set1/purple.gif","img/card_backs/set1/red.gif","img/card_backs/set1/green.gif","img/card_backs/set2/orange.gif","img/card_backs/set2/gray.gif","img/card_backs/set2/blue.gif","img/card_backs/set2/pink.gif","""event"",""trial"",""time""
""fullscreenenter"",""1"",""3394""
","
","
","""event"",""trial"",""time""
""fullscreenenter"",""1"",""3394""
","
","","864","","","","real_trial","2021-08-04 19:10:47.014","img/card_backs/set1/green.gif","0","100","1","",""
"casino-fixation","86","473358","0.0-25.0-0.8","1054","false","img/card_backs/set1/yellow.gif","img/card_backs/set1/purple.gif","img/card_backs/set1/red.gif","img/card_backs/set1/green.gif","img/card_backs/set2/orange.gif","img/card_backs/set2/gray.gif","img/card_backs/set2/blue.gif","img/card_backs/set2/pink.gif","""event"",""trial"",""time""
""fullscreenenter"",""1"",""3394""
","
","
","""event"",""trial"",""time""
""fullscreenenter"",""1"",""3394""
","
","","null","","null","","fixation","2021-08-04 19:10:47.517","","","","","",""
"card-selection-trial","87","477068","0.0-25.0-1.8","1054","false","img/card_backs/set1/yellow.gif","img/card_backs/set1/purple.gif","img/card_backs/set1/red.gif","img/card_backs/set1/green.gif","img/card_backs/set2/orange.gif","img/card_backs/set2/gray.gif","img/card_backs/set2/blue.gif","img/card_backs/set2/pink.gif","""event"",""trial"",""time""
""fullscreenenter"",""1"",""3394""
","
","
","""event"",""trial"",""time""
""fullscreenenter"",""1"",""3394""
","
","","1700","","","","real_trial","2021-08-04 19:10:51.227","img/card_backs/set1/purple.gif","2","-250","1","",""
"casino-fixation","88","477573","0.0-25.0-0.9","1054","false","img/card_backs/set1/yellow.gif","img/card_backs/set1/purple.gif","img/card_backs/set1/red.gif","img/card_backs/set1/green.gif","img/card_backs/set2/orange.gif","img/card_backs/set2/gray.gif","img/card_backs/set2/blue.gif","img/card_backs/set2/pink.gif","""event"",""trial"",""time""
""fullscreenenter"",""1"",""3394""
","
","
","""event"",""trial"",""time""
""fullscreenenter"",""1"",""3394""
","
","","null","","null","","fixation","2021-08-04 19:10:51.731","","","","","",""
"card-selection-trial","89","481682","0.0-25.0-1.9","1054","false","img/card_backs/set1/yellow.gif","img/card_backs/set1/purple.gif","img/card_backs/set1/red.gif","img/card_backs/set1/green.gif","img/card_backs/set2/orange.gif","img/card_backs/set2/gray.gif","img/card_backs/set2/blue.gif","img/card_backs/set2/pink.gif","""event"",""trial"",""time""
""fullscreenenter"",""1"",""3394""
","
","
","""event"",""trial"",""time""
""fullscreenenter"",""1"",""3394""
","
","","2098.3000000000466","","","","real_trial","2021-08-04 19:10:55.840","img/card_backs/set1/green.gif","1","100","1","",""
"casino-fixation","90","482185","0.0-25.0-0.10","1054","false","img/card_backs/set1/yellow.gif","img/card_backs/set1/purple.gif","img/card_backs/set1/red.gif","img/card_backs/set1/green.gif","img/card_backs/set2/orange.gif","img/card_backs/set2/gray.gif","img/card_backs/set2/blue.gif","img/card_backs/set2/pink.gif","""event"",""trial"",""time""
""fullscreenenter"",""1"",""3394""
","
","
","""event"",""trial"",""time""
""fullscreenenter"",""1"",""3394""
","
","","null","","null","","fixation","2021-08-04 19:10:56.343","","","","","",""
"card-selection-trial","91","485281","0.0-25.0-1.10","1054","false","img/card_backs/set1/yellow.gif","img/card_backs/set1/purple.gif","img/card_backs/set1/red.gif","img/card_backs/set1/green.gif","img/card_backs/set2/orange.gif","img/card_backs/set2/gray.gif","img/card_backs/set2/blue.gif","img/card_backs/set2/pink.gif","""event"",""trial"",""time""
""fullscreenenter"",""1"",""3394""
","
","
","""event"",""trial"",""time""
""fullscreenenter"",""1"",""3394""
","
","","1083.3000000000466","","","","real_trial","2021-08-04 19:10:59.439","img/card_backs/set1/green.gif","3","-50","1","",""
"casino-fixation","92","485784","0.0-25.0-0.11","1054","false","img/card_backs/set1/yellow.gif","img/card_backs/set1/purple.gif","img/card_backs/set1/red.gif","img/card_backs/set1/green.gif","img/card_backs/set2/orange.gif","img/card_backs/set2/gray.gif","img/card_backs/set2/blue.gif","img/card_backs/set2/pink.gif","""event"",""trial"",""time""
""fullscreenenter"",""1"",""3394""
","
","
","""event"",""trial"",""time""
""fullscreenenter"",""1"",""3394""
","
","","null","","null","","fixation","2021-08-04 19:10:59.942","","","","","",""
"card-selection-trial","93","488802","0.0-25.0-1.11","1054","false","img/card_backs/set1/yellow.gif","img/card_backs/set1/purple.gif","img/card_backs/set1/red.gif","img/card_backs/set1/green.gif","img/card_backs/set2/orange.gif","img/card_backs/set2/gray.gif","img/card_backs/set2/blue.gif","img/card_backs/set2/pink.gif","""event"",""trial"",""time""
""fullscreenenter"",""1"",""3394""
","
","
","""event"",""trial"",""time""
""fullscreenenter"",""1"",""3394""
","
","","1006.1000000000931","","","","real_trial","2021-08-04 19:11:02.960","img/card_backs/set1/yellow.gif","2","180","1","",""
"casino-fixation","94","489305","0.0-25.0-0.12","1054","false","img/card_backs/set1/yellow.gif","img/card_backs/set1/purple.gif","img/card_backs/set1/red.gif","img/card_backs/set1/green.gif","img/card_backs/set2/orange.gif","img/card_backs/set2/gray.gif","img/card_backs/set2/blue.gif","img/card_backs/set2/pink.gif","""event"",""trial"",""time""
""fullscreenenter"",""1"",""3394""
","
","
","""event"",""trial"",""time""
""fullscreenenter"",""1"",""3394""
","
","","null","","null","","fixation","2021-08-04 19:11:03.463","","","","","",""
"card-selection-trial","95","495176","0.0-25.0-1.12","1054","false","img/card_backs/set1/yellow.gif","img/card_backs/set1/purple.gif","img/card_backs/set1/red.gif","img/card_backs/set1/green.gif","img/card_backs/set2/orange.gif","img/card_backs/set2/gray.gif","img/card_backs/set2/blue.gif","img/card_backs/set2/pink.gif","""event"",""trial"",""time""
""fullscreenenter"",""1"",""3394""
","
","
","""event"",""trial"",""time""
""fullscreenenter"",""1"",""3394""
","
","","3857.399999999907","","","","real_trial","2021-08-04 19:11:09.335","img/card_backs/set1/yellow.gif","0","200","1","",""
"casino-fixation","96","495680","0.0-25.0-0.13","1054","false","img/card_backs/set1/yellow.gif","img/card_backs/set1/purple.gif","img/card_backs/set1/red.gif","img/card_backs/set1/green.gif","img/card_backs/set2/orange.gif","img/card_backs/set2/gray.gif","img/card_backs/set2/blue.gif","img/card_backs/set2/pink.gif","""event"",""trial"",""time""
""fullscreenenter"",""1"",""3394""
","
","
","""event"",""trial"",""time""
""fullscreenenter"",""1"",""3394""
","
","","null","","null","","fixation","2021-08-04 19:11:09.838","","","","","",""
"card-selection-trial","97","498412","0.0-25.0-1.13","1054","false","img/card_backs/set1/yellow.gif","img/card_backs/set1/purple.gif","img/card_backs/set1/red.gif","img/card_backs/set1/green.gif","img/card_backs/set2/orange.gif","img/card_backs/set2/gray.gif","img/card_backs/set2/blue.gif","img/card_backs/set2/pink.gif","""event"",""trial"",""time""
""fullscreenenter"",""1"",""3394""
","
","
","""event"",""trial"",""time""
""fullscreenenter"",""1"",""3394""
","
","","722.6999999999534","","","","real_trial","2021-08-04 19:11:12.570","img/card_backs/set1/green.gif","3","-50","1","",""
"casino-fixation","98","498915","0.0-25.0-0.14","1054","false","img/card_backs/set1/yellow.gif","img/card_backs/set1/purple.gif","img/card_backs/set1/red.gif","img/card_backs/set1/green.gif","img/card_backs/set2/orange.gif","img/card_backs/set2/gray.gif","img/card_backs/set2/blue.gif","img/card_backs/set2/pink.gif","""event"",""trial"",""time""
""fullscreenenter"",""1"",""3394""
","
","
","""event"",""trial"",""time""
""fullscreenenter"",""1"",""3394""
","
","","null","","null","","fixation","2021-08-04 19:11:13.073","","","","","",""
"card-selection-trial","99","501901","0.0-25.0-1.14","1054","false","img/card_backs/set1/yellow.gif","img/card_backs/set1/purple.gif","img/card_backs/set1/red.gif","img/card_backs/set1/green.gif","img/card_backs/set2/orange.gif","img/card_backs/set2/gray.gif","img/card_backs/set2/blue.gif","img/card_backs/set2/pink.gif","""event"",""trial"",""time""
""fullscreenenter"",""1"",""3394""
","
","
","""event"",""trial"",""time""
""fullscreenenter"",""1"",""3394""
","
","","975.9000000001397","","","","real_trial","2021-08-04 19:11:16.059","img/card_backs/set1/yellow.gif","1","180","1","",""
"casino-fixation","100","502403","0.0-25.0-0.15","1054","false","img/card_backs/set1/yellow.gif","img/card_backs/set1/purple.gif","img/card_backs/set1/red.gif","img/card_backs/set1/green.gif","img/card_backs/set2/orange.gif","img/card_backs/set2/gray.gif","img/card_backs/set2/blue.gif","img/card_backs/set2/pink.gif","""event"",""trial"",""time""
""fullscreenenter"",""1"",""3394""
","
","
","""event"",""trial"",""time""
""fullscreenenter"",""1"",""3394""
","
","","null","","null","","fixation","2021-08-04 19:11:16.561","","","","","",""
"card-selection-trial","101","507255","0.0-25.0-1.15","1054","false","img/card_backs/set1/yellow.gif","img/card_backs/set1/purple.gif","img/card_backs/set1/red.gif","img/card_backs/set1/green.gif","img/card_backs/set2/orange.gif","img/card_backs/set2/gray.gif","img/card_backs/set2/blue.gif","img/card_backs/set2/pink.gif","""event"",""trial"",""time""
""fullscreenenter"",""1"",""3394""
","
","
","""event"",""trial"",""time""
""fullscreenenter"",""1"",""3394""
","
","","2842.6999999999534","","","","real_trial","2021-08-04 19:11:21.413","img/card_backs/set1/green.gif","1","-50","1","",""
"casino-fixation","102","507758","0.0-25.0-0.16","1054","false","img/card_backs/set1/yellow.gif","img/card_backs/set1/purple.gif","img/card_backs/set1/red.gif","img/card_backs/set1/green.gif","img/card_backs/set2/orange.gif","img/card_backs/set2/gray.gif","img/card_backs/set2/blue.gif","img/card_backs/set2/pink.gif","""event"",""trial"",""time""
""fullscreenenter"",""1"",""3394""
","
","
","""event"",""trial"",""time""
""fullscreenenter"",""1"",""3394""
","
","","null","","null","","fixation","2021-08-04 19:11:21.916","","","","","",""
"card-selection-trial","103","514491","0.0-25.0-1.16","1054","false","img/card_backs/set1/yellow.gif","img/card_backs/set1/purple.gif","img/card_backs/set1/red.gif","img/card_backs/set1/green.gif","img/card_backs/set2/orange.gif","img/card_backs/set2/gray.gif","img/card_backs/set2/blue.gif","img/card_backs/set2/pink.gif","""event"",""trial"",""time""
""fullscreenenter"",""1"",""3394""
","
","
","""event"",""trial"",""time""
""fullscreenenter"",""1"",""3394""
","
","","4722","","","","real_trial","2021-08-04 19:11:28.649","img/card_backs/set1/red.gif","3","100","1","",""
"casino-fixation","104","514994","0.0-25.0-0.17","1054","false","img/card_backs/set1/yellow.gif","img/card_backs/set1/purple.gif","img/card_backs/set1/red.gif","img/card_backs/set1/green.gif","img/card_backs/set2/orange.gif","img/card_backs/set2/gray.gif","img/card_backs/set2/blue.gif","img/card_backs/set2/pink.gif","""event"",""trial"",""time""
""fullscreenenter"",""1"",""3394""
","
","
","""event"",""trial"",""time""
""fullscreenenter"",""1"",""3394""
","
","","null","","null","","fixation","2021-08-04 19:11:29.152","","","","","",""
"card-selection-trial","105","520595","0.0-25.0-1.17","1054","false","img/card_backs/set1/yellow.gif","img/card_backs/set1/purple.gif","img/card_backs/set1/red.gif","img/card_backs/set1/green.gif","img/card_backs/set2/orange.gif","img/card_backs/set2/gray.gif","img/card_backs/set2/blue.gif","img/card_backs/set2/pink.gif","""event"",""trial"",""time""
""fullscreenenter"",""1"",""3394""
","
","
","""event"",""trial"",""time""
""fullscreenenter"",""1"",""3394""
","
","","3586.5","","","","real_trial","2021-08-04 19:11:34.753","img/card_backs/set1/red.gif","2","120","1","",""
"casino-fixation","106","521098","0.0-25.0-0.18","1054","false","img/card_backs/set1/yellow.gif","img/card_backs/set1/purple.gif","img/card_backs/set1/red.gif","img/card_backs/set1/green.gif","img/card_backs/set2/orange.gif","img/card_backs/set2/gray.gif","img/card_backs/set2/blue.gif","img/card_backs/set2/pink.gif","""event"",""trial"",""time""
""fullscreenenter"",""1"",""3394""
","
","
","""event"",""trial"",""time""
""fullscreenenter"",""1"",""3394""
","
","","null","","null","","fixation","2021-08-04 19:11:35.256","","","","","",""
"card-selection-trial","107","524447","0.0-25.0-1.18","1054","false","img/card_backs/set1/yellow.gif","img/card_backs/set1/purple.gif","img/card_backs/set1/red.gif","img/card_backs/set1/green.gif","img/card_backs/set2/orange.gif","img/card_backs/set2/gray.gif","img/card_backs/set2/blue.gif","img/card_backs/set2/pink.gif","""event"",""trial"",""time""
""fullscreenenter"",""1"",""3394""
","
","
","""event"",""trial"",""time""
""fullscreenenter"",""1"",""3394""
","
","","1337.2999999998137","","","","real_trial","2021-08-04 19:11:38.605","img/card_backs/set1/yellow.gif","1","-250","1","",""
"casino-fixation","108","524950","0.0-25.0-0.19","1054","false","img/card_backs/set1/yellow.gif","img/card_backs/set1/purple.gif","img/card_backs/set1/red.gif","img/card_backs/set1/green.gif","img/card_backs/set2/orange.gif","img/card_backs/set2/gray.gif","img/card_backs/set2/blue.gif","img/card_backs/set2/pink.gif","""event"",""trial"",""time""
""fullscreenenter"",""1"",""3394""
","
","
","""event"",""trial"",""time""
""fullscreenenter"",""1"",""3394""
","
","","null","","null","","fixation","2021-08-04 19:11:39.108","","","","","",""
"card-selection-trial","109","528499","0.0-25.0-1.19","1054","false","img/card_backs/set1/yellow.gif","img/card_backs/set1/purple.gif","img/card_backs/set1/red.gif","img/card_backs/set1/green.gif","img/card_backs/set2/orange.gif","img/card_backs/set2/gray.gif","img/card_backs/set2/blue.gif","img/card_backs/set2/pink.gif","""event"",""trial"",""time""
""fullscreenenter"",""1"",""3394""
","
","
","""event"",""trial"",""time""
""fullscreenenter"",""1"",""3394""
","
","","1538.1000000000931","","","","real_trial","2021-08-04 19:11:42.657","img/card_backs/set1/purple.gif","1","190","1","",""
"casino-fixation","110","529002","0.0-25.0-0.20","1054","false","img/card_backs/set1/yellow.gif","img/card_backs/set1/purple.gif","img/card_backs/set1/red.gif","img/card_backs/set1/green.gif","img/card_backs/set2/orange.gif","img/card_backs/set2/gray.gif","img/card_backs/set2/blue.gif","img/card_backs/set2/pink.gif","""event"",""trial"",""time""
""fullscreenenter"",""1"",""3394""
","
","
","""event"",""trial"",""time""
""fullscreenenter"",""1"",""3394""
","
","","null","","null","","fixation","2021-08-04 19:11:43.160","","","","","",""
"card-selection-trial","111","533152","0.0-25.0-1.20","1054","false","img/card_backs/set1/yellow.gif","img/card_backs/set1/purple.gif","img/card_backs/set1/red.gif","img/card_backs/set1/green.gif","img/card_backs/set2/orange.gif","img/card_backs/set2/gray.gif","img/card_backs/set2/blue.gif","img/card_backs/set2/pink.gif","""event"",""trial"",""time""
""fullscreenenter"",""1"",""3394""
","
","
","""event"",""trial"",""time""
""fullscreenenter"",""1"",""3394""
","
","","2140.100000000093","","","","real_trial","2021-08-04 19:11:47.310","img/card_backs/set1/red.gif","0","100","1","",""
"casino-fixation","112","533655","0.0-25.0-0.21","1054","false","img/card_backs/set1/yellow.gif","img/card_backs/set1/purple.gif","img/card_backs/set1/red.gif","img/card_backs/set1/green.gif","img/card_backs/set2/orange.gif","img/card_backs/set2/gray.gif","img/card_backs/set2/blue.gif","img/card_backs/set2/pink.gif","""event"",""trial"",""time""
""fullscreenenter"",""1"",""3394""
","
","
","""event"",""trial"",""time""
""fullscreenenter"",""1"",""3394""
","
","","null","","null","","fixation","2021-08-04 19:11:47.813","","","","","",""
"card-selection-trial","113","540094","0.0-25.0-1.21","1054","false","img/card_backs/set1/yellow.gif","img/card_backs/set1/purple.gif","img/card_backs/set1/red.gif","img/card_backs/set1/green.gif","img/card_backs/set2/orange.gif","img/card_backs/set2/gray.gif","img/card_backs/set2/blue.gif","img/card_backs/set2/pink.gif","""event"",""trial"",""time""
""fullscreenenter"",""1"",""3394""
","
","
","""event"",""trial"",""time""
""fullscreenenter"",""1"",""3394""
","
","","4429.09999999986","","","","real_trial","2021-08-04 19:11:54.252","img/card_backs/set1/yellow.gif","3","180","1","",""
"casino-fixation","114","540597","0.0-25.0-0.22","1054","false","img/card_backs/set1/yellow.gif","img/card_backs/set1/purple.gif","img/card_backs/set1/red.gif","img/card_backs/set1/green.gif","img/card_backs/set2/orange.gif","img/card_backs/set2/gray.gif","img/card_backs/set2/blue.gif","img/card_backs/set2/pink.gif","""event"",""trial"",""time""
""fullscreenenter"",""1"",""3394""
","
","
","""event"",""trial"",""time""
""fullscreenenter"",""1"",""3394""
","
","","null","","null","","fixation","2021-08-04 19:11:54.755","","","","","",""
"card-selection-trial","115","544279","0.0-25.0-1.22","1054","false","img/card_backs/set1/yellow.gif","img/card_backs/set1/purple.gif","img/card_backs/set1/red.gif","img/card_backs/set1/green.gif","img/card_backs/set2/orange.gif","img/card_backs/set2/gray.gif","img/card_backs/set2/blue.gif","img/card_backs/set2/pink.gif","""event"",""trial"",""time""
""fullscreenenter"",""1"",""3394""
","
","
","""event"",""trial"",""time""
""fullscreenenter"",""1"",""3394""
","
","","1671.6999999999534","","","","real_trial","2021-08-04 19:11:58.437","img/card_backs/set1/red.gif","1","-60","1","",""
"casino-fixation","116","544783","0.0-25.0-0.23","1054","false","img/card_backs/set1/yellow.gif","img/card_backs/set1/purple.gif","img/card_backs/set1/red.gif","img/card_backs/set1/green.gif","img/card_backs/set2/orange.gif","img/card_backs/set2/gray.gif","img/card_backs/set2/blue.gif","img/card_backs/set2/pink.gif","""event"",""trial"",""time""
""fullscreenenter"",""1"",""3394""
","
","
","""event"",""trial"",""time""
""fullscreenenter"",""1"",""3394""
","
","","null","","null","","fixation","2021-08-04 19:11:58.941","","","","","",""
"card-selection-trial","117","549201","0.0-25.0-1.23","1054","false","img/card_backs/set1/yellow.gif","img/card_backs/set1/purple.gif","img/card_backs/set1/red.gif","img/card_backs/set1/green.gif","img/card_backs/set2/orange.gif","img/card_backs/set2/gray.gif","img/card_backs/set2/blue.gif","img/card_backs/set2/pink.gif","""event"",""trial"",""time""
""fullscreenenter"",""1"",""3394""
","
","
","""event"",""trial"",""time""
""fullscreenenter"",""1"",""3394""
","
","","2407.5","","","","real_trial","2021-08-04 19:12:03.359","img/card_backs/set1/red.gif","2","120","1","",""
"casino-fixation","118","549705","0.0-25.0-0.24","1054","false","img/card_backs/set1/yellow.gif","img/card_backs/set1/purple.gif","img/card_backs/set1/red.gif","img/card_backs/set1/green.gif","img/card_backs/set2/orange.gif","img/card_backs/set2/gray.gif","img/card_backs/set2/blue.gif","img/card_backs/set2/pink.gif","""event"",""trial"",""time""
""fullscreenenter"",""1"",""3394""
","
","
","""event"",""trial"",""time""
""fullscreenenter"",""1"",""3394""
","
","","null","","null","","fixation","2021-08-04 19:12:03.863","","","","","",""
"card-selection-trial","119","554091","0.0-25.0-1.24","1054","false","img/card_backs/set1/yellow.gif","img/card_backs/set1/purple.gif","img/card_backs/set1/red.gif","img/card_backs/set1/green.gif","img/card_backs/set2/orange.gif","img/card_backs/set2/gray.gif","img/card_backs/set2/blue.gif","img/card_backs/set2/pink.gif","""event"",""trial"",""time""
""fullscreenenter"",""1"",""3394""
","
","
","""event"",""trial"",""time""
""fullscreenenter"",""1"",""3394""
","
","","2376.2000000001863","","","","real_trial","2021-08-04 19:12:08.249","img/card_backs/set1/yellow.gif","1","-250","1","",""
"casino-fixation","120","554595","0.0-25.0-0.25","1054","false","img/card_backs/set1/yellow.gif","img/card_backs/set1/purple.gif","img/card_backs/set1/red.gif","img/card_backs/set1/green.gif","img/card_backs/set2/orange.gif","img/card_backs/set2/gray.gif","img/card_backs/set2/blue.gif","img/card_backs/set2/pink.gif","""event"",""trial"",""time""
""fullscreenenter"",""1"",""3394""
","
","
","""event"",""trial"",""time""
""fullscreenenter"",""1"",""3394""
","
","","null","","null","","fixation","2021-08-04 19:12:08.753","","","","","",""
"card-selection-trial","121","557224","0.0-25.0-1.25","1054","false","img/card_backs/set1/yellow.gif","img/card_backs/set1/purple.gif","img/card_backs/set1/red.gif","img/card_backs/set1/green.gif","img/card_backs/set2/orange.gif","img/card_backs/set2/gray.gif","img/card_backs/set2/blue.gif","img/card_backs/set2/pink.gif","""event"",""trial"",""time""
""fullscreenenter"",""1"",""3394""
","
","
","""event"",""trial"",""time""
""fullscreenenter"",""1"",""3394""
","
","","619.5","","","","real_trial","2021-08-04 19:12:11.382","img/card_backs/set1/purple.gif","3","-250","1","",""
"casino-fixation","122","557726","0.0-25.0-0.26","1054","false","img/card_backs/set1/yellow.gif","img/card_backs/set1/purple.gif","img/card_backs/set1/red.gif","img/card_backs/set1/green.gif","img/card_backs/set2/orange.gif","img/card_backs/set2/gray.gif","img/card_backs/set2/blue.gif","img/card_backs/set2/pink.gif","""event"",""trial"",""time""
""fullscreenenter"",""1"",""3394""
","
","
","""event"",""trial"",""time""
""fullscreenenter"",""1"",""3394""
","
","","null","","null","","fixation","2021-08-04 19:12:11.884","","","","","",""
"card-selection-trial","123","560057","0.0-25.0-1.26","1054","false","img/card_backs/set1/yellow.gif","img/card_backs/set1/purple.gif","img/card_backs/set1/red.gif","img/card_backs/set1/green.gif","img/card_backs/set2/orange.gif","img/card_backs/set2/gray.gif","img/card_backs/set2/blue.gif","img/card_backs/set2/pink.gif","""event"",""trial"",""time""
""fullscreenenter"",""1"",""3394""
","
","
","""event"",""trial"",""time""
""fullscreenenter"",""1"",""3394""
","
","","320.69999999995343","","","","real_trial","2021-08-04 19:12:14.215","img/card_backs/set1/red.gif","0","120","1","",""
"casino-fixation","124","560560","0.0-25.0-0.27","1054","false","img/card_backs/set1/yellow.gif","img/card_backs/set1/purple.gif","img/card_backs/set1/red.gif","img/card_backs/set1/green.gif","img/card_backs/set2/orange.gif","img/card_backs/set2/gray.gif","img/card_backs/set2/blue.gif","img/card_backs/set2/pink.gif","""event"",""trial"",""time""
""fullscreenenter"",""1"",""3394""
","
","
","""event"",""trial"",""time""
""fullscreenenter"",""1"",""3394""
","
","","null","","null","","fixation","2021-08-04 19:12:14.718","","","","","",""
"card-selection-trial","125","566548","0.0-25.0-1.27","1054","false","img/card_backs/set1/yellow.gif","img/card_backs/set1/purple.gif","img/card_backs/set1/red.gif","img/card_backs/set1/green.gif","img/card_backs/set2/orange.gif","img/card_backs/set2/gray.gif","img/card_backs/set2/blue.gif","img/card_backs/set2/pink.gif","""event"",""trial"",""time""
""fullscreenenter"",""1"",""3394""
","
","
","""event"",""trial"",""time""
""fullscreenenter"",""1"",""3394""
","
","","3978.6999999999534","","","","real_trial","2021-08-04 19:12:20.707","img/card_backs/set1/purple.gif","1","-230","1","",""
"casino-fixation","126","567052","0.0-25.0-0.28","1054","false","img/card_backs/set1/yellow.gif","img/card_backs/set1/purple.gif","img/card_backs/set1/red.gif","img/card_backs/set1/green.gif","img/card_backs/set2/orange.gif","img/card_backs/set2/gray.gif","img/card_backs/set2/blue.gif","img/card_backs/set2/pink.gif","""event"",""trial"",""time""
""fullscreenenter"",""1"",""3394""
","
","
","""event"",""trial"",""time""
""fullscreenenter"",""1"",""3394""
","
","","null","","null","","fixation","2021-08-04 19:12:21.210","","","","","",""
"card-selection-trial","127","569590","0.0-25.0-1.28","1054","false","img/card_backs/set1/yellow.gif","img/card_backs/set1/purple.gif","img/card_backs/set1/red.gif","img/card_backs/set1/green.gif","img/card_backs/set2/orange.gif","img/card_backs/set2/gray.gif","img/card_backs/set2/blue.gif","img/card_backs/set2/pink.gif","""event"",""trial"",""time""
""fullscreenenter"",""1"",""3394""
","
","
","""event"",""trial"",""time""
""fullscreenenter"",""1"",""3394""
","
","","528","","","","real_trial","2021-08-04 19:12:23.748","img/card_backs/set1/yellow.gif","2","-250","1","",""
"casino-fixation","128","570092","0.0-25.0-0.29","1054","false","img/card_backs/set1/yellow.gif","img/card_backs/set1/purple.gif","img/card_backs/set1/red.gif","img/card_backs/set1/green.gif","img/card_backs/set2/orange.gif","img/card_backs/set2/gray.gif","img/card_backs/set2/blue.gif","img/card_backs/set2/pink.gif","""event"",""trial"",""time""
""fullscreenenter"",""1"",""3394""
","
","
","""event"",""trial"",""time""
""fullscreenenter"",""1"",""3394""
","
","","null","","null","","fixation","2021-08-04 19:12:24.250","","","","","",""
"card-selection-trial","129","573125","0.0-25.0-1.29","1054","false","img/card_backs/set1/yellow.gif","img/card_backs/set1/purple.gif","img/card_backs/set1/red.gif","img/card_backs/set1/green.gif","img/card_backs/set2/orange.gif","img/card_backs/set2/gray.gif","img/card_backs/set2/blue.gif","img/card_backs/set2/pink.gif","""event"",""trial"",""time""
""fullscreenenter"",""1"",""3394""
","
","
","""event"",""trial"",""time""
""fullscreenenter"",""1"",""3394""
","
","","1022.4000000001397","","","","real_trial","2021-08-04 19:12:27.283","img/card_backs/set1/red.gif","3","110","1","",""
"casino-fixation","130","573628","0.0-25.0-0.30","1054","false","img/card_backs/set1/yellow.gif","img/card_backs/set1/purple.gif","img/card_backs/set1/red.gif","img/card_backs/set1/green.gif","img/card_backs/set2/orange.gif","img/card_backs/set2/gray.gif","img/card_backs/set2/blue.gif","img/card_backs/set2/pink.gif","""event"",""trial"",""time""
""fullscreenenter"",""1"",""3394""
","
","
","""event"",""trial"",""time""
""fullscreenenter"",""1"",""3394""
","
","","null","","null","","fixation","2021-08-04 19:12:27.786","","","","","",""
"card-selection-trial","131","577349","0.0-25.0-1.30","1054","false","img/card_backs/set1/yellow.gif","img/card_backs/set1/purple.gif","img/card_backs/set1/red.gif","img/card_backs/set1/green.gif","img/card_backs/set2/orange.gif","img/card_backs/set2/gray.gif","img/card_backs/set2/blue.gif","img/card_backs/set2/pink.gif","""event"",""trial"",""time""
""fullscreenenter"",""1"",""3394""
","
","
","""event"",""trial"",""time""
""fullscreenenter"",""1"",""3394""
","
","","1709.8000000000466","","","","real_trial","2021-08-04 19:12:31.507","img/card_backs/set1/green.gif","0","100","1","",""
"casino-fixation","132","577852","0.0-25.0-0.31","1054","false","img/card_backs/set1/yellow.gif","img/card_backs/set1/purple.gif","img/card_backs/set1/red.gif","img/card_backs/set1/green.gif","img/card_backs/set2/orange.gif","img/card_backs/set2/gray.gif","img/card_backs/set2/blue.gif","img/card_backs/set2/pink.gif","""event"",""trial"",""time""
""fullscreenenter"",""1"",""3394""
","
","
","""event"",""trial"",""time""
""fullscreenenter"",""1"",""3394""
","
","","null","","null","","fixation","2021-08-04 19:12:32.010","","","","","",""
"card-selection-trial","133","583327","0.0-25.0-1.31","1054","false","img/card_backs/set1/yellow.gif","img/card_backs/set1/purple.gif","img/card_backs/set1/red.gif","img/card_backs/set1/green.gif","img/card_backs/set2/orange.gif","img/card_backs/set2/gray.gif","img/card_backs/set2/blue.gif","img/card_backs/set2/pink.gif","""event"",""trial"",""time""
""fullscreenenter"",""1"",""3394""
","
","
","""event"",""trial"",""time""
""fullscreenenter"",""1"",""3394""
","
","","3462.6999999999534","","","","real_trial","2021-08-04 19:12:37.485","img/card_backs/set1/yellow.gif","1","180","1","",""
"casino-fixation","134","583830","0.0-25.0-0.32","1054","false","img/card_backs/set1/yellow.gif","img/card_backs/set1/purple.gif","img/card_backs/set1/red.gif","img/card_backs/set1/green.gif","img/card_backs/set2/orange.gif","img/card_backs/set2/gray.gif","img/card_backs/set2/blue.gif","img/card_backs/set2/pink.gif","""event"",""trial"",""time""
""fullscreenenter"",""1"",""3394""
","
","
","""event"",""trial"",""time""
""fullscreenenter"",""1"",""3394""
","
","","null","","null","","fixation","2021-08-04 19:12:37.988","","","","","",""
"card-selection-trial","135","589843","0.0-25.0-1.32","1054","false","img/card_backs/set1/yellow.gif","img/card_backs/set1/purple.gif","img/card_backs/set1/red.gif","img/card_backs/set1/green.gif","img/card_backs/set2/orange.gif","img/card_backs/set2/gray.gif","img/card_backs/set2/blue.gif","img/card_backs/set2/pink.gif","""event"",""trial"",""time""
""fullscreenenter"",""1"",""3394""
","
","
","""event"",""trial"",""time""
""fullscreenenter"",""1"",""3394""
","
","","4002.1999999999534","","","","real_trial","2021-08-04 19:12:44.001","img/card_backs/set1/red.gif","3","120","1","",""
"casino-fixation","136","590346","0.0-25.0-0.33","1054","false","img/card_backs/set1/yellow.gif","img/card_backs/set1/purple.gif","img/card_backs/set1/red.gif","img/card_backs/set1/green.gif","img/card_backs/set2/orange.gif","img/card_backs/set2/gray.gif","img/card_backs/set2/blue.gif","img/card_backs/set2/pink.gif","""event"",""trial"",""time""
""fullscreenenter"",""1"",""3394""
","
","
","""event"",""trial"",""time""
""fullscreenenter"",""1"",""3394""
","
","","null","","null","","fixation","2021-08-04 19:12:44.505","","","","","",""
"card-selection-trial","137","593736","0.0-25.0-1.33","1054","false","img/card_backs/set1/yellow.gif","img/card_backs/set1/purple.gif","img/card_backs/set1/red.gif","img/card_backs/set1/green.gif","img/card_backs/set2/orange.gif","img/card_backs/set2/gray.gif","img/card_backs/set2/blue.gif","img/card_backs/set2/pink.gif","""event"",""trial"",""time""
""fullscreenenter"",""1"",""3394""
","
","
","""event"",""trial"",""time""
""fullscreenenter"",""1"",""3394""
","
","","1377.5","","","","real_trial","2021-08-04 19:12:47.894","img/card_backs/set1/purple.gif","2","-230","1","",""
"casino-fixation","138","594238","0.0-25.0-0.34","1054","false","img/card_backs/set1/yellow.gif","img/card_backs/set1/purple.gif","img/card_backs/set1/red.gif","img/card_backs/set1/green.gif","img/card_backs/set2/orange.gif","img/card_backs/set2/gray.gif","img/card_backs/set2/blue.gif","img/card_backs/set2/pink.gif","""event"",""trial"",""time""
""fullscreenenter"",""1"",""3394""
","
","
","""event"",""trial"",""time""
""fullscreenenter"",""1"",""3394""
","
","","null","","null","","fixation","2021-08-04 19:12:48.397","","","","","",""
"card-selection-trial","139","597074","0.0-25.0-1.34","1054","false","img/card_backs/set1/yellow.gif","img/card_backs/set1/purple.gif","img/card_backs/set1/red.gif","img/card_backs/set1/green.gif","img/card_backs/set2/orange.gif","img/card_backs/set2/gray.gif","img/card_backs/set2/blue.gif","img/card_backs/set2/pink.gif","""event"",""trial"",""time""
""fullscreenenter"",""1"",""3394""
","
","
","""event"",""trial"",""time""
""fullscreenenter"",""1"",""3394""
","
","","824.3000000000466","","","","real_trial","2021-08-04 19:12:51.232","img/card_backs/set1/green.gif","3","-70","1","",""
"casino-fixation","140","597577","0.0-25.0-0.35","1054","false","img/card_backs/set1/yellow.gif","img/card_backs/set1/purple.gif","img/card_backs/set1/red.gif","img/card_backs/set1/green.gif","img/card_backs/set2/orange.gif","img/card_backs/set2/gray.gif","img/card_backs/set2/blue.gif","img/card_backs/set2/pink.gif","""event"",""trial"",""time""
""fullscreenenter"",""1"",""3394""
","
","
","""event"",""trial"",""time""
""fullscreenenter"",""1"",""3394""
","
","","null","","null","","fixation","2021-08-04 19:12:51.735","","","","","",""
"card-selection-trial","141","599926","0.0-25.0-1.35","1054","false","img/card_backs/set1/yellow.gif","img/card_backs/set1/purple.gif","img/card_backs/set1/red.gif","img/card_backs/set1/green.gif","img/card_backs/set2/orange.gif","img/card_backs/set2/gray.gif","img/card_backs/set2/blue.gif","img/card_backs/set2/pink.gif","""event"",""trial"",""time""
""fullscreenenter"",""1"",""3394""
","
","
","""event"",""trial"",""time""
""fullscreenenter"",""1"",""3394""
","
","","338.80000000004657","","","","real_trial","2021-08-04 19:12:54.085","img/card_backs/set1/purple.gif","0","-230","1","",""
"casino-fixation","142","600429","0.0-25.0-0.36","1054","false","img/card_backs/set1/yellow.gif","img/card_backs/set1/purple.gif","img/card_backs/set1/red.gif","img/card_backs/set1/green.gif","img/card_backs/set2/orange.gif","img/card_backs/set2/gray.gif","img/card_backs/set2/blue.gif","img/card_backs/set2/pink.gif","""event"",""trial"",""time""
""fullscreenenter"",""1"",""3394""
","
","
","""event"",""trial"",""time""
""fullscreenenter"",""1"",""3394""
","
","","null","","null","","fixation","2021-08-04 19:12:54.587","","","","","",""
"card-selection-trial","143","603082","0.0-25.0-1.36","1054","false","img/card_backs/set1/yellow.gif","img/card_backs/set1/purple.gif","img/card_backs/set1/red.gif","img/card_backs/set1/green.gif","img/card_backs/set2/orange.gif","img/card_backs/set2/gray.gif","img/card_backs/set2/blue.gif","img/card_backs/set2/pink.gif","""event"",""trial"",""time""
""fullscreenenter"",""1"",""3394""
","
","
","""event"",""trial"",""time""
""fullscreenenter"",""1"",""3394""
","
","","643.3000000000466","","","","real_trial","2021-08-04 19:12:57.240","img/card_backs/set1/red.gif","1","120","1","",""
"casino-fixation","144","603585","0.0-25.0-0.37","1054","false","img/card_backs/set1/yellow.gif","img/card_backs/set1/purple.gif","img/card_backs/set1/red.gif","img/card_backs/set1/green.gif","img/card_backs/set2/orange.gif","img/card_backs/set2/gray.gif","img/card_backs/set2/blue.gif","img/card_backs/set2/pink.gif","""event"",""trial"",""time""
""fullscreenenter"",""1"",""3394""
","
","
","""event"",""trial"",""time""
""fullscreenenter"",""1"",""3394""
","
","","null","","null","","fixation","2021-08-04 19:12:57.743","","","","","",""
"card-selection-trial","145","607891","0.0-25.0-1.37","1054","false","img/card_backs/set1/yellow.gif","img/card_backs/set1/purple.gif","img/card_backs/set1/red.gif","img/card_backs/set1/green.gif","img/card_backs/set2/orange.gif","img/card_backs/set2/gray.gif","img/card_backs/set2/blue.gif","img/card_backs/set2/pink.gif","""event"",""trial"",""time""
""fullscreenenter"",""1"",""3394""
","
","
","""event"",""trial"",""time""
""fullscreenenter"",""1"",""3394""
","
","","2296.5","","","","real_trial","2021-08-04 19:13:02.050","img/card_backs/set1/yellow.gif","2","-240","1","",""
"casino-fixation","146","608395","0.0-25.0-0.38","1054","false","img/card_backs/set1/yellow.gif","img/card_backs/set1/purple.gif","img/card_backs/set1/red.gif","img/card_backs/set1/green.gif","img/card_backs/set2/orange.gif","img/card_backs/set2/gray.gif","img/card_backs/set2/blue.gif","img/card_backs/set2/pink.gif","""event"",""trial"",""time""
""fullscreenenter"",""1"",""3394""
","
","
","""event"",""trial"",""time""
""fullscreenenter"",""1"",""3394""
","
","","null","","null","","fixation","2021-08-04 19:13:02.553","","","","","",""
"card-selection-trial","147","612172","0.0-25.0-1.38","1054","false","img/card_backs/set1/yellow.gif","img/card_backs/set1/purple.gif","img/card_backs/set1/red.gif","img/card_backs/set1/green.gif","img/card_backs/set2/orange.gif","img/card_backs/set2/gray.gif","img/card_backs/set2/blue.gif","img/card_backs/set2/pink.gif","""event"",""trial"",""time""
""fullscreenenter"",""1"",""3394""
","
","
","""event"",""trial"",""time""
""fullscreenenter"",""1"",""3394""
","
","","1766.8999999999069","","","","real_trial","2021-08-04 19:13:06.331","img/card_backs/set1/green.gif","3","100","1","",""
"casino-fixation","148","612674","0.0-25.0-0.39","1054","false","img/card_backs/set1/yellow.gif","img/card_backs/set1/purple.gif","img/card_backs/set1/red.gif","img/card_backs/set1/green.gif","img/card_backs/set2/orange.gif","img/card_backs/set2/gray.gif","img/card_backs/set2/blue.gif","img/card_backs/set2/pink.gif","""event"",""trial"",""time""
""fullscreenenter"",""1"",""3394""
","
","
","""event"",""trial"",""time""
""fullscreenenter"",""1"",""3394""
","
","","null","","null","","fixation","2021-08-04 19:13:06.833","","","","","",""
"card-selection-trial","149","616947","0.0-25.0-1.39","1054","false","img/card_backs/set1/yellow.gif","img/card_backs/set1/purple.gif","img/card_backs/set1/red.gif","img/card_backs/set1/green.gif","img/card_backs/set2/orange.gif","img/card_backs/set2/gray.gif","img/card_backs/set2/blue.gif","img/card_backs/set2/pink.gif","""event"",""trial"",""time""
""fullscreenenter"",""1"",""3394""
","
","
","""event"",""trial"",""time""
""fullscreenenter"",""1"",""3394""
","
","","2259.7999999998137","","","","real_trial","2021-08-04 19:13:11.105","img/card_backs/set1/purple.gif","2","180","1","",""
"casino-fixation","150","617451","0.0-25.0-0.40","1054","false","img/card_backs/set1/yellow.gif","img/card_backs/set1/purple.gif","img/card_backs/set1/red.gif","img/card_backs/set1/green.gif","img/card_backs/set2/orange.gif","img/card_backs/set2/gray.gif","img/card_backs/set2/blue.gif","img/card_backs/set2/pink.gif","""event"",""trial"",""time""
""fullscreenenter"",""1"",""3394""
","
","
","""event"",""trial"",""time""
""fullscreenenter"",""1"",""3394""
","
","","null","","null","","fixation","2021-08-04 19:13:11.609","","","","","",""
"card-selection-trial","151","621167","0.0-25.0-1.40","1054","false","img/card_backs/set1/yellow.gif","img/card_backs/set1/purple.gif","img/card_backs/set1/red.gif","img/card_backs/set1/green.gif","img/card_backs/set2/orange.gif","img/card_backs/set2/gray.gif","img/card_backs/set2/blue.gif","img/card_backs/set2/pink.gif","""event"",""trial"",""time""
""fullscreenenter"",""1"",""3394""
","
","
","""event"",""trial"",""time""
""fullscreenenter"",""1"",""3394""
","
","","1703.3000000000466","","","","real_trial","2021-08-04 19:13:15.325","img/card_backs/set1/purple.gif","0","190","1","",""
"casino-fixation","152","621672","0.0-25.0-0.41","1054","false","img/card_backs/set1/yellow.gif","img/card_backs/set1/purple.gif","img/card_backs/set1/red.gif","img/card_backs/set1/green.gif","img/card_backs/set2/orange.gif","img/card_backs/set2/gray.gif","img/card_backs/set2/blue.gif","img/card_backs/set2/pink.gif","""event"",""trial"",""time""
""fullscreenenter"",""1"",""3394""
","
","
","""event"",""trial"",""time""
""fullscreenenter"",""1"",""3394""
","
","","null","","null","","fixation","2021-08-04 19:13:15.830","","","","","",""
"card-selection-trial","153","626867","0.0-25.0-1.41","1054","false","img/card_backs/set1/yellow.gif","img/card_backs/set1/purple.gif","img/card_backs/set1/red.gif","img/card_backs/set1/green.gif","img/card_backs/set2/orange.gif","img/card_backs/set2/gray.gif","img/card_backs/set2/blue.gif","img/card_backs/set2/pink.gif","""event"",""trial"",""time""
""fullscreenenter"",""1"",""3394""
","
","
","""event"",""trial"",""time""
""fullscreenenter"",""1"",""3394""
","
","","3179","","","","real_trial","2021-08-04 19:13:21.025","img/card_backs/set1/green.gif","2","-70","1","",""
"casino-fixation","154","627371","0.0-25.0-0.42","1054","false","img/card_backs/set1/yellow.gif","img/card_backs/set1/purple.gif","img/card_backs/set1/red.gif","img/card_backs/set1/green.gif","img/card_backs/set2/orange.gif","img/card_backs/set2/gray.gif","img/card_backs/set2/blue.gif","img/card_backs/set2/pink.gif","""event"",""trial"",""time""
""fullscreenenter"",""1"",""3394""
","
","
","""event"",""trial"",""time""
""fullscreenenter"",""1"",""3394""
","
","","null","","null","","fixation","2021-08-04 19:13:21.529","","","","","",""
"card-selection-trial","155","629781","0.0-25.0-1.42","1054","false","img/card_backs/set1/yellow.gif","img/card_backs/set1/purple.gif","img/card_backs/set1/red.gif","img/card_backs/set1/green.gif","img/card_backs/set2/orange.gif","img/card_backs/set2/gray.gif","img/card_backs/set2/blue.gif","img/card_backs/set2/pink.gif","""event"",""trial"",""time""
""fullscreenenter"",""1"",""3394""
","
","
","""event"",""trial"",""time""
""fullscreenenter"",""1"",""3394""
","
","","400.10000000009313","","","","real_trial","2021-08-04 19:13:23.939","img/card_backs/set1/red.gif","3","120","1","",""
"casino-fixation","156","630284","0.0-25.0-0.43","1054","false","img/card_backs/set1/yellow.gif","img/card_backs/set1/purple.gif","img/card_backs/set1/red.gif","img/card_backs/set1/green.gif","img/card_backs/set2/orange.gif","img/card_backs/set2/gray.gif","img/card_backs/set2/blue.gif","img/card_backs/set2/pink.gif","""event"",""trial"",""time""
""fullscreenenter"",""1"",""3394""
","
","
","""event"",""trial"",""time""
""fullscreenenter"",""1"",""3394""
","
","","null","","null","","fixation","2021-08-04 19:13:24.442","","","","","",""
"card-selection-trial","157","634331","0.0-25.0-1.43","1054","false","img/card_backs/set1/yellow.gif","img/card_backs/set1/purple.gif","img/card_backs/set1/red.gif","img/card_backs/set1/green.gif","img/card_backs/set2/orange.gif","img/card_backs/set2/gray.gif","img/card_backs/set2/blue.gif","img/card_backs/set2/pink.gif","""event"",""trial"",""time""
""fullscreenenter"",""1"",""3394""
","
","
","""event"",""trial"",""time""
""fullscreenenter"",""1"",""3394""
","
","","2036.8999999999069","","","","real_trial","2021-08-04 19:13:28.489","img/card_backs/set1/green.gif","0","-70","1","",""
"casino-fixation","158","634834","0.0-25.0-0.44","1054","false","img/card_backs/set1/yellow.gif","img/card_backs/set1/purple.gif","img/card_backs/set1/red.gif","img/card_backs/set1/green.gif","img/card_backs/set2/orange.gif","img/card_backs/set2/gray.gif","img/card_backs/set2/blue.gif","img/card_backs/set2/pink.gif","""event"",""trial"",""time""
""fullscreenenter"",""1"",""3394""
","
","
","""event"",""trial"",""time""
""fullscreenenter"",""1"",""3394""
","
","","null","","null","","fixation","2021-08-04 19:13:28.992","","","","","",""
"card-selection-trial","159","639079","0.0-25.0-1.44","1054","false","img/card_backs/set1/yellow.gif","img/card_backs/set1/purple.gif","img/card_backs/set1/red.gif","img/card_backs/set1/green.gif","img/card_backs/set2/orange.gif","img/card_backs/set2/gray.gif","img/card_backs/set2/blue.gif","img/card_backs/set2/pink.gif","""event"",""trial"",""time""
""fullscreenenter"",""1"",""3394""
","
","
","""event"",""trial"",""time""
""fullscreenenter"",""1"",""3394""
","
","","2232.1999999999534","","","","real_trial","2021-08-04 19:13:33.237","img/card_backs/set1/green.gif","0","120","1","",""
"casino-fixation","160","639582","0.0-25.0-0.45","1054","false","img/card_backs/set1/yellow.gif","img/card_backs/set1/purple.gif","img/card_backs/set1/red.gif","img/card_backs/set1/green.gif","img/card_backs/set2/orange.gif","img/card_backs/set2/gray.gif","img/card_backs/set2/blue.gif","img/card_backs/set2/pink.gif","""event"",""trial"",""time""
""fullscreenenter"",""1"",""3394""
","
","
","""event"",""trial"",""time""
""fullscreenenter"",""1"",""3394""
","
","","null","","null","","fixation","2021-08-04 19:13:33.740","","","","","",""
"card-selection-trial","161","644820","0.0-25.0-1.45","1054","false","img/card_backs/set1/yellow.gif","img/card_backs/set1/purple.gif","img/card_backs/set1/red.gif","img/card_backs/set1/green.gif","img/card_backs/set2/orange.gif","img/card_backs/set2/gray.gif","img/card_backs/set2/blue.gif","img/card_backs/set2/pink.gif","""event"",""trial"",""time""
""fullscreenenter"",""1"",""3394""
","
","
","""event"",""trial"",""time""
""fullscreenenter"",""1"",""3394""
","
","","3226.8000000000466","","","","real_trial","2021-08-04 19:13:38.979","img/card_backs/set1/red.gif","3","-50","1","",""
"casino-fixation","162","645324","0.0-25.0-0.46","1054","false","img/card_backs/set1/yellow.gif","img/card_backs/set1/purple.gif","img/card_backs/set1/red.gif","img/card_backs/set1/green.gif","img/card_backs/set2/orange.gif","img/card_backs/set2/gray.gif","img/card_backs/set2/blue.gif","img/card_backs/set2/pink.gif","""event"",""trial"",""time""
""fullscreenenter"",""1"",""3394""
","
","
","""event"",""trial"",""time""
""fullscreenenter"",""1"",""3394""
","
","","null","","null","","fixation","2021-08-04 19:13:39.482","","","","","",""
"card-selection-trial","163","648953","0.0-25.0-1.46","1054","false","img/card_backs/set1/yellow.gif","img/card_backs/set1/purple.gif","img/card_backs/set1/red.gif","img/card_backs/set1/green.gif","img/card_backs/set2/orange.gif","img/card_backs/set2/gray.gif","img/card_backs/set2/blue.gif","img/card_backs/set2/pink.gif","""event"",""trial"",""time""
""fullscreenenter"",""1"",""3394""
","
","
","""event"",""trial"",""time""
""fullscreenenter"",""1"",""3394""
","
","","1618.1000000000931","","","","real_trial","2021-08-04 19:13:43.111","img/card_backs/set1/yellow.gif","1","180","1","",""
"casino-fixation","164","649456","0.0-25.0-0.47","1054","false","img/card_backs/set1/yellow.gif","img/card_backs/set1/purple.gif","img/card_backs/set1/red.gif","img/card_backs/set1/green.gif","img/card_backs/set2/orange.gif","img/card_backs/set2/gray.gif","img/card_backs/set2/blue.gif","img/card_backs/set2/pink.gif","""event"",""trial"",""time""
""fullscreenenter"",""1"",""3394""
","
","
","""event"",""trial"",""time""
""fullscreenenter"",""1"",""3394""
","
","","null","","null","","fixation","2021-08-04 19:13:43.615","","","","","",""
"card-selection-trial","165","653557","0.0-25.0-1.47","1054","false","img/card_backs/set1/yellow.gif","img/card_backs/set1/purple.gif","img/card_backs/set1/red.gif","img/card_backs/set1/green.gif","img/card_backs/set2/orange.gif","img/card_backs/set2/gray.gif","img/card_backs/set2/blue.gif","img/card_backs/set2/pink.gif","""event"",""trial"",""time""
""fullscreenenter"",""1"",""3394""
","
","
","""event"",""trial"",""time""
""fullscreenenter"",""1"",""3394""
","
","","2088.5999999998603","","","","real_trial","2021-08-04 19:13:47.715","img/card_backs/set1/red.gif","3","120","1","",""
"casino-fixation","166","654060","0.0-25.0-0.48","1054","false","img/card_backs/set1/yellow.gif","img/card_backs/set1/purple.gif","img/card_backs/set1/red.gif","img/card_backs/set1/green.gif","img/card_backs/set2/orange.gif","img/card_backs/set2/gray.gif","img/card_backs/set2/blue.gif","img/card_backs/set2/pink.gif","""event"",""trial"",""time""
""fullscreenenter"",""1"",""3394""
","
","
","""event"",""trial"",""time""
""fullscreenenter"",""1"",""3394""
","
","","null","","null","","fixation","2021-08-04 19:13:48.219","","","","","",""
"card-selection-trial","167","658965","0.0-25.0-1.48","1054","false","img/card_backs/set1/yellow.gif","img/card_backs/set1/purple.gif","img/card_backs/set1/red.gif","img/card_backs/set1/green.gif","img/card_backs/set2/orange.gif","img/card_backs/set2/gray.gif","img/card_backs/set2/blue.gif","img/card_backs/set2/pink.gif","""event"",""trial"",""time""
