"trial_type","trial_index","time_elapsed","internal_node_id","sub_id","risk_good_first","block1_A","block1_B","block1_C","block1_D","block2_A","block2_B","block2_C","block2_D","interactions","blur_events","focus_events","fullscreenenter_events","fullscreenexit_events","success","rt","stimulus","key_press","button_pressed","task_part","timestamp","card_choice","choice_position","points_earned","block","correct","response"
"pavlovia","0","6","0.0-0.0","839","false","img/card_backs/set1/red.gif","img/card_backs/set1/green.gif","img/card_backs/set1/yellow.gif","img/card_backs/set1/purple.gif","img/card_backs/set2/orange.gif","img/card_backs/set2/blue.gif","img/card_backs/set2/gray.gif","img/card_backs/set2/pink.gif","""event"",""trial"",""time""
""fullscreenenter"",""1"",""3848""
","
","
","""event"",""trial"",""time""
""fullscreenenter"",""1"",""3848""
","
","","","","","","","","","","","","",""
"fullscreen","1","4839","0.0-1.0","839","false","img/card_backs/set1/red.gif","img/card_backs/set1/green.gif","img/card_backs/set1/yellow.gif","img/card_backs/set1/purple.gif","img/card_backs/set2/orange.gif","img/card_backs/set2/blue.gif","img/card_backs/set2/gray.gif","img/card_backs/set2/pink.gif","""event"",""trial"",""time""
""fullscreenenter"",""1"",""3848""
","
","
","""event"",""trial"",""time""
""fullscreenenter"",""1"",""3848""
","
","true","","","","","","","","","","","",""
"audio-keyboard-response","2","9092","0.0-2.0","839","false","img/card_backs/set1/red.gif","img/card_backs/set1/green.gif","img/card_backs/set1/yellow.gif","img/card_backs/set1/purple.gif","img/card_backs/set2/orange.gif","img/card_backs/set2/blue.gif","img/card_backs/set2/gray.gif","img/card_backs/set2/pink.gif","""event"",""trial"",""time""
""fullscreenenter"",""1"",""3848""
","
","
","""event"",""trial"",""time""
""fullscreenenter"",""1"",""3848""
","
","","3445","audio/beep_loop.wav","32","","","","","","","","",""
"audio-button-response","3","11805","0.0-3.0","839","false","img/card_backs/set1/red.gif","img/card_backs/set1/green.gif","img/card_backs/set1/yellow.gif","img/card_backs/set1/purple.gif","img/card_backs/set2/orange.gif","img/card_backs/set2/blue.gif","img/card_backs/set2/gray.gif","img/card_backs/set2/pink.gif","""event"",""trial"",""time""
""fullscreenenter"",""1"",""3848""
","
","
","""event"",""trial"",""time""
""fullscreenenter"",""1"",""3848""
","
","","NaN","audio/turtle.mp3","","3","","","","","","","",""
"audio-button-response","4","14169","0.0-4.0","839","false","img/card_backs/set1/red.gif","img/card_backs/set1/green.gif","img/card_backs/set1/yellow.gif","img/card_backs/set1/purple.gif","img/card_backs/set2/orange.gif","img/card_backs/set2/blue.gif","img/card_backs/set2/gray.gif","img/card_backs/set2/pink.gif","""event"",""trial"",""time""
""fullscreenenter"",""1"",""3848""
","
","
","""event"",""trial"",""time""
""fullscreenenter"",""1"",""3848""
","
","","NaN","audio/shark.mp3","","2","","","","","","","",""
"fullscreen","5","17616","0.0-5.0","839","false","img/card_backs/set1/red.gif","img/card_backs/set1/green.gif","img/card_backs/set1/yellow.gif","img/card_backs/set1/purple.gif","img/card_backs/set2/orange.gif","img/card_backs/set2/blue.gif","img/card_backs/set2/gray.gif","img/card_backs/set2/pink.gif","""event"",""trial"",""time""
""fullscreenenter"",""1"",""3848""
","
","
","""event"",""trial"",""time""
""fullscreenenter"",""1"",""3848""
","
","true","","","","","","","","","","","",""
"casino-keyboard-response","6","21120","0.0-6.0-0.0","839","false","img/card_backs/set1/red.gif","img/card_backs/set1/green.gif","img/card_backs/set1/yellow.gif","img/card_backs/set1/purple.gif","img/card_backs/set2/orange.gif","img/card_backs/set2/blue.gif","img/card_backs/set2/gray.gif","img/card_backs/set2/pink.gif","""event"",""trial"",""time""
""fullscreenenter"",""1"",""3848""
","
","
","""event"",""trial"",""time""
""fullscreenenter"",""1"",""3848""
","
","","3500.3000000715256","Welcome to the casino!","71","","instructions","2021-07-02 15:18:38.357","","","","","",""
"casino-keyboard-response","7","32694","0.0-6.0-0.1","839","false","img/card_backs/set1/red.gif","img/card_backs/set1/green.gif","img/card_backs/set1/yellow.gif","img/card_backs/set1/purple.gif","img/card_backs/set2/orange.gif","img/card_backs/set2/blue.gif","img/card_backs/set2/gray.gif","img/card_backs/set2/pink.gif","""event"",""trial"",""time""
""fullscreenenter"",""1"",""3848""
","
","
","""event"",""trial"",""time""
""fullscreenenter"",""1"",""3848""
","
","","11571.200000047684","Today you will be playing a game to earn tokens. </br> At the end of the experiment, you will be paid a bonus based on how many tokens you win. ","69","","instructions","2021-07-02 15:18:49.931","","","","","",""
"casino-keyboard-response","8","42433","0.0-6.0-0.2","839","false","img/card_backs/set1/red.gif","img/card_backs/set1/green.gif","img/card_backs/set1/yellow.gif","img/card_backs/set1/purple.gif","img/card_backs/set2/orange.gif","img/card_backs/set2/blue.gif","img/card_backs/set2/gray.gif","img/card_backs/set2/pink.gif","""event"",""trial"",""time""
""fullscreenenter"",""1"",""3848""
","
","
","""event"",""trial"",""time""
""fullscreenenter"",""1"",""3848""
","
","","9737.899999976158","On every turn, you will be shown four different decks of cards. </br> You need to select a card from one of the four decks.  ","75","","instructions","2021-07-02 15:18:59.670","","","","","",""
"casino-keyboard-response","9","51209","0.0-6.0-0.3","839","false","img/card_backs/set1/red.gif","img/card_backs/set1/green.gif","img/card_backs/set1/yellow.gif","img/card_backs/set1/purple.gif","img/card_backs/set2/orange.gif","img/card_backs/set2/blue.gif","img/card_backs/set2/gray.gif","img/card_backs/set2/pink.gif","""event"",""trial"",""time""
""fullscreenenter"",""1"",""3848""
","
","
","""event"",""trial"",""time""
""fullscreenenter"",""1"",""3848""
","
","","8773.199999928474","On the next screen, you will see what the decks will look like. ","66","","instructions","2021-07-02 15:19:08.446","","","","","",""
"card-selection-trial","10","55233","0.0-7.0-0.0","839","false","img/card_backs/set1/red.gif","img/card_backs/set1/green.gif","img/card_backs/set1/yellow.gif","img/card_backs/set1/purple.gif","img/card_backs/set2/orange.gif","img/card_backs/set2/blue.gif","img/card_backs/set2/gray.gif","img/card_backs/set2/pink.gif","""event"",""trial"",""time""
""fullscreenenter"",""1"",""3848""
","
","
","""event"",""trial"",""time""
""fullscreenenter"",""1"",""3848""
","
","","null","","","","practice","2021-07-02 15:19:12.470","null","null","null","0","",""
"casino-keyboard-response","11","75858","0.0-8.0-0.0","839","false","img/card_backs/set1/red.gif","img/card_backs/set1/green.gif","img/card_backs/set1/yellow.gif","img/card_backs/set1/purple.gif","img/card_backs/set2/orange.gif","img/card_backs/set2/blue.gif","img/card_backs/set2/gray.gif","img/card_backs/set2/pink.gif","""event"",""trial"",""time""
""fullscreenenter"",""1"",""3848""
","
","
","""event"",""trial"",""time""
""fullscreenenter"",""1"",""3848""
","
","","20623.600000023842","You should pick a card from a deck using the '2', '4', '6', and '8' keys at the top of the keyboard.","85","","instructions","2021-07-02 15:19:33.095","","","","","",""
"casino-keyboard-response","12","83570","0.0-8.0-0.1","839","false","img/card_backs/set1/red.gif","img/card_backs/set1/green.gif","img/card_backs/set1/yellow.gif","img/card_backs/set1/purple.gif","img/card_backs/set2/orange.gif","img/card_backs/set2/blue.gif","img/card_backs/set2/gray.gif","img/card_backs/set2/pink.gif","""event"",""trial"",""time""
""fullscreenenter"",""1"",""3848""
","
","
","""event"",""trial"",""time""
""fullscreenenter"",""1"",""3848""
","
","","7709.199999928474","Once you select a card, it will turn over and you will see how many tokens you earned.","83","","instructions","2021-07-02 15:19:40.807","","","","","",""
"casino-keyboard-response","13","100686","0.0-8.0-0.2","839","false","img/card_backs/set1/red.gif","img/card_backs/set1/green.gif","img/card_backs/set1/yellow.gif","img/card_backs/set1/purple.gif","img/card_backs/set2/orange.gif","img/card_backs/set2/blue.gif","img/card_backs/set2/gray.gif","img/card_backs/set2/pink.gif","""event"",""trial"",""time""
""fullscreenenter"",""1"",""3848""
","
","
","""event"",""trial"",""time""
""fullscreenenter"",""1"",""3848""
","
","","17113.800000071526","Let's try practicing that! </br> First, try to put your fingers over the '2', '4', '6', and '8' keys. </br>  You can use whatever fingers are most comfortable for you. Try to find a comfortable position now. ","50","","instructions","2021-07-02 15:19:57.923","","","","","",""
"casino-keyboard-response","14","107717","0.0-8.0-0.3","839","false","img/card_backs/set1/red.gif","img/card_backs/set1/green.gif","img/card_backs/set1/yellow.gif","img/card_backs/set1/purple.gif","img/card_backs/set2/orange.gif","img/card_backs/set2/blue.gif","img/card_backs/set2/gray.gif","img/card_backs/set2/pink.gif","""event"",""trial"",""time""
""fullscreenenter"",""1"",""3848""
","
","
","""event"",""trial"",""time""
""fullscreenenter"",""1"",""3848""
","
","","7029","Okay ready? </br> On the next screen, press '2' to select the left deck. ","50","","instructions","2021-07-02 15:20:04.954","","","","","",""
"card-selection-trial","15","112928","0.0-9.0-0.0","839","false","img/card_backs/set1/red.gif","img/card_backs/set1/green.gif","img/card_backs/set1/yellow.gif","img/card_backs/set1/purple.gif","img/card_backs/set2/orange.gif","img/card_backs/set2/blue.gif","img/card_backs/set2/gray.gif","img/card_backs/set2/pink.gif","""event"",""trial"",""time""
""fullscreenenter"",""1"",""3848""
","
","
","""event"",""trial"",""time""
""fullscreenenter"",""1"",""3848""
","
","","3168.7000000476837","","","","practice_card_selection","2021-07-02 15:20:10.165","img/practice_cards/backs/dark_blue.gif","0","200","","",""
"casino-keyboard-response","16","119588","0.0-10.0-0.0","839","false","img/card_backs/set1/red.gif","img/card_backs/set1/green.gif","img/card_backs/set1/yellow.gif","img/card_backs/set1/purple.gif","img/card_backs/set2/orange.gif","img/card_backs/set2/blue.gif","img/card_backs/set2/gray.gif","img/card_backs/set2/pink.gif","""event"",""trial"",""time""
""fullscreenenter"",""1"",""3848""
","
","
","""event"",""trial"",""time""
""fullscreenenter"",""1"",""3848""
","
","","6658.399999976158","Great! Now on the next screen, try pressing '6' to select the third deck.","54","","instructions","2021-07-02 15:20:16.825","","","","","",""
"card-selection-trial","17","122357","0.0-11.0-0.0","839","false","img/card_backs/set1/red.gif","img/card_backs/set1/green.gif","img/card_backs/set1/yellow.gif","img/card_backs/set1/purple.gif","img/card_backs/set2/orange.gif","img/card_backs/set2/blue.gif","img/card_backs/set2/gray.gif","img/card_backs/set2/pink.gif","""event"",""trial"",""time""
""fullscreenenter"",""1"",""3848""
","
","
","""event"",""trial"",""time""
""fullscreenenter"",""1"",""3848""
","
","","754.2000000476837","","","","practice_card_selection","2021-07-02 15:20:19.595","img/practice_cards/backs/dark_blue.gif","2","200","","",""
"casino-keyboard-response","18","127620","0.0-12.0-0.0","839","false","img/card_backs/set1/red.gif","img/card_backs/set1/green.gif","img/card_backs/set1/yellow.gif","img/card_backs/set1/purple.gif","img/card_backs/set2/orange.gif","img/card_backs/set2/blue.gif","img/card_backs/set2/gray.gif","img/card_backs/set2/pink.gif","""event"",""trial"",""time""
""fullscreenenter"",""1"",""3848""
","
","
","""event"",""trial"",""time""
""fullscreenenter"",""1"",""3848""
","
","","5261.299999952316","Now on the next screen, try pressing '4' to select the second deck.","52","","instructions","2021-07-02 15:20:24.857","","","","","",""
"card-selection-trial","19","130231","0.0-13.0-0.0","839","false","img/card_backs/set1/red.gif","img/card_backs/set1/green.gif","img/card_backs/set1/yellow.gif","img/card_backs/set1/purple.gif","img/card_backs/set2/orange.gif","img/card_backs/set2/blue.gif","img/card_backs/set2/gray.gif","img/card_backs/set2/pink.gif","""event"",""trial"",""time""
""fullscreenenter"",""1"",""3848""
","
","
","""event"",""trial"",""time""
""fullscreenenter"",""1"",""3848""
","
","","598.8999999761581","","","","practice_card_selection","2021-07-02 15:20:27.469","img/practice_cards/backs/black.gif","1","100","","",""
"casino-keyboard-response","20","135299","0.0-14.0-0.0","839","false","img/card_backs/set1/red.gif","img/card_backs/set1/green.gif","img/card_backs/set1/yellow.gif","img/card_backs/set1/purple.gif","img/card_backs/set2/orange.gif","img/card_backs/set2/blue.gif","img/card_backs/set2/gray.gif","img/card_backs/set2/pink.gif","""event"",""trial"",""time""
""fullscreenenter"",""1"",""3848""
","
","
","""event"",""trial"",""time""
""fullscreenenter"",""1"",""3848""
","
","","5065.5","Finally, try pressing '8' to select the deck all the way on the right.","56","","instructions","2021-07-02 15:20:32.536","","","","","",""
"card-selection-trial","21","137835","0.0-15.0-0.0","839","false","img/card_backs/set1/red.gif","img/card_backs/set1/green.gif","img/card_backs/set1/yellow.gif","img/card_backs/set1/purple.gif","img/card_backs/set2/orange.gif","img/card_backs/set2/blue.gif","img/card_backs/set2/gray.gif","img/card_backs/set2/pink.gif","""event"",""trial"",""time""
""fullscreenenter"",""1"",""3848""
","
","
","""event"",""trial"",""time""
""fullscreenenter"",""1"",""3848""
","
","","506.3000000715256","","","","practice_card_selection","2021-07-02 15:20:35.072","img/practice_cards/backs/dark_green.gif","3","200","","",""
"casino-keyboard-response","22","146589","0.0-16.0-0.0","839","false","img/card_backs/set1/red.gif","img/card_backs/set1/green.gif","img/card_backs/set1/yellow.gif","img/card_backs/set1/purple.gif","img/card_backs/set2/orange.gif","img/card_backs/set2/blue.gif","img/card_backs/set2/gray.gif","img/card_backs/set2/pink.gif","""event"",""trial"",""time""
""fullscreenenter"",""1"",""3848""
","
","
","""event"",""trial"",""time""
""fullscreenenter"",""1"",""3848""
","
","","8752.299999952316","Great! It seems like you are getting the hang of this.","80","","instructions","2021-07-02 15:20:43.826","","","","","",""
"casino-keyboard-response","23","158015","0.0-16.0-0.1","839","false","img/card_backs/set1/red.gif","img/card_backs/set1/green.gif","img/card_backs/set1/yellow.gif","img/card_backs/set1/purple.gif","img/card_backs/set2/orange.gif","img/card_backs/set2/blue.gif","img/card_backs/set2/gray.gif","img/card_backs/set2/pink.gif","""event"",""trial"",""time""
""fullscreenenter"",""1"",""3848""
","
","
","""event"",""trial"",""time""
""fullscreenenter"",""1"",""3848""
","
","","11423.699999928474","You may have noticed that some cards will cause you to <b> win </b> tokens while other cards will cause you to <b> lose </b>  tokens.","70","","instructions","2021-07-02 15:20:55.252","","","","","",""
"casino-keyboard-response","24","167427","0.0-16.0-0.2","839","false","img/card_backs/set1/red.gif","img/card_backs/set1/green.gif","img/card_backs/set1/yellow.gif","img/card_backs/set1/purple.gif","img/card_backs/set2/orange.gif","img/card_backs/set2/blue.gif","img/card_backs/set2/gray.gif","img/card_backs/set2/pink.gif","""event"",""trial"",""time""
""fullscreenenter"",""1"",""3848""
","
","
","""event"",""trial"",""time""
""fullscreenenter"",""1"",""3848""
","
","","9408.399999976158","Each deck has a mix of cards that will cause you to win and lose tokens. </br> However, the cards in each colored deck are different.","73","","instructions","2021-07-02 15:21:04.664","","","","","",""
"casino-keyboard-response","25","177357","0.0-16.0-0.3","839","false","img/card_backs/set1/red.gif","img/card_backs/set1/green.gif","img/card_backs/set1/yellow.gif","img/card_backs/set1/purple.gif","img/card_backs/set2/orange.gif","img/card_backs/set2/blue.gif","img/card_backs/set2/gray.gif","img/card_backs/set2/pink.gif","""event"",""trial"",""time""
""fullscreenenter"",""1"",""3848""
","
","
","""event"",""trial"",""time""
""fullscreenenter"",""1"",""3848""
","
","","9926.299999952316","Some colored decks are luckier than others. </br> If you choose the lucky decks, you will earn more tokens than if you choose the unlucky decks.","69","","instructions","2021-07-02 15:21:14.594","","","","","",""
"casino-keyboard-response","26","185863","0.0-16.0-0.4","839","false","img/card_backs/set1/red.gif","img/card_backs/set1/green.gif","img/card_backs/set1/yellow.gif","img/card_backs/set1/purple.gif","img/card_backs/set2/orange.gif","img/card_backs/set2/blue.gif","img/card_backs/set2/gray.gif","img/card_backs/set2/pink.gif","""event"",""trial"",""time""
""fullscreenenter"",""1"",""3848""
","
","
","""event"",""trial"",""time""
""fullscreenenter"",""1"",""3848""
","
","","8503.600000023842","You should try to figure out which decks are lucky. </br> Then, try to choose the lucky decks so you can win the most tokens.","87","","instructions","2021-07-02 15:21:23.100","","","","","",""
"casino-keyboard-response","27","203098","0.0-16.0-0.5","839","false","img/card_backs/set1/red.gif","img/card_backs/set1/green.gif","img/card_backs/set1/yellow.gif","img/card_backs/set1/purple.gif","img/card_backs/set2/orange.gif","img/card_backs/set2/blue.gif","img/card_backs/set2/gray.gif","img/card_backs/set2/pink.gif","""event"",""trial"",""time""
""fullscreenenter"",""1"",""3848""
","
","
","""event"",""trial"",""time""
""fullscreenenter"",""1"",""3848""
","
","","17232.700000047684","To make it trickier, the casino dealer will switch the locations of the decks on every turn. </br> The color of the deck determines how lucky it is. The location does not matter.","88","","instructions","2021-07-02 15:21:40.335","","","","","",""
"casino-keyboard-response","28","213753","0.0-16.0-0.6","839","false","img/card_backs/set1/red.gif","img/card_backs/set1/green.gif","img/card_backs/set1/yellow.gif","img/card_backs/set1/purple.gif","img/card_backs/set2/orange.gif","img/card_backs/set2/blue.gif","img/card_backs/set2/gray.gif","img/card_backs/set2/pink.gif","""event"",""trial"",""time""
""fullscreenenter"",""1"",""3848""
","
","
","""event"",""trial"",""time""
""fullscreenenter"",""1"",""3848""
","
","","10652","The mix of cards in each colored deck will stay the same throughout the game. </br> That means that a deck that is lucky early on will stay lucky.","79","","instructions","2021-07-02 15:21:50.990","","","","","",""
"casino-keyboard-response","29","225399","0.0-16.0-0.7","839","false","img/card_backs/set1/red.gif","img/card_backs/set1/green.gif","img/card_backs/set1/yellow.gif","img/card_backs/set1/purple.gif","img/card_backs/set2/orange.gif","img/card_backs/set2/blue.gif","img/card_backs/set2/gray.gif","img/card_backs/set2/pink.gif","""event"",""trial"",""time""
""fullscreenenter"",""1"",""3848""
","
","
","""event"",""trial"",""time""
""fullscreenenter"",""1"",""3848""
","
","","11644.100000023842","Remember though, all the decks have a <b> mix </b> of both <b> good </b> and <b> bad </b> cards so it may take a couple of turns to figure out if a deck is lucky.","69","","instructions","2021-07-02 15:22:02.636","","","","","",""
"casino-keyboard-response","30","234675","0.0-16.0-0.8","839","false","img/card_backs/set1/red.gif","img/card_backs/set1/green.gif","img/card_backs/set1/yellow.gif","img/card_backs/set1/purple.gif","img/card_backs/set2/orange.gif","img/card_backs/set2/blue.gif","img/card_backs/set2/gray.gif","img/card_backs/set2/pink.gif","""event"",""trial"",""time""
""fullscreenenter"",""1"",""3848""
","
","
","""event"",""trial"",""time""
""fullscreenenter"",""1"",""3848""
","
","","9272.700000047684","At the end of the game, you will be paid bonus money based on how many tokens you win. </br> If you win more tokens, you will earn more money!","72","","instructions","2021-07-02 15:22:11.912","","","","","",""
"casino-keyboard-response","31","246750","0.0-16.0-0.9","839","false","img/card_backs/set1/red.gif","img/card_backs/set1/green.gif","img/card_backs/set1/yellow.gif","img/card_backs/set1/purple.gif","img/card_backs/set2/orange.gif","img/card_backs/set2/blue.gif","img/card_backs/set2/gray.gif","img/card_backs/set2/pink.gif","""event"",""trial"",""time""
""fullscreenenter"",""1"",""3848""
","
","
","""event"",""trial"",""time""
""fullscreenenter"",""1"",""3848""
","
","","12077.5","You will never <b> lose </b> money. </br> If you end up with fewer than 0 tokens, you will earn $0 of bonus money, but you will still be paid for playing the game.","83","","instructions","2021-07-02 15:22:23.987","","","","","",""
"casino-keyboard-response","32","252628","0.0-16.0-0.10","839","false","img/card_backs/set1/red.gif","img/card_backs/set1/green.gif","img/card_backs/set1/yellow.gif","img/card_backs/set1/purple.gif","img/card_backs/set2/orange.gif","img/card_backs/set2/blue.gif","img/card_backs/set2/gray.gif","img/card_backs/set2/pink.gif","""event"",""trial"",""time""
""fullscreenenter"",""1"",""3848""
","
","
","""event"",""trial"",""time""
""fullscreenenter"",""1"",""3848""
","
","","5875.199999928474","You will have 10 seconds to make each choice.","82","","instructions","2021-07-02 15:22:29.865","","","","","",""
"casino-keyboard-response","33","267251","0.0-16.0-0.11","839","false","img/card_backs/set1/red.gif","img/card_backs/set1/green.gif","img/card_backs/set1/yellow.gif","img/card_backs/set1/purple.gif","img/card_backs/set2/orange.gif","img/card_backs/set2/blue.gif","img/card_backs/set2/gray.gif","img/card_backs/set2/pink.gif","""event"",""trial"",""time""
""fullscreenenter"",""1"",""3848""
","
","
","""event"",""trial"",""time""
""fullscreenenter"",""1"",""3848""
","
","","14619.400000095367","Before you play the game for real, you will play with practice decks. </br> The tokens you earn during practice won't count toward your total.","86","","instructions","2021-07-02 15:22:44.488","","","","","",""
"casino-keyboard-response","34","278559","0.0-16.0-0.12","839","false","img/card_backs/set1/red.gif","img/card_backs/set1/green.gif","img/card_backs/set1/yellow.gif","img/card_backs/set1/purple.gif","img/card_backs/set2/orange.gif","img/card_backs/set2/blue.gif","img/card_backs/set2/gray.gif","img/card_backs/set2/pink.gif","""event"",""trial"",""time""
""fullscreenenter"",""1"",""3848""
","
","
","""event"",""trial"",""time""
""fullscreenenter"",""1"",""3848""
","
","","11305.800000071526","Ready? Remember, use the '2', '4', '6', and '8' keys to select the decks. </br> Put your fingers on those keys now and then press '2' to begin.","50","","instructions","2021-07-02 15:22:55.796","","","","","",""
"casino-fixation","35","279080","0.0-17.0-0.0","839","false","img/card_backs/set1/red.gif","img/card_backs/set1/green.gif","img/card_backs/set1/yellow.gif","img/card_backs/set1/purple.gif","img/card_backs/set2/orange.gif","img/card_backs/set2/blue.gif","img/card_backs/set2/gray.gif","img/card_backs/set2/pink.gif","""event"",""trial"",""time""
""fullscreenenter"",""1"",""3848""
","
","
","""event"",""trial"",""time""
""fullscreenenter"",""1"",""3848""
","
","","null","","null","","fixation","2021-07-02 15:22:56.317","","","","","",""
"card-selection-trial","36","283784","0.0-17.0-1.0","839","false","img/card_backs/set1/red.gif","img/card_backs/set1/green.gif","img/card_backs/set1/yellow.gif","img/card_backs/set1/purple.gif","img/card_backs/set2/orange.gif","img/card_backs/set2/blue.gif","img/card_backs/set2/gray.gif","img/card_backs/set2/pink.gif","""event"",""trial"",""time""
""fullscreenenter"",""1"",""3848""
","
","
","""event"",""trial"",""time""
""fullscreenenter"",""1"",""3848""
","
","","2683","","","","practice","2021-07-02 15:23:01.021","img/practice_cards/backs/black.gif","2","100","0","",""
"casino-fixation","37","284306","0.0-17.0-0.1","839","false","img/card_backs/set1/red.gif","img/card_backs/set1/green.gif","img/card_backs/set1/yellow.gif","img/card_backs/set1/purple.gif","img/card_backs/set2/orange.gif","img/card_backs/set2/blue.gif","img/card_backs/set2/gray.gif","img/card_backs/set2/pink.gif","""event"",""trial"",""time""
""fullscreenenter"",""1"",""3848""
","
","
","""event"",""trial"",""time""
""fullscreenenter"",""1"",""3848""
","
","","null","","null","","fixation","2021-07-02 15:23:01.543","","","","","",""
"card-selection-trial","38","290750","0.0-17.0-1.1","839","false","img/card_backs/set1/red.gif","img/card_backs/set1/green.gif","img/card_backs/set1/yellow.gif","img/card_backs/set1/purple.gif","img/card_backs/set2/orange.gif","img/card_backs/set2/blue.gif","img/card_backs/set2/gray.gif","img/card_backs/set2/pink.gif","""event"",""trial"",""time""
""fullscreenenter"",""1"",""3848""
","
","
","""event"",""trial"",""time""
""fullscreenenter"",""1"",""3848""
","
","","4435.5","","","","practice","2021-07-02 15:23:07.988","img/practice_cards/backs/dark_blue.gif","1","200","0","",""
"casino-fixation","39","291262","0.0-17.0-0.2","839","false","img/card_backs/set1/red.gif","img/card_backs/set1/green.gif","img/card_backs/set1/yellow.gif","img/card_backs/set1/purple.gif","img/card_backs/set2/orange.gif","img/card_backs/set2/blue.gif","img/card_backs/set2/gray.gif","img/card_backs/set2/pink.gif","""event"",""trial"",""time""
""fullscreenenter"",""1"",""3848""
","
","
","""event"",""trial"",""time""
""fullscreenenter"",""1"",""3848""
","
","","null","","null","","fixation","2021-07-02 15:23:08.499","","","","","",""
"card-selection-trial","40","294851","0.0-17.0-1.2","839","false","img/card_backs/set1/red.gif","img/card_backs/set1/green.gif","img/card_backs/set1/yellow.gif","img/card_backs/set1/purple.gif","img/card_backs/set2/orange.gif","img/card_backs/set2/blue.gif","img/card_backs/set2/gray.gif","img/card_backs/set2/pink.gif","""event"",""trial"",""time""
""fullscreenenter"",""1"",""3848""
","
","
","""event"",""trial"",""time""
""fullscreenenter"",""1"",""3848""
","
","","1578.3999999761581","","","","practice","2021-07-02 15:23:12.088","img/practice_cards/backs/brown.gif","3","100","0","",""
"casino-fixation","41","295358","0.0-17.0-0.3","839","false","img/card_backs/set1/red.gif","img/card_backs/set1/green.gif","img/card_backs/set1/yellow.gif","img/card_backs/set1/purple.gif","img/card_backs/set2/orange.gif","img/card_backs/set2/blue.gif","img/card_backs/set2/gray.gif","img/card_backs/set2/pink.gif","""event"",""trial"",""time""
""fullscreenenter"",""1"",""3848""
","
","
","""event"",""trial"",""time""
""fullscreenenter"",""1"",""3848""
","
","","null","","null","","fixation","2021-07-02 15:23:12.595","","","","","",""
"card-selection-trial","42","301555","0.0-17.0-1.3","839","false","img/card_backs/set1/red.gif","img/card_backs/set1/green.gif","img/card_backs/set1/yellow.gif","img/card_backs/set1/purple.gif","img/card_backs/set2/orange.gif","img/card_backs/set2/blue.gif","img/card_backs/set2/gray.gif","img/card_backs/set2/pink.gif","""event"",""trial"",""time""
""fullscreenenter"",""1"",""3848""
","
","
","""event"",""trial"",""time""
""fullscreenenter"",""1"",""3848""
","
","","4168.699999928474","","","","practice","2021-07-02 15:23:18.793","img/practice_cards/backs/black.gif","2","-100","0","",""
"casino-fixation","43","302061","0.0-17.0-0.4","839","false","img/card_backs/set1/red.gif","img/card_backs/set1/green.gif","img/card_backs/set1/yellow.gif","img/card_backs/set1/purple.gif","img/card_backs/set2/orange.gif","img/card_backs/set2/blue.gif","img/card_backs/set2/gray.gif","img/card_backs/set2/pink.gif","""event"",""trial"",""time""
""fullscreenenter"",""1"",""3848""
","
","
","""event"",""trial"",""time""
""fullscreenenter"",""1"",""3848""
","
","","null","","null","","fixation","2021-07-02 15:23:19.298","","","","","",""
"card-selection-trial","44","307031","0.0-17.0-1.4","839","false","img/card_backs/set1/red.gif","img/card_backs/set1/green.gif","img/card_backs/set1/yellow.gif","img/card_backs/set1/purple.gif","img/card_backs/set2/orange.gif","img/card_backs/set2/blue.gif","img/card_backs/set2/gray.gif","img/card_backs/set2/pink.gif","""event"",""trial"",""time""
""fullscreenenter"",""1"",""3848""
","
","
","""event"",""trial"",""time""
""fullscreenenter"",""1"",""3848""
","
","","2941.899999976158","","","","practice","2021-07-02 15:23:24.268","img/practice_cards/backs/brown.gif","0","100","0","",""
"casino-fixation","45","307549","0.0-17.0-0.5","839","false","img/card_backs/set1/red.gif","img/card_backs/set1/green.gif","img/card_backs/set1/yellow.gif","img/card_backs/set1/purple.gif","img/card_backs/set2/orange.gif","img/card_backs/set2/blue.gif","img/card_backs/set2/gray.gif","img/card_backs/set2/pink.gif","""event"",""trial"",""time""
""fullscreenenter"",""1"",""3848""
","
","
","""event"",""trial"",""time""
""fullscreenenter"",""1"",""3848""
","
","","null","","null","","fixation","2021-07-02 15:23:24.786","","","","","",""
"card-selection-trial","46","311386","0.0-17.0-1.5","839","false","img/card_backs/set1/red.gif","img/card_backs/set1/green.gif","img/card_backs/set1/yellow.gif","img/card_backs/set1/purple.gif","img/card_backs/set2/orange.gif","img/card_backs/set2/blue.gif","img/card_backs/set2/gray.gif","img/card_backs/set2/pink.gif","""event"",""trial"",""time""
""fullscreenenter"",""1"",""3848""
","
","
","""event"",""trial"",""time""
""fullscreenenter"",""1"",""3848""
","
","","1820.8999999761581","","","","practice","2021-07-02 15:23:28.623","img/practice_cards/backs/brown.gif","3","-100","0","",""
"casino-fixation","47","311891","0.0-17.0-0.6","839","false","img/card_backs/set1/red.gif","img/card_backs/set1/green.gif","img/card_backs/set1/yellow.gif","img/card_backs/set1/purple.gif","img/card_backs/set2/orange.gif","img/card_backs/set2/blue.gif","img/card_backs/set2/gray.gif","img/card_backs/set2/pink.gif","""event"",""trial"",""time""
""fullscreenenter"",""1"",""3848""
","
","
","""event"",""trial"",""time""
""fullscreenenter"",""1"",""3848""
","
","","null","","null","","fixation","2021-07-02 15:23:29.129","","","","","",""
"card-selection-trial","48","317743","0.0-17.0-1.6","839","false","img/card_backs/set1/red.gif","img/card_backs/set1/green.gif","img/card_backs/set1/yellow.gif","img/card_backs/set1/purple.gif","img/card_backs/set2/orange.gif","img/card_backs/set2/blue.gif","img/card_backs/set2/gray.gif","img/card_backs/set2/pink.gif","""event"",""trial"",""time""
""fullscreenenter"",""1"",""3848""
","
","
","""event"",""trial"",""time""
""fullscreenenter"",""1"",""3848""
","
","","3841.2000000476837","","","","practice","2021-07-02 15:23:34.981","img/practice_cards/backs/dark_blue.gif","3","200","0","",""
"casino-fixation","49","318248","0.0-17.0-0.7","839","false","img/card_backs/set1/red.gif","img/card_backs/set1/green.gif","img/card_backs/set1/yellow.gif","img/card_backs/set1/purple.gif","img/card_backs/set2/orange.gif","img/card_backs/set2/blue.gif","img/card_backs/set2/gray.gif","img/card_backs/set2/pink.gif","""event"",""trial"",""time""
""fullscreenenter"",""1"",""3848""
","
","
","""event"",""trial"",""time""
""fullscreenenter"",""1"",""3848""
","
","","null","","null","","fixation","2021-07-02 15:23:35.485","","","","","",""
"card-selection-trial","50","321656","0.0-17.0-1.7","839","false","img/card_backs/set1/red.gif","img/card_backs/set1/green.gif","img/card_backs/set1/yellow.gif","img/card_backs/set1/purple.gif","img/card_backs/set2/orange.gif","img/card_backs/set2/blue.gif","img/card_backs/set2/gray.gif","img/card_backs/set2/pink.gif","""event"",""trial"",""time""
""fullscreenenter"",""1"",""3848""
","
","
","""event"",""trial"",""time""
""fullscreenenter"",""1"",""3848""
","
","","1394.2000000476837","","","","practice","2021-07-02 15:23:38.893","img/practice_cards/backs/dark_blue.gif","0","-200","0","",""
"casino-fixation","51","322173","0.0-17.0-0.8","839","false","img/card_backs/set1/red.gif","img/card_backs/set1/green.gif","img/card_backs/set1/yellow.gif","img/card_backs/set1/purple.gif","img/card_backs/set2/orange.gif","img/card_backs/set2/blue.gif","img/card_backs/set2/gray.gif","img/card_backs/set2/pink.gif","""event"",""trial"",""time""
""fullscreenenter"",""1"",""3848""
","
","
","""event"",""trial"",""time""
""fullscreenenter"",""1"",""3848""
","
","","null","","null","","fixation","2021-07-02 15:23:39.411","","","","","",""
"card-selection-trial","52","324860","0.0-17.0-1.8","839","false","img/card_backs/set1/red.gif","img/card_backs/set1/green.gif","img/card_backs/set1/yellow.gif","img/card_backs/set1/purple.gif","img/card_backs/set2/orange.gif","img/card_backs/set2/blue.gif","img/card_backs/set2/gray.gif","img/card_backs/set2/pink.gif","""event"",""trial"",""time""
""fullscreenenter"",""1"",""3848""
","
","
","""event"",""trial"",""time""
""fullscreenenter"",""1"",""3848""
","
","","668.6000000238419","","","","practice","2021-07-02 15:23:42.097","img/practice_cards/backs/black.gif","2","-100","0","",""
"casino-fixation","53","325379","0.0-17.0-0.9","839","false","img/card_backs/set1/red.gif","img/card_backs/set1/green.gif","img/card_backs/set1/yellow.gif","img/card_backs/set1/purple.gif","img/card_backs/set2/orange.gif","img/card_backs/set2/blue.gif","img/card_backs/set2/gray.gif","img/card_backs/set2/pink.gif","""event"",""trial"",""time""
""fullscreenenter"",""1"",""3848""
","
","
","""event"",""trial"",""time""
""fullscreenenter"",""1"",""3848""
","
","","null","","null","","fixation","2021-07-02 15:23:42.616","","","","","",""
"card-selection-trial","54","327927","0.0-17.0-1.9","839","false","img/card_backs/set1/red.gif","img/card_backs/set1/green.gif","img/card_backs/set1/yellow.gif","img/card_backs/set1/purple.gif","img/card_backs/set2/orange.gif","img/card_backs/set2/blue.gif","img/card_backs/set2/gray.gif","img/card_backs/set2/pink.gif","""event"",""trial"",""time""
""fullscreenenter"",""1"",""3848""
","
","
","""event"",""trial"",""time""
""fullscreenenter"",""1"",""3848""
","
","","537.1000000238419","","","","practice","2021-07-02 15:23:45.164","img/practice_cards/backs/black.gif","1","100","0","",""
"casino-keyboard-response","55","333568","0.0-18.0","839","false","img/card_backs/set1/red.gif","img/card_backs/set1/green.gif","img/card_backs/set1/yellow.gif","img/card_backs/set1/purple.gif","img/card_backs/set2/orange.gif","img/card_backs/set2/blue.gif","img/card_backs/set2/gray.gif","img/card_backs/set2/pink.gif","""event"",""trial"",""time""
""fullscreenenter"",""1"",""3848""
","
","
","""event"",""trial"",""time""
""fullscreenenter"",""1"",""3848""
","
","","5639.299999952316","You earned 300 tokens during the practice round!","82","","","2021-07-02 15:23:50.805","","","","","",""
"casino-keyboard-response","56","338801","0.0-19.0-0.0","839","false","img/card_backs/set1/red.gif","img/card_backs/set1/green.gif","img/card_backs/set1/yellow.gif","img/card_backs/set1/purple.gif","img/card_backs/set2/orange.gif","img/card_backs/set2/blue.gif","img/card_backs/set2/gray.gif","img/card_backs/set2/pink.gif","""event"",""trial"",""time""
""fullscreenenter"",""1"",""3848""
","
","
","""event"",""trial"",""time""
""fullscreenenter"",""1"",""3848""
","
","","5231.5","Nice job! You are almost ready to play the real game.","86","","instructions","2021-07-02 15:23:56.039","","","","","",""
"casino-keyboard-response","57","346946","0.0-19.0-0.1","839","false","img/card_backs/set1/red.gif","img/card_backs/set1/green.gif","img/card_backs/set1/yellow.gif","img/card_backs/set1/purple.gif","img/card_backs/set2/orange.gif","img/card_backs/set2/blue.gif","img/card_backs/set2/gray.gif","img/card_backs/set2/pink.gif","""event"",""trial"",""time""
""fullscreenenter"",""1"",""3848""
","
","
","""event"",""trial"",""time""
""fullscreenenter"",""1"",""3848""
","
","","8142.400000095367","You will play two rounds of the real game. In each round, you will pick 100 cards in total.","73","","instructions","2021-07-02 15:24:04.183","","","","","",""
"casino-keyboard-response","58","356521","0.0-19.0-0.2","839","false","img/card_backs/set1/red.gif","img/card_backs/set1/green.gif","img/card_backs/set1/yellow.gif","img/card_backs/set1/purple.gif","img/card_backs/set2/orange.gif","img/card_backs/set2/blue.gif","img/card_backs/set2/gray.gif","img/card_backs/set2/pink.gif","""event"",""trial"",""time""
""fullscreenenter"",""1"",""3848""
","
","
","""event"",""trial"",""time""
""fullscreenenter"",""1"",""3848""
","
","","9572.600000023842","We are now going to ask you some questions about how the game works.","66","","instructions","2021-07-02 15:24:13.758","","","","","",""
"casino-keyboard-response","59","371854","0.0-19.0-0.3","839","false","img/card_backs/set1/red.gif","img/card_backs/set1/green.gif","img/card_backs/set1/yellow.gif","img/card_backs/set1/purple.gif","img/card_backs/set2/orange.gif","img/card_backs/set2/blue.gif","img/card_backs/set2/gray.gif","img/card_backs/set2/pink.gif","""event"",""trial"",""time""
""fullscreenenter"",""1"",""3848""
","
","
","""event"",""trial"",""time""
""fullscreenenter"",""1"",""3848""
","
","","15331.300000071526","Answer carefully. You will not be able to begin the game until you answer them correctly.","67","","instructions","2021-07-02 15:24:29.091","","","","","",""
"casino-comp_q","60","386011","0.0-20.0-0.0","839","false","img/card_backs/set1/red.gif","img/card_backs/set1/green.gif","img/card_backs/set1/yellow.gif","img/card_backs/set1/purple.gif","img/card_backs/set2/orange.gif","img/card_backs/set2/blue.gif","img/card_backs/set2/gray.gif","img/card_backs/set2/pink.gif","""event"",""trial"",""time""
""fullscreenenter"",""1"",""3848""
","
","
","""event"",""trial"",""time""
""fullscreenenter"",""1"",""3848""
","
","","14153.899999976158","True or False: All the decks have some cards that cause you to win tokens and some cards that cause you to lose tokens.","84","","","2021-07-02 15:24:43.248","","","","","",""
"casino-keyboard-response","61","391793","0.0-20.0-1.0","839","false","img/card_backs/set1/red.gif","img/card_backs/set1/green.gif","img/card_backs/set1/yellow.gif","img/card_backs/set1/purple.gif","img/card_backs/set2/orange.gif","img/card_backs/set2/blue.gif","img/card_backs/set2/gray.gif","img/card_backs/set2/pink.gif","""event"",""trial"",""time""
""fullscreenenter"",""1"",""3848""
","
","
","""event"",""trial"",""time""
""fullscreenenter"",""1"",""3848""
","
","","5778.600000023842","True is correct! All the decks have a mix of winning and losing cards.","77","","","2021-07-02 15:24:49.031","","","","","true",""
"casino-comp_q","62","399367","0.0-21.0-0.0","839","false","img/card_backs/set1/red.gif","img/card_backs/set1/green.gif","img/card_backs/set1/yellow.gif","img/card_backs/set1/purple.gif","img/card_backs/set2/orange.gif","img/card_backs/set2/blue.gif","img/card_backs/set2/gray.gif","img/card_backs/set2/pink.gif","""event"",""trial"",""time""
""fullscreenenter"",""1"",""3848""
","
","
","""event"",""trial"",""time""
""fullscreenenter"",""1"",""3848""
","
","","7571.5","True or False: You will have as much time as you want to make your response.","70","","","2021-07-02 15:24:56.605","","","","","",""
"casino-keyboard-response","63","406517","0.0-21.0-1.0","839","false","img/card_backs/set1/red.gif","img/card_backs/set1/green.gif","img/card_backs/set1/yellow.gif","img/card_backs/set1/purple.gif","img/card_backs/set2/orange.gif","img/card_backs/set2/blue.gif","img/card_backs/set2/gray.gif","img/card_backs/set2/pink.gif","""event"",""trial"",""time""
""fullscreenenter"",""1"",""3848""
","
","
","""event"",""trial"",""time""
""fullscreenenter"",""1"",""3848""
","
","","7145.799999952316","False is correct! You will only have 10 seconds to make each choice.","75","","","2021-07-02 15:25:03.754","","","","","true",""
"casino-comp_q","64","412439","0.0-22.0-0.0","839","false","img/card_backs/set1/red.gif","img/card_backs/set1/green.gif","img/card_backs/set1/yellow.gif","img/card_backs/set1/purple.gif","img/card_backs/set2/orange.gif","img/card_backs/set2/blue.gif","img/card_backs/set2/gray.gif","img/card_backs/set2/pink.gif","""event"",""trial"",""time""
""fullscreenenter"",""1"",""3848""
","
","
","""event"",""trial"",""time""
""fullscreenenter"",""1"",""3848""
","
","","5919.600000023842","True or False: The location of the deck determines how lucky it is.","84","","","2021-07-02 15:25:09.676","","","","","",""
"casino-keyboard-response","65","419926","0.0-22.0-1.0","839","false","img/card_backs/set1/red.gif","img/card_backs/set1/green.gif","img/card_backs/set1/yellow.gif","img/card_backs/set1/purple.gif","img/card_backs/set2/orange.gif","img/card_backs/set2/blue.gif","img/card_backs/set2/gray.gif","img/card_backs/set2/pink.gif","""event"",""trial"",""time""
""fullscreenenter"",""1"",""3848""
","
","
","""event"",""trial"",""time""
""fullscreenenter"",""1"",""3848""
","
","","7484.800000071526","True is incorrect. The <i>color</i> of the deck determines how lucky or unlucky it is.","68","","","2021-07-02 15:25:17.163","","","","","false",""
"casino-comp_q","66","430719","0.0-22.1-0.1","839","false","img/card_backs/set1/red.gif","img/card_backs/set1/green.gif","img/card_backs/set1/yellow.gif","img/card_backs/set1/purple.gif","img/card_backs/set2/orange.gif","img/card_backs/set2/blue.gif","img/card_backs/set2/gray.gif","img/card_backs/set2/pink.gif","""event"",""trial"",""time""
""fullscreenenter"",""1"",""3848""
","
","
","""event"",""trial"",""time""
""fullscreenenter"",""1"",""3848""
","
","","10790.5","True or False: The location of the deck determines how lucky it is.","70","","","2021-07-02 15:25:27.956","","","","","",""
"casino-keyboard-response","67","438147","0.0-22.1-1.1","839","false","img/card_backs/set1/red.gif","img/card_backs/set1/green.gif","img/card_backs/set1/yellow.gif","img/card_backs/set1/purple.gif","img/card_backs/set2/orange.gif","img/card_backs/set2/blue.gif","img/card_backs/set2/gray.gif","img/card_backs/set2/pink.gif","""event"",""trial"",""time""
""fullscreenenter"",""1"",""3848""
","
","
","""event"",""trial"",""time""
""fullscreenenter"",""1"",""3848""
","
","","7425.199999928474","False is correct! The <i>color</i>  of the deck determines how lucky or unlucky it is.","68","","","2021-07-02 15:25:35.384","","","","","true",""
"casino-keyboard-response","68","444756","0.0-23.0-0.0","839","false","img/card_backs/set1/red.gif","img/card_backs/set1/green.gif","img/card_backs/set1/yellow.gif","img/card_backs/set1/purple.gif","img/card_backs/set2/orange.gif","img/card_backs/set2/blue.gif","img/card_backs/set2/gray.gif","img/card_backs/set2/pink.gif","""event"",""trial"",""time""
""fullscreenenter"",""1"",""3848""
","
","
","""event"",""trial"",""time""
""fullscreenenter"",""1"",""3848""
","
","","6607.799999952316","Great job! Now it's time to start the real game.","82","","instructions","2021-07-02 15:25:41.993","","","","","",""
"casino-keyboard-response","69","451339","0.0-23.0-0.1","839","false","img/card_backs/set1/red.gif","img/card_backs/set1/green.gif","img/card_backs/set1/yellow.gif","img/card_backs/set1/purple.gif","img/card_backs/set2/orange.gif","img/card_backs/set2/blue.gif","img/card_backs/set2/gray.gif","img/card_backs/set2/pink.gif","""event"",""trial"",""time""
""fullscreenenter"",""1"",""3848""
","
","
","""event"",""trial"",""time""
""fullscreenenter"",""1"",""3848""
","
","","6580.899999976158","Before we start, we're going to head into a new room of the casino.","86","","instructions","2021-07-02 15:25:48.576","","","","","",""
"casino-keyboard-response","70","461233","0.0-24.0-0.0","839","false","img/card_backs/set1/red.gif","img/card_backs/set1/green.gif","img/card_backs/set1/yellow.gif","img/card_backs/set1/purple.gif","img/card_backs/set2/orange.gif","img/card_backs/set2/blue.gif","img/card_backs/set2/gray.gif","img/card_backs/set2/pink.gif","""event"",""trial"",""time""
""fullscreenenter"",""1"",""3848""
","
","
","""event"",""trial"",""time""
""fullscreenenter"",""1"",""3848""
","
","","9891.799999952316","Here we are! The real game will use different cards, but the rules will be the same.","71","","instructions","2021-07-02 15:25:58.470","","","","","",""
"casino-keyboard-response","71","466135","0.0-24.0-0.1","839","false","img/card_backs/set1/red.gif","img/card_backs/set1/green.gif","img/card_backs/set1/yellow.gif","img/card_backs/set1/purple.gif","img/card_backs/set2/orange.gif","img/card_backs/set2/blue.gif","img/card_backs/set2/gray.gif","img/card_backs/set2/pink.gif","""event"",""trial"",""time""
""fullscreenenter"",""1"",""3848""
","
","
","""event"",""trial"",""time""
""fullscreenenter"",""1"",""3848""
","
","","4900.5","Ready? Put your fingers over the '2', '4', 6', and '8' keys so you are ready to play the game. </br> Then press 2 to start.","50","","instructions","2021-07-02 15:26:03.372","","","","","",""
"casino-fixation","72","466640","0.0-25.0-0.0","839","false","img/card_backs/set1/red.gif","img/card_backs/set1/green.gif","img/card_backs/set1/yellow.gif","img/card_backs/set1/purple.gif","img/card_backs/set2/orange.gif","img/card_backs/set2/blue.gif","img/card_backs/set2/gray.gif","img/card_backs/set2/pink.gif","""event"",""trial"",""time""
""fullscreenenter"",""1"",""3848""
","
","
","""event"",""trial"",""time""
""fullscreenenter"",""1"",""3848""
","
","","null","","null","","fixation","2021-07-02 15:26:03.877","","","","","",""
"card-selection-trial","73","471135","0.0-25.0-1.0","839","false","img/card_backs/set1/red.gif","img/card_backs/set1/green.gif","img/card_backs/set1/yellow.gif","img/card_backs/set1/purple.gif","img/card_backs/set2/orange.gif","img/card_backs/set2/blue.gif","img/card_backs/set2/gray.gif","img/card_backs/set2/pink.gif","""event"",""trial"",""time""
""fullscreenenter"",""1"",""3848""
","
","
","""event"",""trial"",""time""
""fullscreenenter"",""1"",""3848""
","
","","2476.399999976158","","","","real_trial","2021-07-02 15:26:08.372","img/card_backs/set1/red.gif","2","-230","1","",""
"casino-fixation","74","471654","0.0-25.0-0.1","839","false","img/card_backs/set1/red.gif","img/card_backs/set1/green.gif","img/card_backs/set1/yellow.gif","img/card_backs/set1/purple.gif","img/card_backs/set2/orange.gif","img/card_backs/set2/blue.gif","img/card_backs/set2/gray.gif","img/card_backs/set2/pink.gif","""event"",""trial"",""time""
""fullscreenenter"",""1"",""3848""
","
","
","""event"",""trial"",""time""
""fullscreenenter"",""1"",""3848""
","
","","null","","null","","fixation","2021-07-02 15:26:08.891","","","","","",""
"card-selection-trial","75","474859","0.0-25.0-1.1","839","false","img/card_backs/set1/red.gif","img/card_backs/set1/green.gif","img/card_backs/set1/yellow.gif","img/card_backs/set1/purple.gif","img/card_backs/set2/orange.gif","img/card_backs/set2/blue.gif","img/card_backs/set2/gray.gif","img/card_backs/set2/pink.gif","""event"",""trial"",""time""
""fullscreenenter"",""1"",""3848""
","
","
","""event"",""trial"",""time""
""fullscreenenter"",""1"",""3848""
","
","","1184.2999999523163","","","","real_trial","2021-07-02 15:26:12.096","img/card_backs/set1/green.gif","2","-250","1","",""
"casino-fixation","76","475377","0.0-25.0-0.2","839","false","img/card_backs/set1/red.gif","img/card_backs/set1/green.gif","img/card_backs/set1/yellow.gif","img/card_backs/set1/purple.gif","img/card_backs/set2/orange.gif","img/card_backs/set2/blue.gif","img/card_backs/set2/gray.gif","img/card_backs/set2/pink.gif","""event"",""trial"",""time""
""fullscreenenter"",""1"",""3848""
","
","
","""event"",""trial"",""time""
""fullscreenenter"",""1"",""3848""
","
","","null","","null","","fixation","2021-07-02 15:26:12.614","","","","","",""
"card-selection-trial","77","478010","0.0-25.0-1.2","839","false","img/card_backs/set1/red.gif","img/card_backs/set1/green.gif","img/card_backs/set1/yellow.gif","img/card_backs/set1/purple.gif","img/card_backs/set2/orange.gif","img/card_backs/set2/blue.gif","img/card_backs/set2/gray.gif","img/card_backs/set2/pink.gif","""event"",""trial"",""time""
""fullscreenenter"",""1"",""3848""
","
","
","""event"",""trial"",""time""
""fullscreenenter"",""1"",""3848""
","
","","612.2000000476837","","","","real_trial","2021-07-02 15:26:15.247","img/card_backs/set1/red.gif","3","190","1","",""
"casino-fixation","78","478522","0.0-25.0-0.3","839","false","img/card_backs/set1/red.gif","img/card_backs/set1/green.gif","img/card_backs/set1/yellow.gif","img/card_backs/set1/purple.gif","img/card_backs/set2/orange.gif","img/card_backs/set2/blue.gif","img/card_backs/set2/gray.gif","img/card_backs/set2/pink.gif","""event"",""trial"",""time""
""fullscreenenter"",""1"",""3848""
","
","
","""event"",""trial"",""time""
""fullscreenenter"",""1"",""3848""
","
","","null","","null","","fixation","2021-07-02 15:26:15.759","","","","","",""
"card-selection-trial","79","481724","0.0-25.0-1.3","839","false","img/card_backs/set1/red.gif","img/card_backs/set1/green.gif","img/card_backs/set1/yellow.gif","img/card_backs/set1/purple.gif","img/card_backs/set2/orange.gif","img/card_backs/set2/blue.gif","img/card_backs/set2/gray.gif","img/card_backs/set2/pink.gif","""event"",""trial"",""time""
""fullscreenenter"",""1"",""3848""
","
","
","""event"",""trial"",""time""
""fullscreenenter"",""1"",""3848""
","
","","1182.1000000238419","","","","real_trial","2021-07-02 15:26:18.961","img/card_backs/set1/yellow.gif","3","120","1","",""
"casino-fixation","80","482245","0.0-25.0-0.4","839","false","img/card_backs/set1/red.gif","img/card_backs/set1/green.gif","img/card_backs/set1/yellow.gif","img/card_backs/set1/purple.gif","img/card_backs/set2/orange.gif","img/card_backs/set2/blue.gif","img/card_backs/set2/gray.gif","img/card_backs/set2/pink.gif","""event"",""trial"",""time""
""fullscreenenter"",""1"",""3848""
","
","
","""event"",""trial"",""time""
""fullscreenenter"",""1"",""3848""
","
","","null","","null","","fixation","2021-07-02 15:26:19.482","","","","","",""
"card-selection-trial","81","485146","0.0-25.0-1.4","839","false","img/card_backs/set1/red.gif","img/card_backs/set1/green.gif","img/card_backs/set1/yellow.gif","img/card_backs/set1/purple.gif","img/card_backs/set2/orange.gif","img/card_backs/set2/blue.gif","img/card_backs/set2/gray.gif","img/card_backs/set2/pink.gif","""event"",""trial"",""time""
""fullscreenenter"",""1"",""3848""
","
","
","""event"",""trial"",""time""
""fullscreenenter"",""1"",""3848""
","
","","890.5999999046326","","","","real_trial","2021-07-02 15:26:22.383","img/card_backs/set1/yellow.gif","0","110","1","",""
"casino-fixation","82","485669","0.0-25.0-0.5","839","false","img/card_backs/set1/red.gif","img/card_backs/set1/green.gif","img/card_backs/set1/yellow.gif","img/card_backs/set1/purple.gif","img/card_backs/set2/orange.gif","img/card_backs/set2/blue.gif","img/card_backs/set2/gray.gif","img/card_backs/set2/pink.gif","""event"",""trial"",""time""
""fullscreenenter"",""1"",""3848""
","
","
","""event"",""trial"",""time""
""fullscreenenter"",""1"",""3848""
","
","","null","","null","","fixation","2021-07-02 15:26:22.906","","","","","",""
"card-selection-trial","83","488464","0.0-25.0-1.5","839","false","img/card_backs/set1/red.gif","img/card_backs/set1/green.gif","img/card_backs/set1/yellow.gif","img/card_backs/set1/purple.gif","img/card_backs/set2/orange.gif","img/card_backs/set2/blue.gif","img/card_backs/set2/gray.gif","img/card_backs/set2/pink.gif","""event"",""trial"",""time""
""fullscreenenter"",""1"",""3848""
","
","
","""event"",""trial"",""time""
""fullscreenenter"",""1"",""3848""
","
","","773.1999999284744","","","","real_trial","2021-07-02 15:26:25.701","img/card_backs/set1/yellow.gif","3","100","1","",""
"casino-fixation","84","488966","0.0-25.0-0.6","839","false","img/card_backs/set1/red.gif","img/card_backs/set1/green.gif","img/card_backs/set1/yellow.gif","img/card_backs/set1/purple.gif","img/card_backs/set2/orange.gif","img/card_backs/set2/blue.gif","img/card_backs/set2/gray.gif","img/card_backs/set2/pink.gif","""event"",""trial"",""time""
""fullscreenenter"",""1"",""3848""
","
","
","""event"",""trial"",""time""
""fullscreenenter"",""1"",""3848""
","
","","null","","null","","fixation","2021-07-02 15:26:26.203","","","","","",""
"card-selection-trial","85","491579","0.0-25.0-1.6","839","false","img/card_backs/set1/red.gif","img/card_backs/set1/green.gif","img/card_backs/set1/yellow.gif","img/card_backs/set1/purple.gif","img/card_backs/set2/orange.gif","img/card_backs/set2/blue.gif","img/card_backs/set2/gray.gif","img/card_backs/set2/pink.gif","""event"",""trial"",""time""
""fullscreenenter"",""1"",""3848""
","
","
","""event"",""trial"",""time""
""fullscreenenter"",""1"",""3848""
","
","","587.4000000953674","","","","real_trial","2021-07-02 15:26:28.816","img/card_backs/set1/purple.gif","0","110","1","",""
"casino-fixation","86","492101","0.0-25.0-0.7","839","false","img/card_backs/set1/red.gif","img/card_backs/set1/green.gif","img/card_backs/set1/yellow.gif","img/card_backs/set1/purple.gif","img/card_backs/set2/orange.gif","img/card_backs/set2/blue.gif","img/card_backs/set2/gray.gif","img/card_backs/set2/pink.gif","""event"",""trial"",""time""
""fullscreenenter"",""1"",""3848""
","
","
","""event"",""trial"",""time""
""fullscreenenter"",""1"",""3848""
","
","","null","","null","","fixation","2021-07-02 15:26:29.339","","","","","",""
"card-selection-trial","87","494592","0.0-25.0-1.7","839","false","img/card_backs/set1/red.gif","img/card_backs/set1/green.gif","img/card_backs/set1/yellow.gif","img/card_backs/set1/purple.gif","img/card_backs/set2/orange.gif","img/card_backs/set2/blue.gif","img/card_backs/set2/gray.gif","img/card_backs/set2/pink.gif","""event"",""trial"",""time""
""fullscreenenter"",""1"",""3848""
","
","
","""event"",""trial"",""time""
""fullscreenenter"",""1"",""3848""
","
","","471.2000000476837","","","","real_trial","2021-07-02 15:26:31.829","img/card_backs/set1/yellow.gif","1","-60","1","",""
"casino-fixation","88","495103","0.0-25.0-0.8","839","false","img/card_backs/set1/red.gif","img/card_backs/set1/green.gif","img/card_backs/set1/yellow.gif","img/card_backs/set1/purple.gif","img/card_backs/set2/orange.gif","img/card_backs/set2/blue.gif","img/card_backs/set2/gray.gif","img/card_backs/set2/pink.gif","""event"",""trial"",""time""
""fullscreenenter"",""1"",""3848""
","
","
","""event"",""trial"",""time""
""fullscreenenter"",""1"",""3848""
","
","","null","","null","","fixation","2021-07-02 15:26:32.340","","","","","",""
"card-selection-trial","89","497804","0.0-25.0-1.8","839","false","img/card_backs/set1/red.gif","img/card_backs/set1/green.gif","img/card_backs/set1/yellow.gif","img/card_backs/set1/purple.gif","img/card_backs/set2/orange.gif","img/card_backs/set2/blue.gif","img/card_backs/set2/gray.gif","img/card_backs/set2/pink.gif","""event"",""trial"",""time""
""fullscreenenter"",""1"",""3848""
","
","
","""event"",""trial"",""time""
""fullscreenenter"",""1"",""3848""
","
","","686.1999999284744","","","","real_trial","2021-07-02 15:26:35.041","img/card_backs/set1/green.gif","3","-250","1","",""
"casino-fixation","90","498307","0.0-25.0-0.9","839","false","img/card_backs/set1/red.gif","img/card_backs/set1/green.gif","img/card_backs/set1/yellow.gif","img/card_backs/set1/purple.gif","img/card_backs/set2/orange.gif","img/card_backs/set2/blue.gif","img/card_backs/set2/gray.gif","img/card_backs/set2/pink.gif","""event"",""trial"",""time""
""fullscreenenter"",""1"",""3848""
","
","
","""event"",""trial"",""time""
""fullscreenenter"",""1"",""3848""
","
","","null","","null","","fixation","2021-07-02 15:26:35.544","","","","","",""
"card-selection-trial","91","500825","0.0-25.0-1.9","839","false","img/card_backs/set1/red.gif","img/card_backs/set1/green.gif","img/card_backs/set1/yellow.gif","img/card_backs/set1/purple.gif","img/card_backs/set2/orange.gif","img/card_backs/set2/blue.gif","img/card_backs/set2/gray.gif","img/card_backs/set2/pink.gif","""event"",""trial"",""time""
""fullscreenenter"",""1"",""3848""
","
","
","""event"",""trial"",""time""
""fullscreenenter"",""1"",""3848""
","
","","501.7999999523163","","","","real_trial","2021-07-02 15:26:38.062","img/card_backs/set1/green.gif","2","-230","1","",""
"casino-fixation","92","501329","0.0-25.0-0.10","839","false","img/card_backs/set1/red.gif","img/card_backs/set1/green.gif","img/card_backs/set1/yellow.gif","img/card_backs/set1/purple.gif","img/card_backs/set2/orange.gif","img/card_backs/set2/blue.gif","img/card_backs/set2/gray.gif","img/card_backs/set2/pink.gif","""event"",""trial"",""time""
""fullscreenenter"",""1"",""3848""
","
","
","""event"",""trial"",""time""
""fullscreenenter"",""1"",""3848""
","
","","null","","null","","fixation","2021-07-02 15:26:38.566","","","","","",""
"card-selection-trial","93","503819","0.0-25.0-1.10","839","false","img/card_backs/set1/red.gif","img/card_backs/set1/green.gif","img/card_backs/set1/yellow.gif","img/card_backs/set1/purple.gif","img/card_backs/set2/orange.gif","img/card_backs/set2/blue.gif","img/card_backs/set2/gray.gif","img/card_backs/set2/pink.gif","""event"",""trial"",""time""
""fullscreenenter"",""1"",""3848""
","
","
","""event"",""trial"",""time""
""fullscreenenter"",""1"",""3848""
","
","","478.6999999284744","","","","real_trial","2021-07-02 15:26:41.057","img/card_backs/set1/red.gif","3","-250","1","",""
"casino-fixation","94","504326","0.0-25.0-0.11","839","false","img/card_backs/set1/red.gif","img/card_backs/set1/green.gif","img/card_backs/set1/yellow.gif","img/card_backs/set1/purple.gif","img/card_backs/set2/orange.gif","img/card_backs/set2/blue.gif","img/card_backs/set2/gray.gif","img/card_backs/set2/pink.gif","""event"",""trial"",""time""
""fullscreenenter"",""1"",""3848""
","
","
","""event"",""trial"",""time""
""fullscreenenter"",""1"",""3848""
","
","","null","","null","","fixation","2021-07-02 15:26:41.563","","","","","",""
"card-selection-trial","95","506746","0.0-25.0-1.11","839","false","img/card_backs/set1/red.gif","img/card_backs/set1/green.gif","img/card_backs/set1/yellow.gif","img/card_backs/set1/purple.gif","img/card_backs/set2/orange.gif","img/card_backs/set2/blue.gif","img/card_backs/set2/gray.gif","img/card_backs/set2/pink.gif","""event"",""trial"",""time""
""fullscreenenter"",""1"",""3848""
","
","
","""event"",""trial"",""time""
""fullscreenenter"",""1"",""3848""
","
","","389","","","","real_trial","2021-07-02 15:26:43.984","img/card_backs/set1/red.gif","0","190","1","",""
"casino-fixation","96","507253","0.0-25.0-0.12","839","false","img/card_backs/set1/red.gif","img/card_backs/set1/green.gif","img/card_backs/set1/yellow.gif","img/card_backs/set1/purple.gif","img/card_backs/set2/orange.gif","img/card_backs/set2/blue.gif","img/card_backs/set2/gray.gif","img/card_backs/set2/pink.gif","""event"",""trial"",""time""
""fullscreenenter"",""1"",""3848""
","
","
","""event"",""trial"",""time""
""fullscreenenter"",""1"",""3848""
","
","","null","","null","","fixation","2021-07-02 15:26:44.490","","","","","",""
"card-selection-trial","97","509893","0.0-25.0-1.12","839","false","img/card_backs/set1/red.gif","img/card_backs/set1/green.gif","img/card_backs/set1/yellow.gif","img/card_backs/set1/purple.gif","img/card_backs/set2/orange.gif","img/card_backs/set2/blue.gif","img/card_backs/set2/gray.gif","img/card_backs/set2/pink.gif","""event"",""trial"",""time""
""fullscreenenter"",""1"",""3848""
","
","
","""event"",""trial"",""time""
""fullscreenenter"",""1"",""3848""
","
","","623.8999999761581","","","","real_trial","2021-07-02 15:26:47.131","img/card_backs/set1/green.gif","1","200","1","",""
"casino-fixation","98","510401","0.0-25.0-0.13","839","false","img/card_backs/set1/red.gif","img/card_backs/set1/green.gif","img/card_backs/set1/yellow.gif","img/card_backs/set1/purple.gif","img/card_backs/set2/orange.gif","img/card_backs/set2/blue.gif","img/card_backs/set2/gray.gif","img/card_backs/set2/pink.gif","""event"",""trial"",""time""
""fullscreenenter"",""1"",""3848""
","
","
","""event"",""trial"",""time""
""fullscreenenter"",""1"",""3848""
","
","","null","","null","","fixation","2021-07-02 15:26:47.638","","","","","",""
"card-selection-trial","99","512826","0.0-25.0-1.13","839","false","img/card_backs/set1/red.gif","img/card_backs/set1/green.gif","img/card_backs/set1/yellow.gif","img/card_backs/set1/purple.gif","img/card_backs/set2/orange.gif","img/card_backs/set2/blue.gif","img/card_backs/set2/gray.gif","img/card_backs/set2/pink.gif","""event"",""trial"",""time""
""fullscreenenter"",""1"",""3848""
","
","
","""event"",""trial"",""time""
""fullscreenenter"",""1"",""3848""
","
","","410.60000002384186","","","","real_trial","2021-07-02 15:26:50.063","img/card_backs/set1/yellow.gif","2","-70","1","",""
"casino-fixation","100","513334","0.0-25.0-0.14","839","false","img/card_backs/set1/red.gif","img/card_backs/set1/green.gif","img/card_backs/set1/yellow.gif","img/card_backs/set1/purple.gif","img/card_backs/set2/orange.gif","img/card_backs/set2/blue.gif","img/card_backs/set2/gray.gif","img/card_backs/set2/pink.gif","""event"",""trial"",""time""
""fullscreenenter"",""1"",""3848""
","
","
","""event"",""trial"",""time""
""fullscreenenter"",""1"",""3848""
","
","","null","","null","","fixation","2021-07-02 15:26:50.571","","","","","",""
"card-selection-trial","101","515933","0.0-25.0-1.14","839","false","img/card_backs/set1/red.gif","img/card_backs/set1/green.gif","img/card_backs/set1/yellow.gif","img/card_backs/set1/purple.gif","img/card_backs/set2/orange.gif","img/card_backs/set2/blue.gif","img/card_backs/set2/gray.gif","img/card_backs/set2/pink.gif","""event"",""trial"",""time""
""fullscreenenter"",""1"",""3848""
","
","
","""event"",""trial"",""time""
""fullscreenenter"",""1"",""3848""
","
","","586","","","","real_trial","2021-07-02 15:26:53.170","img/card_backs/set1/green.gif","3","200","1","",""
"casino-fixation","102","516438","0.0-25.0-0.15","839","false","img/card_backs/set1/red.gif","img/card_backs/set1/green.gif","img/card_backs/set1/yellow.gif","img/card_backs/set1/purple.gif","img/card_backs/set2/orange.gif","img/card_backs/set2/blue.gif","img/card_backs/set2/gray.gif","img/card_backs/set2/pink.gif","""event"",""trial"",""time""
""fullscreenenter"",""1"",""3848""
","
","
","""event"",""trial"",""time""
""fullscreenenter"",""1"",""3848""
","
","","null","","null","","fixation","2021-07-02 15:26:53.676","","","","","",""
"card-selection-trial","103","519137","0.0-25.0-1.15","839","false","img/card_backs/set1/red.gif","img/card_backs/set1/green.gif","img/card_backs/set1/yellow.gif","img/card_backs/set1/purple.gif","img/card_backs/set2/orange.gif","img/card_backs/set2/blue.gif","img/card_backs/set2/gray.gif","img/card_backs/set2/pink.gif","""event"",""trial"",""time""
""fullscreenenter"",""1"",""3848""
","
","
","""event"",""trial"",""time""
""fullscreenenter"",""1"",""3848""
","
","","692.2000000476837","","","","real_trial","2021-07-02 15:26:56.374","img/card_backs/set1/green.gif","0","-240","1","",""
"casino-fixation","104","519646","0.0-25.0-0.16","839","false","img/card_backs/set1/red.gif","img/card_backs/set1/green.gif","img/card_backs/set1/yellow.gif","img/card_backs/set1/purple.gif","img/card_backs/set2/orange.gif","img/card_backs/set2/blue.gif","img/card_backs/set2/gray.gif","img/card_backs/set2/pink.gif","""event"",""trial"",""time""
""fullscreenenter"",""1"",""3848""
","
","
","""event"",""trial"",""time""
""fullscreenenter"",""1"",""3848""
","
","","null","","null","","fixation","2021-07-02 15:26:56.883","","","","","",""
"card-selection-trial","105","522302","0.0-25.0-1.16","839","false","img/card_backs/set1/red.gif","img/card_backs/set1/green.gif","img/card_backs/set1/yellow.gif","img/card_backs/set1/purple.gif","img/card_backs/set2/orange.gif","img/card_backs/set2/blue.gif","img/card_backs/set2/gray.gif","img/card_backs/set2/pink.gif","""event"",""trial"",""time""
""fullscreenenter"",""1"",""3848""
","
","
","""event"",""trial"",""time""
""fullscreenenter"",""1"",""3848""
","
","","650.5","","","","real_trial","2021-07-02 15:26:59.539","img/card_backs/set1/yellow.gif","3","120","1","",""
"casino-fixation","106","522812","0.0-25.0-0.17","839","false","img/card_backs/set1/red.gif","img/card_backs/set1/green.gif","img/card_backs/set1/yellow.gif","img/card_backs/set1/purple.gif","img/card_backs/set2/orange.gif","img/card_backs/set2/blue.gif","img/card_backs/set2/gray.gif","img/card_backs/set2/pink.gif","""event"",""trial"",""time""
""fullscreenenter"",""1"",""3848""
","
","
","""event"",""trial"",""time""
""fullscreenenter"",""1"",""3848""
","
","","null","","null","","fixation","2021-07-02 15:27:00.049","","","","","",""
"card-selection-trial","107","525532","0.0-25.0-1.17","839","false","img/card_backs/set1/red.gif","img/card_backs/set1/green.gif","img/card_backs/set1/yellow.gif","img/card_backs/set1/purple.gif","img/card_backs/set2/orange.gif","img/card_backs/set2/blue.gif","img/card_backs/set2/gray.gif","img/card_backs/set2/pink.gif","""event"",""trial"",""time""
""fullscreenenter"",""1"",""3848""
","
","
","""event"",""trial"",""time""
""fullscreenenter"",""1"",""3848""
","
","","705.5","","","","real_trial","2021-07-02 15:27:02.769","img/card_backs/set1/yellow.gif","0","120","1","",""
"casino-fixation","108","526040","0.0-25.0-0.18","839","false","img/card_backs/set1/red.gif","img/card_backs/set1/green.gif","img/card_backs/set1/yellow.gif","img/card_backs/set1/purple.gif","img/card_backs/set2/orange.gif","img/card_backs/set2/blue.gif","img/card_backs/set2/gray.gif","img/card_backs/set2/pink.gif","""event"",""trial"",""time""
""fullscreenenter"",""1"",""3848""
","
","
","""event"",""trial"",""time""
""fullscreenenter"",""1"",""3848""
","
","","null","","null","","fixation","2021-07-02 15:27:03.277","","","","","",""
"card-selection-trial","109","528926","0.0-25.0-1.18","839","false","img/card_backs/set1/red.gif","img/card_backs/set1/green.gif","img/card_backs/set1/yellow.gif","img/card_backs/set1/purple.gif","img/card_backs/set2/orange.gif","img/card_backs/set2/blue.gif","img/card_backs/set2/gray.gif","img/card_backs/set2/pink.gif","""event"",""trial"",""time""
""fullscreenenter"",""1"",""3848""
","
","
","""event"",""trial"",""time""
""fullscreenenter"",""1"",""3848""
","
","","865.6000000238419","","","","real_trial","2021-07-02 15:27:06.163","img/card_backs/set1/yellow.gif","2","120","1","",""
"casino-fixation","110","529429","0.0-25.0-0.19","839","false","img/card_backs/set1/red.gif","img/card_backs/set1/green.gif","img/card_backs/set1/yellow.gif","img/card_backs/set1/purple.gif","img/card_backs/set2/orange.gif","img/card_backs/set2/blue.gif","img/card_backs/set2/gray.gif","img/card_backs/set2/pink.gif","""event"",""trial"",""time""
""fullscreenenter"",""1"",""3848""
","
","
","""event"",""trial"",""time""
""fullscreenenter"",""1"",""3848""
","
","","null","","null","","fixation","2021-07-02 15:27:06.666","","","","","",""
"card-selection-trial","111","532380","0.0-25.0-1.19","839","false","img/card_backs/set1/red.gif","img/card_backs/set1/green.gif","img/card_backs/set1/yellow.gif","img/card_backs/set1/purple.gif","img/card_backs/set2/orange.gif","img/card_backs/set2/blue.gif","img/card_backs/set2/gray.gif","img/card_backs/set2/pink.gif","""event"",""trial"",""time""
""fullscreenenter"",""1"",""3848""
","
","
","""event"",""trial"",""time""
""fullscreenenter"",""1"",""3848""
","
","","932.6000000238419","","","","real_trial","2021-07-02 15:27:09.617","img/card_backs/set1/yellow.gif","3","120","1","",""
"casino-fixation","112","532887","0.0-25.0-0.20","839","false","img/card_backs/set1/red.gif","img/card_backs/set1/green.gif","img/card_backs/set1/yellow.gif","img/card_backs/set1/purple.gif","img/card_backs/set2/orange.gif","img/card_backs/set2/blue.gif","img/card_backs/set2/gray.gif","img/card_backs/set2/pink.gif","""event"",""trial"",""time""
""fullscreenenter"",""1"",""3848""
","
","
","""event"",""trial"",""time""
""fullscreenenter"",""1"",""3848""
","
","","null","","null","","fixation","2021-07-02 15:27:10.124","","","","","",""
"card-selection-trial","113","535621","0.0-25.0-1.20","839","false","img/card_backs/set1/red.gif","img/card_backs/set1/green.gif","img/card_backs/set1/yellow.gif","img/card_backs/set1/purple.gif","img/card_backs/set2/orange.gif","img/card_backs/set2/blue.gif","img/card_backs/set2/gray.gif","img/card_backs/set2/pink.gif","""event"",""trial"",""time""
""fullscreenenter"",""1"",""3848""
","
","
","""event"",""trial"",""time""
""fullscreenenter"",""1"",""3848""
","
","","713","","","","real_trial","2021-07-02 15:27:12.858","img/card_backs/set1/yellow.gif","2","100","1","",""
"casino-fixation","114","536124","0.0-25.0-0.21","839","false","img/card_backs/set1/red.gif","img/card_backs/set1/green.gif","img/card_backs/set1/yellow.gif","img/card_backs/set1/purple.gif","img/card_backs/set2/orange.gif","img/card_backs/set2/blue.gif","img/card_backs/set2/gray.gif","img/card_backs/set2/pink.gif","""event"",""trial"",""time""
""fullscreenenter"",""1"",""3848""
","
","
","""event"",""trial"",""time""
""fullscreenenter"",""1"",""3848""
","
","","null","","null","","fixation","2021-07-02 15:27:13.361","","","","","",""
"card-selection-trial","115","539401","0.0-25.0-1.21","839","false","img/card_backs/set1/red.gif","img/card_backs/set1/green.gif","img/card_backs/set1/yellow.gif","img/card_backs/set1/purple.gif","img/card_backs/set2/orange.gif","img/card_backs/set2/blue.gif","img/card_backs/set2/gray.gif","img/card_backs/set2/pink.gif","""event"",""trial"",""time""
""fullscreenenter"",""1"",""3848""
","
","
","""event"",""trial"",""time""
""fullscreenenter"",""1"",""3848""
","
","","1269.6999999284744","","","","real_trial","2021-07-02 15:27:16.638","img/card_backs/set1/green.gif","0","190","1","",""
"casino-fixation","116","539907","0.0-25.0-0.22","839","false","img/card_backs/set1/red.gif","img/card_backs/set1/green.gif","img/card_backs/set1/yellow.gif","img/card_backs/set1/purple.gif","img/card_backs/set2/orange.gif","img/card_backs/set2/blue.gif","img/card_backs/set2/gray.gif","img/card_backs/set2/pink.gif","""event"",""trial"",""time""
""fullscreenenter"",""1"",""3848""
","
","
","""event"",""trial"",""time""
""fullscreenenter"",""1"",""3848""
","
","","null","","null","","fixation","2021-07-02 15:27:17.145","","","","","",""
"card-selection-trial","117","543474","0.0-25.0-1.22","839","false","img/card_backs/set1/red.gif","img/card_backs/set1/green.gif","img/card_backs/set1/yellow.gif","img/card_backs/set1/purple.gif","img/card_backs/set2/orange.gif","img/card_backs/set2/blue.gif","img/card_backs/set2/gray.gif","img/card_backs/set2/pink.gif","""event"",""trial"",""time""
""fullscreenenter"",""1"",""3848""
","
","
","""event"",""trial"",""time""
""fullscreenenter"",""1"",""3848""
","
","","1548.8000000715256","","","","real_trial","2021-07-02 15:27:20.711","img/card_backs/set1/green.gif","1","-240","1","",""
"casino-fixation","118","543982","0.0-25.0-0.23","839","false","img/card_backs/set1/red.gif","img/card_backs/set1/green.gif","img/card_backs/set1/yellow.gif","img/card_backs/set1/purple.gif","img/card_backs/set2/orange.gif","img/card_backs/set2/blue.gif","img/card_backs/set2/gray.gif","img/card_backs/set2/pink.gif","""event"",""trial"",""time""
""fullscreenenter"",""1"",""3848""
","
","
","""event"",""trial"",""time""
""fullscreenenter"",""1"",""3848""
","
","","null","","null","","fixation","2021-07-02 15:27:21.219","","","","","",""
"card-selection-trial","119","547772","0.0-25.0-1.23","839","false","img/card_backs/set1/red.gif","img/card_backs/set1/green.gif","img/card_backs/set1/yellow.gif","img/card_backs/set1/purple.gif","img/card_backs/set2/orange.gif","img/card_backs/set2/blue.gif","img/card_backs/set2/gray.gif","img/card_backs/set2/pink.gif","""event"",""trial"",""time""
""fullscreenenter"",""1"",""3848""
","
","
","""event"",""trial"",""time""
""fullscreenenter"",""1"",""3848""
","
","","1777.5","","","","real_trial","2021-07-02 15:27:25.009","img/card_backs/set1/yellow.gif","0","100","1","",""
"casino-fixation","120","548280","0.0-25.0-0.24","839","false","img/card_backs/set1/red.gif","img/card_backs/set1/green.gif","img/card_backs/set1/yellow.gif","img/card_backs/set1/purple.gif","img/card_backs/set2/orange.gif","img/card_backs/set2/blue.gif","img/card_backs/set2/gray.gif","img/card_backs/set2/pink.gif","""event"",""trial"",""time""
""fullscreenenter"",""1"",""3848""
","
","
","""event"",""trial"",""time""
""fullscreenenter"",""1"",""3848""
","
","","null","","null","","fixation","2021-07-02 15:27:25.517","","","","","",""
"card-selection-trial","121","551458","0.0-25.0-1.24","839","false","img/card_backs/set1/red.gif","img/card_backs/set1/green.gif","img/card_backs/set1/yellow.gif","img/card_backs/set1/purple.gif","img/card_backs/set2/orange.gif","img/card_backs/set2/blue.gif","img/card_backs/set2/gray.gif","img/card_backs/set2/pink.gif","""event"",""trial"",""time""
""fullscreenenter"",""1"",""3848""
","
","
","""event"",""trial"",""time""
""fullscreenenter"",""1"",""3848""
","
","","1166.1000000238419","","","","real_trial","2021-07-02 15:27:28.695","img/card_backs/set1/yellow.gif","1","-70","1","",""
"casino-fixation","122","551966","0.0-25.0-0.25","839","false","img/card_backs/set1/red.gif","img/card_backs/set1/green.gif","img/card_backs/set1/yellow.gif","img/card_backs/set1/purple.gif","img/card_backs/set2/orange.gif","img/card_backs/set2/blue.gif","img/card_backs/set2/gray.gif","img/card_backs/set2/pink.gif","""event"",""trial"",""time""
""fullscreenenter"",""1"",""3848""
","
","
","""event"",""trial"",""time""
""fullscreenenter"",""1"",""3848""
","
","","null","","null","","fixation","2021-07-02 15:27:29.203","","","","","",""
"card-selection-trial","123","555107","0.0-25.0-1.25","839","false","img/card_backs/set1/red.gif","img/card_backs/set1/green.gif","img/card_backs/set1/yellow.gif","img/card_backs/set1/purple.gif","img/card_backs/set2/orange.gif","img/card_backs/set2/blue.gif","img/card_backs/set2/gray.gif","img/card_backs/set2/pink.gif","""event"",""trial"",""time""
""fullscreenenter"",""1"",""3848""
","
","
","""event"",""trial"",""time""
""fullscreenenter"",""1"",""3848""
","
","","1123.8000000715256","","","","real_trial","2021-07-02 15:27:32.344","img/card_backs/set1/yellow.gif","2","110","1","",""
"casino-fixation","124","555611","0.0-25.0-0.26","839","false","img/card_backs/set1/red.gif","img/card_backs/set1/green.gif","img/card_backs/set1/yellow.gif","img/card_backs/set1/purple.gif","img/card_backs/set2/orange.gif","img/card_backs/set2/blue.gif","img/card_backs/set2/gray.gif","img/card_backs/set2/pink.gif","""event"",""trial"",""time""
""fullscreenenter"",""1"",""3848""
","
","
","""event"",""trial"",""time""
""fullscreenenter"",""1"",""3848""
","
","","null","","null","","fixation","2021-07-02 15:27:32.848","","","","","",""
"card-selection-trial","125","558323","0.0-25.0-1.26","839","false","img/card_backs/set1/red.gif","img/card_backs/set1/green.gif","img/card_backs/set1/yellow.gif","img/card_backs/set1/purple.gif","img/card_backs/set2/orange.gif","img/card_backs/set2/blue.gif","img/card_backs/set2/gray.gif","img/card_backs/set2/pink.gif","""event"",""trial"",""time""
""fullscreenenter"",""1"",""3848""
","
","
","""event"",""trial"",""time""
""fullscreenenter"",""1"",""3848""
","
","","697.7000000476837","","","","real_trial","2021-07-02 15:27:35.560","img/card_backs/set1/green.gif","2","200","1","",""
"casino-fixation","126","558829","0.0-25.0-0.27","839","false","img/card_backs/set1/red.gif","img/card_backs/set1/green.gif","img/card_backs/set1/yellow.gif","img/card_backs/set1/purple.gif","img/card_backs/set2/orange.gif","img/card_backs/set2/blue.gif","img/card_backs/set2/gray.gif","img/card_backs/set2/pink.gif","""event"",""trial"",""time""
""fullscreenenter"",""1"",""3848""
","
","
","""event"",""trial"",""time""
""fullscreenenter"",""1"",""3848""
","
","","null","","null","","fixation","2021-07-02 15:27:36.066","","","","","",""
"card-selection-trial","127","561643","0.0-25.0-1.27","839","false","img/card_backs/set1/red.gif","img/card_backs/set1/green.gif","img/card_backs/set1/yellow.gif","img/card_backs/set1/purple.gif","img/card_backs/set2/orange.gif","img/card_backs/set2/blue.gif","img/card_backs/set2/gray.gif","img/card_backs/set2/pink.gif","""event"",""trial"",""time""
""fullscreenenter"",""1"",""3848""
","
","
","""event"",""trial"",""time""
""fullscreenenter"",""1"",""3848""
","
","","798.8999999761581","","","","real_trial","2021-07-02 15:27:38.880","img/card_backs/set1/yellow.gif","2","100","1","",""
"casino-fixation","128","562150","0.0-25.0-0.28","839","false","img/card_backs/set1/red.gif","img/card_backs/set1/green.gif","img/card_backs/set1/yellow.gif","img/card_backs/set1/purple.gif","img/card_backs/set2/orange.gif","img/card_backs/set2/blue.gif","img/card_backs/set2/gray.gif","img/card_backs/set2/pink.gif","""event"",""trial"",""time""
""fullscreenenter"",""1"",""3848""
","
","
","""event"",""trial"",""time""
""fullscreenenter"",""1"",""3848""
","
","","null","","null","","fixation","2021-07-02 15:27:39.387","","","","","",""
"card-selection-trial","129","564609","0.0-25.0-1.28","839","false","img/card_backs/set1/red.gif","img/card_backs/set1/green.gif","img/card_backs/set1/yellow.gif","img/card_backs/set1/purple.gif","img/card_backs/set2/orange.gif","img/card_backs/set2/blue.gif","img/card_backs/set2/gray.gif","img/card_backs/set2/pink.gif","""event"",""trial"",""time""
""fullscreenenter"",""1"",""3848""
","
","
","""event"",""trial"",""time""
""fullscreenenter"",""1"",""3848""
","
","","452.39999997615814","","","","real_trial","2021-07-02 15:27:41.846","img/card_backs/set1/yellow.gif","0","-50","1","",""
"casino-fixation","130","565113","0.0-25.0-0.29","839","false","img/card_backs/set1/red.gif","img/card_backs/set1/green.gif","img/card_backs/set1/yellow.gif","img/card_backs/set1/purple.gif","img/card_backs/set2/orange.gif","img/card_backs/set2/blue.gif","img/card_backs/set2/gray.gif","img/card_backs/set2/pink.gif","""event"",""trial"",""time""
""fullscreenenter"",""1"",""3848""
","
","
","""event"",""trial"",""time""
""fullscreenenter"",""1"",""3848""
","
","","null","","null","","fixation","2021-07-02 15:27:42.350","","","","","",""
"card-selection-trial","131","567541","0.0-25.0-1.29","839","false","img/card_backs/set1/red.gif","img/card_backs/set1/green.gif","img/card_backs/set1/yellow.gif","img/card_backs/set1/purple.gif","img/card_backs/set2/orange.gif","img/card_backs/set2/blue.gif","img/card_backs/set2/gray.gif","img/card_backs/set2/pink.gif","""event"",""trial"",""time""
""fullscreenenter"",""1"",""3848""
","
","
","""event"",""trial"",""time""
""fullscreenenter"",""1"",""3848""
","
","","420.39999997615814","","","","real_trial","2021-07-02 15:27:44.778","img/card_backs/set1/red.gif","2","-240","1","",""
"casino-fixation","132","568047","0.0-25.0-0.30","839","false","img/card_backs/set1/red.gif","img/card_backs/set1/green.gif","img/card_backs/set1/yellow.gif","img/card_backs/set1/purple.gif","img/card_backs/set2/orange.gif","img/card_backs/set2/blue.gif","img/card_backs/set2/gray.gif","img/card_backs/set2/pink.gif","""event"",""trial"",""time""
""fullscreenenter"",""1"",""3848""
","
","
","""event"",""trial"",""time""
""fullscreenenter"",""1"",""3848""
","
","","null","","null","","fixation","2021-07-02 15:27:45.284","","","","","",""
"card-selection-trial","133","570677","0.0-25.0-1.30","839","false","img/card_backs/set1/red.gif","img/card_backs/set1/green.gif","img/card_backs/set1/yellow.gif","img/card_backs/set1/purple.gif","img/card_backs/set2/orange.gif","img/card_backs/set2/blue.gif","img/card_backs/set2/gray.gif","img/card_backs/set2/pink.gif","""event"",""trial"",""time""
""fullscreenenter"",""1"",""3848""
","
","
","""event"",""trial"",""time""
""fullscreenenter"",""1"",""3848""
","
","","618","","","","real_trial","2021-07-02 15:27:47.914","img/card_backs/set1/green.gif","3","180","1","",""
"casino-fixation","134","571183","0.0-25.0-0.31","839","false","img/card_backs/set1/red.gif","img/card_backs/set1/green.gif","img/card_backs/set1/yellow.gif","img/card_backs/set1/purple.gif","img/card_backs/set2/orange.gif","img/card_backs/set2/blue.gif","img/card_backs/set2/gray.gif","img/card_backs/set2/pink.gif","""event"",""trial"",""time""
""fullscreenenter"",""1"",""3848""
","
","
","""event"",""trial"",""time""
""fullscreenenter"",""1"",""3848""
","
","","null","","null","","fixation","2021-07-02 15:27:48.420","","","","","",""
"card-selection-trial","135","573753","0.0-25.0-1.31","839","false","img/card_backs/set1/red.gif","img/card_backs/set1/green.gif","img/card_backs/set1/yellow.gif","img/card_backs/set1/purple.gif","img/card_backs/set2/orange.gif","img/card_backs/set2/blue.gif","img/card_backs/set2/gray.gif","img/card_backs/set2/pink.gif","""event"",""trial"",""time""
""fullscreenenter"",""1"",""3848""
","
","
","""event"",""trial"",""time""
""fullscreenenter"",""1"",""3848""
","
","","562","","","","real_trial","2021-07-02 15:27:50.991","img/card_backs/set1/yellow.gif","1","-70","1","",""
"casino-fixation","136","574256","0.0-25.0-0.32","839","false","img/card_backs/set1/red.gif","img/card_backs/set1/green.gif","img/card_backs/set1/yellow.gif","img/card_backs/set1/purple.gif","img/card_backs/set2/orange.gif","img/card_backs/set2/blue.gif","img/card_backs/set2/gray.gif","img/card_backs/set2/pink.gif","""event"",""trial"",""time""
""fullscreenenter"",""1"",""3848""
","
","
","""event"",""trial"",""time""
""fullscreenenter"",""1"",""3848""
","
","","null","","null","","fixation","2021-07-02 15:27:51.493","","","","","",""
"card-selection-trial","137","576635","0.0-25.0-1.32","839","false","img/card_backs/set1/red.gif","img/card_backs/set1/green.gif","img/card_backs/set1/yellow.gif","img/card_backs/set1/purple.gif","img/card_backs/set2/orange.gif","img/card_backs/set2/blue.gif","img/card_backs/set2/gray.gif","img/card_backs/set2/pink.gif","""event"",""trial"",""time""
""fullscreenenter"",""1"",""3848""
","
","
","""event"",""trial"",""time""
""fullscreenenter"",""1"",""3848""
","
","","372.2999999523163","","","","real_trial","2021-07-02 15:27:53.872","img/card_backs/set1/yellow.gif","0","-50","1","",""
"casino-fixation","138","577142","0.0-25.0-0.33","839","false","img/card_backs/set1/red.gif","img/card_backs/set1/green.gif","img/card_backs/set1/yellow.gif","img/card_backs/set1/purple.gif","img/card_backs/set2/orange.gif","img/card_backs/set2/blue.gif","img/card_backs/set2/gray.gif","img/card_backs/set2/pink.gif","""event"",""trial"",""time""
""fullscreenenter"",""1"",""3848""
","
","
","""event"",""trial"",""time""
""fullscreenenter"",""1"",""3848""
","
","","null","","null","","fixation","2021-07-02 15:27:54.379","","","","","",""
"card-selection-trial","139","579554","0.0-25.0-1.33","839","false","img/card_backs/set1/red.gif","img/card_backs/set1/green.gif","img/card_backs/set1/yellow.gif","img/card_backs/set1/purple.gif","img/card_backs/set2/orange.gif","img/card_backs/set2/blue.gif","img/card_backs/set2/gray.gif","img/card_backs/set2/pink.gif","""event"",""trial"",""time""
""fullscreenenter"",""1"",""3848""
","
","
","""event"",""trial"",""time""
""fullscreenenter"",""1"",""3848""
","
","","398.5","","","","real_trial","2021-07-02 15:27:56.791","img/card_backs/set1/green.gif","2","180","1","",""
"casino-fixation","140","580057","0.0-25.0-0.34","839","false","img/card_backs/set1/red.gif","img/card_backs/set1/green.gif","img/card_backs/set1/yellow.gif","img/card_backs/set1/purple.gif","img/card_backs/set2/orange.gif","img/card_backs/set2/blue.gif","img/card_backs/set2/gray.gif","img/card_backs/set2/pink.gif","""event"",""trial"",""time""
""fullscreenenter"",""1"",""3848""
","
","
","""event"",""trial"",""time""
""fullscreenenter"",""1"",""3848""
","
","","null","","null","","fixation","2021-07-02 15:27:57.294","","","","","",""
"card-selection-trial","141","582627","0.0-25.0-1.34","839","false","img/card_backs/set1/red.gif","img/card_backs/set1/green.gif","img/card_backs/set1/yellow.gif","img/card_backs/set1/purple.gif","img/card_backs/set2/orange.gif","img/card_backs/set2/blue.gif","img/card_backs/set2/gray.gif","img/card_backs/set2/pink.gif","""event"",""trial"",""time""
""fullscreenenter"",""1"",""3848""
","
","
","""event"",""trial"",""time""
""fullscreenenter"",""1"",""3848""
","
","","558.5","","","","real_trial","2021-07-02 15:27:59.864","img/card_backs/set1/red.gif","3","-240","1","",""
"casino-fixation","142","583134","0.0-25.0-0.35","839","false","img/card_backs/set1/red.gif","img/card_backs/set1/green.gif","img/card_backs/set1/yellow.gif","img/card_backs/set1/purple.gif","img/card_backs/set2/orange.gif","img/card_backs/set2/blue.gif","img/card_backs/set2/gray.gif","img/card_backs/set2/pink.gif","""event"",""trial"",""time""
""fullscreenenter"",""1"",""3848""
","
","
","""event"",""trial"",""time""
""fullscreenenter"",""1"",""3848""
","
","","null","","null","","fixation","2021-07-02 15:28:00.372","","","","","",""
"card-selection-trial","143","585529","0.0-25.0-1.35","839","false","img/card_backs/set1/red.gif","img/card_backs/set1/green.gif","img/card_backs/set1/yellow.gif","img/card_backs/set1/purple.gif","img/card_backs/set2/orange.gif","img/card_backs/set2/blue.gif","img/card_backs/set2/gray.gif","img/card_backs/set2/pink.gif","""event"",""trial"",""time""
""fullscreenenter"",""1"",""3848""
","
","
","""event"",""trial"",""time""
""fullscreenenter"",""1"",""3848""
","
","","382.1999999284744","","","","real_trial","2021-07-02 15:28:02.767","img/card_backs/set1/purple.gif","0","-60","1","",""
"casino-fixation","144","586037","0.0-25.0-0.36","839","false","img/card_backs/set1/red.gif","img/card_backs/set1/green.gif","img/card_backs/set1/yellow.gif","img/card_backs/set1/purple.gif","img/card_backs/set2/orange.gif","img/card_backs/set2/blue.gif","img/card_backs/set2/gray.gif","img/card_backs/set2/pink.gif","""event"",""trial"",""time""
""fullscreenenter"",""1"",""3848""
","
","
","""event"",""trial"",""time""
""fullscreenenter"",""1"",""3848""
","
","","null","","null","","fixation","2021-07-02 15:28:03.274","","","","","",""
"card-selection-trial","145","588138","0.0-25.0-1.36","839","false","img/card_backs/set1/red.gif","img/card_backs/set1/green.gif","img/card_backs/set1/yellow.gif","img/card_backs/set1/purple.gif","img/card_backs/set2/orange.gif","img/card_backs/set2/blue.gif","img/card_backs/set2/gray.gif","img/card_backs/set2/pink.gif","""event"",""trial"",""time""
""fullscreenenter"",""1"",""3848""
","
","
","""event"",""trial"",""time""
""fullscreenenter"",""1"",""3848""
","
","","96.69999992847443","","","","real_trial","2021-07-02 15:28:05.375","img/card_backs/set1/purple.gif","2","120","1","",""
"casino-fixation","146","588645","0.0-25.0-0.37","839","false","img/card_backs/set1/red.gif","img/card_backs/set1/green.gif","img/card_backs/set1/yellow.gif","img/card_backs/set1/purple.gif","img/card_backs/set2/orange.gif","img/card_backs/set2/blue.gif","img/card_backs/set2/gray.gif","img/card_backs/set2/pink.gif","""event"",""trial"",""time""
""fullscreenenter"",""1"",""3848""
","
","
","""event"",""trial"",""time""
""fullscreenenter"",""1"",""3848""
","
","","null","","null","","fixation","2021-07-02 15:28:05.882","","","","","",""
"card-selection-trial","147","591111","0.0-25.0-1.37","839","false","img/card_backs/set1/red.gif","img/card_backs/set1/green.gif","img/card_backs/set1/yellow.gif","img/card_backs/set1/purple.gif","img/card_backs/set2/orange.gif","img/card_backs/set2/blue.gif","img/card_backs/set2/gray.gif","img/card_backs/set2/pink.gif","""event"",""trial"",""time""
""fullscreenenter"",""1"",""3848""
","
","
","""event"",""trial"",""time""
""fullscreenenter"",""1"",""3848""
","
","","454.39999997615814","","","","real_trial","2021-07-02 15:28:08.348","img/card_backs/set1/purple.gif","1","-70","1","",""
"casino-fixation","148","591617","0.0-25.0-0.38","839","false","img/card_backs/set1/red.gif","img/card_backs/set1/green.gif","img/card_backs/set1/yellow.gif","img/card_backs/set1/purple.gif","img/card_backs/set2/orange.gif","img/card_backs/set2/blue.gif","img/card_backs/set2/gray.gif","img/card_backs/set2/pink.gif","""event"",""trial"",""time""
""fullscreenenter"",""1"",""3848""
","
","
","""event"",""trial"",""time""
""fullscreenenter"",""1"",""3848""
","
","","null","","null","","fixation","2021-07-02 15:28:08.854","","","","","",""
"card-selection-trial","149","594741","0.0-25.0-1.38","839","false","img/card_backs/set1/red.gif","img/card_backs/set1/green.gif","img/card_backs/set1/yellow.gif","img/card_backs/set1/purple.gif","img/card_backs/set2/orange.gif","img/card_backs/set2/blue.gif","img/card_backs/set2/gray.gif","img/card_backs/set2/pink.gif","""event"",""trial"",""time""
""fullscreenenter"",""1"",""3848""
","
","
","""event"",""trial"",""time""
""fullscreenenter"",""1"",""3848""
","
","","1114.8999999761581","","","","real_trial","2021-07-02 15:28:11.978","img/card_backs/set1/purple.gif","3","100","1","",""
"casino-fixation","150","595248","0.0-25.0-0.39","839","false","img/card_backs/set1/red.gif","img/card_backs/set1/green.gif","img/card_backs/set1/yellow.gif","img/card_backs/set1/purple.gif","img/card_backs/set2/orange.gif","img/card_backs/set2/blue.gif","img/card_backs/set2/gray.gif","img/card_backs/set2/pink.gif","""event"",""trial"",""time""
""fullscreenenter"",""1"",""3848""
","
","
","""event"",""trial"",""time""
""fullscreenenter"",""1"",""3848""
","
","","null","","null","","fixation","2021-07-02 15:28:12.486","","","","","",""
"card-selection-trial","151","597589","0.0-25.0-1.39","839","false","img/card_backs/set1/red.gif","img/card_backs/set1/green.gif","img/card_backs/set1/yellow.gif","img/card_backs/set1/purple.gif","img/card_backs/set2/orange.gif","img/card_backs/set2/blue.gif","img/card_backs/set2/gray.gif","img/card_backs/set2/pink.gif","""event"",""trial"",""time""
""fullscreenenter"",""1"",""3848""
","
","
","""event"",""trial"",""time""
""fullscreenenter"",""1"",""3848""
","
","","325.6999999284744","","","","real_trial","2021-07-02 15:28:14.826","img/card_backs/set1/purple.gif","1","-60","1","",""
"casino-fixation","152","598093","0.0-25.0-0.40","839","false","img/card_backs/set1/red.gif","img/card_backs/set1/green.gif","img/card_backs/set1/yellow.gif","img/card_backs/set1/purple.gif","img/card_backs/set2/orange.gif","img/card_backs/set2/blue.gif","img/card_backs/set2/gray.gif","img/card_backs/set2/pink.gif","""event"",""trial"",""time""
""fullscreenenter"",""1"",""3848""
","
","
","""event"",""trial"",""time""
""fullscreenenter"",""1"",""3848""
","
","","null","","null","","fixation","2021-07-02 15:28:15.330","","","","","",""
"card-selection-trial","153","600447","0.0-25.0-1.40","839","false","img/card_backs/set1/red.gif","img/card_backs/set1/green.gif","img/card_backs/set1/yellow.gif","img/card_backs/set1/purple.gif","img/card_backs/set2/orange.gif","img/card_backs/set2/blue.gif","img/card_backs/set2/gray.gif","img/card_backs/set2/pink.gif","""event"",""trial"",""time""
""fullscreenenter"",""1"",""3848""
","
","
","""event"",""trial"",""time""
""fullscreenenter"",""1"",""3848""
","
","","334.60000002384186","","","","real_trial","2021-07-02 15:28:17.684","img/card_backs/set1/purple.gif","2","-60","1","",""
"casino-fixation","154","600952","0.0-25.0-0.41","839","false","img/card_backs/set1/red.gif","img/card_backs/set1/green.gif","img/card_backs/set1/yellow.gif","img/card_backs/set1/purple.gif","img/card_backs/set2/orange.gif","img/card_backs/set2/blue.gif","img/card_backs/set2/gray.gif","img/card_backs/set2/pink.gif","""event"",""trial"",""time""
""fullscreenenter"",""1"",""3848""
","
","
","""event"",""trial"",""time""
""fullscreenenter"",""1"",""3848""
","
","","null","","null","","fixation","2021-07-02 15:28:18.190","","","","","",""
"card-selection-trial","155","603246","0.0-25.0-1.41","839","false","img/card_backs/set1/red.gif","img/card_backs/set1/green.gif","img/card_backs/set1/yellow.gif","img/card_backs/set1/purple.gif","img/card_backs/set2/orange.gif","img/card_backs/set2/blue.gif","img/card_backs/set2/gray.gif","img/card_backs/set2/pink.gif","""event"",""trial"",""time""
""fullscreenenter"",""1"",""3848""
","
","
","""event"",""trial"",""time""
""fullscreenenter"",""1"",""3848""
","
","","279.89999997615814","","","","real_trial","2021-07-02 15:28:20.483","img/card_backs/set1/green.gif","3","190","1","",""
"casino-fixation","156","603755","0.0-25.0-0.42","839","false","img/card_backs/set1/red.gif","img/card_backs/set1/green.gif","img/card_backs/set1/yellow.gif","img/card_backs/set1/purple.gif","img/card_backs/set2/orange.gif","img/card_backs/set2/blue.gif","img/card_backs/set2/gray.gif","img/card_backs/set2/pink.gif","""event"",""trial"",""time""
""fullscreenenter"",""1"",""3848""
","
","
","""event"",""trial"",""time""
""fullscreenenter"",""1"",""3848""
","
","","null","","null","","fixation","2021-07-02 15:28:20.993","","","","","",""
"card-selection-trial","157","606169","0.0-25.0-1.42","839","false","img/card_backs/set1/red.gif","img/card_backs/set1/green.gif","img/card_backs/set1/yellow.gif","img/card_backs/set1/purple.gif","img/card_backs/set2/orange.gif","img/card_backs/set2/blue.gif","img/card_backs/set2/gray.gif","img/card_backs/set2/pink.gif","""event"",""trial"",""time""
""fullscreenenter"",""1"",""3848""
","
","
","""event"",""trial"",""time""
""fullscreenenter"",""1"",""3848""
","
","","404.59999990463257","","","","real_trial","2021-07-02 15:28:23.406","img/card_backs/set1/green.gif","0","200","1","",""
"casino-fixation","158","606679","0.0-25.0-0.43","839","false","img/card_backs/set1/red.gif","img/card_backs/set1/green.gif","img/card_backs/set1/yellow.gif","img/card_backs/set1/purple.gif","img/card_backs/set2/orange.gif","img/card_backs/set2/blue.gif","img/card_backs/set2/gray.gif","img/card_backs/set2/pink.gif","""event"",""trial"",""time""
""fullscreenenter"",""1"",""3848""
","
","
","""event"",""trial"",""time""
""fullscreenenter"",""1"",""3848""
","
","","null","","null","","fixation","2021-07-02 15:28:23.917","","","","","",""
"card-selection-trial","159","609387","0.0-25.0-1.43","839","false","img/card_backs/set1/red.gif","img/card_backs/set1/green.gif","img/card_backs/set1/yellow.gif","img/card_backs/set1/purple.gif","img/card_backs/set2/orange.gif","img/card_backs/set2/blue.gif","img/card_backs/set2/gray.gif","img/card_backs/set2/pink.gif","""event"",""trial"",""time""
""fullscreenenter"",""1"",""3848""
","
","
","""event"",""trial"",""time""
""fullscreenenter"",""1"",""3848""
","
","","694.6999999284744","","","","real_trial","2021-07-02 15:28:26.625","img/card_backs/set1/green.gif","0","-250","1","",""
"casino-fixation","160","609890","0.0-25.0-0.44","839","false","img/card_backs/set1/red.gif","img/card_backs/set1/green.gif","img/card_backs/set1/yellow.gif","img/card_backs/set1/purple.gif","img/card_backs/set2/orange.gif","img/card_backs/set2/blue.gif","img/card_backs/set2/gray.gif","img/card_backs/set2/pink.gif","""event"",""trial"",""time""
""fullscreenenter"",""1"",""3848""
","
","
","""event"",""trial"",""time""
""fullscreenenter"",""1"",""3848""
","
","","null","","null","","fixation","2021-07-02 15:28:27.127","","","","","",""
"card-selection-trial","161","612226","0.0-25.0-1.44","839","false","img/card_backs/set1/red.gif","img/card_backs/set1/green.gif","img/card_backs/set1/yellow.gif","img/card_backs/set1/purple.gif","img/card_backs/set2/orange.gif","img/card_backs/set2/blue.gif","img/card_backs/set2/gray.gif","img/card_backs/set2/pink.gif","""event"",""trial"",""time""
""fullscreenenter"",""1"",""3848""
","
","
","""event"",""trial"",""time""
""fullscreenenter"",""1"",""3848""
","
","","321.5","","","","real_trial","2021-07-02 15:28:29.463","img/card_backs/set1/red.gif","2","180","1","",""
"casino-fixation","162","612727","0.0-25.0-0.45","839","false","img/card_backs/set1/red.gif","img/card_backs/set1/green.gif","img/card_backs/set1/yellow.gif","img/card_backs/set1/purple.gif","img/card_backs/set2/orange.gif","img/card_backs/set2/blue.gif","img/card_backs/set2/gray.gif","img/card_backs/set2/pink.gif","""event"",""trial"",""time""
""fullscreenenter"",""1"",""3848""
","
","
","""event"",""trial"",""time""
""fullscreenenter"",""1"",""3848""
","
","","null","","null","","fixation","2021-07-02 15:28:29.964","","","","","",""
"card-selection-trial","163","615057","0.0-25.0-1.45","839","false","img/card_backs/set1/red.gif","img/card_backs/set1/green.gif","img/card_backs/set1/yellow.gif","img/card_backs/set1/purple.gif","img/card_backs/set2/orange.gif","img/card_backs/set2/blue.gif","img/card_backs/set2/gray.gif","img/card_backs/set2/pink.gif","""event"",""trial"",""time""
""fullscreenenter"",""1"",""3848""
","
","
","""event"",""trial"",""time""
""fullscreenenter"",""1"",""3848""
","
","","326.5","","","","real_trial","2021-07-02 15:28:32.294","img/card_backs/set1/yellow.gif","1","120","1","",""
"casino-fixation","164","615566","0.0-25.0-0.46","839","false","img/card_backs/set1/red.gif","img/card_backs/set1/green.gif","img/card_backs/set1/yellow.gif","img/card_backs/set1/purple.gif","img/card_backs/set2/orange.gif","img/card_backs/set2/blue.gif","img/card_backs/set2/gray.gif","img/card_backs/set2/pink.gif","""event"",""trial"",""time""
""fullscreenenter"",""1"",""3848""
","
","
","""event"",""trial"",""time""
""fullscreenenter"",""1"",""3848""
","
","","null","","null","","fixation","2021-07-02 15:28:32.804","","","","","",""
"card-selection-trial","165","617847","0.0-25.0-1.46","839","false","img/card_backs/set1/red.gif","img/card_backs/set1/green.gif","img/card_backs/set1/yellow.gif","img/card_backs/set1/purple.gif","img/card_backs/set2/orange.gif","img/card_backs/set2/blue.gif","img/card_backs/set2/gray.gif","img/card_backs/set2/pink.gif","""event"",""trial"",""time""
""fullscreenenter"",""1"",""3848""
","
","
","""event"",""trial"",""time""
""fullscreenenter"",""1"",""3848""
","
","","269.5","","","","real_trial","2021-07-02 15:28:35.085","img/card_backs/set1/green.gif","0","-230","1","",""
"casino-fixation","166","618361","0.0-25.0-0.47","839","false","img/card_backs/set1/red.gif","img/card_backs/set1/green.gif","img/card_backs/set1/yellow.gif","img/card_backs/set1/purple.gif","img/card_backs/set2/orange.gif","img/card_backs/set2/blue.gif","img/card_backs/set2/gray.gif","img/card_backs/set2/pink.gif","""event"",""trial"",""time""
""fullscreenenter"",""1"",""3848""
","
","
","""event"",""trial"",""time""
""fullscreenenter"",""1"",""3848""
","
","","null","","null","","fixation","2021-07-02 15:28:35.598","","","","","",""
"card-selection-trial","167","620769","0.0-25.0-1.47","839","false","img/card_backs/set1/red.gif","img/card_backs/set1/green.gif","img/card_backs/set1/yellow.gif","img/card_backs/set1/purple.gif","img/card_backs/set2/orange.gif","img/card_backs/set2/blue.gif","img/card_backs/set2/gray.gif","img/card_backs/set2/pink.gif","""event"",""trial"",""time""
""fullscreenenter"",""1"",""3848""
","
","
","""event"",""trial"",""time""
