"trial_type","trial_index","time_elapsed","internal_node_id","sub_id","risk_good_first","block1_A","block1_B","block1_C","block1_D","block2_A","block2_B","block2_C","block2_D","interactions","blur_events","focus_events","fullscreenenter_events","fullscreenexit_events","success","rt","stimulus","key_press","button_pressed","task_part","timestamp","card_choice","choice_position","points_earned","block","correct","response"
"pavlovia","0","3","0.0-0.0","A791","false","img/card_backs/set1/red.gif","img/card_backs/set1/green.gif","img/card_backs/set1/purple.gif","img/card_backs/set1/yellow.gif","img/card_backs/set2/gray.gif","img/card_backs/set2/blue.gif","img/card_backs/set2/orange.gif","img/card_backs/set2/pink.gif","""event"",""trial"",""time""
""fullscreenenter"",""1"",""3299""
","
","
","""event"",""trial"",""time""
""fullscreenenter"",""1"",""3299""
","
","","","","","","","","","","","","",""
"fullscreen","1","4259","0.0-1.0","A791","false","img/card_backs/set1/red.gif","img/card_backs/set1/green.gif","img/card_backs/set1/purple.gif","img/card_backs/set1/yellow.gif","img/card_backs/set2/gray.gif","img/card_backs/set2/blue.gif","img/card_backs/set2/orange.gif","img/card_backs/set2/pink.gif","""event"",""trial"",""time""
""fullscreenenter"",""1"",""3299""
","
","
","""event"",""trial"",""time""
""fullscreenenter"",""1"",""3299""
","
","true","","","","","","","","","","","",""
"audio-keyboard-response","2","7303","0.0-2.0","A791","false","img/card_backs/set1/red.gif","img/card_backs/set1/green.gif","img/card_backs/set1/purple.gif","img/card_backs/set1/yellow.gif","img/card_backs/set2/gray.gif","img/card_backs/set2/blue.gif","img/card_backs/set2/orange.gif","img/card_backs/set2/pink.gif","""event"",""trial"",""time""
""fullscreenenter"",""1"",""3299""
","
","
","""event"",""trial"",""time""
""fullscreenenter"",""1"",""3299""
","
","","2752","audio/beep_loop.wav","32","","","","","","","","",""
"audio-button-response","3","9389","0.0-3.0","A791","false","img/card_backs/set1/red.gif","img/card_backs/set1/green.gif","img/card_backs/set1/purple.gif","img/card_backs/set1/yellow.gif","img/card_backs/set2/gray.gif","img/card_backs/set2/blue.gif","img/card_backs/set2/orange.gif","img/card_backs/set2/pink.gif","""event"",""trial"",""time""
""fullscreenenter"",""1"",""3299""
","
","
","""event"",""trial"",""time""
""fullscreenenter"",""1"",""3299""
","
","","NaN","audio/turtle.mp3","","3","","","","","","","",""
"audio-button-response","4","11513","0.0-4.0","A791","false","img/card_backs/set1/red.gif","img/card_backs/set1/green.gif","img/card_backs/set1/purple.gif","img/card_backs/set1/yellow.gif","img/card_backs/set2/gray.gif","img/card_backs/set2/blue.gif","img/card_backs/set2/orange.gif","img/card_backs/set2/pink.gif","""event"",""trial"",""time""
""fullscreenenter"",""1"",""3299""
","
","
","""event"",""trial"",""time""
""fullscreenenter"",""1"",""3299""
","
","","NaN","audio/shark.mp3","","2","","","","","","","",""
"fullscreen","5","15650","0.0-5.0","A791","false","img/card_backs/set1/red.gif","img/card_backs/set1/green.gif","img/card_backs/set1/purple.gif","img/card_backs/set1/yellow.gif","img/card_backs/set2/gray.gif","img/card_backs/set2/blue.gif","img/card_backs/set2/orange.gif","img/card_backs/set2/pink.gif","""event"",""trial"",""time""
""fullscreenenter"",""1"",""3299""
","
","
","""event"",""trial"",""time""
""fullscreenenter"",""1"",""3299""
","
","true","","","","","","","","","","","",""
"casino-keyboard-response","6","20086","0.0-6.0-0.0","A791","false","img/card_backs/set1/red.gif","img/card_backs/set1/green.gif","img/card_backs/set1/purple.gif","img/card_backs/set1/yellow.gif","img/card_backs/set2/gray.gif","img/card_backs/set2/blue.gif","img/card_backs/set2/orange.gif","img/card_backs/set2/pink.gif","""event"",""trial"",""time""
""fullscreenenter"",""1"",""3299""
","
","
","""event"",""trial"",""time""
""fullscreenenter"",""1"",""3299""
","
","","4432.5149999931455","Welcome to the casino!","71","","instructions","2021-04-01 23:32:26.700","","","","","",""
"casino-keyboard-response","7","29796","0.0-6.0-0.1","A791","false","img/card_backs/set1/red.gif","img/card_backs/set1/green.gif","img/card_backs/set1/purple.gif","img/card_backs/set1/yellow.gif","img/card_backs/set2/gray.gif","img/card_backs/set2/blue.gif","img/card_backs/set2/orange.gif","img/card_backs/set2/pink.gif","""event"",""trial"",""time""
""fullscreenenter"",""1"",""3299""
","
","
","""event"",""trial"",""time""
""fullscreenenter"",""1"",""3299""
","
","","9708.504999987781","Today you will be playing a game to earn tokens. </br> At the end of the experiment, you will be paid a bonus based on how many tokens you win. ","69","","instructions","2021-04-01 23:32:36.410","","","","","",""
"casino-keyboard-response","8","37190","0.0-6.0-0.2","A791","false","img/card_backs/set1/red.gif","img/card_backs/set1/green.gif","img/card_backs/set1/purple.gif","img/card_backs/set1/yellow.gif","img/card_backs/set2/gray.gif","img/card_backs/set2/blue.gif","img/card_backs/set2/orange.gif","img/card_backs/set2/pink.gif","""event"",""trial"",""time""
""fullscreenenter"",""1"",""3299""
","
","
","""event"",""trial"",""time""
""fullscreenenter"",""1"",""3299""
","
","","7393.184999993537","On every turn, you will be shown four different decks of cards. </br> You need to select a card from one of the four decks.  ","75","","instructions","2021-04-01 23:32:43.804","","","","","",""
"casino-keyboard-response","9","42083","0.0-6.0-0.3","A791","false","img/card_backs/set1/red.gif","img/card_backs/set1/green.gif","img/card_backs/set1/purple.gif","img/card_backs/set1/yellow.gif","img/card_backs/set2/gray.gif","img/card_backs/set2/blue.gif","img/card_backs/set2/orange.gif","img/card_backs/set2/pink.gif","""event"",""trial"",""time""
""fullscreenenter"",""1"",""3299""
","
","
","""event"",""trial"",""time""
""fullscreenenter"",""1"",""3299""
","
","","4891.930000012508","On the next screen, you will see what the decks will look like. ","66","","instructions","2021-04-01 23:32:48.697","","","","","",""
"card-selection-trial","10","46090","0.0-7.0-0.0","A791","false","img/card_backs/set1/red.gif","img/card_backs/set1/green.gif","img/card_backs/set1/purple.gif","img/card_backs/set1/yellow.gif","img/card_backs/set2/gray.gif","img/card_backs/set2/blue.gif","img/card_backs/set2/orange.gif","img/card_backs/set2/pink.gif","""event"",""trial"",""time""
""fullscreenenter"",""1"",""3299""
","
","
","""event"",""trial"",""time""
""fullscreenenter"",""1"",""3299""
","
","","null","","","","practice","2021-04-01 23:32:52.704","null","null","null","0","",""
"casino-keyboard-response","11","53768","0.0-8.0-0.0","A791","false","img/card_backs/set1/red.gif","img/card_backs/set1/green.gif","img/card_backs/set1/purple.gif","img/card_backs/set1/yellow.gif","img/card_backs/set2/gray.gif","img/card_backs/set2/blue.gif","img/card_backs/set2/orange.gif","img/card_backs/set2/pink.gif","""event"",""trial"",""time""
""fullscreenenter"",""1"",""3299""
","
","
","""event"",""trial"",""time""
""fullscreenenter"",""1"",""3299""
","
","","7677.185000007739","You should pick a card from a deck using the '2', '4', '6', and '8' keys at the top of the keyboard.","85","","instructions","2021-04-01 23:33:00.382","","","","","",""
"casino-keyboard-response","12","59372","0.0-8.0-0.1","A791","false","img/card_backs/set1/red.gif","img/card_backs/set1/green.gif","img/card_backs/set1/purple.gif","img/card_backs/set1/yellow.gif","img/card_backs/set2/gray.gif","img/card_backs/set2/blue.gif","img/card_backs/set2/orange.gif","img/card_backs/set2/pink.gif","""event"",""trial"",""time""
""fullscreenenter"",""1"",""3299""
","
","
","""event"",""trial"",""time""
""fullscreenenter"",""1"",""3299""
","
","","5602.719999995315","Once you select a card, it will turn over and you will see how many tokens you earned.","83","","instructions","2021-04-01 23:33:05.986","","","","","",""
"casino-keyboard-response","13","73915","0.0-8.0-0.2","A791","false","img/card_backs/set1/red.gif","img/card_backs/set1/green.gif","img/card_backs/set1/purple.gif","img/card_backs/set1/yellow.gif","img/card_backs/set2/gray.gif","img/card_backs/set2/blue.gif","img/card_backs/set2/orange.gif","img/card_backs/set2/pink.gif","""event"",""trial"",""time""
""fullscreenenter"",""1"",""3299""
","
","
","""event"",""trial"",""time""
""fullscreenenter"",""1"",""3299""
","
","","14541.895000002114","Let's try practicing that! </br> First, try to put your fingers over the '2', '4', '6', and '8' keys. </br>  You can use whatever fingers are most comfortable for you. Try to find a comfortable position now. ","50","","instructions","2021-04-01 23:33:20.529","","","","","",""
"casino-keyboard-response","14","79745","0.0-8.0-0.3","A791","false","img/card_backs/set1/red.gif","img/card_backs/set1/green.gif","img/card_backs/set1/purple.gif","img/card_backs/set1/yellow.gif","img/card_backs/set2/gray.gif","img/card_backs/set2/blue.gif","img/card_backs/set2/orange.gif","img/card_backs/set2/pink.gif","""event"",""trial"",""time""
""fullscreenenter"",""1"",""3299""
","
","
","""event"",""trial"",""time""
""fullscreenenter"",""1"",""3299""
","
","","5828.570000012405","Okay ready? </br> On the next screen, press '2' to select the left deck. ","50","","instructions","2021-04-01 23:33:26.359","","","","","",""
"card-selection-trial","15","82851","0.0-9.0-0.0","A791","false","img/card_backs/set1/red.gif","img/card_backs/set1/green.gif","img/card_backs/set1/purple.gif","img/card_backs/set1/yellow.gif","img/card_backs/set2/gray.gif","img/card_backs/set2/blue.gif","img/card_backs/set2/orange.gif","img/card_backs/set2/pink.gif","""event"",""trial"",""time""
""fullscreenenter"",""1"",""3299""
","
","
","""event"",""trial"",""time""
""fullscreenenter"",""1"",""3299""
","
","","1093.4849999903236","","","","practice_card_selection","2021-04-01 23:33:29.465","img/practice_cards/backs/brown.gif","0","-100","","",""
"casino-keyboard-response","16","88690","0.0-10.0-0.0","A791","false","img/card_backs/set1/red.gif","img/card_backs/set1/green.gif","img/card_backs/set1/purple.gif","img/card_backs/set1/yellow.gif","img/card_backs/set2/gray.gif","img/card_backs/set2/blue.gif","img/card_backs/set2/orange.gif","img/card_backs/set2/pink.gif","""event"",""trial"",""time""
""fullscreenenter"",""1"",""3299""
","
","
","""event"",""trial"",""time""
""fullscreenenter"",""1"",""3299""
","
","","5837.650000001304","Great! Now on the next screen, try pressing '6' to select the third deck.","54","","instructions","2021-04-01 23:33:35.304","","","","","",""
"card-selection-trial","17","91942","0.0-11.0-0.0","A791","false","img/card_backs/set1/red.gif","img/card_backs/set1/green.gif","img/card_backs/set1/purple.gif","img/card_backs/set1/yellow.gif","img/card_backs/set2/gray.gif","img/card_backs/set2/blue.gif","img/card_backs/set2/orange.gif","img/card_backs/set2/pink.gif","""event"",""trial"",""time""
""fullscreenenter"",""1"",""3299""
","
","
","""event"",""trial"",""time""
""fullscreenenter"",""1"",""3299""
","
","","1248.1499999994412","","","","practice_card_selection","2021-04-01 23:33:38.556","img/practice_cards/backs/dark_green.gif","2","-200","","",""
"casino-keyboard-response","18","98126","0.0-12.0-0.0","A791","false","img/card_backs/set1/red.gif","img/card_backs/set1/green.gif","img/card_backs/set1/purple.gif","img/card_backs/set1/yellow.gif","img/card_backs/set2/gray.gif","img/card_backs/set2/blue.gif","img/card_backs/set2/orange.gif","img/card_backs/set2/pink.gif","""event"",""trial"",""time""
""fullscreenenter"",""1"",""3299""
","
","
","""event"",""trial"",""time""
""fullscreenenter"",""1"",""3299""
","
","","6182.880000007572","Now on the next screen, try pressing '4' to select the second deck.","52","","instructions","2021-04-01 23:33:44.740","","","","","",""
"card-selection-trial","19","102129","0.0-13.0-0.0","A791","false","img/card_backs/set1/red.gif","img/card_backs/set1/green.gif","img/card_backs/set1/purple.gif","img/card_backs/set1/yellow.gif","img/card_backs/set2/gray.gif","img/card_backs/set2/blue.gif","img/card_backs/set2/orange.gif","img/card_backs/set2/pink.gif","""event"",""trial"",""time""
""fullscreenenter"",""1"",""3299""
","
","
","""event"",""trial"",""time""
""fullscreenenter"",""1"",""3299""
","
","","1996.019999991404","","","","practice_card_selection","2021-04-01 23:33:48.743","img/practice_cards/backs/black.gif","1","-100","","",""
"casino-keyboard-response","20","107023","0.0-14.0-0.0","A791","false","img/card_backs/set1/red.gif","img/card_backs/set1/green.gif","img/card_backs/set1/purple.gif","img/card_backs/set1/yellow.gif","img/card_backs/set2/gray.gif","img/card_backs/set2/blue.gif","img/card_backs/set2/orange.gif","img/card_backs/set2/pink.gif","""event"",""trial"",""time""
""fullscreenenter"",""1"",""3299""
","
","
","""event"",""trial"",""time""
""fullscreenenter"",""1"",""3299""
","
","","4893.335000000661","Finally, try pressing '8' to select the deck all the way on the right.","56","","instructions","2021-04-01 23:33:53.637","","","","","",""
"card-selection-trial","21","110610","0.0-15.0-0.0","A791","false","img/card_backs/set1/red.gif","img/card_backs/set1/green.gif","img/card_backs/set1/purple.gif","img/card_backs/set1/yellow.gif","img/card_backs/set2/gray.gif","img/card_backs/set2/blue.gif","img/card_backs/set2/orange.gif","img/card_backs/set2/pink.gif","""event"",""trial"",""time""
""fullscreenenter"",""1"",""3299""
","
","
","""event"",""trial"",""time""
""fullscreenenter"",""1"",""3299""
","
","","1581.964999990305","","","","practice_card_selection","2021-04-01 23:33:57.224","img/practice_cards/backs/dark_green.gif","3","-200","","",""
"casino-keyboard-response","22","114657","0.0-16.0-0.0","A791","false","img/card_backs/set1/red.gif","img/card_backs/set1/green.gif","img/card_backs/set1/purple.gif","img/card_backs/set1/yellow.gif","img/card_backs/set2/gray.gif","img/card_backs/set2/blue.gif","img/card_backs/set2/orange.gif","img/card_backs/set2/pink.gif","""event"",""trial"",""time""
""fullscreenenter"",""1"",""3299""
","
","
","""event"",""trial"",""time""
""fullscreenenter"",""1"",""3299""
","
","","4045.784999994794","Great! It seems like you are getting the hang of this.","80","","instructions","2021-04-01 23:34:01.271","","","","","",""
"casino-keyboard-response","23","122375","0.0-16.0-0.1","A791","false","img/card_backs/set1/red.gif","img/card_backs/set1/green.gif","img/card_backs/set1/purple.gif","img/card_backs/set1/yellow.gif","img/card_backs/set2/gray.gif","img/card_backs/set2/blue.gif","img/card_backs/set2/orange.gif","img/card_backs/set2/pink.gif","""event"",""trial"",""time""
""fullscreenenter"",""1"",""3299""
","
","
","""event"",""trial"",""time""
""fullscreenenter"",""1"",""3299""
","
","","7716.504999989411","You may have noticed that some cards will cause you to <b> win </b> tokens while other cards will cause you to <b> lose </b>  tokens.","70","","instructions","2021-04-01 23:34:08.989","","","","","",""
"casino-keyboard-response","24","131121","0.0-16.0-0.2","A791","false","img/card_backs/set1/red.gif","img/card_backs/set1/green.gif","img/card_backs/set1/purple.gif","img/card_backs/set1/yellow.gif","img/card_backs/set2/gray.gif","img/card_backs/set2/blue.gif","img/card_backs/set2/orange.gif","img/card_backs/set2/pink.gif","""event"",""trial"",""time""
""fullscreenenter"",""1"",""3299""
","
","
","""event"",""trial"",""time""
""fullscreenenter"",""1"",""3299""
","
","","8745.100000000093","Each deck has a mix of cards that will cause you to win and lose tokens. </br> However, the cards in each colored deck are different.","73","","instructions","2021-04-01 23:34:17.735","","","","","",""
"casino-keyboard-response","25","140277","0.0-16.0-0.3","A791","false","img/card_backs/set1/red.gif","img/card_backs/set1/green.gif","img/card_backs/set1/purple.gif","img/card_backs/set1/yellow.gif","img/card_backs/set2/gray.gif","img/card_backs/set2/blue.gif","img/card_backs/set2/orange.gif","img/card_backs/set2/pink.gif","""event"",""trial"",""time""
""fullscreenenter"",""1"",""3299""
","
","
","""event"",""trial"",""time""
""fullscreenenter"",""1"",""3299""
","
","","9154.299999994691","Some colored decks are luckier than others. </br> If you choose the lucky decks, you will earn more tokens than if you choose the unlucky decks.","69","","instructions","2021-04-01 23:34:26.891","","","","","",""
"casino-keyboard-response","26","148544","0.0-16.0-0.4","A791","false","img/card_backs/set1/red.gif","img/card_backs/set1/green.gif","img/card_backs/set1/purple.gif","img/card_backs/set1/yellow.gif","img/card_backs/set2/gray.gif","img/card_backs/set2/blue.gif","img/card_backs/set2/orange.gif","img/card_backs/set2/pink.gif","""event"",""trial"",""time""
""fullscreenenter"",""1"",""3299""
","
","
","""event"",""trial"",""time""
""fullscreenenter"",""1"",""3299""
","
","","8266.575000016019","You should try to figure out which decks are lucky. </br> Then, try to choose the lucky decks so you can win the most tokens.","87","","instructions","2021-04-01 23:34:35.158","","","","","",""
"casino-keyboard-response","27","160230","0.0-16.0-0.5","A791","false","img/card_backs/set1/red.gif","img/card_backs/set1/green.gif","img/card_backs/set1/purple.gif","img/card_backs/set1/yellow.gif","img/card_backs/set2/gray.gif","img/card_backs/set2/blue.gif","img/card_backs/set2/orange.gif","img/card_backs/set2/pink.gif","""event"",""trial"",""time""
""fullscreenenter"",""1"",""3299""
","
","
","""event"",""trial"",""time""
""fullscreenenter"",""1"",""3299""
","
","","11684.164999984205","To make it trickier, the casino dealer will switch the locations of the decks on every turn. </br> The color of the deck determines how lucky it is. The location does not matter.","88","","instructions","2021-04-01 23:34:46.844","","","","","",""
"casino-keyboard-response","28","170271","0.0-16.0-0.6","A791","false","img/card_backs/set1/red.gif","img/card_backs/set1/green.gif","img/card_backs/set1/purple.gif","img/card_backs/set1/yellow.gif","img/card_backs/set2/gray.gif","img/card_backs/set2/blue.gif","img/card_backs/set2/orange.gif","img/card_backs/set2/pink.gif","""event"",""trial"",""time""
""fullscreenenter"",""1"",""3299""
","
","
","""event"",""trial"",""time""
""fullscreenenter"",""1"",""3299""
","
","","10039.160000014817","The mix of cards in each colored deck will stay the same throughout the game. </br> That means that a deck that is lucky early on will stay lucky.","79","","instructions","2021-04-01 23:34:56.885","","","","","",""
"casino-keyboard-response","29","179182","0.0-16.0-0.7","A791","false","img/card_backs/set1/red.gif","img/card_backs/set1/green.gif","img/card_backs/set1/purple.gif","img/card_backs/set1/yellow.gif","img/card_backs/set2/gray.gif","img/card_backs/set2/blue.gif","img/card_backs/set2/orange.gif","img/card_backs/set2/pink.gif","""event"",""trial"",""time""
""fullscreenenter"",""1"",""3299""
","
","
","""event"",""trial"",""time""
""fullscreenenter"",""1"",""3299""
","
","","8910.124999994878","Remember though, all the decks have a <b> mix </b> of both <b> good </b> and <b> bad </b> cards so it may take a couple of turns to figure out if a deck is lucky.","69","","instructions","2021-04-01 23:35:05.796","","","","","",""
"casino-keyboard-response","30","187629","0.0-16.0-0.8","A791","false","img/card_backs/set1/red.gif","img/card_backs/set1/green.gif","img/card_backs/set1/purple.gif","img/card_backs/set1/yellow.gif","img/card_backs/set2/gray.gif","img/card_backs/set2/blue.gif","img/card_backs/set2/orange.gif","img/card_backs/set2/pink.gif","""event"",""trial"",""time""
""fullscreenenter"",""1"",""3299""
","
","
","""event"",""trial"",""time""
""fullscreenenter"",""1"",""3299""
","
","","8445.910000009462","At the end of the game, you will be paid bonus money based on how many tokens you win. </br> If you win more tokens, you will earn more money!","72","","instructions","2021-04-01 23:35:14.243","","","","","",""
"casino-keyboard-response","31","198188","0.0-16.0-0.9","A791","false","img/card_backs/set1/red.gif","img/card_backs/set1/green.gif","img/card_backs/set1/purple.gif","img/card_backs/set1/yellow.gif","img/card_backs/set2/gray.gif","img/card_backs/set2/blue.gif","img/card_backs/set2/orange.gif","img/card_backs/set2/pink.gif","""event"",""trial"",""time""
""fullscreenenter"",""1"",""3299""
","
","
","""event"",""trial"",""time""
""fullscreenenter"",""1"",""3299""
","
","","10557.984999992186","You will never <b> lose </b> money. </br> If you end up with fewer than 0 tokens, you will earn $0 of bonus money, but you will still be paid for playing the game.","83","","instructions","2021-04-01 23:35:24.802","","","","","",""
"casino-keyboard-response","32","203075","0.0-16.0-0.10","A791","false","img/card_backs/set1/red.gif","img/card_backs/set1/green.gif","img/card_backs/set1/purple.gif","img/card_backs/set1/yellow.gif","img/card_backs/set2/gray.gif","img/card_backs/set2/blue.gif","img/card_backs/set2/orange.gif","img/card_backs/set2/pink.gif","""event"",""trial"",""time""
""fullscreenenter"",""1"",""3299""
","
","
","""event"",""trial"",""time""
""fullscreenenter"",""1"",""3299""
","
","","4884.759999986272","You will have 10 seconds to make each choice.","82","","instructions","2021-04-01 23:35:29.689","","","","","",""
"casino-keyboard-response","33","211355","0.0-16.0-0.11","A791","false","img/card_backs/set1/red.gif","img/card_backs/set1/green.gif","img/card_backs/set1/purple.gif","img/card_backs/set1/yellow.gif","img/card_backs/set2/gray.gif","img/card_backs/set2/blue.gif","img/card_backs/set2/orange.gif","img/card_backs/set2/pink.gif","""event"",""trial"",""time""
""fullscreenenter"",""1"",""3299""
","
","
","""event"",""trial"",""time""
""fullscreenenter"",""1"",""3299""
","
","","8279.320000001462","Before you play the game for real, you will play with practice decks. </br> The tokens you earn during practice won't count toward your total.","86","","instructions","2021-04-01 23:35:37.969","","","","","",""
"casino-keyboard-response","34","222747","0.0-16.0-0.12","A791","false","img/card_backs/set1/red.gif","img/card_backs/set1/green.gif","img/card_backs/set1/purple.gif","img/card_backs/set1/yellow.gif","img/card_backs/set2/gray.gif","img/card_backs/set2/blue.gif","img/card_backs/set2/orange.gif","img/card_backs/set2/pink.gif","""event"",""trial"",""time""
""fullscreenenter"",""1"",""3299""
","
","
","""event"",""trial"",""time""
""fullscreenenter"",""1"",""3299""
","
","","11390.179999987595","Ready? Remember, use the '2', '4', '6', and '8' keys to select the decks. </br> Put your fingers on those keys now and then press '2' to begin.","50","","instructions","2021-04-01 23:35:49.361","","","","","",""
"casino-fixation","35","223251","0.0-17.0-0.0","A791","false","img/card_backs/set1/red.gif","img/card_backs/set1/green.gif","img/card_backs/set1/purple.gif","img/card_backs/set1/yellow.gif","img/card_backs/set2/gray.gif","img/card_backs/set2/blue.gif","img/card_backs/set2/orange.gif","img/card_backs/set2/pink.gif","""event"",""trial"",""time""
""fullscreenenter"",""1"",""3299""
","
","
","""event"",""trial"",""time""
""fullscreenenter"",""1"",""3299""
","
","","null","","null","","fixation","2021-04-01 23:35:49.865","","","","","",""
"card-selection-trial","36","228858","0.0-17.0-1.0","A791","false","img/card_backs/set1/red.gif","img/card_backs/set1/green.gif","img/card_backs/set1/purple.gif","img/card_backs/set1/yellow.gif","img/card_backs/set2/gray.gif","img/card_backs/set2/blue.gif","img/card_backs/set2/orange.gif","img/card_backs/set2/pink.gif","""event"",""trial"",""time""
""fullscreenenter"",""1"",""3299""
","
","
","""event"",""trial"",""time""
""fullscreenenter"",""1"",""3299""
","
","","3599.20999998576","","","","practice","2021-04-01 23:35:55.472","img/practice_cards/backs/black.gif","1","100","0","",""
"casino-fixation","37","229363","0.0-17.0-0.1","A791","false","img/card_backs/set1/red.gif","img/card_backs/set1/green.gif","img/card_backs/set1/purple.gif","img/card_backs/set1/yellow.gif","img/card_backs/set2/gray.gif","img/card_backs/set2/blue.gif","img/card_backs/set2/orange.gif","img/card_backs/set2/pink.gif","""event"",""trial"",""time""
""fullscreenenter"",""1"",""3299""
","
","
","""event"",""trial"",""time""
""fullscreenenter"",""1"",""3299""
","
","","null","","null","","fixation","2021-04-01 23:35:55.977","","","","","",""
"card-selection-trial","38","233230","0.0-17.0-1.1","A791","false","img/card_backs/set1/red.gif","img/card_backs/set1/green.gif","img/card_backs/set1/purple.gif","img/card_backs/set1/yellow.gif","img/card_backs/set2/gray.gif","img/card_backs/set2/blue.gif","img/card_backs/set2/orange.gif","img/card_backs/set2/pink.gif","""event"",""trial"",""time""
""fullscreenenter"",""1"",""3299""
","
","
","""event"",""trial"",""time""
""fullscreenenter"",""1"",""3299""
","
","","1860.7000000192784","","","","practice","2021-04-01 23:35:59.844","img/practice_cards/backs/brown.gif","2","-100","0","",""
"casino-fixation","39","233735","0.0-17.0-0.2","A791","false","img/card_backs/set1/red.gif","img/card_backs/set1/green.gif","img/card_backs/set1/purple.gif","img/card_backs/set1/yellow.gif","img/card_backs/set2/gray.gif","img/card_backs/set2/blue.gif","img/card_backs/set2/orange.gif","img/card_backs/set2/pink.gif","""event"",""trial"",""time""
""fullscreenenter"",""1"",""3299""
","
","
","""event"",""trial"",""time""
""fullscreenenter"",""1"",""3299""
","
","","null","","null","","fixation","2021-04-01 23:36:00.349","","","","","",""
"card-selection-trial","40","238581","0.0-17.0-1.2","A791","false","img/card_backs/set1/red.gif","img/card_backs/set1/green.gif","img/card_backs/set1/purple.gif","img/card_backs/set1/yellow.gif","img/card_backs/set2/gray.gif","img/card_backs/set2/blue.gif","img/card_backs/set2/orange.gif","img/card_backs/set2/pink.gif","""event"",""trial"",""time""
""fullscreenenter"",""1"",""3299""
","
","
","""event"",""trial"",""time""
""fullscreenenter"",""1"",""3299""
","
","","2837.425000005169","","","","practice","2021-04-01 23:36:05.195","img/practice_cards/backs/dark_blue.gif","1","200","0","",""
"casino-fixation","41","239087","0.0-17.0-0.3","A791","false","img/card_backs/set1/red.gif","img/card_backs/set1/green.gif","img/card_backs/set1/purple.gif","img/card_backs/set1/yellow.gif","img/card_backs/set2/gray.gif","img/card_backs/set2/blue.gif","img/card_backs/set2/orange.gif","img/card_backs/set2/pink.gif","""event"",""trial"",""time""
""fullscreenenter"",""1"",""3299""
","
","
","""event"",""trial"",""time""
""fullscreenenter"",""1"",""3299""
","
","","null","","null","","fixation","2021-04-01 23:36:05.701","","","","","",""
"card-selection-trial","42","243925","0.0-17.0-1.3","A791","false","img/card_backs/set1/red.gif","img/card_backs/set1/green.gif","img/card_backs/set1/purple.gif","img/card_backs/set1/yellow.gif","img/card_backs/set2/gray.gif","img/card_backs/set2/blue.gif","img/card_backs/set2/orange.gif","img/card_backs/set2/pink.gif","""event"",""trial"",""time""
""fullscreenenter"",""1"",""3299""
","
","
","""event"",""trial"",""time""
""fullscreenenter"",""1"",""3299""
","
","","2832.170000008773","","","","practice","2021-04-01 23:36:10.539","img/practice_cards/backs/dark_green.gif","2","-200","0","",""
"casino-fixation","43","244427","0.0-17.0-0.4","A791","false","img/card_backs/set1/red.gif","img/card_backs/set1/green.gif","img/card_backs/set1/purple.gif","img/card_backs/set1/yellow.gif","img/card_backs/set2/gray.gif","img/card_backs/set2/blue.gif","img/card_backs/set2/orange.gif","img/card_backs/set2/pink.gif","""event"",""trial"",""time""
""fullscreenenter"",""1"",""3299""
","
","
","""event"",""trial"",""time""
""fullscreenenter"",""1"",""3299""
","
","","null","","null","","fixation","2021-04-01 23:36:11.041","","","","","",""
"card-selection-trial","44","250858","0.0-17.0-1.4","A791","false","img/card_backs/set1/red.gif","img/card_backs/set1/green.gif","img/card_backs/set1/purple.gif","img/card_backs/set1/yellow.gif","img/card_backs/set2/gray.gif","img/card_backs/set2/blue.gif","img/card_backs/set2/orange.gif","img/card_backs/set2/pink.gif","""event"",""trial"",""time""
""fullscreenenter"",""1"",""3299""
","
","
","""event"",""trial"",""time""
""fullscreenenter"",""1"",""3299""
","
","","4422.764999995707","","","","practice","2021-04-01 23:36:17.472","img/practice_cards/backs/brown.gif","3","-100","0","",""
"casino-fixation","45","251364","0.0-17.0-0.5","A791","false","img/card_backs/set1/red.gif","img/card_backs/set1/green.gif","img/card_backs/set1/purple.gif","img/card_backs/set1/yellow.gif","img/card_backs/set2/gray.gif","img/card_backs/set2/blue.gif","img/card_backs/set2/orange.gif","img/card_backs/set2/pink.gif","""event"",""trial"",""time""
""fullscreenenter"",""1"",""3299""
","
","
","""event"",""trial"",""time""
""fullscreenenter"",""1"",""3299""
","
","","null","","null","","fixation","2021-04-01 23:36:17.978","","","","","",""
"card-selection-trial","46","254582","0.0-17.0-1.5","A791","false","img/card_backs/set1/red.gif","img/card_backs/set1/green.gif","img/card_backs/set1/purple.gif","img/card_backs/set1/yellow.gif","img/card_backs/set2/gray.gif","img/card_backs/set2/blue.gif","img/card_backs/set2/orange.gif","img/card_backs/set2/pink.gif","""event"",""trial"",""time""
""fullscreenenter"",""1"",""3299""
","
","
","""event"",""trial"",""time""
""fullscreenenter"",""1"",""3299""
","
","","1209.35499999905","","","","practice","2021-04-01 23:36:21.196","img/practice_cards/backs/dark_blue.gif","3","200","0","",""
"casino-fixation","47","255086","0.0-17.0-0.6","A791","false","img/card_backs/set1/red.gif","img/card_backs/set1/green.gif","img/card_backs/set1/purple.gif","img/card_backs/set1/yellow.gif","img/card_backs/set2/gray.gif","img/card_backs/set2/blue.gif","img/card_backs/set2/orange.gif","img/card_backs/set2/pink.gif","""event"",""trial"",""time""
""fullscreenenter"",""1"",""3299""
","
","
","""event"",""trial"",""time""
""fullscreenenter"",""1"",""3299""
","
","","null","","null","","fixation","2021-04-01 23:36:21.701","","","","","",""
"card-selection-trial","48","258407","0.0-17.0-1.6","A791","false","img/card_backs/set1/red.gif","img/card_backs/set1/green.gif","img/card_backs/set1/purple.gif","img/card_backs/set1/yellow.gif","img/card_backs/set2/gray.gif","img/card_backs/set2/blue.gif","img/card_backs/set2/orange.gif","img/card_backs/set2/pink.gif","""event"",""trial"",""time""
""fullscreenenter"",""1"",""3299""
","
","
","""event"",""trial"",""time""
""fullscreenenter"",""1"",""3299""
","
","","1312.9699999990407","","","","practice","2021-04-01 23:36:25.021","img/practice_cards/backs/dark_blue.gif","0","200","0","",""
"casino-fixation","49","258912","0.0-17.0-0.7","A791","false","img/card_backs/set1/red.gif","img/card_backs/set1/green.gif","img/card_backs/set1/purple.gif","img/card_backs/set1/yellow.gif","img/card_backs/set2/gray.gif","img/card_backs/set2/blue.gif","img/card_backs/set2/orange.gif","img/card_backs/set2/pink.gif","""event"",""trial"",""time""
""fullscreenenter"",""1"",""3299""
","
","
","""event"",""trial"",""time""
""fullscreenenter"",""1"",""3299""
","
","","null","","null","","fixation","2021-04-01 23:36:25.526","","","","","",""
"card-selection-trial","50","262885","0.0-17.0-1.7","A791","false","img/card_backs/set1/red.gif","img/card_backs/set1/green.gif","img/card_backs/set1/purple.gif","img/card_backs/set1/yellow.gif","img/card_backs/set2/gray.gif","img/card_backs/set2/blue.gif","img/card_backs/set2/orange.gif","img/card_backs/set2/pink.gif","""event"",""trial"",""time""
""fullscreenenter"",""1"",""3299""
","
","
","""event"",""trial"",""time""
""fullscreenenter"",""1"",""3299""
","
","","1964.5049999817275","","","","practice","2021-04-01 23:36:29.499","img/practice_cards/backs/dark_blue.gif","0","-200","0","",""
"casino-fixation","51","263388","0.0-17.0-0.8","A791","false","img/card_backs/set1/red.gif","img/card_backs/set1/green.gif","img/card_backs/set1/purple.gif","img/card_backs/set1/yellow.gif","img/card_backs/set2/gray.gif","img/card_backs/set2/blue.gif","img/card_backs/set2/orange.gif","img/card_backs/set2/pink.gif","""event"",""trial"",""time""
""fullscreenenter"",""1"",""3299""
","
","
","""event"",""trial"",""time""
""fullscreenenter"",""1"",""3299""
","
","","null","","null","","fixation","2021-04-01 23:36:30.002","","","","","",""
"card-selection-trial","52","266803","0.0-17.0-1.8","A791","false","img/card_backs/set1/red.gif","img/card_backs/set1/green.gif","img/card_backs/set1/purple.gif","img/card_backs/set1/yellow.gif","img/card_backs/set2/gray.gif","img/card_backs/set2/blue.gif","img/card_backs/set2/orange.gif","img/card_backs/set2/pink.gif","""event"",""trial"",""time""
""fullscreenenter"",""1"",""3299""
","
","
","""event"",""trial"",""time""
""fullscreenenter"",""1"",""3299""
","
","","1408.6450000177138","","","","practice","2021-04-01 23:36:33.417","img/practice_cards/backs/black.gif","3","-100","0","",""
"casino-fixation","53","267306","0.0-17.0-0.9","A791","false","img/card_backs/set1/red.gif","img/card_backs/set1/green.gif","img/card_backs/set1/purple.gif","img/card_backs/set1/yellow.gif","img/card_backs/set2/gray.gif","img/card_backs/set2/blue.gif","img/card_backs/set2/orange.gif","img/card_backs/set2/pink.gif","""event"",""trial"",""time""
""fullscreenenter"",""1"",""3299""
","
","
","""event"",""trial"",""time""
""fullscreenenter"",""1"",""3299""
","
","","null","","null","","fixation","2021-04-01 23:36:33.920","","","","","",""
"card-selection-trial","54","271149","0.0-17.0-1.9","A791","false","img/card_backs/set1/red.gif","img/card_backs/set1/green.gif","img/card_backs/set1/purple.gif","img/card_backs/set1/yellow.gif","img/card_backs/set2/gray.gif","img/card_backs/set2/blue.gif","img/card_backs/set2/orange.gif","img/card_backs/set2/pink.gif","""event"",""trial"",""time""
""fullscreenenter"",""1"",""3299""
","
","
","""event"",""trial"",""time""
""fullscreenenter"",""1"",""3299""
","
","","1832.6100000122096","","","","practice","2021-04-01 23:36:37.763","img/practice_cards/backs/dark_blue.gif","1","-200","0","",""
"casino-keyboard-response","55","274541","0.0-18.0","A791","false","img/card_backs/set1/red.gif","img/card_backs/set1/green.gif","img/card_backs/set1/purple.gif","img/card_backs/set1/yellow.gif","img/card_backs/set2/gray.gif","img/card_backs/set2/blue.gif","img/card_backs/set2/orange.gif","img/card_backs/set2/pink.gif","""event"",""trial"",""time""
""fullscreenenter"",""1"",""3299""
","
","
","""event"",""trial"",""time""
""fullscreenenter"",""1"",""3299""
","
","","3389.515000017127","You earned -200 tokens during the practice round!","75","","","2021-04-01 23:36:41.155","","","","","",""
"casino-keyboard-response","56","278776","0.0-19.0-0.0","A791","false","img/card_backs/set1/red.gif","img/card_backs/set1/green.gif","img/card_backs/set1/purple.gif","img/card_backs/set1/yellow.gif","img/card_backs/set2/gray.gif","img/card_backs/set2/blue.gif","img/card_backs/set2/orange.gif","img/card_backs/set2/pink.gif","""event"",""trial"",""time""
""fullscreenenter"",""1"",""3299""
","
","
","""event"",""trial"",""time""
""fullscreenenter"",""1"",""3299""
","
","","4233.560000022408","Nice job! You are almost ready to play the real game.","86","","instructions","2021-04-01 23:36:45.390","","","","","",""
"casino-keyboard-response","57","285266","0.0-19.0-0.1","A791","false","img/card_backs/set1/red.gif","img/card_backs/set1/green.gif","img/card_backs/set1/purple.gif","img/card_backs/set1/yellow.gif","img/card_backs/set2/gray.gif","img/card_backs/set2/blue.gif","img/card_backs/set2/orange.gif","img/card_backs/set2/pink.gif","""event"",""trial"",""time""
""fullscreenenter"",""1"",""3299""
","
","
","""event"",""trial"",""time""
""fullscreenenter"",""1"",""3299""
","
","","6489.070000010543","You will play two rounds of the real game. In each round, you will pick 100 cards in total.","73","","instructions","2021-04-01 23:36:51.880","","","","","",""
"casino-keyboard-response","58","289555","0.0-19.0-0.2","A791","false","img/card_backs/set1/red.gif","img/card_backs/set1/green.gif","img/card_backs/set1/purple.gif","img/card_backs/set1/yellow.gif","img/card_backs/set2/gray.gif","img/card_backs/set2/blue.gif","img/card_backs/set2/orange.gif","img/card_backs/set2/pink.gif","""event"",""trial"",""time""
""fullscreenenter"",""1"",""3299""
","
","
","""event"",""trial"",""time""
""fullscreenenter"",""1"",""3299""
","
","","4287.749999988591","We are now going to ask you some questions about how the game works.","66","","instructions","2021-04-01 23:36:56.169","","","","","",""
"casino-keyboard-response","59","295690","0.0-19.0-0.3","A791","false","img/card_backs/set1/red.gif","img/card_backs/set1/green.gif","img/card_backs/set1/purple.gif","img/card_backs/set1/yellow.gif","img/card_backs/set2/gray.gif","img/card_backs/set2/blue.gif","img/card_backs/set2/orange.gif","img/card_backs/set2/pink.gif","""event"",""trial"",""time""
""fullscreenenter"",""1"",""3299""
","
","
","""event"",""trial"",""time""
""fullscreenenter"",""1"",""3299""
","
","","6134.519999992335","Answer carefully. You will not be able to begin the game until you answer them correctly.","67","","instructions","2021-04-01 23:37:02.304","","","","","",""
"casino-comp_q","60","302818","0.0-20.0-0.0","A791","false","img/card_backs/set1/red.gif","img/card_backs/set1/green.gif","img/card_backs/set1/purple.gif","img/card_backs/set1/yellow.gif","img/card_backs/set2/gray.gif","img/card_backs/set2/blue.gif","img/card_backs/set2/orange.gif","img/card_backs/set2/pink.gif","""event"",""trial"",""time""
""fullscreenenter"",""1"",""3299""
","
","
","""event"",""trial"",""time""
""fullscreenenter"",""1"",""3299""
","
","","7126.144999987446","True or False: All the decks have some cards that cause you to win tokens and some cards that cause you to lose tokens.","84","","","2021-04-01 23:37:09.432","","","","","",""
"casino-keyboard-response","61","307342","0.0-20.0-1.0","A791","false","img/card_backs/set1/red.gif","img/card_backs/set1/green.gif","img/card_backs/set1/purple.gif","img/card_backs/set1/yellow.gif","img/card_backs/set2/gray.gif","img/card_backs/set2/blue.gif","img/card_backs/set2/orange.gif","img/card_backs/set2/pink.gif","""event"",""trial"",""time""
""fullscreenenter"",""1"",""3299""
","
","
","""event"",""trial"",""time""
""fullscreenenter"",""1"",""3299""
","
","","4522.930000006454","True is correct! All the decks have a mix of winning and losing cards.","77","","","2021-04-01 23:37:13.956","","","","","true",""
"casino-comp_q","62","311776","0.0-21.0-0.0","A791","false","img/card_backs/set1/red.gif","img/card_backs/set1/green.gif","img/card_backs/set1/purple.gif","img/card_backs/set1/yellow.gif","img/card_backs/set2/gray.gif","img/card_backs/set2/blue.gif","img/card_backs/set2/orange.gif","img/card_backs/set2/pink.gif","""event"",""trial"",""time""
""fullscreenenter"",""1"",""3299""
","
","
","""event"",""trial"",""time""
""fullscreenenter"",""1"",""3299""
","
","","4430.965000006836","True or False: You will have as much time as you want to make your response.","70","","","2021-04-01 23:37:18.390","","","","","",""
"casino-keyboard-response","63","315463","0.0-21.0-1.0","A791","false","img/card_backs/set1/red.gif","img/card_backs/set1/green.gif","img/card_backs/set1/purple.gif","img/card_backs/set1/yellow.gif","img/card_backs/set2/gray.gif","img/card_backs/set2/blue.gif","img/card_backs/set2/orange.gif","img/card_backs/set2/pink.gif","""event"",""trial"",""time""
""fullscreenenter"",""1"",""3299""
","
","
","""event"",""trial"",""time""
""fullscreenenter"",""1"",""3299""
","
","","3685.895000002347","False is correct! You will only have 10 seconds to make each choice.","75","","","2021-04-01 23:37:22.077","","","","","true",""
"casino-comp_q","64","319932","0.0-22.0-0.0","A791","false","img/card_backs/set1/red.gif","img/card_backs/set1/green.gif","img/card_backs/set1/purple.gif","img/card_backs/set1/yellow.gif","img/card_backs/set2/gray.gif","img/card_backs/set2/blue.gif","img/card_backs/set2/orange.gif","img/card_backs/set2/pink.gif","""event"",""trial"",""time""
""fullscreenenter"",""1"",""3299""
","
","
","""event"",""trial"",""time""
""fullscreenenter"",""1"",""3299""
","
","","4468.144999991637","True or False: The location of the deck determines how lucky it is.","70","","","2021-04-01 23:37:26.546","","","","","",""
"casino-keyboard-response","65","324685","0.0-22.0-1.0","A791","false","img/card_backs/set1/red.gif","img/card_backs/set1/green.gif","img/card_backs/set1/purple.gif","img/card_backs/set1/yellow.gif","img/card_backs/set2/gray.gif","img/card_backs/set2/blue.gif","img/card_backs/set2/orange.gif","img/card_backs/set2/pink.gif","""event"",""trial"",""time""
""fullscreenenter"",""1"",""3299""
","
","
","""event"",""trial"",""time""
""fullscreenenter"",""1"",""3299""
","
","","4751.199999998789","False is correct! The <i>color</i>  of the deck determines how lucky or unlucky it is.","68","","","2021-04-01 23:37:31.299","","","","","true",""
"casino-keyboard-response","66","330324","0.0-23.0-0.0","A791","false","img/card_backs/set1/red.gif","img/card_backs/set1/green.gif","img/card_backs/set1/purple.gif","img/card_backs/set1/yellow.gif","img/card_backs/set2/gray.gif","img/card_backs/set2/blue.gif","img/card_backs/set2/orange.gif","img/card_backs/set2/pink.gif","""event"",""trial"",""time""
""fullscreenenter"",""1"",""3299""
","
","
","""event"",""trial"",""time""
""fullscreenenter"",""1"",""3299""
","
","","5638.140000024578","Great job! Now it's time to start the real game.","82","","instructions","2021-04-01 23:37:36.938","","","","","",""
"casino-keyboard-response","67","335647","0.0-23.0-0.1","A791","false","img/card_backs/set1/red.gif","img/card_backs/set1/green.gif","img/card_backs/set1/purple.gif","img/card_backs/set1/yellow.gif","img/card_backs/set2/gray.gif","img/card_backs/set2/blue.gif","img/card_backs/set2/orange.gif","img/card_backs/set2/pink.gif","""event"",""trial"",""time""
""fullscreenenter"",""1"",""3299""
","
","
","""event"",""trial"",""time""
""fullscreenenter"",""1"",""3299""
","
","","5322.149999992689","Before we start, we're going to head into a new room of the casino.","86","","instructions","2021-04-01 23:37:42.261","","","","","",""
"casino-keyboard-response","68","342269","0.0-24.0-0.0","A791","false","img/card_backs/set1/red.gif","img/card_backs/set1/green.gif","img/card_backs/set1/purple.gif","img/card_backs/set1/yellow.gif","img/card_backs/set2/gray.gif","img/card_backs/set2/blue.gif","img/card_backs/set2/orange.gif","img/card_backs/set2/pink.gif","""event"",""trial"",""time""
""fullscreenenter"",""1"",""3299""
","
","
","""event"",""trial"",""time""
""fullscreenenter"",""1"",""3299""
","
","","6620.924999995623","Here we are! The real game will use different cards, but the rules will be the same.","71","","instructions","2021-04-01 23:37:48.883","","","","","",""
"casino-keyboard-response","69","353730","0.0-24.0-0.1","A791","false","img/card_backs/set1/red.gif","img/card_backs/set1/green.gif","img/card_backs/set1/purple.gif","img/card_backs/set1/yellow.gif","img/card_backs/set2/gray.gif","img/card_backs/set2/blue.gif","img/card_backs/set2/orange.gif","img/card_backs/set2/pink.gif","""event"",""trial"",""time""
""fullscreenenter"",""1"",""3299""
","
","
","""event"",""trial"",""time""
""fullscreenenter"",""1"",""3299""
","
","","11459.940000000643","Ready? Put your fingers over the '2', '4', 6', and '8' keys so you are ready to play the game. </br> Then press 2 to start.","50","","instructions","2021-04-01 23:38:00.344","","","","","",""
"casino-fixation","70","354232","0.0-25.0-0.0","A791","false","img/card_backs/set1/red.gif","img/card_backs/set1/green.gif","img/card_backs/set1/purple.gif","img/card_backs/set1/yellow.gif","img/card_backs/set2/gray.gif","img/card_backs/set2/blue.gif","img/card_backs/set2/orange.gif","img/card_backs/set2/pink.gif","""event"",""trial"",""time""
""fullscreenenter"",""1"",""3299""
","
","
","""event"",""trial"",""time""
""fullscreenenter"",""1"",""3299""
","
","","null","","null","","fixation","2021-04-01 23:38:00.846","","","","","",""
"card-selection-trial","71","358406","0.0-25.0-1.0","A791","false","img/card_backs/set1/red.gif","img/card_backs/set1/green.gif","img/card_backs/set1/purple.gif","img/card_backs/set1/yellow.gif","img/card_backs/set2/gray.gif","img/card_backs/set2/blue.gif","img/card_backs/set2/orange.gif","img/card_backs/set2/pink.gif","""event"",""trial"",""time""
""fullscreenenter"",""1"",""3299""
","
","
","""event"",""trial"",""time""
""fullscreenenter"",""1"",""3299""
","
","","2168.340000003809","","","","real_trial","2021-04-01 23:38:05.020","img/card_backs/set1/yellow.gif","0","100","1","",""
"casino-fixation","72","358911","0.0-25.0-0.1","A791","false","img/card_backs/set1/red.gif","img/card_backs/set1/green.gif","img/card_backs/set1/purple.gif","img/card_backs/set1/yellow.gif","img/card_backs/set2/gray.gif","img/card_backs/set2/blue.gif","img/card_backs/set2/orange.gif","img/card_backs/set2/pink.gif","""event"",""trial"",""time""
""fullscreenenter"",""1"",""3299""
","
","
","""event"",""trial"",""time""
""fullscreenenter"",""1"",""3299""
","
","","null","","null","","fixation","2021-04-01 23:38:05.525","","","","","",""
"card-selection-trial","73","362446","0.0-25.0-1.1","A791","false","img/card_backs/set1/red.gif","img/card_backs/set1/green.gif","img/card_backs/set1/purple.gif","img/card_backs/set1/yellow.gif","img/card_backs/set2/gray.gif","img/card_backs/set2/blue.gif","img/card_backs/set2/orange.gif","img/card_backs/set2/pink.gif","""event"",""trial"",""time""
""fullscreenenter"",""1"",""3299""
","
","
","""event"",""trial"",""time""
""fullscreenenter"",""1"",""3299""
","
","","1529.8950000142213","","","","real_trial","2021-04-01 23:38:09.060","img/card_backs/set1/purple.gif","0","100","1","",""
"casino-fixation","74","362951","0.0-25.0-0.2","A791","false","img/card_backs/set1/red.gif","img/card_backs/set1/green.gif","img/card_backs/set1/purple.gif","img/card_backs/set1/yellow.gif","img/card_backs/set2/gray.gif","img/card_backs/set2/blue.gif","img/card_backs/set2/orange.gif","img/card_backs/set2/pink.gif","""event"",""trial"",""time""
""fullscreenenter"",""1"",""3299""
","
","
","""event"",""trial"",""time""
""fullscreenenter"",""1"",""3299""
","
","","null","","null","","fixation","2021-04-01 23:38:09.565","","","","","",""
"card-selection-trial","75","366916","0.0-25.0-1.2","A791","false","img/card_backs/set1/red.gif","img/card_backs/set1/green.gif","img/card_backs/set1/purple.gif","img/card_backs/set1/yellow.gif","img/card_backs/set2/gray.gif","img/card_backs/set2/blue.gif","img/card_backs/set2/orange.gif","img/card_backs/set2/pink.gif","""event"",""trial"",""time""
""fullscreenenter"",""1"",""3299""
","
","
","""event"",""trial"",""time""
""fullscreenenter"",""1"",""3299""
","
","","1957.6450000167824","","","","real_trial","2021-04-01 23:38:13.530","img/card_backs/set1/green.gif","2","180","1","",""
"casino-fixation","76","367421","0.0-25.0-0.3","A791","false","img/card_backs/set1/red.gif","img/card_backs/set1/green.gif","img/card_backs/set1/purple.gif","img/card_backs/set1/yellow.gif","img/card_backs/set2/gray.gif","img/card_backs/set2/blue.gif","img/card_backs/set2/orange.gif","img/card_backs/set2/pink.gif","""event"",""trial"",""time""
""fullscreenenter"",""1"",""3299""
","
","
","""event"",""trial"",""time""
""fullscreenenter"",""1"",""3299""
","
","","null","","null","","fixation","2021-04-01 23:38:14.035","","","","","",""
"card-selection-trial","77","370771","0.0-25.0-1.3","A791","false","img/card_backs/set1/red.gif","img/card_backs/set1/green.gif","img/card_backs/set1/purple.gif","img/card_backs/set1/yellow.gif","img/card_backs/set2/gray.gif","img/card_backs/set2/blue.gif","img/card_backs/set2/orange.gif","img/card_backs/set2/pink.gif","""event"",""trial"",""time""
""fullscreenenter"",""1"",""3299""
","
","
","""event"",""trial"",""time""
""fullscreenenter"",""1"",""3299""
","
","","1345.9799999836832","","","","real_trial","2021-04-01 23:38:17.385","img/card_backs/set1/red.gif","3","-230","1","",""
"casino-fixation","78","371275","0.0-25.0-0.4","A791","false","img/card_backs/set1/red.gif","img/card_backs/set1/green.gif","img/card_backs/set1/purple.gif","img/card_backs/set1/yellow.gif","img/card_backs/set2/gray.gif","img/card_backs/set2/blue.gif","img/card_backs/set2/orange.gif","img/card_backs/set2/pink.gif","""event"",""trial"",""time""
""fullscreenenter"",""1"",""3299""
","
","
","""event"",""trial"",""time""
""fullscreenenter"",""1"",""3299""
","
","","null","","null","","fixation","2021-04-01 23:38:17.889","","","","","",""
"card-selection-trial","79","374650","0.0-25.0-1.4","A791","false","img/card_backs/set1/red.gif","img/card_backs/set1/green.gif","img/card_backs/set1/purple.gif","img/card_backs/set1/yellow.gif","img/card_backs/set2/gray.gif","img/card_backs/set2/blue.gif","img/card_backs/set2/orange.gif","img/card_backs/set2/pink.gif","""event"",""trial"",""time""
""fullscreenenter"",""1"",""3299""
","
","
","""event"",""trial"",""time""
""fullscreenenter"",""1"",""3299""
","
","","1369.1949999774806","","","","real_trial","2021-04-01 23:38:21.264","img/card_backs/set1/yellow.gif","1","100","1","",""
"casino-fixation","80","375153","0.0-25.0-0.5","A791","false","img/card_backs/set1/red.gif","img/card_backs/set1/green.gif","img/card_backs/set1/purple.gif","img/card_backs/set1/yellow.gif","img/card_backs/set2/gray.gif","img/card_backs/set2/blue.gif","img/card_backs/set2/orange.gif","img/card_backs/set2/pink.gif","""event"",""trial"",""time""
""fullscreenenter"",""1"",""3299""
","
","
","""event"",""trial"",""time""
""fullscreenenter"",""1"",""3299""
","
","","null","","null","","fixation","2021-04-01 23:38:21.767","","","","","",""
"card-selection-trial","81","379228","0.0-25.0-1.5","A791","false","img/card_backs/set1/red.gif","img/card_backs/set1/green.gif","img/card_backs/set1/purple.gif","img/card_backs/set1/yellow.gif","img/card_backs/set2/gray.gif","img/card_backs/set2/blue.gif","img/card_backs/set2/orange.gif","img/card_backs/set2/pink.gif","""event"",""trial"",""time""
""fullscreenenter"",""1"",""3299""
","
","
","""event"",""trial"",""time""
""fullscreenenter"",""1"",""3299""
","
","","2070.659999997588","","","","real_trial","2021-04-01 23:38:25.842","img/card_backs/set1/purple.gif","2","-50","1","",""
"casino-fixation","82","379733","0.0-25.0-0.6","A791","false","img/card_backs/set1/red.gif","img/card_backs/set1/green.gif","img/card_backs/set1/purple.gif","img/card_backs/set1/yellow.gif","img/card_backs/set2/gray.gif","img/card_backs/set2/blue.gif","img/card_backs/set2/orange.gif","img/card_backs/set2/pink.gif","""event"",""trial"",""time""
""fullscreenenter"",""1"",""3299""
","
","
","""event"",""trial"",""time""
""fullscreenenter"",""1"",""3299""
","
","","null","","null","","fixation","2021-04-01 23:38:26.347","","","","","",""
"card-selection-trial","83","383932","0.0-25.0-1.6","A791","false","img/card_backs/set1/red.gif","img/card_backs/set1/green.gif","img/card_backs/set1/purple.gif","img/card_backs/set1/yellow.gif","img/card_backs/set2/gray.gif","img/card_backs/set2/blue.gif","img/card_backs/set2/orange.gif","img/card_backs/set2/pink.gif","""event"",""trial"",""time""
""fullscreenenter"",""1"",""3299""
","
","
","""event"",""trial"",""time""
""fullscreenenter"",""1"",""3299""
","
","","2189.745000010589","","","","real_trial","2021-04-01 23:38:30.546","img/card_backs/set1/green.gif","2","190","1","",""
"casino-fixation","84","384437","0.0-25.0-0.7","A791","false","img/card_backs/set1/red.gif","img/card_backs/set1/green.gif","img/card_backs/set1/purple.gif","img/card_backs/set1/yellow.gif","img/card_backs/set2/gray.gif","img/card_backs/set2/blue.gif","img/card_backs/set2/orange.gif","img/card_backs/set2/pink.gif","""event"",""trial"",""time""
""fullscreenenter"",""1"",""3299""
","
","
","""event"",""trial"",""time""
""fullscreenenter"",""1"",""3299""
","
","","null","","null","","fixation","2021-04-01 23:38:31.051","","","","","",""
"card-selection-trial","85","387315","0.0-25.0-1.7","A791","false","img/card_backs/set1/red.gif","img/card_backs/set1/green.gif","img/card_backs/set1/purple.gif","img/card_backs/set1/yellow.gif","img/card_backs/set2/gray.gif","img/card_backs/set2/blue.gif","img/card_backs/set2/orange.gif","img/card_backs/set2/pink.gif","""event"",""trial"",""time""
""fullscreenenter"",""1"",""3299""
","
","
","""event"",""trial"",""time""
""fullscreenenter"",""1"",""3299""
","
","","872.5350000022445","","","","real_trial","2021-04-01 23:38:33.929","img/card_backs/set1/green.gif","3","180","1","",""
"casino-fixation","86","387821","0.0-25.0-0.8","A791","false","img/card_backs/set1/red.gif","img/card_backs/set1/green.gif","img/card_backs/set1/purple.gif","img/card_backs/set1/yellow.gif","img/card_backs/set2/gray.gif","img/card_backs/set2/blue.gif","img/card_backs/set2/orange.gif","img/card_backs/set2/pink.gif","""event"",""trial"",""time""
""fullscreenenter"",""1"",""3299""
","
","
","""event"",""trial"",""time""
""fullscreenenter"",""1"",""3299""
","
","","null","","null","","fixation","2021-04-01 23:38:34.435","","","","","",""
"card-selection-trial","87","391658","0.0-25.0-1.8","A791","false","img/card_backs/set1/red.gif","img/card_backs/set1/green.gif","img/card_backs/set1/purple.gif","img/card_backs/set1/yellow.gif","img/card_backs/set2/gray.gif","img/card_backs/set2/blue.gif","img/card_backs/set2/orange.gif","img/card_backs/set2/pink.gif","""event"",""trial"",""time""
""fullscreenenter"",""1"",""3299""
","
","
","""event"",""trial"",""time""
""fullscreenenter"",""1"",""3299""
","
","","1831.6150000027847","","","","real_trial","2021-04-01 23:38:38.272","img/card_backs/set1/yellow.gif","2","110","1","",""
"casino-fixation","88","392163","0.0-25.0-0.9","A791","false","img/card_backs/set1/red.gif","img/card_backs/set1/green.gif","img/card_backs/set1/purple.gif","img/card_backs/set1/yellow.gif","img/card_backs/set2/gray.gif","img/card_backs/set2/blue.gif","img/card_backs/set2/orange.gif","img/card_backs/set2/pink.gif","""event"",""trial"",""time""
""fullscreenenter"",""1"",""3299""
","
","
","""event"",""trial"",""time""
""fullscreenenter"",""1"",""3299""
","
","","null","","null","","fixation","2021-04-01 23:38:38.777","","","","","",""
"card-selection-trial","89","395652","0.0-25.0-1.9","A791","false","img/card_backs/set1/red.gif","img/card_backs/set1/green.gif","img/card_backs/set1/purple.gif","img/card_backs/set1/yellow.gif","img/card_backs/set2/gray.gif","img/card_backs/set2/blue.gif","img/card_backs/set2/orange.gif","img/card_backs/set2/pink.gif","""event"",""trial"",""time""
""fullscreenenter"",""1"",""3299""
","
","
","""event"",""trial"",""time""
""fullscreenenter"",""1"",""3299""
","
","","1477.8100000112318","","","","real_trial","2021-04-01 23:38:42.266","img/card_backs/set1/yellow.gif","3","-50","1","",""
"casino-fixation","90","396153","0.0-25.0-0.10","A791","false","img/card_backs/set1/red.gif","img/card_backs/set1/green.gif","img/card_backs/set1/purple.gif","img/card_backs/set1/yellow.gif","img/card_backs/set2/gray.gif","img/card_backs/set2/blue.gif","img/card_backs/set2/orange.gif","img/card_backs/set2/pink.gif","""event"",""trial"",""time""
""fullscreenenter"",""1"",""3299""
","
","
","""event"",""trial"",""time""
""fullscreenenter"",""1"",""3299""
","
","","null","","null","","fixation","2021-04-01 23:38:42.768","","","","","",""
"card-selection-trial","91","399274","0.0-25.0-1.10","A791","false","img/card_backs/set1/red.gif","img/card_backs/set1/green.gif","img/card_backs/set1/purple.gif","img/card_backs/set1/yellow.gif","img/card_backs/set2/gray.gif","img/card_backs/set2/blue.gif","img/card_backs/set2/orange.gif","img/card_backs/set2/pink.gif","""event"",""trial"",""time""
""fullscreenenter"",""1"",""3299""
","
","
","""event"",""trial"",""time""
""fullscreenenter"",""1"",""3299""
","
","","1113.115000014659","","","","real_trial","2021-04-01 23:38:45.888","img/card_backs/set1/green.gif","0","-230","1","",""
"casino-fixation","92","399779","0.0-25.0-0.11","A791","false","img/card_backs/set1/red.gif","img/card_backs/set1/green.gif","img/card_backs/set1/purple.gif","img/card_backs/set1/yellow.gif","img/card_backs/set2/gray.gif","img/card_backs/set2/blue.gif","img/card_backs/set2/orange.gif","img/card_backs/set2/pink.gif","""event"",""trial"",""time""
""fullscreenenter"",""1"",""3299""
","
","
","""event"",""trial"",""time""
""fullscreenenter"",""1"",""3299""
","
","","null","","null","","fixation","2021-04-01 23:38:46.393","","","","","",""
"card-selection-trial","93","404104","0.0-25.0-1.11","A791","false","img/card_backs/set1/red.gif","img/card_backs/set1/green.gif","img/card_backs/set1/purple.gif","img/card_backs/set1/yellow.gif","img/card_backs/set2/gray.gif","img/card_backs/set2/blue.gif","img/card_backs/set2/orange.gif","img/card_backs/set2/pink.gif","""event"",""trial"",""time""
""fullscreenenter"",""1"",""3299""
","
","
","""event"",""trial"",""time""
""fullscreenenter"",""1"",""3299""
","
","","2315.9950000117533","","","","real_trial","2021-04-01 23:38:50.718","img/card_backs/set1/yellow.gif","0","110","1","",""
"casino-fixation","94","404609","0.0-25.0-0.12","A791","false","img/card_backs/set1/red.gif","img/card_backs/set1/green.gif","img/card_backs/set1/purple.gif","img/card_backs/set1/yellow.gif","img/card_backs/set2/gray.gif","img/card_backs/set2/blue.gif","img/card_backs/set2/orange.gif","img/card_backs/set2/pink.gif","""event"",""trial"",""time""
""fullscreenenter"",""1"",""3299""
","
","
","""event"",""trial"",""time""
""fullscreenenter"",""1"",""3299""
","
","","null","","null","","fixation","2021-04-01 23:38:51.223","","","","","",""
"card-selection-trial","95","407326","0.0-25.0-1.12","A791","false","img/card_backs/set1/red.gif","img/card_backs/set1/green.gif","img/card_backs/set1/purple.gif","img/card_backs/set1/yellow.gif","img/card_backs/set2/gray.gif","img/card_backs/set2/blue.gif","img/card_backs/set2/orange.gif","img/card_backs/set2/pink.gif","""event"",""trial"",""time""
""fullscreenenter"",""1"",""3299""
","
","
","""event"",""trial"",""time""
""fullscreenenter"",""1"",""3299""
","
","","706.9150000170339","","","","real_trial","2021-04-01 23:38:53.940","img/card_backs/set1/green.gif","0","180","1","",""
"casino-fixation","96","407831","0.0-25.0-0.13","A791","false","img/card_backs/set1/red.gif","img/card_backs/set1/green.gif","img/card_backs/set1/purple.gif","img/card_backs/set1/yellow.gif","img/card_backs/set2/gray.gif","img/card_backs/set2/blue.gif","img/card_backs/set2/orange.gif","img/card_backs/set2/pink.gif","""event"",""trial"",""time""
""fullscreenenter"",""1"",""3299""
","
","
","""event"",""trial"",""time""
""fullscreenenter"",""1"",""3299""
","
","","null","","null","","fixation","2021-04-01 23:38:54.445","","","","","",""
"card-selection-trial","97","410675","0.0-25.0-1.13","A791","false","img/card_backs/set1/red.gif","img/card_backs/set1/green.gif","img/card_backs/set1/purple.gif","img/card_backs/set1/yellow.gif","img/card_backs/set2/gray.gif","img/card_backs/set2/blue.gif","img/card_backs/set2/orange.gif","img/card_backs/set2/pink.gif","""event"",""trial"",""time""
""fullscreenenter"",""1"",""3299""
","
","
","""event"",""trial"",""time""
""fullscreenenter"",""1"",""3299""
","
","","837.9600000043865","","","","real_trial","2021-04-01 23:38:57.289","img/card_backs/set1/yellow.gif","0","110","1","",""
"casino-fixation","98","411180","0.0-25.0-0.14","A791","false","img/card_backs/set1/red.gif","img/card_backs/set1/green.gif","img/card_backs/set1/purple.gif","img/card_backs/set1/yellow.gif","img/card_backs/set2/gray.gif","img/card_backs/set2/blue.gif","img/card_backs/set2/orange.gif","img/card_backs/set2/pink.gif","""event"",""trial"",""time""
""fullscreenenter"",""1"",""3299""
","
","
","""event"",""trial"",""time""
""fullscreenenter"",""1"",""3299""
","
","","null","","null","","fixation","2021-04-01 23:38:57.794","","","","","",""
"card-selection-trial","99","414907","0.0-25.0-1.14","A791","false","img/card_backs/set1/red.gif","img/card_backs/set1/green.gif","img/card_backs/set1/purple.gif","img/card_backs/set1/yellow.gif","img/card_backs/set2/gray.gif","img/card_backs/set2/blue.gif","img/card_backs/set2/orange.gif","img/card_backs/set2/pink.gif","""event"",""trial"",""time""
""fullscreenenter"",""1"",""3299""
","
","
","""event"",""trial"",""time""
""fullscreenenter"",""1"",""3299""
","
","","1715.9450000035577","","","","real_trial","2021-04-01 23:39:01.521","img/card_backs/set1/yellow.gif","3","-60","1","",""
"casino-fixation","100","415412","0.0-25.0-0.15","A791","false","img/card_backs/set1/red.gif","img/card_backs/set1/green.gif","img/card_backs/set1/purple.gif","img/card_backs/set1/yellow.gif","img/card_backs/set2/gray.gif","img/card_backs/set2/blue.gif","img/card_backs/set2/orange.gif","img/card_backs/set2/pink.gif","""event"",""trial"",""time""
""fullscreenenter"",""1"",""3299""
","
","
","""event"",""trial"",""time""
""fullscreenenter"",""1"",""3299""
","
","","null","","null","","fixation","2021-04-01 23:39:02.026","","","","","",""
"card-selection-trial","101","418402","0.0-25.0-1.15","A791","false","img/card_backs/set1/red.gif","img/card_backs/set1/green.gif","img/card_backs/set1/purple.gif","img/card_backs/set1/yellow.gif","img/card_backs/set2/gray.gif","img/card_backs/set2/blue.gif","img/card_backs/set2/orange.gif","img/card_backs/set2/pink.gif","""event"",""trial"",""time""
""fullscreenenter"",""1"",""3299""
","
","
","""event"",""trial"",""time""
""fullscreenenter"",""1"",""3299""
","
","","983.3649999927729","","","","real_trial","2021-04-01 23:39:05.016","img/card_backs/set1/green.gif","1","200","1","",""
"casino-fixation","102","418907","0.0-25.0-0.16","A791","false","img/card_backs/set1/red.gif","img/card_backs/set1/green.gif","img/card_backs/set1/purple.gif","img/card_backs/set1/yellow.gif","img/card_backs/set2/gray.gif","img/card_backs/set2/blue.gif","img/card_backs/set2/orange.gif","img/card_backs/set2/pink.gif","""event"",""trial"",""time""
""fullscreenenter"",""1"",""3299""
","
","
","""event"",""trial"",""time""
""fullscreenenter"",""1"",""3299""
","
","","null","","null","","fixation","2021-04-01 23:39:05.521","","","","","",""
"card-selection-trial","103","421696","0.0-25.0-1.16","A791","false","img/card_backs/set1/red.gif","img/card_backs/set1/green.gif","img/card_backs/set1/purple.gif","img/card_backs/set1/yellow.gif","img/card_backs/set2/gray.gif","img/card_backs/set2/blue.gif","img/card_backs/set2/orange.gif","img/card_backs/set2/pink.gif","""event"",""trial"",""time""
""fullscreenenter"",""1"",""3299""
","
","
","""event"",""trial"",""time""
""fullscreenenter"",""1"",""3299""
","
","","780.3050000220537","","","","real_trial","2021-04-01 23:39:08.310","img/card_backs/set1/green.gif","0","-240","1","",""
"casino-fixation","104","422198","0.0-25.0-0.17","A791","false","img/card_backs/set1/red.gif","img/card_backs/set1/green.gif","img/card_backs/set1/purple.gif","img/card_backs/set1/yellow.gif","img/card_backs/set2/gray.gif","img/card_backs/set2/blue.gif","img/card_backs/set2/orange.gif","img/card_backs/set2/pink.gif","""event"",""trial"",""time""
""fullscreenenter"",""1"",""3299""
","
","
","""event"",""trial"",""time""
""fullscreenenter"",""1"",""3299""
","
","","null","","null","","fixation","2021-04-01 23:39:08.812","","","","","",""
"card-selection-trial","105","425200","0.0-25.0-1.17","A791","false","img/card_backs/set1/red.gif","img/card_backs/set1/green.gif","img/card_backs/set1/purple.gif","img/card_backs/set1/yellow.gif","img/card_backs/set2/gray.gif","img/card_backs/set2/blue.gif","img/card_backs/set2/orange.gif","img/card_backs/set2/pink.gif","""event"",""trial"",""time""
""fullscreenenter"",""1"",""3299""
","
","
","""event"",""trial"",""time""
""fullscreenenter"",""1"",""3299""
","
","","994.0650000062305","","","","real_trial","2021-04-01 23:39:11.814","img/card_backs/set1/yellow.gif","0","120","1","",""
"casino-fixation","106","425704","0.0-25.0-0.18","A791","false","img/card_backs/set1/red.gif","img/card_backs/set1/green.gif","img/card_backs/set1/purple.gif","img/card_backs/set1/yellow.gif","img/card_backs/set2/gray.gif","img/card_backs/set2/blue.gif","img/card_backs/set2/orange.gif","img/card_backs/set2/pink.gif","""event"",""trial"",""time""
""fullscreenenter"",""1"",""3299""
","
","
","""event"",""trial"",""time""
""fullscreenenter"",""1"",""3299""
","
","","null","","null","","fixation","2021-04-01 23:39:12.318","","","","","",""
"card-selection-trial","107","428810","0.0-25.0-1.18","A791","false","img/card_backs/set1/red.gif","img/card_backs/set1/green.gif","img/card_backs/set1/purple.gif","img/card_backs/set1/yellow.gif","img/card_backs/set2/gray.gif","img/card_backs/set2/blue.gif","img/card_backs/set2/orange.gif","img/card_backs/set2/pink.gif","""event"",""trial"",""time""
""fullscreenenter"",""1"",""3299""
","
","
","""event"",""trial"",""time""
""fullscreenenter"",""1"",""3299""
","
","","1095.0599999923725","","","","real_trial","2021-04-01 23:39:15.424","img/card_backs/set1/yellow.gif","2","-50","1","",""
"casino-fixation","108","429315","0.0-25.0-0.19","A791","false","img/card_backs/set1/red.gif","img/card_backs/set1/green.gif","img/card_backs/set1/purple.gif","img/card_backs/set1/yellow.gif","img/card_backs/set2/gray.gif","img/card_backs/set2/blue.gif","img/card_backs/set2/orange.gif","img/card_backs/set2/pink.gif","""event"",""trial"",""time""
""fullscreenenter"",""1"",""3299""
","
","
","""event"",""trial"",""time""
""fullscreenenter"",""1"",""3299""
","
","","null","","null","","fixation","2021-04-01 23:39:15.929","","","","","",""
"card-selection-trial","109","432074","0.0-25.0-1.19","A791","false","img/card_backs/set1/red.gif","img/card_backs/set1/green.gif","img/card_backs/set1/purple.gif","img/card_backs/set1/yellow.gif","img/card_backs/set2/gray.gif","img/card_backs/set2/blue.gif","img/card_backs/set2/orange.gif","img/card_backs/set2/pink.gif","""event"",""trial"",""time""
""fullscreenenter"",""1"",""3299""
","
","
","""event"",""trial"",""time""
""fullscreenenter"",""1"",""3299""
","
","","752.3700000019744","","","","real_trial","2021-04-01 23:39:18.688","img/card_backs/set1/yellow.gif","0","-50","1","",""
"casino-fixation","110","432579","0.0-25.0-0.20","A791","false","img/card_backs/set1/red.gif","img/card_backs/set1/green.gif","img/card_backs/set1/purple.gif","img/card_backs/set1/yellow.gif","img/card_backs/set2/gray.gif","img/card_backs/set2/blue.gif","img/card_backs/set2/orange.gif","img/card_backs/set2/pink.gif","""event"",""trial"",""time""
""fullscreenenter"",""1"",""3299""
","
","
","""event"",""trial"",""time""
""fullscreenenter"",""1"",""3299""
","
","","null","","null","","fixation","2021-04-01 23:39:19.193","","","","","",""
"card-selection-trial","111","436248","0.0-25.0-1.20","A791","false","img/card_backs/set1/red.gif","img/card_backs/set1/green.gif","img/card_backs/set1/purple.gif","img/card_backs/set1/yellow.gif","img/card_backs/set2/gray.gif","img/card_backs/set2/blue.gif","img/card_backs/set2/orange.gif","img/card_backs/set2/pink.gif","""event"",""trial"",""time""
""fullscreenenter"",""1"",""3299""
","
","
","""event"",""trial"",""time""
""fullscreenenter"",""1"",""3299""
","
","","1658.0949999915902","","","","real_trial","2021-04-01 23:39:22.862","img/card_backs/set1/yellow.gif","1","100","1","",""
"casino-fixation","112","436751","0.0-25.0-0.21","A791","false","img/card_backs/set1/red.gif","img/card_backs/set1/green.gif","img/card_backs/set1/purple.gif","img/card_backs/set1/yellow.gif","img/card_backs/set2/gray.gif","img/card_backs/set2/blue.gif","img/card_backs/set2/orange.gif","img/card_backs/set2/pink.gif","""event"",""trial"",""time""
""fullscreenenter"",""1"",""3299""
","
","
","""event"",""trial"",""time""
""fullscreenenter"",""1"",""3299""
","
","","null","","null","","fixation","2021-04-01 23:39:23.365","","","","","",""
"card-selection-trial","113","440496","0.0-25.0-1.21","A791","false","img/card_backs/set1/red.gif","img/card_backs/set1/green.gif","img/card_backs/set1/purple.gif","img/card_backs/set1/yellow.gif","img/card_backs/set2/gray.gif","img/card_backs/set2/blue.gif","img/card_backs/set2/orange.gif","img/card_backs/set2/pink.gif","""event"",""trial"",""time""
""fullscreenenter"",""1"",""3299""
","
","
","""event"",""trial"",""time""
""fullscreenenter"",""1"",""3299""
","
","","1733.6300000024494","","","","real_trial","2021-04-01 23:39:27.110","img/card_backs/set1/red.gif","1","200","1","",""
"casino-fixation","114","441001","0.0-25.0-0.22","A791","false","img/card_backs/set1/red.gif","img/card_backs/set1/green.gif","img/card_backs/set1/purple.gif","img/card_backs/set1/yellow.gif","img/card_backs/set2/gray.gif","img/card_backs/set2/blue.gif","img/card_backs/set2/orange.gif","img/card_backs/set2/pink.gif","""event"",""trial"",""time""
""fullscreenenter"",""1"",""3299""
","
","
","""event"",""trial"",""time""
""fullscreenenter"",""1"",""3299""
","
","","null","","null","","fixation","2021-04-01 23:39:27.615","","","","","",""
"card-selection-trial","115","443926","0.0-25.0-1.22","A791","false","img/card_backs/set1/red.gif","img/card_backs/set1/green.gif","img/card_backs/set1/purple.gif","img/card_backs/set1/yellow.gif","img/card_backs/set2/gray.gif","img/card_backs/set2/blue.gif","img/card_backs/set2/orange.gif","img/card_backs/set2/pink.gif","""event"",""trial"",""time""
""fullscreenenter"",""1"",""3299""
","
","
","""event"",""trial"",""time""
""fullscreenenter"",""1"",""3299""
","
","","920.0950000085868","","","","real_trial","2021-04-01 23:39:30.540","img/card_backs/set1/purple.gif","0","-60","1","",""
"casino-fixation","116","444431","0.0-25.0-0.23","A791","false","img/card_backs/set1/red.gif","img/card_backs/set1/green.gif","img/card_backs/set1/purple.gif","img/card_backs/set1/yellow.gif","img/card_backs/set2/gray.gif","img/card_backs/set2/blue.gif","img/card_backs/set2/orange.gif","img/card_backs/set2/pink.gif","""event"",""trial"",""time""
""fullscreenenter"",""1"",""3299""
","
","
","""event"",""trial"",""time""
""fullscreenenter"",""1"",""3299""
","
","","null","","null","","fixation","2021-04-01 23:39:31.045","","","","","",""
"card-selection-trial","117","448309","0.0-25.0-1.23","A791","false","img/card_backs/set1/red.gif","img/card_backs/set1/green.gif","img/card_backs/set1/purple.gif","img/card_backs/set1/yellow.gif","img/card_backs/set2/gray.gif","img/card_backs/set2/blue.gif","img/card_backs/set2/orange.gif","img/card_backs/set2/pink.gif","""event"",""trial"",""time""
""fullscreenenter"",""1"",""3299""
","
","
","""event"",""trial"",""time""
""fullscreenenter"",""1"",""3299""
","
","","1867.530000017723","","","","real_trial","2021-04-01 23:39:34.923","img/card_backs/set1/yellow.gif","0","-60","1","",""
"casino-fixation","118","448814","0.0-25.0-0.24","A791","false","img/card_backs/set1/red.gif","img/card_backs/set1/green.gif","img/card_backs/set1/purple.gif","img/card_backs/set1/yellow.gif","img/card_backs/set2/gray.gif","img/card_backs/set2/blue.gif","img/card_backs/set2/orange.gif","img/card_backs/set2/pink.gif","""event"",""trial"",""time""
""fullscreenenter"",""1"",""3299""
","
","
","""event"",""trial"",""time""
""fullscreenenter"",""1"",""3299""
","
","","null","","null","","fixation","2021-04-01 23:39:35.428","","","","","",""
"card-selection-trial","119","451583","0.0-25.0-1.24","A791","false","img/card_backs/set1/red.gif","img/card_backs/set1/green.gif","img/card_backs/set1/purple.gif","img/card_backs/set1/yellow.gif","img/card_backs/set2/gray.gif","img/card_backs/set2/blue.gif","img/card_backs/set2/orange.gif","img/card_backs/set2/pink.gif","""event"",""trial"",""time""
""fullscreenenter"",""1"",""3299""
","
","
","""event"",""trial"",""time""
""fullscreenenter"",""1"",""3299""
","
","","758.4549999737646","","","","real_trial","2021-04-01 23:39:38.197","img/card_backs/set1/red.gif","0","-230","1","",""
"casino-fixation","120","452088","0.0-25.0-0.25","A791","false","img/card_backs/set1/red.gif","img/card_backs/set1/green.gif","img/card_backs/set1/purple.gif","img/card_backs/set1/yellow.gif","img/card_backs/set2/gray.gif","img/card_backs/set2/blue.gif","img/card_backs/set2/orange.gif","img/card_backs/set2/pink.gif","""event"",""trial"",""time""
""fullscreenenter"",""1"",""3299""
","
","
","""event"",""trial"",""time""
""fullscreenenter"",""1"",""3299""
","
","","null","","null","","fixation","2021-04-01 23:39:38.702","","","","","",""
"card-selection-trial","121","454904","0.0-25.0-1.25","A791","false","img/card_backs/set1/red.gif","img/card_backs/set1/green.gif","img/card_backs/set1/purple.gif","img/card_backs/set1/yellow.gif","img/card_backs/set2/gray.gif","img/card_backs/set2/blue.gif","img/card_backs/set2/orange.gif","img/card_backs/set2/pink.gif","""event"",""trial"",""time""
""fullscreenenter"",""1"",""3299""
","
","
","""event"",""trial"",""time""
""fullscreenenter"",""1"",""3299""
","
","","804.7950000036508","","","","real_trial","2021-04-01 23:39:41.518","img/card_backs/set1/yellow.gif","0","110","1","",""
"casino-fixation","122","455409","0.0-25.0-0.26","A791","false","img/card_backs/set1/red.gif","img/card_backs/set1/green.gif","img/card_backs/set1/purple.gif","img/card_backs/set1/yellow.gif","img/card_backs/set2/gray.gif","img/card_backs/set2/blue.gif","img/card_backs/set2/orange.gif","img/card_backs/set2/pink.gif","""event"",""trial"",""time""
""fullscreenenter"",""1"",""3299""
","
","
","""event"",""trial"",""time""
""fullscreenenter"",""1"",""3299""
","
","","null","","null","","fixation","2021-04-01 23:39:42.023","","","","","",""
"card-selection-trial","123","458503","0.0-25.0-1.26","A791","false","img/card_backs/set1/red.gif","img/card_backs/set1/green.gif","img/card_backs/set1/purple.gif","img/card_backs/set1/yellow.gif","img/card_backs/set2/gray.gif","img/card_backs/set2/blue.gif","img/card_backs/set2/orange.gif","img/card_backs/set2/pink.gif","""event"",""trial"",""time""
""fullscreenenter"",""1"",""3299""
","
","
","""event"",""trial"",""time""
""fullscreenenter"",""1"",""3299""
","
","","1084.2500000144355","","","","real_trial","2021-04-01 23:39:45.117","img/card_backs/set1/yellow.gif","2","-70","1","",""
"casino-fixation","124","459008","0.0-25.0-0.27","A791","false","img/card_backs/set1/red.gif","img/card_backs/set1/green.gif","img/card_backs/set1/purple.gif","img/card_backs/set1/yellow.gif","img/card_backs/set2/gray.gif","img/card_backs/set2/blue.gif","img/card_backs/set2/orange.gif","img/card_backs/set2/pink.gif","""event"",""trial"",""time""
""fullscreenenter"",""1"",""3299""
","
","
","""event"",""trial"",""time""
""fullscreenenter"",""1"",""3299""
","
","","null","","null","","fixation","2021-04-01 23:39:45.622","","","","","",""
"card-selection-trial","125","462276","0.0-25.0-1.27","A791","false","img/card_backs/set1/red.gif","img/card_backs/set1/green.gif","img/card_backs/set1/purple.gif","img/card_backs/set1/yellow.gif","img/card_backs/set2/gray.gif","img/card_backs/set2/blue.gif","img/card_backs/set2/orange.gif","img/card_backs/set2/pink.gif","""event"",""trial"",""time""
""fullscreenenter"",""1"",""3299""
","
","
","""event"",""trial"",""time""
""fullscreenenter"",""1"",""3299""
","
","","1259.1599999868777","","","","real_trial","2021-04-01 23:39:48.890","img/card_backs/set1/yellow.gif","1","-60","1","",""
"casino-fixation","126","462781","0.0-25.0-0.28","A791","false","img/card_backs/set1/red.gif","img/card_backs/set1/green.gif","img/card_backs/set1/purple.gif","img/card_backs/set1/yellow.gif","img/card_backs/set2/gray.gif","img/card_backs/set2/blue.gif","img/card_backs/set2/orange.gif","img/card_backs/set2/pink.gif","""event"",""trial"",""time""
""fullscreenenter"",""1"",""3299""
","
","
","""event"",""trial"",""time""
""fullscreenenter"",""1"",""3299""
","
","","null","","null","","fixation","2021-04-01 23:39:49.395","","","","","",""
"card-selection-trial","127","465463","0.0-25.0-1.28","A791","false","img/card_backs/set1/red.gif","img/card_backs/set1/green.gif","img/card_backs/set1/purple.gif","img/card_backs/set1/yellow.gif","img/card_backs/set2/gray.gif","img/card_backs/set2/blue.gif","img/card_backs/set2/orange.gif","img/card_backs/set2/pink.gif","""event"",""trial"",""time""
""fullscreenenter"",""1"",""3299""
","
","
","""event"",""trial"",""time""
""fullscreenenter"",""1"",""3299""
","
","","674.460000009276","","","","real_trial","2021-04-01 23:39:52.077","img/card_backs/set1/green.gif","2","-230","1","",""
"casino-fixation","128","465968","0.0-25.0-0.29","A791","false","img/card_backs/set1/red.gif","img/card_backs/set1/green.gif","img/card_backs/set1/purple.gif","img/card_backs/set1/yellow.gif","img/card_backs/set2/gray.gif","img/card_backs/set2/blue.gif","img/card_backs/set2/orange.gif","img/card_backs/set2/pink.gif","""event"",""trial"",""time""
""fullscreenenter"",""1"",""3299""
","
","
","""event"",""trial"",""time""
""fullscreenenter"",""1"",""3299""
","
","","null","","null","","fixation","2021-04-01 23:39:52.582","","","","","",""
"card-selection-trial","129","470693","0.0-25.0-1.29","A791","false","img/card_backs/set1/red.gif","img/card_backs/set1/green.gif","img/card_backs/set1/purple.gif","img/card_backs/set1/yellow.gif","img/card_backs/set2/gray.gif","img/card_backs/set2/blue.gif","img/card_backs/set2/orange.gif","img/card_backs/set2/pink.gif","""event"",""trial"",""time""
""fullscreenenter"",""1"",""3299""
","
","
","""event"",""trial"",""time""
""fullscreenenter"",""1"",""3299""
","
","","2719.459999992978","","","","real_trial","2021-04-01 23:39:57.308","img/card_backs/set1/yellow.gif","3","-60","1","",""
"casino-fixation","130","471198","0.0-25.0-0.30","A791","false","img/card_backs/set1/red.gif","img/card_backs/set1/green.gif","img/card_backs/set1/purple.gif","img/card_backs/set1/yellow.gif","img/card_backs/set2/gray.gif","img/card_backs/set2/blue.gif","img/card_backs/set2/orange.gif","img/card_backs/set2/pink.gif","""event"",""trial"",""time""
""fullscreenenter"",""1"",""3299""
","
","
","""event"",""trial"",""time""
""fullscreenenter"",""1"",""3299""
","
","","null","","null","","fixation","2021-04-01 23:39:57.812","","","","","",""
"card-selection-trial","131","474061","0.0-25.0-1.30","A791","false","img/card_backs/set1/red.gif","img/card_backs/set1/green.gif","img/card_backs/set1/purple.gif","img/card_backs/set1/yellow.gif","img/card_backs/set2/gray.gif","img/card_backs/set2/blue.gif","img/card_backs/set2/orange.gif","img/card_backs/set2/pink.gif","""event"",""trial"",""time""
""fullscreenenter"",""1"",""3299""
","
","
","""event"",""trial"",""time""
""fullscreenenter"",""1"",""3299""
","
","","854.7099999850616","","","","real_trial","2021-04-01 23:40:00.675","img/card_backs/set1/yellow.gif","3","-50","1","",""
"casino-fixation","132","474565","0.0-25.0-0.31","A791","false","img/card_backs/set1/red.gif","img/card_backs/set1/green.gif","img/card_backs/set1/purple.gif","img/card_backs/set1/yellow.gif","img/card_backs/set2/gray.gif","img/card_backs/set2/blue.gif","img/card_backs/set2/orange.gif","img/card_backs/set2/pink.gif","""event"",""trial"",""time""
""fullscreenenter"",""1"",""3299""
","
","
","""event"",""trial"",""time""
""fullscreenenter"",""1"",""3299""
","
","","null","","null","","fixation","2021-04-01 23:40:01.179","","","","","",""
"card-selection-trial","133","477863","0.0-25.0-1.31","A791","false","img/card_backs/set1/red.gif","img/card_backs/set1/green.gif","img/card_backs/set1/purple.gif","img/card_backs/set1/yellow.gif","img/card_backs/set2/gray.gif","img/card_backs/set2/blue.gif","img/card_backs/set2/orange.gif","img/card_backs/set2/pink.gif","""event"",""trial"",""time""
""fullscreenenter"",""1"",""3299""
","
","
","""event"",""trial"",""time""
""fullscreenenter"",""1"",""3299""
","
","","1291.2199999846052","","","","real_trial","2021-04-01 23:40:04.477","img/card_backs/set1/purple.gif","1","-50","1","",""
"casino-fixation","134","478368","0.0-25.0-0.32","A791","false","img/card_backs/set1/red.gif","img/card_backs/set1/green.gif","img/card_backs/set1/purple.gif","img/card_backs/set1/yellow.gif","img/card_backs/set2/gray.gif","img/card_backs/set2/blue.gif","img/card_backs/set2/orange.gif","img/card_backs/set2/pink.gif","""event"",""trial"",""time""
""fullscreenenter"",""1"",""3299""
","
","
","""event"",""trial"",""time""
""fullscreenenter"",""1"",""3299""
","
","","null","","null","","fixation","2021-04-01 23:40:04.982","","","","","",""
"card-selection-trial","135","481949","0.0-25.0-1.32","A791","false","img/card_backs/set1/red.gif","img/card_backs/set1/green.gif","img/card_backs/set1/purple.gif","img/card_backs/set1/yellow.gif","img/card_backs/set2/gray.gif","img/card_backs/set2/blue.gif","img/card_backs/set2/orange.gif","img/card_backs/set2/pink.gif","""event"",""trial"",""time""
""fullscreenenter"",""1"",""3299""
","
","
","""event"",""trial"",""time""
""fullscreenenter"",""1"",""3299""
","
","","1573.6199999810196","","","","real_trial","2021-04-01 23:40:08.563","img/card_backs/set1/green.gif","3","-240","1","",""
"casino-fixation","136","482454","0.0-25.0-0.33","A791","false","img/card_backs/set1/red.gif","img/card_backs/set1/green.gif","img/card_backs/set1/purple.gif","img/card_backs/set1/yellow.gif","img/card_backs/set2/gray.gif","img/card_backs/set2/blue.gif","img/card_backs/set2/orange.gif","img/card_backs/set2/pink.gif","""event"",""trial"",""time""
""fullscreenenter"",""1"",""3299""
","
","
","""event"",""trial"",""time""
""fullscreenenter"",""1"",""3299""
","
","","null","","null","","fixation","2021-04-01 23:40:09.068","","","","","",""
"card-selection-trial","137","485502","0.0-25.0-1.33","A791","false","img/card_backs/set1/red.gif","img/card_backs/set1/green.gif","img/card_backs/set1/purple.gif","img/card_backs/set1/yellow.gif","img/card_backs/set2/gray.gif","img/card_backs/set2/blue.gif","img/card_backs/set2/orange.gif","img/card_backs/set2/pink.gif","""event"",""trial"",""time""
""fullscreenenter"",""1"",""3299""
","
","
","""event"",""trial"",""time""
""fullscreenenter"",""1"",""3299""
","
","","1041.0749999864493","","","","real_trial","2021-04-01 23:40:12.116","img/card_backs/set1/green.gif","1","-240","1","",""
"casino-fixation","138","486007","0.0-25.0-0.34","A791","false","img/card_backs/set1/red.gif","img/card_backs/set1/green.gif","img/card_backs/set1/purple.gif","img/card_backs/set1/yellow.gif","img/card_backs/set2/gray.gif","img/card_backs/set2/blue.gif","img/card_backs/set2/orange.gif","img/card_backs/set2/pink.gif","""event"",""trial"",""time""
""fullscreenenter"",""1"",""3299""
","
","
","""event"",""trial"",""time""
""fullscreenenter"",""1"",""3299""
","
","","null","","null","","fixation","2021-04-01 23:40:12.621","","","","","",""
"card-selection-trial","139","490013","0.0-25.0-1.34","A791","false","img/card_backs/set1/red.gif","img/card_backs/set1/green.gif","img/card_backs/set1/purple.gif","img/card_backs/set1/yellow.gif","img/card_backs/set2/gray.gif","img/card_backs/set2/blue.gif","img/card_backs/set2/orange.gif","img/card_backs/set2/pink.gif","""event"",""trial"",""time""
""fullscreenenter"",""1"",""3299""
","
","
","""event"",""trial"",""time""
""fullscreenenter"",""1"",""3299""
","
","","1997.059999994235","","","","real_trial","2021-04-01 23:40:16.627","img/card_backs/set1/yellow.gif","2","120","1","",""
"casino-fixation","140","490517","0.0-25.0-0.35","A791","false","img/card_backs/set1/red.gif","img/card_backs/set1/green.gif","img/card_backs/set1/purple.gif","img/card_backs/set1/yellow.gif","img/card_backs/set2/gray.gif","img/card_backs/set2/blue.gif","img/card_backs/set2/orange.gif","img/card_backs/set2/pink.gif","""event"",""trial"",""time""
""fullscreenenter"",""1"",""3299""
","
","
","""event"",""trial"",""time""
""fullscreenenter"",""1"",""3299""
","
","","null","","null","","fixation","2021-04-01 23:40:17.131","","","","","",""
"card-selection-trial","141","494337","0.0-25.0-1.35","A791","false","img/card_backs/set1/red.gif","img/card_backs/set1/green.gif","img/card_backs/set1/purple.gif","img/card_backs/set1/yellow.gif","img/card_backs/set2/gray.gif","img/card_backs/set2/blue.gif","img/card_backs/set2/orange.gif","img/card_backs/set2/pink.gif","""event"",""trial"",""time""
""fullscreenenter"",""1"",""3299""
","
","
","""event"",""trial"",""time""
""fullscreenenter"",""1"",""3299""
","
","","1810.8000000065658","","","","real_trial","2021-04-01 23:40:20.952","img/card_backs/set1/red.gif","1","-230","1","",""
"casino-fixation","142","494842","0.0-25.0-0.36","A791","false","img/card_backs/set1/red.gif","img/card_backs/set1/green.gif","img/card_backs/set1/purple.gif","img/card_backs/set1/yellow.gif","img/card_backs/set2/gray.gif","img/card_backs/set2/blue.gif","img/card_backs/set2/orange.gif","img/card_backs/set2/pink.gif","""event"",""trial"",""time""
""fullscreenenter"",""1"",""3299""
","
","
","""event"",""trial"",""time""
""fullscreenenter"",""1"",""3299""
","
","","null","","null","","fixation","2021-04-01 23:40:21.456","","","","","",""
"card-selection-trial","143","498459","0.0-25.0-1.36","A791","false","img/card_backs/set1/red.gif","img/card_backs/set1/green.gif","img/card_backs/set1/purple.gif","img/card_backs/set1/yellow.gif","img/card_backs/set2/gray.gif","img/card_backs/set2/blue.gif","img/card_backs/set2/orange.gif","img/card_backs/set2/pink.gif","""event"",""trial"",""time""
""fullscreenenter"",""1"",""3299""
","
","
","""event"",""trial"",""time""
""fullscreenenter"",""1"",""3299""
","
","","1606.8800000066403","","","","real_trial","2021-04-01 23:40:25.073","img/card_backs/set1/yellow.gif","0","-60","1","",""
"casino-fixation","144","498964","0.0-25.0-0.37","A791","false","img/card_backs/set1/red.gif","img/card_backs/set1/green.gif","img/card_backs/set1/purple.gif","img/card_backs/set1/yellow.gif","img/card_backs/set2/gray.gif","img/card_backs/set2/blue.gif","img/card_backs/set2/orange.gif","img/card_backs/set2/pink.gif","""event"",""trial"",""time""
""fullscreenenter"",""1"",""3299""
","
","
","""event"",""trial"",""time""
""fullscreenenter"",""1"",""3299""
","
","","null","","null","","fixation","2021-04-01 23:40:25.578","","","","","",""
"card-selection-trial","145","501629","0.0-25.0-1.37","A791","false","img/card_backs/set1/red.gif","img/card_backs/set1/green.gif","img/card_backs/set1/purple.gif","img/card_backs/set1/yellow.gif","img/card_backs/set2/gray.gif","img/card_backs/set2/blue.gif","img/card_backs/set2/orange.gif","img/card_backs/set2/pink.gif","""event"",""trial"",""time""
""fullscreenenter"",""1"",""3299""
","
","
","""event"",""trial"",""time""
""fullscreenenter"",""1"",""3299""
","
","","656.3350000069477","","","","real_trial","2021-04-01 23:40:28.243","img/card_backs/set1/yellow.gif","1","-50","1","",""
"casino-fixation","146","502135","0.0-25.0-0.38","A791","false","img/card_backs/set1/red.gif","img/card_backs/set1/green.gif","img/card_backs/set1/purple.gif","img/card_backs/set1/yellow.gif","img/card_backs/set2/gray.gif","img/card_backs/set2/blue.gif","img/card_backs/set2/orange.gif","img/card_backs/set2/pink.gif","""event"",""trial"",""time""
""fullscreenenter"",""1"",""3299""
","
","
","""event"",""trial"",""time""
""fullscreenenter"",""1"",""3299""
","
","","null","","null","","fixation","2021-04-01 23:40:28.749","","","","","",""
"card-selection-trial","147","504972","0.0-25.0-1.38","A791","false","img/card_backs/set1/red.gif","img/card_backs/set1/green.gif","img/card_backs/set1/purple.gif","img/card_backs/set1/yellow.gif","img/card_backs/set2/gray.gif","img/card_backs/set2/blue.gif","img/card_backs/set2/orange.gif","img/card_backs/set2/pink.gif","""event"",""trial"",""time""
""fullscreenenter"",""1"",""3299""
","
","
","""event"",""trial"",""time""
""fullscreenenter"",""1"",""3299""
","
","","829.3300000077579","","","","real_trial","2021-04-01 23:40:31.586","img/card_backs/set1/yellow.gif","3","110","1","",""
"casino-fixation","148","505477","0.0-25.0-0.39","A791","false","img/card_backs/set1/red.gif","img/card_backs/set1/green.gif","img/card_backs/set1/purple.gif","img/card_backs/set1/yellow.gif","img/card_backs/set2/gray.gif","img/card_backs/set2/blue.gif","img/card_backs/set2/orange.gif","img/card_backs/set2/pink.gif","""event"",""trial"",""time""
""fullscreenenter"",""1"",""3299""
","
","
","""event"",""trial"",""time""
""fullscreenenter"",""1"",""3299""
","
","","null","","null","","fixation","2021-04-01 23:40:32.091","","","","","",""
"card-selection-trial","149","509916","0.0-25.0-1.39","A791","false","img/card_backs/set1/red.gif","img/card_backs/set1/green.gif","img/card_backs/set1/purple.gif","img/card_backs/set1/yellow.gif","img/card_backs/set2/gray.gif","img/card_backs/set2/blue.gif","img/card_backs/set2/orange.gif","img/card_backs/set2/pink.gif","""event"",""trial"",""time""
""fullscreenenter"",""1"",""3299""
","
","
","""event"",""trial"",""time""
""fullscreenenter"",""1"",""3299""
","
","","2432.2399999946356","","","","real_trial","2021-04-01 23:40:36.530","img/card_backs/set1/red.gif","3","190","1","",""
"casino-fixation","150","510423","0.0-25.0-0.40","A791","false","img/card_backs/set1/red.gif","img/card_backs/set1/green.gif","img/card_backs/set1/purple.gif","img/card_backs/set1/yellow.gif","img/card_backs/set2/gray.gif","img/card_backs/set2/blue.gif","img/card_backs/set2/orange.gif","img/card_backs/set2/pink.gif","""event"",""trial"",""time""
""fullscreenenter"",""1"",""3299""
","
","
","""event"",""trial"",""time""
""fullscreenenter"",""1"",""3299""
","
","","null","","null","","fixation","2021-04-01 23:40:37.037","","","","","",""
"card-selection-trial","151","513558","0.0-25.0-1.40","A791","false","img/card_backs/set1/red.gif","img/card_backs/set1/green.gif","img/card_backs/set1/purple.gif","img/card_backs/set1/yellow.gif","img/card_backs/set2/gray.gif","img/card_backs/set2/blue.gif","img/card_backs/set2/orange.gif","img/card_backs/set2/pink.gif","""event"",""trial"",""time""
""fullscreenenter"",""1"",""3299""
","
","
","""event"",""trial"",""time""
""fullscreenenter"",""1"",""3299""
","
","","1126.029999984894","","","","real_trial","2021-04-01 23:40:40.172","img/card_backs/set1/yellow.gif","2","-50","1","",""
"casino-fixation","152","514062","0.0-25.0-0.41","A791","false","img/card_backs/set1/red.gif","img/card_backs/set1/green.gif","img/card_backs/set1/purple.gif","img/card_backs/set1/yellow.gif","img/card_backs/set2/gray.gif","img/card_backs/set2/blue.gif","img/card_backs/set2/orange.gif","img/card_backs/set2/pink.gif","""event"",""trial"",""time""
""fullscreenenter"",""1"",""3299""
","
","
","""event"",""trial"",""time""
""fullscreenenter"",""1"",""3299""
","
","","null","","null","","fixation","2021-04-01 23:40:40.677","","","","","",""
"card-selection-trial","153","517453","0.0-25.0-1.41","A791","false","img/card_backs/set1/red.gif","img/card_backs/set1/green.gif","img/card_backs/set1/purple.gif","img/card_backs/set1/yellow.gif","img/card_backs/set2/gray.gif","img/card_backs/set2/blue.gif","img/card_backs/set2/orange.gif","img/card_backs/set2/pink.gif","""event"",""trial"",""time""
""fullscreenenter"",""1"",""3299""
","
","
","""event"",""trial"",""time""
""fullscreenenter"",""1"",""3299""
","
","","1381.2850000103936","","","","real_trial","2021-04-01 23:40:44.067","img/card_backs/set1/red.gif","1","190","1","",""
"casino-fixation","154","517958","0.0-25.0-0.42","A791","false","img/card_backs/set1/red.gif","img/card_backs/set1/green.gif","img/card_backs/set1/purple.gif","img/card_backs/set1/yellow.gif","img/card_backs/set2/gray.gif","img/card_backs/set2/blue.gif","img/card_backs/set2/orange.gif","img/card_backs/set2/pink.gif","""event"",""trial"",""time""
""fullscreenenter"",""1"",""3299""
","
","
","""event"",""trial"",""time""
""fullscreenenter"",""1"",""3299""
","
","","null","","null","","fixation","2021-04-01 23:40:44.572","","","","","",""
"card-selection-trial","155","520878","0.0-25.0-1.42","A791","false","img/card_backs/set1/red.gif","img/card_backs/set1/green.gif","img/card_backs/set1/purple.gif","img/card_backs/set1/yellow.gif","img/card_backs/set2/gray.gif","img/card_backs/set2/blue.gif","img/card_backs/set2/orange.gif","img/card_backs/set2/pink.gif","""event"",""trial"",""time""
""fullscreenenter"",""1"",""3299""
","
","
","""event"",""trial"",""time""
""fullscreenenter"",""1"",""3299""
","
","","910.4600000136998","","","","real_trial","2021-04-01 23:40:47.492","img/card_backs/set1/red.gif","3","180","1","",""
"casino-fixation","156","521383","0.0-25.0-0.43","A791","false","img/card_backs/set1/red.gif","img/card_backs/set1/green.gif","img/card_backs/set1/purple.gif","img/card_backs/set1/yellow.gif","img/card_backs/set2/gray.gif","img/card_backs/set2/blue.gif","img/card_backs/set2/orange.gif","img/card_backs/set2/pink.gif","""event"",""trial"",""time""
""fullscreenenter"",""1"",""3299""
","
","
","""event"",""trial"",""time""
""fullscreenenter"",""1"",""3299""
","
","","null","","null","","fixation","2021-04-01 23:40:47.997","","","","","",""
"card-selection-trial","157","525052","0.0-25.0-1.43","A791","false","img/card_backs/set1/red.gif","img/card_backs/set1/green.gif","img/card_backs/set1/purple.gif","img/card_backs/set1/yellow.gif","img/card_backs/set2/gray.gif","img/card_backs/set2/blue.gif","img/card_backs/set2/orange.gif","img/card_backs/set2/pink.gif","""event"",""trial"",""time""
""fullscreenenter"",""1"",""3299""
","
","
","""event"",""trial"",""time""
""fullscreenenter"",""1"",""3299""
","
","","1662.4399999855086","","","","real_trial","2021-04-01 23:40:51.666","img/card_backs/set1/red.gif","1","190","1","",""
"casino-fixation","158","525556","0.0-25.0-0.44","A791","false","img/card_backs/set1/red.gif","img/card_backs/set1/green.gif","img/card_backs/set1/purple.gif","img/card_backs/set1/yellow.gif","img/card_backs/set2/gray.gif","img/card_backs/set2/blue.gif","img/card_backs/set2/orange.gif","img/card_backs/set2/pink.gif","""event"",""trial"",""time""
""fullscreenenter"",""1"",""3299""
","
","
","""event"",""trial"",""time""
""fullscreenenter"",""1"",""3299""
","
","","null","","null","","fixation","2021-04-01 23:40:52.170","","","","","",""
"card-selection-trial","159","528713","0.0-25.0-1.44","A791","false","img/card_backs/set1/red.gif","img/card_backs/set1/green.gif","img/card_backs/set1/purple.gif","img/card_backs/set1/yellow.gif","img/card_backs/set2/gray.gif","img/card_backs/set2/blue.gif","img/card_backs/set2/orange.gif","img/card_backs/set2/pink.gif","""event"",""trial"",""time""
""fullscreenenter"",""1"",""3299""
","
","
","""event"",""trial"",""time""
""fullscreenenter"",""1"",""3299""
","
","","1145.4000000085216","","","","real_trial","2021-04-01 23:40:55.327","img/card_backs/set1/red.gif","2","-230","1","",""
"casino-fixation","160","529217","0.0-25.0-0.45","A791","false","img/card_backs/set1/red.gif","img/card_backs/set1/green.gif","img/card_backs/set1/purple.gif","img/card_backs/set1/yellow.gif","img/card_backs/set2/gray.gif","img/card_backs/set2/blue.gif","img/card_backs/set2/orange.gif","img/card_backs/set2/pink.gif","""event"",""trial"",""time""
""fullscreenenter"",""1"",""3299""
","
","
","""event"",""trial"",""time""
""fullscreenenter"",""1"",""3299""
","
","","null","","null","","fixation","2021-04-01 23:40:55.831","","","","","",""
"card-selection-trial","161","532157","0.0-25.0-1.45","A791","false","img/card_backs/set1/red.gif","img/card_backs/set1/green.gif","img/card_backs/set1/purple.gif","img/card_backs/set1/yellow.gif","img/card_backs/set2/gray.gif","img/card_backs/set2/blue.gif","img/card_backs/set2/orange.gif","img/card_backs/set2/pink.gif","""event"",""trial"",""time""
""fullscreenenter"",""1"",""3299""
","
","
","""event"",""trial"",""time""
""fullscreenenter"",""1"",""3299""
","
","","931.8449999846052","","","","real_trial","2021-04-01 23:40:58.771","img/card_backs/set1/red.gif","1","180","1","",""
"casino-fixation","162","532662","0.0-25.0-0.46","A791","false","img/card_backs/set1/red.gif","img/card_backs/set1/green.gif","img/card_backs/set1/purple.gif","img/card_backs/set1/yellow.gif","img/card_backs/set2/gray.gif","img/card_backs/set2/blue.gif","img/card_backs/set2/orange.gif","img/card_backs/set2/pink.gif","""event"",""trial"",""time""
""fullscreenenter"",""1"",""3299""
","
","
","""event"",""trial"",""time""
""fullscreenenter"",""1"",""3299""
","
","","null","","null","","fixation","2021-04-01 23:40:59.276","","","","","",""
"card-selection-trial","163","535393","0.0-25.0-1.46","A791","false","img/card_backs/set1/red.gif","img/card_backs/set1/green.gif","img/card_backs/set1/purple.gif","img/card_backs/set1/yellow.gif","img/card_backs/set2/gray.gif","img/card_backs/set2/blue.gif","img/card_backs/set2/orange.gif","img/card_backs/set2/pink.gif","""event"",""trial"",""time""
""fullscreenenter"",""1"",""3299""
","
","
","""event"",""trial"",""time""
""fullscreenenter"",""1"",""3299""
","
","","725.0049999856856","","","","real_trial","2021-04-01 23:41:02.007","img/card_backs/set1/red.gif","0","-240","1","",""
"casino-fixation","164","535895","0.0-25.0-0.47","A791","false","img/card_backs/set1/red.gif","img/card_backs/set1/green.gif","img/card_backs/set1/purple.gif","img/card_backs/set1/yellow.gif","img/card_backs/set2/gray.gif","img/card_backs/set2/blue.gif","img/card_backs/set2/orange.gif","img/card_backs/set2/pink.gif","""event"",""trial"",""time""
""fullscreenenter"",""1"",""3299""
","
","
","""event"",""trial"",""time""
""fullscreenenter"",""1"",""3299""
","
","","null","","null","","fixation","2021-04-01 23:41:02.509","","","","","",""
"card-selection-trial","165","539390","0.0-25.0-1.47","A791","false","img/card_backs/set1/red.gif","img/card_backs/set1/green.gif","img/card_backs/set1/purple.gif","img/card_backs/set1/yellow.gif","img/card_backs/set2/gray.gif","img/card_backs/set2/blue.gif","img/card_backs/set2/orange.gif","img/card_backs/set2/pink.gif","""event"",""trial"",""time""
""fullscreenenter"",""1"",""3299""
","
","
","""event"",""trial"",""time""
""fullscreenenter"",""1"",""3299""
","
","","1485.4000000050291","","","","real_trial","2021-04-01 23:41:06.004","img/card_backs/set1/red.gif","1","-230","1","",""
"casino-fixation","166","539895","0.0-25.0-0.48","A791","false","img/card_backs/set1/red.gif","img/card_backs/set1/green.gif","img/card_backs/set1/purple.gif","img/card_backs/set1/yellow.gif","img/card_backs/set2/gray.gif","img/card_backs/set2/blue.gif","img/card_backs/set2/orange.gif","img/card_backs/set2/pink.gif","""event"",""trial"",""time""
""fullscreenenter"",""1"",""3299""
","
","
","""event"",""trial"",""time""
""fullscreenenter"",""1"",""3299""
","
","","null","","null","","fixation","2021-04-01 23:41:06.509","","","","","",""
