"trial_type","trial_index","time_elapsed","internal_node_id","sub_id","risk_good_first","block1_A","block1_B","block1_C","block1_D","block2_A","block2_B","block2_C","block2_D","interactions","blur_events","focus_events","fullscreenenter_events","fullscreenexit_events","success","rt","stimulus","key_press","button_pressed","task_part","timestamp","card_choice","choice_position","points_earned","block","correct","response"
"pavlovia","0","7","0.0-0.0","582","true","img/card_backs/set1/purple.gif","img/card_backs/set1/red.gif","img/card_backs/set1/yellow.gif","img/card_backs/set1/green.gif","img/card_backs/set2/pink.gif","img/card_backs/set2/orange.gif","img/card_backs/set2/gray.gif","img/card_backs/set2/blue.gif","""event"",""trial"",""time""
""fullscreenenter"",""1"",""4149""
","
","
","""event"",""trial"",""time""
""fullscreenenter"",""1"",""4149""
","
","","","","","","","","","","","","",""
"fullscreen","1","4465","0.0-1.0","582","true","img/card_backs/set1/purple.gif","img/card_backs/set1/red.gif","img/card_backs/set1/yellow.gif","img/card_backs/set1/green.gif","img/card_backs/set2/pink.gif","img/card_backs/set2/orange.gif","img/card_backs/set2/gray.gif","img/card_backs/set2/blue.gif","""event"",""trial"",""time""
""fullscreenenter"",""1"",""4149""
","
","
","""event"",""trial"",""time""
""fullscreenenter"",""1"",""4149""
","
","true","","","","","","","","","","","",""
"audio-keyboard-response","2","7380","0.0-2.0","582","true","img/card_backs/set1/purple.gif","img/card_backs/set1/red.gif","img/card_backs/set1/yellow.gif","img/card_backs/set1/green.gif","img/card_backs/set2/pink.gif","img/card_backs/set2/orange.gif","img/card_backs/set2/gray.gif","img/card_backs/set2/blue.gif","""event"",""trial"",""time""
""fullscreenenter"",""1"",""4149""
","
","
","""event"",""trial"",""time""
""fullscreenenter"",""1"",""4149""
","
","","2911","audio/beep_loop.wav","32","","","","","","","","",""
"audio-button-response","3","9023","0.0-3.0","582","true","img/card_backs/set1/purple.gif","img/card_backs/set1/red.gif","img/card_backs/set1/yellow.gif","img/card_backs/set1/green.gif","img/card_backs/set2/pink.gif","img/card_backs/set2/orange.gif","img/card_backs/set2/gray.gif","img/card_backs/set2/blue.gif","""event"",""trial"",""time""
""fullscreenenter"",""1"",""4149""
","
","
","""event"",""trial"",""time""
""fullscreenenter"",""1"",""4149""
","
","","NaN","audio/turtle.mp3","","3","","","","","","","",""
"audio-button-response","4","12031","0.0-4.0","582","true","img/card_backs/set1/purple.gif","img/card_backs/set1/red.gif","img/card_backs/set1/yellow.gif","img/card_backs/set1/green.gif","img/card_backs/set2/pink.gif","img/card_backs/set2/orange.gif","img/card_backs/set2/gray.gif","img/card_backs/set2/blue.gif","""event"",""trial"",""time""
""fullscreenenter"",""1"",""4149""
","
","
","""event"",""trial"",""time""
""fullscreenenter"",""1"",""4149""
","
","","NaN","audio/shark.mp3","","2","","","","","","","",""
"fullscreen","5","14944","0.0-5.0","582","true","img/card_backs/set1/purple.gif","img/card_backs/set1/red.gif","img/card_backs/set1/yellow.gif","img/card_backs/set1/green.gif","img/card_backs/set2/pink.gif","img/card_backs/set2/orange.gif","img/card_backs/set2/gray.gif","img/card_backs/set2/blue.gif","""event"",""trial"",""time""
""fullscreenenter"",""1"",""4149""
","
","
","""event"",""trial"",""time""
""fullscreenenter"",""1"",""4149""
","
","true","","","","","","","","","","","",""
"casino-keyboard-response","6","18091","0.0-6.0-0.0","582","true","img/card_backs/set1/purple.gif","img/card_backs/set1/red.gif","img/card_backs/set1/yellow.gif","img/card_backs/set1/green.gif","img/card_backs/set2/pink.gif","img/card_backs/set2/orange.gif","img/card_backs/set2/gray.gif","img/card_backs/set2/blue.gif","""event"",""trial"",""time""
""fullscreenenter"",""1"",""4149""
","
","
","""event"",""trial"",""time""
""fullscreenenter"",""1"",""4149""
","
","","3145","Welcome to the casino!","71","","instructions","2021-06-20 16:51:10.987","","","","","",""
"casino-keyboard-response","7","27203","0.0-6.0-0.1","582","true","img/card_backs/set1/purple.gif","img/card_backs/set1/red.gif","img/card_backs/set1/yellow.gif","img/card_backs/set1/green.gif","img/card_backs/set2/pink.gif","img/card_backs/set2/orange.gif","img/card_backs/set2/gray.gif","img/card_backs/set2/blue.gif","""event"",""trial"",""time""
""fullscreenenter"",""1"",""4149""
","
","
","""event"",""trial"",""time""
""fullscreenenter"",""1"",""4149""
","
","","9110","Today you will be playing a game to earn tokens. </br> At the end of the experiment, you will be paid a bonus based on how many tokens you win. ","69","","instructions","2021-06-20 16:51:20.098","","","","","",""
"casino-keyboard-response","8","35507","0.0-6.0-0.2","582","true","img/card_backs/set1/purple.gif","img/card_backs/set1/red.gif","img/card_backs/set1/yellow.gif","img/card_backs/set1/green.gif","img/card_backs/set2/pink.gif","img/card_backs/set2/orange.gif","img/card_backs/set2/gray.gif","img/card_backs/set2/blue.gif","""event"",""trial"",""time""
""fullscreenenter"",""1"",""4149""
","
","
","""event"",""trial"",""time""
""fullscreenenter"",""1"",""4149""
","
","","8303","On every turn, you will be shown four different decks of cards. </br> You need to select a card from one of the four decks.  ","75","","instructions","2021-06-20 16:51:28.402","","","","","",""
"casino-keyboard-response","9","40187","0.0-6.0-0.3","582","true","img/card_backs/set1/purple.gif","img/card_backs/set1/red.gif","img/card_backs/set1/yellow.gif","img/card_backs/set1/green.gif","img/card_backs/set2/pink.gif","img/card_backs/set2/orange.gif","img/card_backs/set2/gray.gif","img/card_backs/set2/blue.gif","""event"",""trial"",""time""
""fullscreenenter"",""1"",""4149""
","
","
","""event"",""trial"",""time""
""fullscreenenter"",""1"",""4149""
","
","","4679","On the next screen, you will see what the decks will look like. ","66","","instructions","2021-06-20 16:51:33.082","","","","","",""
"card-selection-trial","10","44191","0.0-7.0-0.0","582","true","img/card_backs/set1/purple.gif","img/card_backs/set1/red.gif","img/card_backs/set1/yellow.gif","img/card_backs/set1/green.gif","img/card_backs/set2/pink.gif","img/card_backs/set2/orange.gif","img/card_backs/set2/gray.gif","img/card_backs/set2/blue.gif","""event"",""trial"",""time""
""fullscreenenter"",""1"",""4149""
","
","
","""event"",""trial"",""time""
""fullscreenenter"",""1"",""4149""
","
","","null","","","","practice","2021-06-20 16:51:37.086","null","null","null","0","",""
"casino-keyboard-response","11","51379","0.0-8.0-0.0","582","true","img/card_backs/set1/purple.gif","img/card_backs/set1/red.gif","img/card_backs/set1/yellow.gif","img/card_backs/set1/green.gif","img/card_backs/set2/pink.gif","img/card_backs/set2/orange.gif","img/card_backs/set2/gray.gif","img/card_backs/set2/blue.gif","""event"",""trial"",""time""
""fullscreenenter"",""1"",""4149""
","
","
","""event"",""trial"",""time""
""fullscreenenter"",""1"",""4149""
","
","","7187","You should pick a card from a deck using the '2', '4', '6', and '8' keys at the top of the keyboard.","85","","instructions","2021-06-20 16:51:44.274","","","","","",""
"casino-keyboard-response","12","56707","0.0-8.0-0.1","582","true","img/card_backs/set1/purple.gif","img/card_backs/set1/red.gif","img/card_backs/set1/yellow.gif","img/card_backs/set1/green.gif","img/card_backs/set2/pink.gif","img/card_backs/set2/orange.gif","img/card_backs/set2/gray.gif","img/card_backs/set2/blue.gif","""event"",""trial"",""time""
""fullscreenenter"",""1"",""4149""
","
","
","""event"",""trial"",""time""
""fullscreenenter"",""1"",""4149""
","
","","5327","Once you select a card, it will turn over and you will see how many tokens you earned.","83","","instructions","2021-06-20 16:51:49.602","","","","","",""
"casino-keyboard-response","13","72635","0.0-8.0-0.2","582","true","img/card_backs/set1/purple.gif","img/card_backs/set1/red.gif","img/card_backs/set1/yellow.gif","img/card_backs/set1/green.gif","img/card_backs/set2/pink.gif","img/card_backs/set2/orange.gif","img/card_backs/set2/gray.gif","img/card_backs/set2/blue.gif","""event"",""trial"",""time""
""fullscreenenter"",""1"",""4149""
","
","
","""event"",""trial"",""time""
""fullscreenenter"",""1"",""4149""
","
","","15926.000000000015","Let's try practicing that! </br> First, try to put your fingers over the '2', '4', '6', and '8' keys. </br>  You can use whatever fingers are most comfortable for you. Try to find a comfortable position now. ","50","","instructions","2021-06-20 16:52:05.530","","","","","",""
"casino-keyboard-response","14","78363","0.0-8.0-0.3","582","true","img/card_backs/set1/purple.gif","img/card_backs/set1/red.gif","img/card_backs/set1/yellow.gif","img/card_backs/set1/green.gif","img/card_backs/set2/pink.gif","img/card_backs/set2/orange.gif","img/card_backs/set2/gray.gif","img/card_backs/set2/blue.gif","""event"",""trial"",""time""
""fullscreenenter"",""1"",""4149""
","
","
","""event"",""trial"",""time""
""fullscreenenter"",""1"",""4149""
","
","","5727","Okay ready? </br> On the next screen, press '2' to select the left deck. ","50","","instructions","2021-06-20 16:52:11.258","","","","","",""
"card-selection-trial","15","81214","0.0-9.0-0.0","582","true","img/card_backs/set1/purple.gif","img/card_backs/set1/red.gif","img/card_backs/set1/yellow.gif","img/card_backs/set1/green.gif","img/card_backs/set2/pink.gif","img/card_backs/set2/orange.gif","img/card_backs/set2/gray.gif","img/card_backs/set2/blue.gif","""event"",""trial"",""time""
""fullscreenenter"",""1"",""4149""
","
","
","""event"",""trial"",""time""
""fullscreenenter"",""1"",""4149""
","
","","762","","","","practice_card_selection","2021-06-20 16:52:14.109","img/practice_cards/backs/black.gif","0","-100","","",""
"casino-keyboard-response","16","86819","0.0-10.0-0.0","582","true","img/card_backs/set1/purple.gif","img/card_backs/set1/red.gif","img/card_backs/set1/yellow.gif","img/card_backs/set1/green.gif","img/card_backs/set2/pink.gif","img/card_backs/set2/orange.gif","img/card_backs/set2/gray.gif","img/card_backs/set2/blue.gif","""event"",""trial"",""time""
""fullscreenenter"",""1"",""4149""
","
","
","""event"",""trial"",""time""
""fullscreenenter"",""1"",""4149""
","
","","5604","Great! Now on the next screen, try pressing '6' to select the third deck.","54","","instructions","2021-06-20 16:52:19.714","","","","","",""
"card-selection-trial","17","89388","0.0-11.0-0.0","582","true","img/card_backs/set1/purple.gif","img/card_backs/set1/red.gif","img/card_backs/set1/yellow.gif","img/card_backs/set1/green.gif","img/card_backs/set2/pink.gif","img/card_backs/set2/orange.gif","img/card_backs/set2/gray.gif","img/card_backs/set2/blue.gif","""event"",""trial"",""time""
""fullscreenenter"",""1"",""4149""
","
","
","""event"",""trial"",""time""
""fullscreenenter"",""1"",""4149""
","
","","464","","","","practice_card_selection","2021-06-20 16:52:22.283","img/practice_cards/backs/brown.gif","2","100","","",""
"casino-keyboard-response","18","93827","0.0-12.0-0.0","582","true","img/card_backs/set1/purple.gif","img/card_backs/set1/red.gif","img/card_backs/set1/yellow.gif","img/card_backs/set1/green.gif","img/card_backs/set2/pink.gif","img/card_backs/set2/orange.gif","img/card_backs/set2/gray.gif","img/card_backs/set2/blue.gif","""event"",""trial"",""time""
""fullscreenenter"",""1"",""4149""
","
","
","""event"",""trial"",""time""
""fullscreenenter"",""1"",""4149""
","
","","4436.999999999985","Now on the next screen, try pressing '4' to select the second deck.","52","","instructions","2021-06-20 16:52:26.722","","","","","",""
"card-selection-trial","19","96293","0.0-13.0-0.0","582","true","img/card_backs/set1/purple.gif","img/card_backs/set1/red.gif","img/card_backs/set1/yellow.gif","img/card_backs/set1/green.gif","img/card_backs/set2/pink.gif","img/card_backs/set2/orange.gif","img/card_backs/set2/gray.gif","img/card_backs/set2/blue.gif","""event"",""trial"",""time""
""fullscreenenter"",""1"",""4149""
","
","
","""event"",""trial"",""time""
""fullscreenenter"",""1"",""4149""
","
","","418","","","","practice_card_selection","2021-06-20 16:52:29.189","img/practice_cards/backs/dark_green.gif","1","200","","",""
"casino-keyboard-response","20","100411","0.0-14.0-0.0","582","true","img/card_backs/set1/purple.gif","img/card_backs/set1/red.gif","img/card_backs/set1/yellow.gif","img/card_backs/set1/green.gif","img/card_backs/set2/pink.gif","img/card_backs/set2/orange.gif","img/card_backs/set2/gray.gif","img/card_backs/set2/blue.gif","""event"",""trial"",""time""
""fullscreenenter"",""1"",""4149""
","
","
","""event"",""trial"",""time""
""fullscreenenter"",""1"",""4149""
","
","","4114.999999999985","Finally, try pressing '8' to select the deck all the way on the right.","56","","instructions","2021-06-20 16:52:33.306","","","","","",""
"card-selection-trial","21","102843","0.0-15.0-0.0","582","true","img/card_backs/set1/purple.gif","img/card_backs/set1/red.gif","img/card_backs/set1/yellow.gif","img/card_backs/set1/green.gif","img/card_backs/set2/pink.gif","img/card_backs/set2/orange.gif","img/card_backs/set2/gray.gif","img/card_backs/set2/blue.gif","""event"",""trial"",""time""
""fullscreenenter"",""1"",""4149""
","
","
","""event"",""trial"",""time""
""fullscreenenter"",""1"",""4149""
","
","","383","","","","practice_card_selection","2021-06-20 16:52:35.738","img/practice_cards/backs/brown.gif","3","100","","",""
"casino-keyboard-response","22","106123","0.0-16.0-0.0","582","true","img/card_backs/set1/purple.gif","img/card_backs/set1/red.gif","img/card_backs/set1/yellow.gif","img/card_backs/set1/green.gif","img/card_backs/set2/pink.gif","img/card_backs/set2/orange.gif","img/card_backs/set2/gray.gif","img/card_backs/set2/blue.gif","""event"",""trial"",""time""
""fullscreenenter"",""1"",""4149""
","
","
","""event"",""trial"",""time""
""fullscreenenter"",""1"",""4149""
","
","","3278","Great! It seems like you are getting the hang of this.","80","","instructions","2021-06-20 16:52:39.018","","","","","",""
"casino-keyboard-response","23","113003","0.0-16.0-0.1","582","true","img/card_backs/set1/purple.gif","img/card_backs/set1/red.gif","img/card_backs/set1/yellow.gif","img/card_backs/set1/green.gif","img/card_backs/set2/pink.gif","img/card_backs/set2/orange.gif","img/card_backs/set2/gray.gif","img/card_backs/set2/blue.gif","""event"",""trial"",""time""
""fullscreenenter"",""1"",""4149""
","
","
","""event"",""trial"",""time""
""fullscreenenter"",""1"",""4149""
","
","","6879","You may have noticed that some cards will cause you to <b> win </b> tokens while other cards will cause you to <b> lose </b>  tokens.","70","","instructions","2021-06-20 16:52:45.898","","","","","",""
"casino-keyboard-response","24","121011","0.0-16.0-0.2","582","true","img/card_backs/set1/purple.gif","img/card_backs/set1/red.gif","img/card_backs/set1/yellow.gif","img/card_backs/set1/green.gif","img/card_backs/set2/pink.gif","img/card_backs/set2/orange.gif","img/card_backs/set2/gray.gif","img/card_backs/set2/blue.gif","""event"",""trial"",""time""
""fullscreenenter"",""1"",""4149""
","
","
","""event"",""trial"",""time""
""fullscreenenter"",""1"",""4149""
","
","","8007","Each deck has a mix of cards that will cause you to win and lose tokens. </br> However, the cards in each colored deck are different.","73","","instructions","2021-06-20 16:52:53.906","","","","","",""
"casino-keyboard-response","25","129027","0.0-16.0-0.3","582","true","img/card_backs/set1/purple.gif","img/card_backs/set1/red.gif","img/card_backs/set1/yellow.gif","img/card_backs/set1/green.gif","img/card_backs/set2/pink.gif","img/card_backs/set2/orange.gif","img/card_backs/set2/gray.gif","img/card_backs/set2/blue.gif","""event"",""trial"",""time""
""fullscreenenter"",""1"",""4149""
","
","
","""event"",""trial"",""time""
""fullscreenenter"",""1"",""4149""
","
","","8014.999999999985","Some colored decks are luckier than others. </br> If you choose the lucky decks, you will earn more tokens than if you choose the unlucky decks.","69","","instructions","2021-06-20 16:53:01.922","","","","","",""
"casino-keyboard-response","26","135883","0.0-16.0-0.4","582","true","img/card_backs/set1/purple.gif","img/card_backs/set1/red.gif","img/card_backs/set1/yellow.gif","img/card_backs/set1/green.gif","img/card_backs/set2/pink.gif","img/card_backs/set2/orange.gif","img/card_backs/set2/gray.gif","img/card_backs/set2/blue.gif","""event"",""trial"",""time""
""fullscreenenter"",""1"",""4149""
","
","
","""event"",""trial"",""time""
""fullscreenenter"",""1"",""4149""
","
","","6855","You should try to figure out which decks are lucky. </br> Then, try to choose the lucky decks so you can win the most tokens.","87","","instructions","2021-06-20 16:53:08.778","","","","","",""
"casino-keyboard-response","27","146835","0.0-16.0-0.5","582","true","img/card_backs/set1/purple.gif","img/card_backs/set1/red.gif","img/card_backs/set1/yellow.gif","img/card_backs/set1/green.gif","img/card_backs/set2/pink.gif","img/card_backs/set2/orange.gif","img/card_backs/set2/gray.gif","img/card_backs/set2/blue.gif","""event"",""trial"",""time""
""fullscreenenter"",""1"",""4149""
","
","
","""event"",""trial"",""time""
""fullscreenenter"",""1"",""4149""
","
","","10951","To make it trickier, the casino dealer will switch the locations of the decks on every turn. </br> The color of the deck determines how lucky it is. The location does not matter.","88","","instructions","2021-06-20 16:53:19.730","","","","","",""
"casino-keyboard-response","28","155755","0.0-16.0-0.6","582","true","img/card_backs/set1/purple.gif","img/card_backs/set1/red.gif","img/card_backs/set1/yellow.gif","img/card_backs/set1/green.gif","img/card_backs/set2/pink.gif","img/card_backs/set2/orange.gif","img/card_backs/set2/gray.gif","img/card_backs/set2/blue.gif","""event"",""trial"",""time""
""fullscreenenter"",""1"",""4149""
","
","
","""event"",""trial"",""time""
""fullscreenenter"",""1"",""4149""
","
","","8919.00000000003","The mix of cards in each colored deck will stay the same throughout the game. </br> That means that a deck that is lucky early on will stay lucky.","79","","instructions","2021-06-20 16:53:28.650","","","","","",""
"casino-keyboard-response","29","163739","0.0-16.0-0.7","582","true","img/card_backs/set1/purple.gif","img/card_backs/set1/red.gif","img/card_backs/set1/yellow.gif","img/card_backs/set1/green.gif","img/card_backs/set2/pink.gif","img/card_backs/set2/orange.gif","img/card_backs/set2/gray.gif","img/card_backs/set2/blue.gif","""event"",""trial"",""time""
""fullscreenenter"",""1"",""4149""
","
","
","""event"",""trial"",""time""
""fullscreenenter"",""1"",""4149""
","
","","7982","Remember though, all the decks have a <b> mix </b> of both <b> good </b> and <b> bad </b> cards so it may take a couple of turns to figure out if a deck is lucky.","69","","instructions","2021-06-20 16:53:36.634","","","","","",""
"casino-keyboard-response","30","171699","0.0-16.0-0.8","582","true","img/card_backs/set1/purple.gif","img/card_backs/set1/red.gif","img/card_backs/set1/yellow.gif","img/card_backs/set1/green.gif","img/card_backs/set2/pink.gif","img/card_backs/set2/orange.gif","img/card_backs/set2/gray.gif","img/card_backs/set2/blue.gif","""event"",""trial"",""time""
""fullscreenenter"",""1"",""4149""
","
","
","""event"",""trial"",""time""
""fullscreenenter"",""1"",""4149""
","
","","7959","At the end of the game, you will be paid bonus money based on how many tokens you win. </br> If you win more tokens, you will earn more money!","72","","instructions","2021-06-20 16:53:44.594","","","","","",""
"casino-keyboard-response","31","181627","0.0-16.0-0.9","582","true","img/card_backs/set1/purple.gif","img/card_backs/set1/red.gif","img/card_backs/set1/yellow.gif","img/card_backs/set1/green.gif","img/card_backs/set2/pink.gif","img/card_backs/set2/orange.gif","img/card_backs/set2/gray.gif","img/card_backs/set2/blue.gif","""event"",""trial"",""time""
""fullscreenenter"",""1"",""4149""
","
","
","""event"",""trial"",""time""
""fullscreenenter"",""1"",""4149""
","
","","9927","You will never <b> lose </b> money. </br> If you end up with fewer than 0 tokens, you will earn $0 of bonus money, but you will still be paid for playing the game.","83","","instructions","2021-06-20 16:53:54.522","","","","","",""
"casino-keyboard-response","32","185692","0.0-16.0-0.10","582","true","img/card_backs/set1/purple.gif","img/card_backs/set1/red.gif","img/card_backs/set1/yellow.gif","img/card_backs/set1/green.gif","img/card_backs/set2/pink.gif","img/card_backs/set2/orange.gif","img/card_backs/set2/gray.gif","img/card_backs/set2/blue.gif","""event"",""trial"",""time""
""fullscreenenter"",""1"",""4149""
","
","
","""event"",""trial"",""time""
""fullscreenenter"",""1"",""4149""
","
","","4064","You will have 10 seconds to make each choice.","82","","instructions","2021-06-20 16:53:58.587","","","","","",""
"casino-keyboard-response","33","193603","0.0-16.0-0.11","582","true","img/card_backs/set1/purple.gif","img/card_backs/set1/red.gif","img/card_backs/set1/yellow.gif","img/card_backs/set1/green.gif","img/card_backs/set2/pink.gif","img/card_backs/set2/orange.gif","img/card_backs/set2/gray.gif","img/card_backs/set2/blue.gif","""event"",""trial"",""time""
""fullscreenenter"",""1"",""4149""
","
","
","""event"",""trial"",""time""
""fullscreenenter"",""1"",""4149""
","
","","7909","Before you play the game for real, you will play with practice decks. </br> The tokens you earn during practice won't count toward your total.","86","","instructions","2021-06-20 16:54:06.498","","","","","",""
"casino-keyboard-response","34","204995","0.0-16.0-0.12","582","true","img/card_backs/set1/purple.gif","img/card_backs/set1/red.gif","img/card_backs/set1/yellow.gif","img/card_backs/set1/green.gif","img/card_backs/set2/pink.gif","img/card_backs/set2/orange.gif","img/card_backs/set2/gray.gif","img/card_backs/set2/blue.gif","""event"",""trial"",""time""
""fullscreenenter"",""1"",""4149""
","
","
","""event"",""trial"",""time""
""fullscreenenter"",""1"",""4149""
","
","","11391","Ready? Remember, use the '2', '4', '6', and '8' keys to select the decks. </br> Put your fingers on those keys now and then press '2' to begin.","50","","instructions","2021-06-20 16:54:17.891","","","","","",""
"casino-fixation","35","205498","0.0-17.0-0.0","582","true","img/card_backs/set1/purple.gif","img/card_backs/set1/red.gif","img/card_backs/set1/yellow.gif","img/card_backs/set1/green.gif","img/card_backs/set2/pink.gif","img/card_backs/set2/orange.gif","img/card_backs/set2/gray.gif","img/card_backs/set2/blue.gif","""event"",""trial"",""time""
""fullscreenenter"",""1"",""4149""
","
","
","""event"",""trial"",""time""
""fullscreenenter"",""1"",""4149""
","
","","null","","null","","fixation","2021-06-20 16:54:18.393","","","","","",""
"card-selection-trial","36","208515","0.0-17.0-1.0","582","true","img/card_backs/set1/purple.gif","img/card_backs/set1/red.gif","img/card_backs/set1/yellow.gif","img/card_backs/set1/green.gif","img/card_backs/set2/pink.gif","img/card_backs/set2/orange.gif","img/card_backs/set2/gray.gif","img/card_backs/set2/blue.gif","""event"",""trial"",""time""
""fullscreenenter"",""1"",""4149""
","
","
","""event"",""trial"",""time""
""fullscreenenter"",""1"",""4149""
","
","","1009.9999999999709","","","","practice","2021-06-20 16:54:21.411","img/practice_cards/backs/dark_blue.gif","0","-200","0","",""
"casino-fixation","37","209017","0.0-17.0-0.1","582","true","img/card_backs/set1/purple.gif","img/card_backs/set1/red.gif","img/card_backs/set1/yellow.gif","img/card_backs/set1/green.gif","img/card_backs/set2/pink.gif","img/card_backs/set2/orange.gif","img/card_backs/set2/gray.gif","img/card_backs/set2/blue.gif","""event"",""trial"",""time""
""fullscreenenter"",""1"",""4149""
","
","
","""event"",""trial"",""time""
""fullscreenenter"",""1"",""4149""
","
","","null","","null","","fixation","2021-06-20 16:54:21.912","","","","","",""
"card-selection-trial","38","212916","0.0-17.0-1.1","582","true","img/card_backs/set1/purple.gif","img/card_backs/set1/red.gif","img/card_backs/set1/yellow.gif","img/card_backs/set1/green.gif","img/card_backs/set2/pink.gif","img/card_backs/set2/orange.gif","img/card_backs/set2/gray.gif","img/card_backs/set2/blue.gif","""event"",""trial"",""time""
""fullscreenenter"",""1"",""4149""
","
","
","""event"",""trial"",""time""
""fullscreenenter"",""1"",""4149""
","
","","1893","","","","practice","2021-06-20 16:54:25.811","img/practice_cards/backs/dark_green.gif","3","200","0","",""
"casino-fixation","39","213418","0.0-17.0-0.2","582","true","img/card_backs/set1/purple.gif","img/card_backs/set1/red.gif","img/card_backs/set1/yellow.gif","img/card_backs/set1/green.gif","img/card_backs/set2/pink.gif","img/card_backs/set2/orange.gif","img/card_backs/set2/gray.gif","img/card_backs/set2/blue.gif","""event"",""trial"",""time""
""fullscreenenter"",""1"",""4149""
","
","
","""event"",""trial"",""time""
""fullscreenenter"",""1"",""4149""
","
","","null","","null","","fixation","2021-06-20 16:54:26.313","","","","","",""
"card-selection-trial","40","216492","0.0-17.0-1.2","582","true","img/card_backs/set1/purple.gif","img/card_backs/set1/red.gif","img/card_backs/set1/yellow.gif","img/card_backs/set1/green.gif","img/card_backs/set2/pink.gif","img/card_backs/set2/orange.gif","img/card_backs/set2/gray.gif","img/card_backs/set2/blue.gif","""event"",""trial"",""time""
""fullscreenenter"",""1"",""4149""
","
","
","""event"",""trial"",""time""
""fullscreenenter"",""1"",""4149""
","
","","1068.999999999971","","","","practice","2021-06-20 16:54:29.387","img/practice_cards/backs/dark_green.gif","0","200","0","",""
"casino-fixation","41","216993","0.0-17.0-0.3","582","true","img/card_backs/set1/purple.gif","img/card_backs/set1/red.gif","img/card_backs/set1/yellow.gif","img/card_backs/set1/green.gif","img/card_backs/set2/pink.gif","img/card_backs/set2/orange.gif","img/card_backs/set2/gray.gif","img/card_backs/set2/blue.gif","""event"",""trial"",""time""
""fullscreenenter"",""1"",""4149""
","
","
","""event"",""trial"",""time""
""fullscreenenter"",""1"",""4149""
","
","","null","","null","","fixation","2021-06-20 16:54:29.888","","","","","",""
"card-selection-trial","42","220388","0.0-17.0-1.3","582","true","img/card_backs/set1/purple.gif","img/card_backs/set1/red.gif","img/card_backs/set1/yellow.gif","img/card_backs/set1/green.gif","img/card_backs/set2/pink.gif","img/card_backs/set2/orange.gif","img/card_backs/set2/gray.gif","img/card_backs/set2/blue.gif","""event"",""trial"",""time""
""fullscreenenter"",""1"",""4149""
","
","
","""event"",""trial"",""time""
""fullscreenenter"",""1"",""4149""
","
","","1389","","","","practice","2021-06-20 16:54:33.283","img/practice_cards/backs/dark_green.gif","3","-200","0","",""
"casino-fixation","43","220890","0.0-17.0-0.4","582","true","img/card_backs/set1/purple.gif","img/card_backs/set1/red.gif","img/card_backs/set1/yellow.gif","img/card_backs/set1/green.gif","img/card_backs/set2/pink.gif","img/card_backs/set2/orange.gif","img/card_backs/set2/gray.gif","img/card_backs/set2/blue.gif","""event"",""trial"",""time""
""fullscreenenter"",""1"",""4149""
","
","
","""event"",""trial"",""time""
""fullscreenenter"",""1"",""4149""
","
","","null","","null","","fixation","2021-06-20 16:54:33.785","","","","","",""
"card-selection-trial","44","224140","0.0-17.0-1.4","582","true","img/card_backs/set1/purple.gif","img/card_backs/set1/red.gif","img/card_backs/set1/yellow.gif","img/card_backs/set1/green.gif","img/card_backs/set2/pink.gif","img/card_backs/set2/orange.gif","img/card_backs/set2/gray.gif","img/card_backs/set2/blue.gif","""event"",""trial"",""time""
""fullscreenenter"",""1"",""4149""
","
","
","""event"",""trial"",""time""
""fullscreenenter"",""1"",""4149""
","
","","1244","","","","practice","2021-06-20 16:54:37.035","img/practice_cards/backs/dark_green.gif","1","200","0","",""
"casino-fixation","45","224641","0.0-17.0-0.5","582","true","img/card_backs/set1/purple.gif","img/card_backs/set1/red.gif","img/card_backs/set1/yellow.gif","img/card_backs/set1/green.gif","img/card_backs/set2/pink.gif","img/card_backs/set2/orange.gif","img/card_backs/set2/gray.gif","img/card_backs/set2/blue.gif","""event"",""trial"",""time""
""fullscreenenter"",""1"",""4149""
","
","
","""event"",""trial"",""time""
""fullscreenenter"",""1"",""4149""
","
","","null","","null","","fixation","2021-06-20 16:54:37.537","","","","","",""
"card-selection-trial","46","228388","0.0-17.0-1.5","582","true","img/card_backs/set1/purple.gif","img/card_backs/set1/red.gif","img/card_backs/set1/yellow.gif","img/card_backs/set1/green.gif","img/card_backs/set2/pink.gif","img/card_backs/set2/orange.gif","img/card_backs/set2/gray.gif","img/card_backs/set2/blue.gif","""event"",""trial"",""time""
""fullscreenenter"",""1"",""4149""
","
","
","""event"",""trial"",""time""
""fullscreenenter"",""1"",""4149""
","
","","1741","","","","practice","2021-06-20 16:54:41.283","img/practice_cards/backs/dark_green.gif","0","-200","0","",""
"casino-fixation","47","228890","0.0-17.0-0.6","582","true","img/card_backs/set1/purple.gif","img/card_backs/set1/red.gif","img/card_backs/set1/yellow.gif","img/card_backs/set1/green.gif","img/card_backs/set2/pink.gif","img/card_backs/set2/orange.gif","img/card_backs/set2/gray.gif","img/card_backs/set2/blue.gif","""event"",""trial"",""time""
""fullscreenenter"",""1"",""4149""
","
","
","""event"",""trial"",""time""
""fullscreenenter"",""1"",""4149""
","
","","null","","null","","fixation","2021-06-20 16:54:41.785","","","","","",""
"card-selection-trial","48","232700","0.0-17.0-1.6","582","true","img/card_backs/set1/purple.gif","img/card_backs/set1/red.gif","img/card_backs/set1/yellow.gif","img/card_backs/set1/green.gif","img/card_backs/set2/pink.gif","img/card_backs/set2/orange.gif","img/card_backs/set2/gray.gif","img/card_backs/set2/blue.gif","""event"",""trial"",""time""
""fullscreenenter"",""1"",""4149""
","
","
","""event"",""trial"",""time""
""fullscreenenter"",""1"",""4149""
","
","","1804","","","","practice","2021-06-20 16:54:45.595","img/practice_cards/backs/dark_green.gif","0","-200","0","",""
"casino-fixation","49","233203","0.0-17.0-0.7","582","true","img/card_backs/set1/purple.gif","img/card_backs/set1/red.gif","img/card_backs/set1/yellow.gif","img/card_backs/set1/green.gif","img/card_backs/set2/pink.gif","img/card_backs/set2/orange.gif","img/card_backs/set2/gray.gif","img/card_backs/set2/blue.gif","""event"",""trial"",""time""
""fullscreenenter"",""1"",""4149""
","
","
","""event"",""trial"",""time""
""fullscreenenter"",""1"",""4149""
","
","","null","","null","","fixation","2021-06-20 16:54:46.098","","","","","",""
"card-selection-trial","50","235868","0.0-17.0-1.7","582","true","img/card_backs/set1/purple.gif","img/card_backs/set1/red.gif","img/card_backs/set1/yellow.gif","img/card_backs/set1/green.gif","img/card_backs/set2/pink.gif","img/card_backs/set2/orange.gif","img/card_backs/set2/gray.gif","img/card_backs/set2/blue.gif","""event"",""trial"",""time""
""fullscreenenter"",""1"",""4149""
","
","
","""event"",""trial"",""time""
""fullscreenenter"",""1"",""4149""
","
","","659.9999999999709","","","","practice","2021-06-20 16:54:48.763","img/practice_cards/backs/dark_blue.gif","0","200","0","",""
"casino-fixation","51","236370","0.0-17.0-0.8","582","true","img/card_backs/set1/purple.gif","img/card_backs/set1/red.gif","img/card_backs/set1/yellow.gif","img/card_backs/set1/green.gif","img/card_backs/set2/pink.gif","img/card_backs/set2/orange.gif","img/card_backs/set2/gray.gif","img/card_backs/set2/blue.gif","""event"",""trial"",""time""
""fullscreenenter"",""1"",""4149""
","
","
","""event"",""trial"",""time""
""fullscreenenter"",""1"",""4149""
","
","","null","","null","","fixation","2021-06-20 16:54:49.265","","","","","",""
"card-selection-trial","52","240204","0.0-17.0-1.8","582","true","img/card_backs/set1/purple.gif","img/card_backs/set1/red.gif","img/card_backs/set1/yellow.gif","img/card_backs/set1/green.gif","img/card_backs/set2/pink.gif","img/card_backs/set2/orange.gif","img/card_backs/set2/gray.gif","img/card_backs/set2/blue.gif","""event"",""trial"",""time""
""fullscreenenter"",""1"",""4149""
","
","
","""event"",""trial"",""time""
""fullscreenenter"",""1"",""4149""
","
","","1828","","","","practice","2021-06-20 16:54:53.099","img/practice_cards/backs/dark_green.gif","1","-200","0","",""
"casino-fixation","53","240706","0.0-17.0-0.9","582","true","img/card_backs/set1/purple.gif","img/card_backs/set1/red.gif","img/card_backs/set1/yellow.gif","img/card_backs/set1/green.gif","img/card_backs/set2/pink.gif","img/card_backs/set2/orange.gif","img/card_backs/set2/gray.gif","img/card_backs/set2/blue.gif","""event"",""trial"",""time""
""fullscreenenter"",""1"",""4149""
","
","
","""event"",""trial"",""time""
""fullscreenenter"",""1"",""4149""
","
","","null","","null","","fixation","2021-06-20 16:54:53.601","","","","","",""
"card-selection-trial","54","244276","0.0-17.0-1.9","582","true","img/card_backs/set1/purple.gif","img/card_backs/set1/red.gif","img/card_backs/set1/yellow.gif","img/card_backs/set1/green.gif","img/card_backs/set2/pink.gif","img/card_backs/set2/orange.gif","img/card_backs/set2/gray.gif","img/card_backs/set2/blue.gif","""event"",""trial"",""time""
""fullscreenenter"",""1"",""4149""
","
","
","""event"",""trial"",""time""
""fullscreenenter"",""1"",""4149""
","
","","1564","","","","practice","2021-06-20 16:54:57.171","img/practice_cards/backs/dark_blue.gif","2","-200","0","",""
"casino-keyboard-response","55","247299","0.0-18.0","582","true","img/card_backs/set1/purple.gif","img/card_backs/set1/red.gif","img/card_backs/set1/yellow.gif","img/card_backs/set1/green.gif","img/card_backs/set2/pink.gif","img/card_backs/set2/orange.gif","img/card_backs/set2/gray.gif","img/card_backs/set2/blue.gif","""event"",""trial"",""time""
""fullscreenenter"",""1"",""4149""
","
","
","""event"",""trial"",""time""
""fullscreenenter"",""1"",""4149""
","
","","3022","You earned -400 tokens during the practice round!","82","","","2021-06-20 16:55:00.194","","","","","",""
"casino-keyboard-response","56","255603","0.0-19.0-0.0","582","true","img/card_backs/set1/purple.gif","img/card_backs/set1/red.gif","img/card_backs/set1/yellow.gif","img/card_backs/set1/green.gif","img/card_backs/set2/pink.gif","img/card_backs/set2/orange.gif","img/card_backs/set2/gray.gif","img/card_backs/set2/blue.gif","""event"",""trial"",""time""
""fullscreenenter"",""1"",""4149""
","
","
","""event"",""trial"",""time""
""fullscreenenter"",""1"",""4149""
","
","","8303.00000000003","Nice job! You are almost ready to play the real game.","86","","instructions","2021-06-20 16:55:08.498","","","","","",""
"casino-keyboard-response","57","262131","0.0-19.0-0.1","582","true","img/card_backs/set1/purple.gif","img/card_backs/set1/red.gif","img/card_backs/set1/yellow.gif","img/card_backs/set1/green.gif","img/card_backs/set2/pink.gif","img/card_backs/set2/orange.gif","img/card_backs/set2/gray.gif","img/card_backs/set2/blue.gif","""event"",""trial"",""time""
""fullscreenenter"",""1"",""4149""
","
","
","""event"",""trial"",""time""
""fullscreenenter"",""1"",""4149""
","
","","6527","You will play two rounds of the real game. In each round, you will pick 100 cards in total.","73","","instructions","2021-06-20 16:55:15.026","","","","","",""
"casino-keyboard-response","58","266131","0.0-19.0-0.2","582","true","img/card_backs/set1/purple.gif","img/card_backs/set1/red.gif","img/card_backs/set1/yellow.gif","img/card_backs/set1/green.gif","img/card_backs/set2/pink.gif","img/card_backs/set2/orange.gif","img/card_backs/set2/gray.gif","img/card_backs/set2/blue.gif","""event"",""trial"",""time""
""fullscreenenter"",""1"",""4149""
","
","
","""event"",""trial"",""time""
""fullscreenenter"",""1"",""4149""
","
","","3999","We are now going to ask you some questions about how the game works.","66","","instructions","2021-06-20 16:55:19.026","","","","","",""
"casino-keyboard-response","59","272315","0.0-19.0-0.3","582","true","img/card_backs/set1/purple.gif","img/card_backs/set1/red.gif","img/card_backs/set1/yellow.gif","img/card_backs/set1/green.gif","img/card_backs/set2/pink.gif","img/card_backs/set2/orange.gif","img/card_backs/set2/gray.gif","img/card_backs/set2/blue.gif","""event"",""trial"",""time""
""fullscreenenter"",""1"",""4149""
","
","
","""event"",""trial"",""time""
""fullscreenenter"",""1"",""4149""
","
","","6183","Answer carefully. You will not be able to begin the game until you answer them correctly.","67","","instructions","2021-06-20 16:55:25.210","","","","","",""
"casino-comp_q","60","277955","0.0-20.0-0.0","582","true","img/card_backs/set1/purple.gif","img/card_backs/set1/red.gif","img/card_backs/set1/yellow.gif","img/card_backs/set1/green.gif","img/card_backs/set2/pink.gif","img/card_backs/set2/orange.gif","img/card_backs/set2/gray.gif","img/card_backs/set2/blue.gif","""event"",""trial"",""time""
""fullscreenenter"",""1"",""4149""
","
","
","""event"",""trial"",""time""
""fullscreenenter"",""1"",""4149""
","
","","5639","True or False: All the decks have some cards that cause you to win tokens and some cards that cause you to lose tokens.","84","","","2021-06-20 16:55:30.850","","","","","",""
"casino-keyboard-response","61","281507","0.0-20.0-1.0","582","true","img/card_backs/set1/purple.gif","img/card_backs/set1/red.gif","img/card_backs/set1/yellow.gif","img/card_backs/set1/green.gif","img/card_backs/set2/pink.gif","img/card_backs/set2/orange.gif","img/card_backs/set2/gray.gif","img/card_backs/set2/blue.gif","""event"",""trial"",""time""
""fullscreenenter"",""1"",""4149""
","
","
","""event"",""trial"",""time""
""fullscreenenter"",""1"",""4149""
","
","","3550","True is correct! All the decks have a mix of winning and losing cards.","77","","","2021-06-20 16:55:34.402","","","","","true",""
"casino-comp_q","62","284884","0.0-21.0-0.0","582","true","img/card_backs/set1/purple.gif","img/card_backs/set1/red.gif","img/card_backs/set1/yellow.gif","img/card_backs/set1/green.gif","img/card_backs/set2/pink.gif","img/card_backs/set2/orange.gif","img/card_backs/set2/gray.gif","img/card_backs/set2/blue.gif","""event"",""trial"",""time""
""fullscreenenter"",""1"",""4149""
","
","
","""event"",""trial"",""time""
""fullscreenenter"",""1"",""4149""
","
","","3375","True or False: You will have as much time as you want to make your response.","70","","","2021-06-20 16:55:37.779","","","","","",""
"casino-keyboard-response","63","288075","0.0-21.0-1.0","582","true","img/card_backs/set1/purple.gif","img/card_backs/set1/red.gif","img/card_backs/set1/yellow.gif","img/card_backs/set1/green.gif","img/card_backs/set2/pink.gif","img/card_backs/set2/orange.gif","img/card_backs/set2/gray.gif","img/card_backs/set2/blue.gif","""event"",""trial"",""time""
""fullscreenenter"",""1"",""4149""
","
","
","""event"",""trial"",""time""
""fullscreenenter"",""1"",""4149""
","
","","3190","False is correct! You will only have 10 seconds to make each choice.","75","","","2021-06-20 16:55:40.970","","","","","true",""
"casino-comp_q","64","291683","0.0-22.0-0.0","582","true","img/card_backs/set1/purple.gif","img/card_backs/set1/red.gif","img/card_backs/set1/yellow.gif","img/card_backs/set1/green.gif","img/card_backs/set2/pink.gif","img/card_backs/set2/orange.gif","img/card_backs/set2/gray.gif","img/card_backs/set2/blue.gif","""event"",""trial"",""time""
""fullscreenenter"",""1"",""4149""
","
","
","""event"",""trial"",""time""
""fullscreenenter"",""1"",""4149""
","
","","3607","True or False: The location of the deck determines how lucky it is.","70","","","2021-06-20 16:55:44.578","","","","","",""
"casino-keyboard-response","65","294835","0.0-22.0-1.0","582","true","img/card_backs/set1/purple.gif","img/card_backs/set1/red.gif","img/card_backs/set1/yellow.gif","img/card_backs/set1/green.gif","img/card_backs/set2/pink.gif","img/card_backs/set2/orange.gif","img/card_backs/set2/gray.gif","img/card_backs/set2/blue.gif","""event"",""trial"",""time""
""fullscreenenter"",""1"",""4149""
","
","
","""event"",""trial"",""time""
""fullscreenenter"",""1"",""4149""
","
","","3151","False is correct! The <i>color</i>  of the deck determines how lucky or unlucky it is.","68","","","2021-06-20 16:55:47.730","","","","","true",""
"casino-keyboard-response","66","298819","0.0-23.0-0.0","582","true","img/card_backs/set1/purple.gif","img/card_backs/set1/red.gif","img/card_backs/set1/yellow.gif","img/card_backs/set1/green.gif","img/card_backs/set2/pink.gif","img/card_backs/set2/orange.gif","img/card_backs/set2/gray.gif","img/card_backs/set2/blue.gif","""event"",""trial"",""time""
""fullscreenenter"",""1"",""4149""
","
","
","""event"",""trial"",""time""
""fullscreenenter"",""1"",""4149""
","
","","3982.999999999942","Great job! Now it's time to start the real game.","82","","instructions","2021-06-20 16:55:51.714","","","","","",""
"casino-keyboard-response","67","303691","0.0-23.0-0.1","582","true","img/card_backs/set1/purple.gif","img/card_backs/set1/red.gif","img/card_backs/set1/yellow.gif","img/card_backs/set1/green.gif","img/card_backs/set2/pink.gif","img/card_backs/set2/orange.gif","img/card_backs/set2/gray.gif","img/card_backs/set2/blue.gif","""event"",""trial"",""time""
""fullscreenenter"",""1"",""4149""
","
","
","""event"",""trial"",""time""
""fullscreenenter"",""1"",""4149""
","
","","4871","Before we start, we're going to head into a new room of the casino.","86","","instructions","2021-06-20 16:55:56.586","","","","","",""
"casino-keyboard-response","68","310131","0.0-24.0-0.0","582","true","img/card_backs/set1/purple.gif","img/card_backs/set1/red.gif","img/card_backs/set1/yellow.gif","img/card_backs/set1/green.gif","img/card_backs/set2/pink.gif","img/card_backs/set2/orange.gif","img/card_backs/set2/gray.gif","img/card_backs/set2/blue.gif","""event"",""trial"",""time""
""fullscreenenter"",""1"",""4149""
","
","
","""event"",""trial"",""time""
""fullscreenenter"",""1"",""4149""
","
","","6439","Here we are! The real game will use different cards, but the rules will be the same.","71","","instructions","2021-06-20 16:56:03.026","","","","","",""
"casino-keyboard-response","69","313899","0.0-24.0-0.1","582","true","img/card_backs/set1/purple.gif","img/card_backs/set1/red.gif","img/card_backs/set1/yellow.gif","img/card_backs/set1/green.gif","img/card_backs/set2/pink.gif","img/card_backs/set2/orange.gif","img/card_backs/set2/gray.gif","img/card_backs/set2/blue.gif","""event"",""trial"",""time""
""fullscreenenter"",""1"",""4149""
","
","
","""event"",""trial"",""time""
""fullscreenenter"",""1"",""4149""
","
","","3767","Ready? Put your fingers over the '2', '4', 6', and '8' keys so you are ready to play the game. </br> Then press 2 to start.","50","","instructions","2021-06-20 16:56:06.794","","","","","",""
"casino-fixation","70","314401","0.0-25.0-0.0","582","true","img/card_backs/set1/purple.gif","img/card_backs/set1/red.gif","img/card_backs/set1/yellow.gif","img/card_backs/set1/green.gif","img/card_backs/set2/pink.gif","img/card_backs/set2/orange.gif","img/card_backs/set2/gray.gif","img/card_backs/set2/blue.gif","""event"",""trial"",""time""
""fullscreenenter"",""1"",""4149""
","
","
","""event"",""trial"",""time""
""fullscreenenter"",""1"",""4149""
","
","","null","","null","","fixation","2021-06-20 16:56:07.296","","","","","",""
"card-selection-trial","71","318052","0.0-25.0-1.0","582","true","img/card_backs/set1/purple.gif","img/card_backs/set1/red.gif","img/card_backs/set1/yellow.gif","img/card_backs/set1/green.gif","img/card_backs/set2/pink.gif","img/card_backs/set2/orange.gif","img/card_backs/set2/gray.gif","img/card_backs/set2/blue.gif","""event"",""trial"",""time""
""fullscreenenter"",""1"",""4149""
","
","
","""event"",""trial"",""time""
""fullscreenenter"",""1"",""4149""
","
","","1543","","","","real_trial","2021-06-20 16:56:10.947","img/card_backs/set1/green.gif","1","50","1","",""
"casino-fixation","72","318555","0.0-25.0-0.1","582","true","img/card_backs/set1/purple.gif","img/card_backs/set1/red.gif","img/card_backs/set1/yellow.gif","img/card_backs/set1/green.gif","img/card_backs/set2/pink.gif","img/card_backs/set2/orange.gif","img/card_backs/set2/gray.gif","img/card_backs/set2/blue.gif","""event"",""trial"",""time""
""fullscreenenter"",""1"",""4149""
","
","
","""event"",""trial"",""time""
""fullscreenenter"",""1"",""4149""
","
","","null","","null","","fixation","2021-06-20 16:56:11.450","","","","","",""
"card-selection-trial","73","321452","0.0-25.0-1.1","582","true","img/card_backs/set1/purple.gif","img/card_backs/set1/red.gif","img/card_backs/set1/yellow.gif","img/card_backs/set1/green.gif","img/card_backs/set2/pink.gif","img/card_backs/set2/orange.gif","img/card_backs/set2/gray.gif","img/card_backs/set2/blue.gif","""event"",""trial"",""time""
""fullscreenenter"",""1"",""4149""
","
","
","""event"",""trial"",""time""
""fullscreenenter"",""1"",""4149""
","
","","869","","","","real_trial","2021-06-20 16:56:14.347","img/card_backs/set1/purple.gif","0","-200","1","",""
"casino-fixation","74","321953","0.0-25.0-0.2","582","true","img/card_backs/set1/purple.gif","img/card_backs/set1/red.gif","img/card_backs/set1/yellow.gif","img/card_backs/set1/green.gif","img/card_backs/set2/pink.gif","img/card_backs/set2/orange.gif","img/card_backs/set2/gray.gif","img/card_backs/set2/blue.gif","""event"",""trial"",""time""
""fullscreenenter"",""1"",""4149""
","
","
","""event"",""trial"",""time""
""fullscreenenter"",""1"",""4149""
","
","","null","","null","","fixation","2021-06-20 16:56:14.848","","","","","",""
"card-selection-trial","75","326428","0.0-25.0-1.2","582","true","img/card_backs/set1/purple.gif","img/card_backs/set1/red.gif","img/card_backs/set1/yellow.gif","img/card_backs/set1/green.gif","img/card_backs/set2/pink.gif","img/card_backs/set2/orange.gif","img/card_backs/set2/gray.gif","img/card_backs/set2/blue.gif","""event"",""trial"",""time""
""fullscreenenter"",""1"",""4149""
","
","
","""event"",""trial"",""time""
""fullscreenenter"",""1"",""4149""
","
","","2460","","","","real_trial","2021-06-20 16:56:19.323","img/card_backs/set1/red.gif","2","260","1","",""
"casino-fixation","76","326931","0.0-25.0-0.3","582","true","img/card_backs/set1/purple.gif","img/card_backs/set1/red.gif","img/card_backs/set1/yellow.gif","img/card_backs/set1/green.gif","img/card_backs/set2/pink.gif","img/card_backs/set2/orange.gif","img/card_backs/set2/gray.gif","img/card_backs/set2/blue.gif","""event"",""trial"",""time""
""fullscreenenter"",""1"",""4149""
","
","
","""event"",""trial"",""time""
""fullscreenenter"",""1"",""4149""
","
","","null","","null","","fixation","2021-06-20 16:56:19.826","","","","","",""
"card-selection-trial","77","330716","0.0-25.0-1.3","582","true","img/card_backs/set1/purple.gif","img/card_backs/set1/red.gif","img/card_backs/set1/yellow.gif","img/card_backs/set1/green.gif","img/card_backs/set2/pink.gif","img/card_backs/set2/orange.gif","img/card_backs/set2/gray.gif","img/card_backs/set2/blue.gif","""event"",""trial"",""time""
""fullscreenenter"",""1"",""4149""
","
","
","""event"",""trial"",""time""
""fullscreenenter"",""1"",""4149""
","
","","1779","","","","real_trial","2021-06-20 16:56:23.611","img/card_backs/set1/green.gif","1","60","1","",""
"casino-fixation","78","331218","0.0-25.0-0.4","582","true","img/card_backs/set1/purple.gif","img/card_backs/set1/red.gif","img/card_backs/set1/yellow.gif","img/card_backs/set1/green.gif","img/card_backs/set2/pink.gif","img/card_backs/set2/orange.gif","img/card_backs/set2/gray.gif","img/card_backs/set2/blue.gif","""event"",""trial"",""time""
""fullscreenenter"",""1"",""4149""
","
","
","""event"",""trial"",""time""
""fullscreenenter"",""1"",""4149""
","
","","null","","null","","fixation","2021-06-20 16:56:24.113","","","","","",""
"card-selection-trial","79","334292","0.0-25.0-1.4","582","true","img/card_backs/set1/purple.gif","img/card_backs/set1/red.gif","img/card_backs/set1/yellow.gif","img/card_backs/set1/green.gif","img/card_backs/set2/pink.gif","img/card_backs/set2/orange.gif","img/card_backs/set2/gray.gif","img/card_backs/set2/blue.gif","""event"",""trial"",""time""
""fullscreenenter"",""1"",""4149""
","
","
","""event"",""trial"",""time""
""fullscreenenter"",""1"",""4149""
","
","","1067","","","","real_trial","2021-06-20 16:56:27.187","img/card_backs/set1/yellow.gif","3","-100","1","",""
"casino-fixation","80","334794","0.0-25.0-0.5","582","true","img/card_backs/set1/purple.gif","img/card_backs/set1/red.gif","img/card_backs/set1/yellow.gif","img/card_backs/set1/green.gif","img/card_backs/set2/pink.gif","img/card_backs/set2/orange.gif","img/card_backs/set2/gray.gif","img/card_backs/set2/blue.gif","""event"",""trial"",""time""
""fullscreenenter"",""1"",""4149""
","
","
","""event"",""trial"",""time""
""fullscreenenter"",""1"",""4149""
","
","","null","","null","","fixation","2021-06-20 16:56:27.689","","","","","",""
"card-selection-trial","81","338284","0.0-25.0-1.5","582","true","img/card_backs/set1/purple.gif","img/card_backs/set1/red.gif","img/card_backs/set1/yellow.gif","img/card_backs/set1/green.gif","img/card_backs/set2/pink.gif","img/card_backs/set2/orange.gif","img/card_backs/set2/gray.gif","img/card_backs/set2/blue.gif","""event"",""trial"",""time""
""fullscreenenter"",""1"",""4149""
","
","
","""event"",""trial"",""time""
""fullscreenenter"",""1"",""4149""
","
","","1484","","","","real_trial","2021-06-20 16:56:31.179","img/card_backs/set1/purple.gif","2","-210","1","",""
"casino-fixation","82","338786","0.0-25.0-0.6","582","true","img/card_backs/set1/purple.gif","img/card_backs/set1/red.gif","img/card_backs/set1/yellow.gif","img/card_backs/set1/green.gif","img/card_backs/set2/pink.gif","img/card_backs/set2/orange.gif","img/card_backs/set2/gray.gif","img/card_backs/set2/blue.gif","""event"",""trial"",""time""
""fullscreenenter"",""1"",""4149""
","
","
","""event"",""trial"",""time""
""fullscreenenter"",""1"",""4149""
","
","","null","","null","","fixation","2021-06-20 16:56:31.681","","","","","",""
"card-selection-trial","83","341739","0.0-25.0-1.6","582","true","img/card_backs/set1/purple.gif","img/card_backs/set1/red.gif","img/card_backs/set1/yellow.gif","img/card_backs/set1/green.gif","img/card_backs/set2/pink.gif","img/card_backs/set2/orange.gif","img/card_backs/set2/gray.gif","img/card_backs/set2/blue.gif","""event"",""trial"",""time""
""fullscreenenter"",""1"",""4149""
","
","
","""event"",""trial"",""time""
""fullscreenenter"",""1"",""4149""
","
","","948","","","","real_trial","2021-06-20 16:56:34.635","img/card_backs/set1/green.gif","1","-90","1","",""
"casino-fixation","84","342242","0.0-25.0-0.7","582","true","img/card_backs/set1/purple.gif","img/card_backs/set1/red.gif","img/card_backs/set1/yellow.gif","img/card_backs/set1/green.gif","img/card_backs/set2/pink.gif","img/card_backs/set2/orange.gif","img/card_backs/set2/gray.gif","img/card_backs/set2/blue.gif","""event"",""trial"",""time""
""fullscreenenter"",""1"",""4149""
","
","
","""event"",""trial"",""time""
""fullscreenenter"",""1"",""4149""
","
","","null","","null","","fixation","2021-06-20 16:56:35.137","","","","","",""
"card-selection-trial","85","344587","0.0-25.0-1.7","582","true","img/card_backs/set1/purple.gif","img/card_backs/set1/red.gif","img/card_backs/set1/yellow.gif","img/card_backs/set1/green.gif","img/card_backs/set2/pink.gif","img/card_backs/set2/orange.gif","img/card_backs/set2/gray.gif","img/card_backs/set2/blue.gif","""event"",""trial"",""time""
""fullscreenenter"",""1"",""4149""
","
","
","""event"",""trial"",""time""
""fullscreenenter"",""1"",""4149""
","
","","339.9999999999418","","","","real_trial","2021-06-20 16:56:37.482","img/card_backs/set1/yellow.gif","0","60","1","",""
"casino-fixation","86","345089","0.0-25.0-0.8","582","true","img/card_backs/set1/purple.gif","img/card_backs/set1/red.gif","img/card_backs/set1/yellow.gif","img/card_backs/set1/green.gif","img/card_backs/set2/pink.gif","img/card_backs/set2/orange.gif","img/card_backs/set2/gray.gif","img/card_backs/set2/blue.gif","""event"",""trial"",""time""
""fullscreenenter"",""1"",""4149""
","
","
","""event"",""trial"",""time""
""fullscreenenter"",""1"",""4149""
","
","","null","","null","","fixation","2021-06-20 16:56:37.984","","","","","",""
"card-selection-trial","87","347557","0.0-25.0-1.8","582","true","img/card_backs/set1/purple.gif","img/card_backs/set1/red.gif","img/card_backs/set1/yellow.gif","img/card_backs/set1/green.gif","img/card_backs/set2/pink.gif","img/card_backs/set2/orange.gif","img/card_backs/set2/gray.gif","img/card_backs/set2/blue.gif","""event"",""trial"",""time""
""fullscreenenter"",""1"",""4149""
","
","
","""event"",""trial"",""time""
""fullscreenenter"",""1"",""4149""
","
","","456","","","","real_trial","2021-06-20 16:56:40.452","img/card_backs/set1/green.gif","0","50","1","",""
"casino-fixation","88","348059","0.0-25.0-0.9","582","true","img/card_backs/set1/purple.gif","img/card_backs/set1/red.gif","img/card_backs/set1/yellow.gif","img/card_backs/set1/green.gif","img/card_backs/set2/pink.gif","img/card_backs/set2/orange.gif","img/card_backs/set2/gray.gif","img/card_backs/set2/blue.gif","""event"",""trial"",""time""
""fullscreenenter"",""1"",""4149""
","
","
","""event"",""trial"",""time""
""fullscreenenter"",""1"",""4149""
","
","","null","","null","","fixation","2021-06-20 16:56:40.954","","","","","",""
"card-selection-trial","89","350516","0.0-25.0-1.9","582","true","img/card_backs/set1/purple.gif","img/card_backs/set1/red.gif","img/card_backs/set1/yellow.gif","img/card_backs/set1/green.gif","img/card_backs/set2/pink.gif","img/card_backs/set2/orange.gif","img/card_backs/set2/gray.gif","img/card_backs/set2/blue.gif","""event"",""trial"",""time""
""fullscreenenter"",""1"",""4149""
","
","
","""event"",""trial"",""time""
""fullscreenenter"",""1"",""4149""
","
","","451","","","","real_trial","2021-06-20 16:56:43.411","img/card_backs/set1/yellow.gif","0","-90","1","",""
"casino-fixation","90","351018","0.0-25.0-0.10","582","true","img/card_backs/set1/purple.gif","img/card_backs/set1/red.gif","img/card_backs/set1/yellow.gif","img/card_backs/set1/green.gif","img/card_backs/set2/pink.gif","img/card_backs/set2/orange.gif","img/card_backs/set2/gray.gif","img/card_backs/set2/blue.gif","""event"",""trial"",""time""
""fullscreenenter"",""1"",""4149""
","
","
","""event"",""trial"",""time""
""fullscreenenter"",""1"",""4149""
","
","","null","","null","","fixation","2021-06-20 16:56:43.914","","","","","",""
"card-selection-trial","91","353364","0.0-25.0-1.10","582","true","img/card_backs/set1/purple.gif","img/card_backs/set1/red.gif","img/card_backs/set1/yellow.gif","img/card_backs/set1/green.gif","img/card_backs/set2/pink.gif","img/card_backs/set2/orange.gif","img/card_backs/set2/gray.gif","img/card_backs/set2/blue.gif","""event"",""trial"",""time""
""fullscreenenter"",""1"",""4149""
","
","
","""event"",""trial"",""time""
""fullscreenenter"",""1"",""4149""
","
","","339","","","","real_trial","2021-06-20 16:56:46.260","img/card_backs/set1/green.gif","1","-100","1","",""
"casino-fixation","92","353868","0.0-25.0-0.11","582","true","img/card_backs/set1/purple.gif","img/card_backs/set1/red.gif","img/card_backs/set1/yellow.gif","img/card_backs/set1/green.gif","img/card_backs/set2/pink.gif","img/card_backs/set2/orange.gif","img/card_backs/set2/gray.gif","img/card_backs/set2/blue.gif","""event"",""trial"",""time""
""fullscreenenter"",""1"",""4149""
","
","
","""event"",""trial"",""time""
""fullscreenenter"",""1"",""4149""
","
","","null","","null","","fixation","2021-06-20 16:56:46.763","","","","","",""
"card-selection-trial","93","355940","0.0-25.0-1.11","582","true","img/card_backs/set1/purple.gif","img/card_backs/set1/red.gif","img/card_backs/set1/yellow.gif","img/card_backs/set1/green.gif","img/card_backs/set2/pink.gif","img/card_backs/set2/orange.gif","img/card_backs/set2/gray.gif","img/card_backs/set2/blue.gif","""event"",""trial"",""time""
""fullscreenenter"",""1"",""4149""
","
","
","""event"",""trial"",""time""
""fullscreenenter"",""1"",""4149""
","
","","58","","","","real_trial","2021-06-20 16:56:48.835","img/card_backs/set1/yellow.gif","2","60","1","",""
"casino-fixation","94","356444","0.0-25.0-0.12","582","true","img/card_backs/set1/purple.gif","img/card_backs/set1/red.gif","img/card_backs/set1/yellow.gif","img/card_backs/set1/green.gif","img/card_backs/set2/pink.gif","img/card_backs/set2/orange.gif","img/card_backs/set2/gray.gif","img/card_backs/set2/blue.gif","""event"",""trial"",""time""
""fullscreenenter"",""1"",""4149""
","
","
","""event"",""trial"",""time""
""fullscreenenter"",""1"",""4149""
","
","","null","","null","","fixation","2021-06-20 16:56:49.339","","","","","",""
"card-selection-trial","95","358740","0.0-25.0-1.12","582","true","img/card_backs/set1/purple.gif","img/card_backs/set1/red.gif","img/card_backs/set1/yellow.gif","img/card_backs/set1/green.gif","img/card_backs/set2/pink.gif","img/card_backs/set2/orange.gif","img/card_backs/set2/gray.gif","img/card_backs/set2/blue.gif","""event"",""trial"",""time""
""fullscreenenter"",""1"",""4149""
","
","
","""event"",""trial"",""time""
""fullscreenenter"",""1"",""4149""
","
","","289.9999999999418","","","","real_trial","2021-06-20 16:56:51.635","img/card_backs/set1/yellow.gif","2","50","1","",""
"casino-fixation","96","359242","0.0-25.0-0.13","582","true","img/card_backs/set1/purple.gif","img/card_backs/set1/red.gif","img/card_backs/set1/yellow.gif","img/card_backs/set1/green.gif","img/card_backs/set2/pink.gif","img/card_backs/set2/orange.gif","img/card_backs/set2/gray.gif","img/card_backs/set2/blue.gif","""event"",""trial"",""time""
""fullscreenenter"",""1"",""4149""
","
","
","""event"",""trial"",""time""
""fullscreenenter"",""1"",""4149""
","
","","null","","null","","fixation","2021-06-20 16:56:52.137","","","","","",""
"card-selection-trial","97","361332","0.0-25.0-1.13","582","true","img/card_backs/set1/purple.gif","img/card_backs/set1/red.gif","img/card_backs/set1/yellow.gif","img/card_backs/set1/green.gif","img/card_backs/set2/pink.gif","img/card_backs/set2/orange.gif","img/card_backs/set2/gray.gif","img/card_backs/set2/blue.gif","""event"",""trial"",""time""
""fullscreenenter"",""1"",""4149""
","
","
","""event"",""trial"",""time""
""fullscreenenter"",""1"",""4149""
","
","","83.99999999994179","","","","real_trial","2021-06-20 16:56:54.227","img/card_backs/set1/yellow.gif","2","-100","1","",""
"casino-fixation","98","361834","0.0-25.0-0.14","582","true","img/card_backs/set1/purple.gif","img/card_backs/set1/red.gif","img/card_backs/set1/yellow.gif","img/card_backs/set1/green.gif","img/card_backs/set2/pink.gif","img/card_backs/set2/orange.gif","img/card_backs/set2/gray.gif","img/card_backs/set2/blue.gif","""event"",""trial"",""time""
""fullscreenenter"",""1"",""4149""
","
","
","""event"",""trial"",""time""
""fullscreenenter"",""1"",""4149""
","
","","null","","null","","fixation","2021-06-20 16:56:54.729","","","","","",""
"card-selection-trial","99","364156","0.0-25.0-1.14","582","true","img/card_backs/set1/purple.gif","img/card_backs/set1/red.gif","img/card_backs/set1/yellow.gif","img/card_backs/set1/green.gif","img/card_backs/set2/pink.gif","img/card_backs/set2/orange.gif","img/card_backs/set2/gray.gif","img/card_backs/set2/blue.gif","""event"",""trial"",""time""
""fullscreenenter"",""1"",""4149""
","
","
","""event"",""trial"",""time""
""fullscreenenter"",""1"",""4149""
","
","","317","","","","real_trial","2021-06-20 16:56:57.051","img/card_backs/set1/red.gif","3","250","1","",""
"casino-fixation","100","364658","0.0-25.0-0.15","582","true","img/card_backs/set1/purple.gif","img/card_backs/set1/red.gif","img/card_backs/set1/yellow.gif","img/card_backs/set1/green.gif","img/card_backs/set2/pink.gif","img/card_backs/set2/orange.gif","img/card_backs/set2/gray.gif","img/card_backs/set2/blue.gif","""event"",""trial"",""time""
""fullscreenenter"",""1"",""4149""
","
","
","""event"",""trial"",""time""
""fullscreenenter"",""1"",""4149""
","
","","null","","null","","fixation","2021-06-20 16:56:57.553","","","","","",""
"card-selection-trial","101","366932","0.0-25.0-1.15","582","true","img/card_backs/set1/purple.gif","img/card_backs/set1/red.gif","img/card_backs/set1/yellow.gif","img/card_backs/set1/green.gif","img/card_backs/set2/pink.gif","img/card_backs/set2/orange.gif","img/card_backs/set2/gray.gif","img/card_backs/set2/blue.gif","""event"",""trial"",""time""
""fullscreenenter"",""1"",""4149""
","
","
","""event"",""trial"",""time""
""fullscreenenter"",""1"",""4149""
","
","","269","","","","real_trial","2021-06-20 16:56:59.827","img/card_backs/set1/red.gif","3","-200","1","",""
"casino-fixation","102","367434","0.0-25.0-0.16","582","true","img/card_backs/set1/purple.gif","img/card_backs/set1/red.gif","img/card_backs/set1/yellow.gif","img/card_backs/set1/green.gif","img/card_backs/set2/pink.gif","img/card_backs/set2/orange.gif","img/card_backs/set2/gray.gif","img/card_backs/set2/blue.gif","""event"",""trial"",""time""
""fullscreenenter"",""1"",""4149""
","
","
","""event"",""trial"",""time""
""fullscreenenter"",""1"",""4149""
","
","","null","","null","","fixation","2021-06-20 16:57:00.329","","","","","",""
"card-selection-trial","103","369659","0.0-25.0-1.16","582","true","img/card_backs/set1/purple.gif","img/card_backs/set1/red.gif","img/card_backs/set1/yellow.gif","img/card_backs/set1/green.gif","img/card_backs/set2/pink.gif","img/card_backs/set2/orange.gif","img/card_backs/set2/gray.gif","img/card_backs/set2/blue.gif","""event"",""trial"",""time""
""fullscreenenter"",""1"",""4149""
","
","
","""event"",""trial"",""time""
""fullscreenenter"",""1"",""4149""
","
","","219","","","","real_trial","2021-06-20 16:57:02.554","img/card_backs/set1/red.gif","0","260","1","",""
"casino-fixation","104","370161","0.0-25.0-0.17","582","true","img/card_backs/set1/purple.gif","img/card_backs/set1/red.gif","img/card_backs/set1/yellow.gif","img/card_backs/set1/green.gif","img/card_backs/set2/pink.gif","img/card_backs/set2/orange.gif","img/card_backs/set2/gray.gif","img/card_backs/set2/blue.gif","""event"",""trial"",""time""
""fullscreenenter"",""1"",""4149""
","
","
","""event"",""trial"",""time""
""fullscreenenter"",""1"",""4149""
","
","","null","","null","","fixation","2021-06-20 16:57:03.056","","","","","",""
"card-selection-trial","105","373188","0.0-25.0-1.17","582","true","img/card_backs/set1/purple.gif","img/card_backs/set1/red.gif","img/card_backs/set1/yellow.gif","img/card_backs/set1/green.gif","img/card_backs/set2/pink.gif","img/card_backs/set2/orange.gif","img/card_backs/set2/gray.gif","img/card_backs/set2/blue.gif","""event"",""trial"",""time""
""fullscreenenter"",""1"",""4149""
","
","
","""event"",""trial"",""time""
""fullscreenenter"",""1"",""4149""
","
","","1021.0000000000582","","","","real_trial","2021-06-20 16:57:06.083","img/card_backs/set1/red.gif","2","-200","1","",""
"casino-fixation","106","373690","0.0-25.0-0.18","582","true","img/card_backs/set1/purple.gif","img/card_backs/set1/red.gif","img/card_backs/set1/yellow.gif","img/card_backs/set1/green.gif","img/card_backs/set2/pink.gif","img/card_backs/set2/orange.gif","img/card_backs/set2/gray.gif","img/card_backs/set2/blue.gif","""event"",""trial"",""time""
""fullscreenenter"",""1"",""4149""
","
","
","""event"",""trial"",""time""
""fullscreenenter"",""1"",""4149""
","
","","null","","null","","fixation","2021-06-20 16:57:06.585","","","","","",""
"card-selection-trial","107","376179","0.0-25.0-1.18","582","true","img/card_backs/set1/purple.gif","img/card_backs/set1/red.gif","img/card_backs/set1/yellow.gif","img/card_backs/set1/green.gif","img/card_backs/set2/pink.gif","img/card_backs/set2/orange.gif","img/card_backs/set2/gray.gif","img/card_backs/set2/blue.gif","""event"",""trial"",""time""
""fullscreenenter"",""1"",""4149""
","
","
","""event"",""trial"",""time""
""fullscreenenter"",""1"",""4149""
","
","","484","","","","real_trial","2021-06-20 16:57:09.074","img/card_backs/set1/red.gif","0","-200","1","",""
"casino-fixation","108","376681","0.0-25.0-0.19","582","true","img/card_backs/set1/purple.gif","img/card_backs/set1/red.gif","img/card_backs/set1/yellow.gif","img/card_backs/set1/green.gif","img/card_backs/set2/pink.gif","img/card_backs/set2/orange.gif","img/card_backs/set2/gray.gif","img/card_backs/set2/blue.gif","""event"",""trial"",""time""
""fullscreenenter"",""1"",""4149""
","
","
","""event"",""trial"",""time""
""fullscreenenter"",""1"",""4149""
","
","","null","","null","","fixation","2021-06-20 16:57:09.576","","","","","",""
"card-selection-trial","109","379819","0.0-25.0-1.19","582","true","img/card_backs/set1/purple.gif","img/card_backs/set1/red.gif","img/card_backs/set1/yellow.gif","img/card_backs/set1/green.gif","img/card_backs/set2/pink.gif","img/card_backs/set2/orange.gif","img/card_backs/set2/gray.gif","img/card_backs/set2/blue.gif","""event"",""trial"",""time""
""fullscreenenter"",""1"",""4149""
","
","
","""event"",""trial"",""time""
""fullscreenenter"",""1"",""4149""
","
","","1133","","","","real_trial","2021-06-20 16:57:12.715","img/card_backs/set1/red.gif","1","260","1","",""
"casino-fixation","110","380322","0.0-25.0-0.20","582","true","img/card_backs/set1/purple.gif","img/card_backs/set1/red.gif","img/card_backs/set1/yellow.gif","img/card_backs/set1/green.gif","img/card_backs/set2/pink.gif","img/card_backs/set2/orange.gif","img/card_backs/set2/gray.gif","img/card_backs/set2/blue.gif","""event"",""trial"",""time""
""fullscreenenter"",""1"",""4149""
","
","
","""event"",""trial"",""time""
""fullscreenenter"",""1"",""4149""
","
","","null","","null","","fixation","2021-06-20 16:57:13.217","","","","","",""
"card-selection-trial","111","383356","0.0-25.0-1.20","582","true","img/card_backs/set1/purple.gif","img/card_backs/set1/red.gif","img/card_backs/set1/yellow.gif","img/card_backs/set1/green.gif","img/card_backs/set2/pink.gif","img/card_backs/set2/orange.gif","img/card_backs/set2/gray.gif","img/card_backs/set2/blue.gif","""event"",""trial"",""time""
""fullscreenenter"",""1"",""4149""
","
","
","""event"",""trial"",""time""
""fullscreenenter"",""1"",""4149""
","
","","1028","","","","real_trial","2021-06-20 16:57:16.251","img/card_backs/set1/purple.gif","1","240","1","",""
"casino-fixation","112","383858","0.0-25.0-0.21","582","true","img/card_backs/set1/purple.gif","img/card_backs/set1/red.gif","img/card_backs/set1/yellow.gif","img/card_backs/set1/green.gif","img/card_backs/set2/pink.gif","img/card_backs/set2/orange.gif","img/card_backs/set2/gray.gif","img/card_backs/set2/blue.gif","""event"",""trial"",""time""
""fullscreenenter"",""1"",""4149""
","
","
","""event"",""trial"",""time""
""fullscreenenter"",""1"",""4149""
","
","","null","","null","","fixation","2021-06-20 16:57:16.753","","","","","",""
"card-selection-trial","113","387148","0.0-25.0-1.21","582","true","img/card_backs/set1/purple.gif","img/card_backs/set1/red.gif","img/card_backs/set1/yellow.gif","img/card_backs/set1/green.gif","img/card_backs/set2/pink.gif","img/card_backs/set2/orange.gif","img/card_backs/set2/gray.gif","img/card_backs/set2/blue.gif","""event"",""trial"",""time""
""fullscreenenter"",""1"",""4149""
","
","
","""event"",""trial"",""time""
""fullscreenenter"",""1"",""4149""
","
","","1285","","","","real_trial","2021-06-20 16:57:20.043","img/card_backs/set1/red.gif","2","-190","1","",""
"casino-fixation","114","387652","0.0-25.0-0.22","582","true","img/card_backs/set1/purple.gif","img/card_backs/set1/red.gif","img/card_backs/set1/yellow.gif","img/card_backs/set1/green.gif","img/card_backs/set2/pink.gif","img/card_backs/set2/orange.gif","img/card_backs/set2/gray.gif","img/card_backs/set2/blue.gif","""event"",""trial"",""time""
""fullscreenenter"",""1"",""4149""
","
","
","""event"",""trial"",""time""
""fullscreenenter"",""1"",""4149""
","
","","null","","null","","fixation","2021-06-20 16:57:20.547","","","","","",""
"card-selection-trial","115","390788","0.0-25.0-1.22","582","true","img/card_backs/set1/purple.gif","img/card_backs/set1/red.gif","img/card_backs/set1/yellow.gif","img/card_backs/set1/green.gif","img/card_backs/set2/pink.gif","img/card_backs/set2/orange.gif","img/card_backs/set2/gray.gif","img/card_backs/set2/blue.gif","""event"",""trial"",""time""
""fullscreenenter"",""1"",""4149""
","
","
","""event"",""trial"",""time""
""fullscreenenter"",""1"",""4149""
","
","","1130","","","","real_trial","2021-06-20 16:57:23.684","img/card_backs/set1/red.gif","2","260","1","",""
"casino-fixation","116","391291","0.0-25.0-0.23","582","true","img/card_backs/set1/purple.gif","img/card_backs/set1/red.gif","img/card_backs/set1/yellow.gif","img/card_backs/set1/green.gif","img/card_backs/set2/pink.gif","img/card_backs/set2/orange.gif","img/card_backs/set2/gray.gif","img/card_backs/set2/blue.gif","""event"",""trial"",""time""
""fullscreenenter"",""1"",""4149""
","
","
","""event"",""trial"",""time""
""fullscreenenter"",""1"",""4149""
","
","","null","","null","","fixation","2021-06-20 16:57:24.186","","","","","",""
"card-selection-trial","117","395163","0.0-25.0-1.23","582","true","img/card_backs/set1/purple.gif","img/card_backs/set1/red.gif","img/card_backs/set1/yellow.gif","img/card_backs/set1/green.gif","img/card_backs/set2/pink.gif","img/card_backs/set2/orange.gif","img/card_backs/set2/gray.gif","img/card_backs/set2/blue.gif","""event"",""trial"",""time""
""fullscreenenter"",""1"",""4149""
","
","
","""event"",""trial"",""time""
""fullscreenenter"",""1"",""4149""
","
","","1867.0000000000582","","","","real_trial","2021-06-20 16:57:28.058","img/card_backs/set1/purple.gif","2","-200","1","",""
"casino-fixation","118","395665","0.0-25.0-0.24","582","true","img/card_backs/set1/purple.gif","img/card_backs/set1/red.gif","img/card_backs/set1/yellow.gif","img/card_backs/set1/green.gif","img/card_backs/set2/pink.gif","img/card_backs/set2/orange.gif","img/card_backs/set2/gray.gif","img/card_backs/set2/blue.gif","""event"",""trial"",""time""
""fullscreenenter"",""1"",""4149""
","
","
","""event"",""trial"",""time""
""fullscreenenter"",""1"",""4149""
","
","","null","","null","","fixation","2021-06-20 16:57:28.560","","","","","",""
"card-selection-trial","119","398004","0.0-25.0-1.24","582","true","img/card_backs/set1/purple.gif","img/card_backs/set1/red.gif","img/card_backs/set1/yellow.gif","img/card_backs/set1/green.gif","img/card_backs/set2/pink.gif","img/card_backs/set2/orange.gif","img/card_backs/set2/gray.gif","img/card_backs/set2/blue.gif","""event"",""trial"",""time""
""fullscreenenter"",""1"",""4149""
","
","
","""event"",""trial"",""time""
""fullscreenenter"",""1"",""4149""
","
","","333","","","","real_trial","2021-06-20 16:57:30.899","img/card_backs/set1/yellow.gif","0","-110","1","",""
"casino-fixation","120","398506","0.0-25.0-0.25","582","true","img/card_backs/set1/purple.gif","img/card_backs/set1/red.gif","img/card_backs/set1/yellow.gif","img/card_backs/set1/green.gif","img/card_backs/set2/pink.gif","img/card_backs/set2/orange.gif","img/card_backs/set2/gray.gif","img/card_backs/set2/blue.gif","""event"",""trial"",""time""
""fullscreenenter"",""1"",""4149""
","
","
","""event"",""trial"",""time""
""fullscreenenter"",""1"",""4149""
","
","","null","","null","","fixation","2021-06-20 16:57:31.401","","","","","",""
"card-selection-trial","121","401340","0.0-25.0-1.25","582","true","img/card_backs/set1/purple.gif","img/card_backs/set1/red.gif","img/card_backs/set1/yellow.gif","img/card_backs/set1/green.gif","img/card_backs/set2/pink.gif","img/card_backs/set2/orange.gif","img/card_backs/set2/gray.gif","img/card_backs/set2/blue.gif","""event"",""trial"",""time""
""fullscreenenter"",""1"",""4149""
","
","
","""event"",""trial"",""time""
""fullscreenenter"",""1"",""4149""
","
","","828","","","","real_trial","2021-06-20 16:57:34.236","img/card_backs/set1/red.gif","3","-190","1","",""
"casino-fixation","122","401844","0.0-25.0-0.26","582","true","img/card_backs/set1/purple.gif","img/card_backs/set1/red.gif","img/card_backs/set1/yellow.gif","img/card_backs/set1/green.gif","img/card_backs/set2/pink.gif","img/card_backs/set2/orange.gif","img/card_backs/set2/gray.gif","img/card_backs/set2/blue.gif","""event"",""trial"",""time""
""fullscreenenter"",""1"",""4149""
","
","
","""event"",""trial"",""time""
""fullscreenenter"",""1"",""4149""
","
","","null","","null","","fixation","2021-06-20 16:57:34.739","","","","","",""
"card-selection-trial","123","404732","0.0-25.0-1.26","582","true","img/card_backs/set1/purple.gif","img/card_backs/set1/red.gif","img/card_backs/set1/yellow.gif","img/card_backs/set1/green.gif","img/card_backs/set2/pink.gif","img/card_backs/set2/orange.gif","img/card_backs/set2/gray.gif","img/card_backs/set2/blue.gif","""event"",""trial"",""time""
""fullscreenenter"",""1"",""4149""
","
","
","""event"",""trial"",""time""
""fullscreenenter"",""1"",""4149""
","
","","882","","","","real_trial","2021-06-20 16:57:37.627","img/card_backs/set1/yellow.gif","1","-90","1","",""
"casino-fixation","124","405235","0.0-25.0-0.27","582","true","img/card_backs/set1/purple.gif","img/card_backs/set1/red.gif","img/card_backs/set1/yellow.gif","img/card_backs/set1/green.gif","img/card_backs/set2/pink.gif","img/card_backs/set2/orange.gif","img/card_backs/set2/gray.gif","img/card_backs/set2/blue.gif","""event"",""trial"",""time""
""fullscreenenter"",""1"",""4149""
","
","
","""event"",""trial"",""time""
""fullscreenenter"",""1"",""4149""
","
","","null","","null","","fixation","2021-06-20 16:57:38.130","","","","","",""
"card-selection-trial","125","407948","0.0-25.0-1.27","582","true","img/card_backs/set1/purple.gif","img/card_backs/set1/red.gif","img/card_backs/set1/yellow.gif","img/card_backs/set1/green.gif","img/card_backs/set2/pink.gif","img/card_backs/set2/orange.gif","img/card_backs/set2/gray.gif","img/card_backs/set2/blue.gif","""event"",""trial"",""time""
""fullscreenenter"",""1"",""4149""
","
","
","""event"",""trial"",""time""
""fullscreenenter"",""1"",""4149""
","
","","708","","","","real_trial","2021-06-20 16:57:40.843","img/card_backs/set1/green.gif","0","-90","1","",""
"casino-fixation","126","408450","0.0-25.0-0.28","582","true","img/card_backs/set1/purple.gif","img/card_backs/set1/red.gif","img/card_backs/set1/yellow.gif","img/card_backs/set1/green.gif","img/card_backs/set2/pink.gif","img/card_backs/set2/orange.gif","img/card_backs/set2/gray.gif","img/card_backs/set2/blue.gif","""event"",""trial"",""time""
""fullscreenenter"",""1"",""4149""
","
","
","""event"",""trial"",""time""
""fullscreenenter"",""1"",""4149""
","
","","null","","null","","fixation","2021-06-20 16:57:41.346","","","","","",""
"card-selection-trial","127","412363","0.0-25.0-1.28","582","true","img/card_backs/set1/purple.gif","img/card_backs/set1/red.gif","img/card_backs/set1/yellow.gif","img/card_backs/set1/green.gif","img/card_backs/set2/pink.gif","img/card_backs/set2/orange.gif","img/card_backs/set2/gray.gif","img/card_backs/set2/blue.gif","""event"",""trial"",""time""
""fullscreenenter"",""1"",""4149""
","
","
","""event"",""trial"",""time""
""fullscreenenter"",""1"",""4149""
","
","","1908","","","","real_trial","2021-06-20 16:57:45.258","img/card_backs/set1/green.gif","1","40","1","",""
"casino-fixation","128","412865","0.0-25.0-0.29","582","true","img/card_backs/set1/purple.gif","img/card_backs/set1/red.gif","img/card_backs/set1/yellow.gif","img/card_backs/set1/green.gif","img/card_backs/set2/pink.gif","img/card_backs/set2/orange.gif","img/card_backs/set2/gray.gif","img/card_backs/set2/blue.gif","""event"",""trial"",""time""
""fullscreenenter"",""1"",""4149""
","
","
","""event"",""trial"",""time""
""fullscreenenter"",""1"",""4149""
","
","","null","","null","","fixation","2021-06-20 16:57:45.760","","","","","",""
"card-selection-trial","129","415907","0.0-25.0-1.29","582","true","img/card_backs/set1/purple.gif","img/card_backs/set1/red.gif","img/card_backs/set1/yellow.gif","img/card_backs/set1/green.gif","img/card_backs/set2/pink.gif","img/card_backs/set2/orange.gif","img/card_backs/set2/gray.gif","img/card_backs/set2/blue.gif","""event"",""trial"",""time""
""fullscreenenter"",""1"",""4149""
","
","
","""event"",""trial"",""time""
""fullscreenenter"",""1"",""4149""
","
","","1037","","","","real_trial","2021-06-20 16:57:48.803","img/card_backs/set1/purple.gif","2","-210","1","",""
"casino-fixation","130","416411","0.0-25.0-0.30","582","true","img/card_backs/set1/purple.gif","img/card_backs/set1/red.gif","img/card_backs/set1/yellow.gif","img/card_backs/set1/green.gif","img/card_backs/set2/pink.gif","img/card_backs/set2/orange.gif","img/card_backs/set2/gray.gif","img/card_backs/set2/blue.gif","""event"",""trial"",""time""
""fullscreenenter"",""1"",""4149""
","
","
","""event"",""trial"",""time""
""fullscreenenter"",""1"",""4149""
","
","","null","","null","","fixation","2021-06-20 16:57:49.306","","","","","",""
"card-selection-trial","131","419108","0.0-25.0-1.30","582","true","img/card_backs/set1/purple.gif","img/card_backs/set1/red.gif","img/card_backs/set1/yellow.gif","img/card_backs/set1/green.gif","img/card_backs/set2/pink.gif","img/card_backs/set2/orange.gif","img/card_backs/set2/gray.gif","img/card_backs/set2/blue.gif","""event"",""trial"",""time""
""fullscreenenter"",""1"",""4149""
","
","
","""event"",""trial"",""time""
""fullscreenenter"",""1"",""4149""
","
","","690","","","","real_trial","2021-06-20 16:57:52.004","img/card_backs/set1/red.gif","3","-210","1","",""
"casino-fixation","132","419611","0.0-25.0-0.31","582","true","img/card_backs/set1/purple.gif","img/card_backs/set1/red.gif","img/card_backs/set1/yellow.gif","img/card_backs/set1/green.gif","img/card_backs/set2/pink.gif","img/card_backs/set2/orange.gif","img/card_backs/set2/gray.gif","img/card_backs/set2/blue.gif","""event"",""trial"",""time""
""fullscreenenter"",""1"",""4149""
","
","
","""event"",""trial"",""time""
""fullscreenenter"",""1"",""4149""
","
","","null","","null","","fixation","2021-06-20 16:57:52.506","","","","","",""
"card-selection-trial","133","422028","0.0-25.0-1.31","582","true","img/card_backs/set1/purple.gif","img/card_backs/set1/red.gif","img/card_backs/set1/yellow.gif","img/card_backs/set1/green.gif","img/card_backs/set2/pink.gif","img/card_backs/set2/orange.gif","img/card_backs/set2/gray.gif","img/card_backs/set2/blue.gif","""event"",""trial"",""time""
""fullscreenenter"",""1"",""4149""
","
","
","""event"",""trial"",""time""
""fullscreenenter"",""1"",""4149""
","
","","411.9999999999418","","","","real_trial","2021-06-20 16:57:54.923","img/card_backs/set1/purple.gif","3","-190","1","",""
"casino-fixation","134","422530","0.0-25.0-0.32","582","true","img/card_backs/set1/purple.gif","img/card_backs/set1/red.gif","img/card_backs/set1/yellow.gif","img/card_backs/set1/green.gif","img/card_backs/set2/pink.gif","img/card_backs/set2/orange.gif","img/card_backs/set2/gray.gif","img/card_backs/set2/blue.gif","""event"",""trial"",""time""
""fullscreenenter"",""1"",""4149""
","
","
","""event"",""trial"",""time""
""fullscreenenter"",""1"",""4149""
","
","","null","","null","","fixation","2021-06-20 16:57:55.426","","","","","",""
"card-selection-trial","135","424796","0.0-25.0-1.32","582","true","img/card_backs/set1/purple.gif","img/card_backs/set1/red.gif","img/card_backs/set1/yellow.gif","img/card_backs/set1/green.gif","img/card_backs/set2/pink.gif","img/card_backs/set2/orange.gif","img/card_backs/set2/gray.gif","img/card_backs/set2/blue.gif","""event"",""trial"",""time""
""fullscreenenter"",""1"",""4149""
","
","
","""event"",""trial"",""time""
""fullscreenenter"",""1"",""4149""
","
","","260.0000000000582","","","","real_trial","2021-06-20 16:57:57.691","img/card_backs/set1/green.gif","2","40","1","",""
"casino-fixation","136","425298","0.0-25.0-0.33","582","true","img/card_backs/set1/purple.gif","img/card_backs/set1/red.gif","img/card_backs/set1/yellow.gif","img/card_backs/set1/green.gif","img/card_backs/set2/pink.gif","img/card_backs/set2/orange.gif","img/card_backs/set2/gray.gif","img/card_backs/set2/blue.gif","""event"",""trial"",""time""
""fullscreenenter"",""1"",""4149""
","
","
","""event"",""trial"",""time""
""fullscreenenter"",""1"",""4149""
","
","","null","","null","","fixation","2021-06-20 16:57:58.193","","","","","",""
"card-selection-trial","137","427932","0.0-25.0-1.33","582","true","img/card_backs/set1/purple.gif","img/card_backs/set1/red.gif","img/card_backs/set1/yellow.gif","img/card_backs/set1/green.gif","img/card_backs/set2/pink.gif","img/card_backs/set2/orange.gif","img/card_backs/set2/gray.gif","img/card_backs/set2/blue.gif","""event"",""trial"",""time""
""fullscreenenter"",""1"",""4149""
","
","
","""event"",""trial"",""time""
""fullscreenenter"",""1"",""4149""
","
","","628","","","","real_trial","2021-06-20 16:58:00.828","img/card_backs/set1/red.gif","0","-190","1","",""
"casino-fixation","138","428437","0.0-25.0-0.34","582","true","img/card_backs/set1/purple.gif","img/card_backs/set1/red.gif","img/card_backs/set1/yellow.gif","img/card_backs/set1/green.gif","img/card_backs/set2/pink.gif","img/card_backs/set2/orange.gif","img/card_backs/set2/gray.gif","img/card_backs/set2/blue.gif","""event"",""trial"",""time""
""fullscreenenter"",""1"",""4149""
","
","
","""event"",""trial"",""time""
""fullscreenenter"",""1"",""4149""
","
","","null","","null","","fixation","2021-06-20 16:58:01.332","","","","","",""
"card-selection-trial","139","430446","0.0-25.0-1.34","582","true","img/card_backs/set1/purple.gif","img/card_backs/set1/red.gif","img/card_backs/set1/yellow.gif","img/card_backs/set1/green.gif","img/card_backs/set2/pink.gif","img/card_backs/set2/orange.gif","img/card_backs/set2/gray.gif","img/card_backs/set2/blue.gif","""event"",""trial"",""time""
""fullscreenenter"",""1"",""4149""
","
","
","""event"",""trial"",""time""
""fullscreenenter"",""1"",""4149""
","
","","1","","","","real_trial","2021-06-20 16:58:03.341","img/card_backs/set1/red.gif","1","-210","1","",""
"casino-fixation","140","430949","0.0-25.0-0.35","582","true","img/card_backs/set1/purple.gif","img/card_backs/set1/red.gif","img/card_backs/set1/yellow.gif","img/card_backs/set1/green.gif","img/card_backs/set2/pink.gif","img/card_backs/set2/orange.gif","img/card_backs/set2/gray.gif","img/card_backs/set2/blue.gif","""event"",""trial"",""time""
""fullscreenenter"",""1"",""4149""
","
","
","""event"",""trial"",""time""
""fullscreenenter"",""1"",""4149""
","
","","null","","null","","fixation","2021-06-20 16:58:03.845","","","","","",""
"card-selection-trial","141","432957","0.0-25.0-1.35","582","true","img/card_backs/set1/purple.gif","img/card_backs/set1/red.gif","img/card_backs/set1/yellow.gif","img/card_backs/set1/green.gif","img/card_backs/set2/pink.gif","img/card_backs/set2/orange.gif","img/card_backs/set2/gray.gif","img/card_backs/set2/blue.gif","""event"",""trial"",""time""
""fullscreenenter"",""1"",""4149""
","
","
","""event"",""trial"",""time""
""fullscreenenter"",""1"",""4149""
","
","","0","","","","real_trial","2021-06-20 16:58:05.852","img/card_backs/set1/red.gif","2","-210","1","",""
"casino-fixation","142","433458","0.0-25.0-0.36","582","true","img/card_backs/set1/purple.gif","img/card_backs/set1/red.gif","img/card_backs/set1/yellow.gif","img/card_backs/set1/green.gif","img/card_backs/set2/pink.gif","img/card_backs/set2/orange.gif","img/card_backs/set2/gray.gif","img/card_backs/set2/blue.gif","""event"",""trial"",""time""
""fullscreenenter"",""1"",""4149""
","
","
","""event"",""trial"",""time""
""fullscreenenter"",""1"",""4149""
","
","","null","","null","","fixation","2021-06-20 16:58:06.354","","","","","",""
"card-selection-trial","143","437188","0.0-25.0-1.36","582","true","img/card_backs/set1/purple.gif","img/card_backs/set1/red.gif","img/card_backs/set1/yellow.gif","img/card_backs/set1/green.gif","img/card_backs/set2/pink.gif","img/card_backs/set2/orange.gif","img/card_backs/set2/gray.gif","img/card_backs/set2/blue.gif","""event"",""trial"",""time""
""fullscreenenter"",""1"",""4149""
","
","
","""event"",""trial"",""time""
""fullscreenenter"",""1"",""4149""
","
","","1724.0000000000582","","","","real_trial","2021-06-20 16:58:10.083","img/card_backs/set1/red.gif","1","-190","1","",""
"casino-fixation","144","437690","0.0-25.0-0.37","582","true","img/card_backs/set1/purple.gif","img/card_backs/set1/red.gif","img/card_backs/set1/yellow.gif","img/card_backs/set1/green.gif","img/card_backs/set2/pink.gif","img/card_backs/set2/orange.gif","img/card_backs/set2/gray.gif","img/card_backs/set2/blue.gif","""event"",""trial"",""time""
""fullscreenenter"",""1"",""4149""
","
","
","""event"",""trial"",""time""
""fullscreenenter"",""1"",""4149""
","
","","null","","null","","fixation","2021-06-20 16:58:10.585","","","","","",""
"card-selection-trial","145","442612","0.0-25.0-1.37","582","true","img/card_backs/set1/purple.gif","img/card_backs/set1/red.gif","img/card_backs/set1/yellow.gif","img/card_backs/set1/green.gif","img/card_backs/set2/pink.gif","img/card_backs/set2/orange.gif","img/card_backs/set2/gray.gif","img/card_backs/set2/blue.gif","""event"",""trial"",""time""
""fullscreenenter"",""1"",""4149""
","
","
","""event"",""trial"",""time""
""fullscreenenter"",""1"",""4149""
","
","","2916","","","","real_trial","2021-06-20 16:58:15.508","img/card_backs/set1/purple.gif","1","240","1","",""
"casino-fixation","146","443115","0.0-25.0-0.38","582","true","img/card_backs/set1/purple.gif","img/card_backs/set1/red.gif","img/card_backs/set1/yellow.gif","img/card_backs/set1/green.gif","img/card_backs/set2/pink.gif","img/card_backs/set2/orange.gif","img/card_backs/set2/gray.gif","img/card_backs/set2/blue.gif","""event"",""trial"",""time""
""fullscreenenter"",""1"",""4149""
","
","
","""event"",""trial"",""time""
""fullscreenenter"",""1"",""4149""
","
","","null","","null","","fixation","2021-06-20 16:58:16.011","","","","","",""
"card-selection-trial","147","445748","0.0-25.0-1.38","582","true","img/card_backs/set1/purple.gif","img/card_backs/set1/red.gif","img/card_backs/set1/yellow.gif","img/card_backs/set1/green.gif","img/card_backs/set2/pink.gif","img/card_backs/set2/orange.gif","img/card_backs/set2/gray.gif","img/card_backs/set2/blue.gif","""event"",""trial"",""time""
""fullscreenenter"",""1"",""4149""
","
","
","""event"",""trial"",""time""
""fullscreenenter"",""1"",""4149""
","
","","627.0000000000582","","","","real_trial","2021-06-20 16:58:18.643","img/card_backs/set1/purple.gif","3","260","1","",""
"casino-fixation","148","446250","0.0-25.0-0.39","582","true","img/card_backs/set1/purple.gif","img/card_backs/set1/red.gif","img/card_backs/set1/yellow.gif","img/card_backs/set1/green.gif","img/card_backs/set2/pink.gif","img/card_backs/set2/orange.gif","img/card_backs/set2/gray.gif","img/card_backs/set2/blue.gif","""event"",""trial"",""time""
""fullscreenenter"",""1"",""4149""
","
","
","""event"",""trial"",""time""
""fullscreenenter"",""1"",""4149""
","
","","null","","null","","fixation","2021-06-20 16:58:19.145","","","","","",""
"card-selection-trial","149","448788","0.0-25.0-1.39","582","true","img/card_backs/set1/purple.gif","img/card_backs/set1/red.gif","img/card_backs/set1/yellow.gif","img/card_backs/set1/green.gif","img/card_backs/set2/pink.gif","img/card_backs/set2/orange.gif","img/card_backs/set2/gray.gif","img/card_backs/set2/blue.gif","""event"",""trial"",""time""
""fullscreenenter"",""1"",""4149""
","
","
","""event"",""trial"",""time""
""fullscreenenter"",""1"",""4149""
","
","","532","","","","real_trial","2021-06-20 16:58:21.684","img/card_backs/set1/purple.gif","3","-190","1","",""
"casino-fixation","150","449291","0.0-25.0-0.40","582","true","img/card_backs/set1/purple.gif","img/card_backs/set1/red.gif","img/card_backs/set1/yellow.gif","img/card_backs/set1/green.gif","img/card_backs/set2/pink.gif","img/card_backs/set2/orange.gif","img/card_backs/set2/gray.gif","img/card_backs/set2/blue.gif","""event"",""trial"",""time""
""fullscreenenter"",""1"",""4149""
","
","
","""event"",""trial"",""time""
""fullscreenenter"",""1"",""4149""
","
","","null","","null","","fixation","2021-06-20 16:58:22.186","","","","","",""
"card-selection-trial","151","452284","0.0-25.0-1.40","582","true","img/card_backs/set1/purple.gif","img/card_backs/set1/red.gif","img/card_backs/set1/yellow.gif","img/card_backs/set1/green.gif","img/card_backs/set2/pink.gif","img/card_backs/set2/orange.gif","img/card_backs/set2/gray.gif","img/card_backs/set2/blue.gif","""event"",""trial"",""time""
""fullscreenenter"",""1"",""4149""
","
","
","""event"",""trial"",""time""
""fullscreenenter"",""1"",""4149""
","
","","986","","","","real_trial","2021-06-20 16:58:25.179","img/card_backs/set1/red.gif","0","-200","1","",""
"casino-fixation","152","452786","0.0-25.0-0.41","582","true","img/card_backs/set1/purple.gif","img/card_backs/set1/red.gif","img/card_backs/set1/yellow.gif","img/card_backs/set1/green.gif","img/card_backs/set2/pink.gif","img/card_backs/set2/orange.gif","img/card_backs/set2/gray.gif","img/card_backs/set2/blue.gif","""event"",""trial"",""time""
""fullscreenenter"",""1"",""4149""
","
","
","""event"",""trial"",""time""
""fullscreenenter"",""1"",""4149""
","
","","null","","null","","fixation","2021-06-20 16:58:25.681","","","","","",""
"card-selection-trial","153","456060","0.0-25.0-1.41","582","true","img/card_backs/set1/purple.gif","img/card_backs/set1/red.gif","img/card_backs/set1/yellow.gif","img/card_backs/set1/green.gif","img/card_backs/set2/pink.gif","img/card_backs/set2/orange.gif","img/card_backs/set2/gray.gif","img/card_backs/set2/blue.gif","""event"",""trial"",""time""
""fullscreenenter"",""1"",""4149""
","
","
","""event"",""trial"",""time""
""fullscreenenter"",""1"",""4149""
","
","","1268","","","","real_trial","2021-06-20 16:58:28.955","img/card_backs/set1/green.gif","2","50","1","",""
"casino-fixation","154","456562","0.0-25.0-0.42","582","true","img/card_backs/set1/purple.gif","img/card_backs/set1/red.gif","img/card_backs/set1/yellow.gif","img/card_backs/set1/green.gif","img/card_backs/set2/pink.gif","img/card_backs/set2/orange.gif","img/card_backs/set2/gray.gif","img/card_backs/set2/blue.gif","""event"",""trial"",""time""
""fullscreenenter"",""1"",""4149""
","
","
","""event"",""trial"",""time""
""fullscreenenter"",""1"",""4149""
","
","","null","","null","","fixation","2021-06-20 16:58:29.457","","","","","",""
"card-selection-trial","155","459188","0.0-25.0-1.42","582","true","img/card_backs/set1/purple.gif","img/card_backs/set1/red.gif","img/card_backs/set1/yellow.gif","img/card_backs/set1/green.gif","img/card_backs/set2/pink.gif","img/card_backs/set2/orange.gif","img/card_backs/set2/gray.gif","img/card_backs/set2/blue.gif","""event"",""trial"",""time""
""fullscreenenter"",""1"",""4149""
","
","
","""event"",""trial"",""time""
""fullscreenenter"",""1"",""4149""
","
","","620.0000000000582","","","","real_trial","2021-06-20 16:58:32.083","img/card_backs/set1/purple.gif","0","260","1","",""
"casino-fixation","156","459691","0.0-25.0-0.43","582","true","img/card_backs/set1/purple.gif","img/card_backs/set1/red.gif","img/card_backs/set1/yellow.gif","img/card_backs/set1/green.gif","img/card_backs/set2/pink.gif","img/card_backs/set2/orange.gif","img/card_backs/set2/gray.gif","img/card_backs/set2/blue.gif","""event"",""trial"",""time""
""fullscreenenter"",""1"",""4149""
","
","
","""event"",""trial"",""time""
""fullscreenenter"",""1"",""4149""
","
","","null","","null","","fixation","2021-06-20 16:58:32.586","","","","","",""
"card-selection-trial","157","462236","0.0-25.0-1.43","582","true","img/card_backs/set1/purple.gif","img/card_backs/set1/red.gif","img/card_backs/set1/yellow.gif","img/card_backs/set1/green.gif","img/card_backs/set2/pink.gif","img/card_backs/set2/orange.gif","img/card_backs/set2/gray.gif","img/card_backs/set2/blue.gif","""event"",""trial"",""time""
""fullscreenenter"",""1"",""4149""
","
","
","""event"",""trial"",""time""
""fullscreenenter"",""1"",""4149""
","
","","540.0000000000582","","","","real_trial","2021-06-20 16:58:35.131","img/card_backs/set1/purple.gif","0","-190","1","",""
"casino-fixation","158","462739","0.0-25.0-0.44","582","true","img/card_backs/set1/purple.gif","img/card_backs/set1/red.gif","img/card_backs/set1/yellow.gif","img/card_backs/set1/green.gif","img/card_backs/set2/pink.gif","img/card_backs/set2/orange.gif","img/card_backs/set2/gray.gif","img/card_backs/set2/blue.gif","""event"",""trial"",""time""
""fullscreenenter"",""1"",""4149""
","
","
","""event"",""trial"",""time""
""fullscreenenter"",""1"",""4149""
","
","","null","","null","","fixation","2021-06-20 16:58:35.634","","","","","",""
"card-selection-trial","159","466348","0.0-25.0-1.44","582","true","img/card_backs/set1/purple.gif","img/card_backs/set1/red.gif","img/card_backs/set1/yellow.gif","img/card_backs/set1/green.gif","img/card_backs/set2/pink.gif","img/card_backs/set2/orange.gif","img/card_backs/set2/gray.gif","img/card_backs/set2/blue.gif","""event"",""trial"",""time""
""fullscreenenter"",""1"",""4149""
","
","
","""event"",""trial"",""time""
""fullscreenenter"",""1"",""4149""
","
","","1603","","","","real_trial","2021-06-20 16:58:39.244","img/card_backs/set1/green.gif","3","50","1","",""
"casino-fixation","160","466852","0.0-25.0-0.45","582","true","img/card_backs/set1/purple.gif","img/card_backs/set1/red.gif","img/card_backs/set1/yellow.gif","img/card_backs/set1/green.gif","img/card_backs/set2/pink.gif","img/card_backs/set2/orange.gif","img/card_backs/set2/gray.gif","img/card_backs/set2/blue.gif","""event"",""trial"",""time""
""fullscreenenter"",""1"",""4149""
","
","
","""event"",""trial"",""time""
""fullscreenenter"",""1"",""4149""
","
","","null","","null","","fixation","2021-06-20 16:58:39.747","","","","","",""
"card-selection-trial","161","469467","0.0-25.0-1.45","582","true","img/card_backs/set1/purple.gif","img/card_backs/set1/red.gif","img/card_backs/set1/yellow.gif","img/card_backs/set1/green.gif","img/card_backs/set2/pink.gif","img/card_backs/set2/orange.gif","img/card_backs/set2/gray.gif","img/card_backs/set2/blue.gif","""event"",""trial"",""time""
""fullscreenenter"",""1"",""4149""
","
","
","""event"",""trial"",""time""
""fullscreenenter"",""1"",""4149""
","
","","609","","","","real_trial","2021-06-20 16:58:42.363","img/card_backs/set1/purple.gif","3","-200","1","",""
"casino-fixation","162","469970","0.0-25.0-0.46","582","true","img/card_backs/set1/purple.gif","img/card_backs/set1/red.gif","img/card_backs/set1/yellow.gif","img/card_backs/set1/green.gif","img/card_backs/set2/pink.gif","img/card_backs/set2/orange.gif","img/card_backs/set2/gray.gif","img/card_backs/set2/blue.gif","""event"",""trial"",""time""
""fullscreenenter"",""1"",""4149""
","
","
","""event"",""trial"",""time""
""fullscreenenter"",""1"",""4149""
","
","","null","","null","","fixation","2021-06-20 16:58:42.865","","","","","",""
"card-selection-trial","163","472564","0.0-25.0-1.46","582","true","img/card_backs/set1/purple.gif","img/card_backs/set1/red.gif","img/card_backs/set1/yellow.gif","img/card_backs/set1/green.gif","img/card_backs/set2/pink.gif","img/card_backs/set2/orange.gif","img/card_backs/set2/gray.gif","img/card_backs/set2/blue.gif","""event"",""trial"",""time""
""fullscreenenter"",""1"",""4149""
","
","
","""event"",""trial"",""time""
""fullscreenenter"",""1"",""4149""
","
","","587","","","","real_trial","2021-06-20 16:58:45.459","img/card_backs/set1/green.gif","3","40","1","",""
"casino-fixation","164","473066","0.0-25.0-0.47","582","true","img/card_backs/set1/purple.gif","img/card_backs/set1/red.gif","img/card_backs/set1/yellow.gif","img/card_backs/set1/green.gif","img/card_backs/set2/pink.gif","img/card_backs/set2/orange.gif","img/card_backs/set2/gray.gif","img/card_backs/set2/blue.gif","""event"",""trial"",""time""
""fullscreenenter"",""1"",""4149""
","
","
","""event"",""trial"",""time""
""fullscreenenter"",""1"",""4149""
","
","","null","","null","","fixation","2021-06-20 16:58:45.961","","","","","",""
"card-selection-trial","165","476500","0.0-25.0-1.47","582","true","img/card_backs/set1/purple.gif","img/card_backs/set1/red.gif","img/card_backs/set1/yellow.gif","img/card_backs/set1/green.gif","img/card_backs/set2/pink.gif","img/card_backs/set2/orange.gif","img/card_backs/set2/gray.gif","img/card_backs/set2/blue.gif","""event"",""trial"",""time""
""fullscreenenter"",""1"",""4149""
","
","
","""event"",""trial"",""time""
""fullscreenenter"",""1"",""4149""
","
","","1428","","","","real_trial","2021-06-20 16:58:49.395","img/card_backs/set1/purple.gif","2","-190","1","",""
"casino-fixation","166","477002","0.0-25.0-0.48","582","true","img/card_backs/set1/purple.gif","img/card_backs/set1/red.gif","img/card_backs/set1/yellow.gif","img/card_backs/set1/green.gif","img/card_backs/set2/pink.gif","img/card_backs/set2/orange.gif","img/card_backs/set2/gray.gif","img/card_backs/set2/blue.gif","""event"",""trial"",""time""
""fullscreenenter"",""1"",""4149""
","
","
","""event"",""trial"",""time""
""fullscreenenter"",""1"",""4149""
","
","","null","","null","","fixation","2021-06-20 16:58:49.897","","","","","",""
"card-selection-trial","167","480756","0.0-25.0-1.48","582","true","img/card_backs/set1/purple.gif","img/card_backs/set1/red.gif","img/card_backs/set1/yellow.gif","img/card_backs/set1/green.gif","img/card_backs/set2/pink.gif","img/card_backs/set2/orange.gif","img/card_backs/set2/gray.gif","img/card_backs/set2/blue.gif","""event"",""trial"",""time""
""fullscreenenter"",""1"",""4149""
","
","
","""event"",""trial"",""time""
""fullscreenenter"",""1"",""4149""
","
","","1748","","","","real_trial","2021-06-20 16:58:53.652","img/card_backs/set1/purple.gif","3","-190","1","",""
"casino-fixation","168","481260","0.0-25.0-0.49","582","true","img/card_backs/set1/purple.gif","img/card_backs/set1/red.gif","img/card_backs/set1/yellow.gif","img/card_backs/set1/green.gif","img/card_backs/set2/pink.gif","img/card_backs/set2/orange.gif","img/card_backs/set2/gray.gif","img/card_backs/set2/blue.gif","""event"",""trial"",""time""
""fullscreenenter"",""1"",""4149""
","
","
","""event"",""trial"",""time""
""fullscreenenter"",""1"",""4149""
","
","","null","","null","","fixation","2021-06-20 16:58:54.155","","","","","",""
"card-selection-trial","169","483956","0.0-25.0-1.49","582","true","img/card_backs/set1/purple.gif","img/card_backs/set1/red.gif","img/card_backs/set1/yellow.gif","img/card_backs/set1/green.gif","img/card_backs/set2/pink.gif","img/card_backs/set2/orange.gif","img/card_backs/set2/gray.gif","img/card_backs/set2/blue.gif","""event"",""trial"",""time""
""fullscreenenter"",""1"",""4149""
","
","
