"trial_type","trial_index","time_elapsed","internal_node_id","sub_id","risk_good_first","block1_A","block1_B","block1_C","block1_D","block2_A","block2_B","block2_C","block2_D","interactions","blur_events","focus_events","fullscreenenter_events","fullscreenexit_events","success","rt","stimulus","key_press","button_pressed","task_part","timestamp","card_choice","choice_position","points_earned","block","correct","response"
"pavlovia","0","3","0.0-0.0","954","false","img/card_backs/set1/green.gif","img/card_backs/set1/red.gif","img/card_backs/set1/purple.gif","img/card_backs/set1/yellow.gif","img/card_backs/set2/orange.gif","img/card_backs/set2/pink.gif","img/card_backs/set2/blue.gif","img/card_backs/set2/gray.gif","""event"",""trial"",""time""
""fullscreenenter"",""1"",""2019""
","
","
","""event"",""trial"",""time""
""fullscreenenter"",""1"",""2019""
","
","","","","","","","","","","","","",""
"fullscreen","1","3010","0.0-1.0","954","false","img/card_backs/set1/green.gif","img/card_backs/set1/red.gif","img/card_backs/set1/purple.gif","img/card_backs/set1/yellow.gif","img/card_backs/set2/orange.gif","img/card_backs/set2/pink.gif","img/card_backs/set2/blue.gif","img/card_backs/set2/gray.gif","""event"",""trial"",""time""
""fullscreenenter"",""1"",""2019""
","
","
","""event"",""trial"",""time""
""fullscreenenter"",""1"",""2019""
","
","true","","","","","","","","","","","",""
"audio-keyboard-response","2","5347","0.0-2.0","954","false","img/card_backs/set1/green.gif","img/card_backs/set1/red.gif","img/card_backs/set1/purple.gif","img/card_backs/set1/yellow.gif","img/card_backs/set2/orange.gif","img/card_backs/set2/pink.gif","img/card_backs/set2/blue.gif","img/card_backs/set2/gray.gif","""event"",""trial"",""time""
""fullscreenenter"",""1"",""2019""
","
","
","""event"",""trial"",""time""
""fullscreenenter"",""1"",""2019""
","
","","2293","audio/beep_loop.wav","32","","","","","","","","",""
"audio-button-response","3","6912","0.0-3.0","954","false","img/card_backs/set1/green.gif","img/card_backs/set1/red.gif","img/card_backs/set1/purple.gif","img/card_backs/set1/yellow.gif","img/card_backs/set2/orange.gif","img/card_backs/set2/pink.gif","img/card_backs/set2/blue.gif","img/card_backs/set2/gray.gif","""event"",""trial"",""time""
""fullscreenenter"",""1"",""2019""
","
","
","""event"",""trial"",""time""
""fullscreenenter"",""1"",""2019""
","
","","NaN","audio/turtle.mp3","","3","","","","","","","",""
"audio-button-response","4","9306","0.0-4.0","954","false","img/card_backs/set1/green.gif","img/card_backs/set1/red.gif","img/card_backs/set1/purple.gif","img/card_backs/set1/yellow.gif","img/card_backs/set2/orange.gif","img/card_backs/set2/pink.gif","img/card_backs/set2/blue.gif","img/card_backs/set2/gray.gif","""event"",""trial"",""time""
""fullscreenenter"",""1"",""2019""
","
","
","""event"",""trial"",""time""
""fullscreenenter"",""1"",""2019""
","
","","NaN","audio/shark.mp3","","2","","","","","","","",""
"fullscreen","5","12676","0.0-5.0","954","false","img/card_backs/set1/green.gif","img/card_backs/set1/red.gif","img/card_backs/set1/purple.gif","img/card_backs/set1/yellow.gif","img/card_backs/set2/orange.gif","img/card_backs/set2/pink.gif","img/card_backs/set2/blue.gif","img/card_backs/set2/gray.gif","""event"",""trial"",""time""
""fullscreenenter"",""1"",""2019""
","
","
","""event"",""trial"",""time""
""fullscreenenter"",""1"",""2019""
","
","true","","","","","","","","","","","",""
"casino-keyboard-response","6","15734","0.0-6.0-0.0","954","false","img/card_backs/set1/green.gif","img/card_backs/set1/red.gif","img/card_backs/set1/purple.gif","img/card_backs/set1/yellow.gif","img/card_backs/set2/orange.gif","img/card_backs/set2/pink.gif","img/card_backs/set2/blue.gif","img/card_backs/set2/gray.gif","""event"",""trial"",""time""
""fullscreenenter"",""1"",""2019""
","
","
","""event"",""trial"",""time""
""fullscreenenter"",""1"",""2019""
","
","","3056","Welcome to the casino!","71","","instructions","2021-07-13 19:11:15.785","","","","","",""
"casino-keyboard-response","7","25593","0.0-6.0-0.1","954","false","img/card_backs/set1/green.gif","img/card_backs/set1/red.gif","img/card_backs/set1/purple.gif","img/card_backs/set1/yellow.gif","img/card_backs/set2/orange.gif","img/card_backs/set2/pink.gif","img/card_backs/set2/blue.gif","img/card_backs/set2/gray.gif","""event"",""trial"",""time""
""fullscreenenter"",""1"",""2019""
","
","
","""event"",""trial"",""time""
""fullscreenenter"",""1"",""2019""
","
","","9858","Today you will be playing a game to earn tokens. </br> At the end of the experiment, you will be paid a bonus based on how many tokens you win. ","69","","instructions","2021-07-13 19:11:25.644","","","","","",""
"casino-keyboard-response","8","32495","0.0-6.0-0.2","954","false","img/card_backs/set1/green.gif","img/card_backs/set1/red.gif","img/card_backs/set1/purple.gif","img/card_backs/set1/yellow.gif","img/card_backs/set2/orange.gif","img/card_backs/set2/pink.gif","img/card_backs/set2/blue.gif","img/card_backs/set2/gray.gif","""event"",""trial"",""time""
""fullscreenenter"",""1"",""2019""
","
","
","""event"",""trial"",""time""
""fullscreenenter"",""1"",""2019""
","
","","6900.800000011921","On every turn, you will be shown four different decks of cards. </br> You need to select a card from one of the four decks.  ","75","","instructions","2021-07-13 19:11:32.546","","","","","",""
"casino-keyboard-response","9","37033","0.0-6.0-0.3","954","false","img/card_backs/set1/green.gif","img/card_backs/set1/red.gif","img/card_backs/set1/purple.gif","img/card_backs/set1/yellow.gif","img/card_backs/set2/orange.gif","img/card_backs/set2/pink.gif","img/card_backs/set2/blue.gif","img/card_backs/set2/gray.gif","""event"",""trial"",""time""
""fullscreenenter"",""1"",""2019""
","
","
","""event"",""trial"",""time""
""fullscreenenter"",""1"",""2019""
","
","","4536.9000000059605","On the next screen, you will see what the decks will look like. ","66","","instructions","2021-07-13 19:11:37.084","","","","","",""
"card-selection-trial","10","41038","0.0-7.0-0.0","954","false","img/card_backs/set1/green.gif","img/card_backs/set1/red.gif","img/card_backs/set1/purple.gif","img/card_backs/set1/yellow.gif","img/card_backs/set2/orange.gif","img/card_backs/set2/pink.gif","img/card_backs/set2/blue.gif","img/card_backs/set2/gray.gif","""event"",""trial"",""time""
""fullscreenenter"",""1"",""2019""
","
","
","""event"",""trial"",""time""
""fullscreenenter"",""1"",""2019""
","
","","null","","","","practice","2021-07-13 19:11:41.089","null","null","null","0","",""
"casino-keyboard-response","11","48236","0.0-8.0-0.0","954","false","img/card_backs/set1/green.gif","img/card_backs/set1/red.gif","img/card_backs/set1/purple.gif","img/card_backs/set1/yellow.gif","img/card_backs/set2/orange.gif","img/card_backs/set2/pink.gif","img/card_backs/set2/blue.gif","img/card_backs/set2/gray.gif","""event"",""trial"",""time""
""fullscreenenter"",""1"",""2019""
","
","
","""event"",""trial"",""time""
""fullscreenenter"",""1"",""2019""
","
","","7196.5999999940395","You should pick a card from a deck using the '2', '4', '6', and '8' keys at the top of the keyboard.","85","","instructions","2021-07-13 19:11:48.287","","","","","",""
"casino-keyboard-response","12","53436","0.0-8.0-0.1","954","false","img/card_backs/set1/green.gif","img/card_backs/set1/red.gif","img/card_backs/set1/purple.gif","img/card_backs/set1/yellow.gif","img/card_backs/set2/orange.gif","img/card_backs/set2/pink.gif","img/card_backs/set2/blue.gif","img/card_backs/set2/gray.gif","""event"",""trial"",""time""
""fullscreenenter"",""1"",""2019""
","
","
","""event"",""trial"",""time""
""fullscreenenter"",""1"",""2019""
","
","","5199.29999999702","Once you select a card, it will turn over and you will see how many tokens you earned.","83","","instructions","2021-07-13 19:11:53.487","","","","","",""
"casino-keyboard-response","13","67747","0.0-8.0-0.2","954","false","img/card_backs/set1/green.gif","img/card_backs/set1/red.gif","img/card_backs/set1/purple.gif","img/card_backs/set1/yellow.gif","img/card_backs/set2/orange.gif","img/card_backs/set2/pink.gif","img/card_backs/set2/blue.gif","img/card_backs/set2/gray.gif","""event"",""trial"",""time""
""fullscreenenter"",""1"",""2019""
","
","
","""event"",""trial"",""time""
""fullscreenenter"",""1"",""2019""
","
","","14309.59999999404","Let's try practicing that! </br> First, try to put your fingers over the '2', '4', '6', and '8' keys. </br>  You can use whatever fingers are most comfortable for you. Try to find a comfortable position now. ","50","","instructions","2021-07-13 19:12:07.798","","","","","",""
"casino-keyboard-response","14","73687","0.0-8.0-0.3","954","false","img/card_backs/set1/green.gif","img/card_backs/set1/red.gif","img/card_backs/set1/purple.gif","img/card_backs/set1/yellow.gif","img/card_backs/set2/orange.gif","img/card_backs/set2/pink.gif","img/card_backs/set2/blue.gif","img/card_backs/set2/gray.gif","""event"",""trial"",""time""
""fullscreenenter"",""1"",""2019""
","
","
","""event"",""trial"",""time""
""fullscreenenter"",""1"",""2019""
","
","","5939.399999991059","Okay ready? </br> On the next screen, press '2' to select the left deck. ","50","","instructions","2021-07-13 19:12:13.738","","","","","",""
"card-selection-trial","15","76577","0.0-9.0-0.0","954","false","img/card_backs/set1/green.gif","img/card_backs/set1/red.gif","img/card_backs/set1/purple.gif","img/card_backs/set1/yellow.gif","img/card_backs/set2/orange.gif","img/card_backs/set2/pink.gif","img/card_backs/set2/blue.gif","img/card_backs/set2/gray.gif","""event"",""trial"",""time""
""fullscreenenter"",""1"",""2019""
","
","
","""event"",""trial"",""time""
""fullscreenenter"",""1"",""2019""
","
","","878.4000000059605","","","","practice_card_selection","2021-07-13 19:12:16.628","img/practice_cards/backs/black.gif","0","100","","",""
"casino-keyboard-response","16","79504","0.0-10.0-0.0","954","false","img/card_backs/set1/green.gif","img/card_backs/set1/red.gif","img/card_backs/set1/purple.gif","img/card_backs/set1/yellow.gif","img/card_backs/set2/orange.gif","img/card_backs/set2/pink.gif","img/card_backs/set2/blue.gif","img/card_backs/set2/gray.gif","""event"",""trial"",""time""
""fullscreenenter"",""1"",""2019""
","
","
","""event"",""trial"",""time""
""fullscreenenter"",""1"",""2019""
","
","","2925.7999999970198","Great! Now on the next screen, try pressing '6' to select the third deck.","54","","instructions","2021-07-13 19:12:19.555","","","","","",""
"card-selection-trial","17","82729","0.0-11.0-0.0","954","false","img/card_backs/set1/green.gif","img/card_backs/set1/red.gif","img/card_backs/set1/purple.gif","img/card_backs/set1/yellow.gif","img/card_backs/set2/orange.gif","img/card_backs/set2/pink.gif","img/card_backs/set2/blue.gif","img/card_backs/set2/gray.gif","""event"",""trial"",""time""
""fullscreenenter"",""1"",""2019""
","
","
","""event"",""trial"",""time""
""fullscreenenter"",""1"",""2019""
","
","","1214.8999999910593","","","","practice_card_selection","2021-07-13 19:12:22.780","img/practice_cards/backs/brown.gif","2","-100","","",""
"casino-keyboard-response","18","83778","0.0-12.0-0.0","954","false","img/card_backs/set1/green.gif","img/card_backs/set1/red.gif","img/card_backs/set1/purple.gif","img/card_backs/set1/yellow.gif","img/card_backs/set2/orange.gif","img/card_backs/set2/pink.gif","img/card_backs/set2/blue.gif","img/card_backs/set2/gray.gif","""event"",""trial"",""time""
""fullscreenenter"",""1"",""2019""
","
","
","""event"",""trial"",""time""
""fullscreenenter"",""1"",""2019""
","
","","1048.7000000029802","Now on the next screen, try pressing '4' to select the second deck.","52","","instructions","2021-07-13 19:12:23.830","","","","","",""
"card-selection-trial","19","86286","0.0-13.0-0.0","954","false","img/card_backs/set1/green.gif","img/card_backs/set1/red.gif","img/card_backs/set1/purple.gif","img/card_backs/set1/yellow.gif","img/card_backs/set2/orange.gif","img/card_backs/set2/pink.gif","img/card_backs/set2/blue.gif","img/card_backs/set2/gray.gif","""event"",""trial"",""time""
""fullscreenenter"",""1"",""2019""
","
","
","""event"",""trial"",""time""
""fullscreenenter"",""1"",""2019""
","
","","502.90000000596046","","","","practice_card_selection","2021-07-13 19:12:26.337","img/practice_cards/backs/brown.gif","1","100","","",""
"casino-keyboard-response","20","87367","0.0-14.0-0.0","954","false","img/card_backs/set1/green.gif","img/card_backs/set1/red.gif","img/card_backs/set1/purple.gif","img/card_backs/set1/yellow.gif","img/card_backs/set2/orange.gif","img/card_backs/set2/pink.gif","img/card_backs/set2/blue.gif","img/card_backs/set2/gray.gif","""event"",""trial"",""time""
""fullscreenenter"",""1"",""2019""
","
","
","""event"",""trial"",""time""
""fullscreenenter"",""1"",""2019""
","
","","1080.0999999940395","Finally, try pressing '8' to select the deck all the way on the right.","56","","instructions","2021-07-13 19:12:27.418","","","","","",""
"card-selection-trial","21","89808","0.0-15.0-0.0","954","false","img/card_backs/set1/green.gif","img/card_backs/set1/red.gif","img/card_backs/set1/purple.gif","img/card_backs/set1/yellow.gif","img/card_backs/set2/orange.gif","img/card_backs/set2/pink.gif","img/card_backs/set2/blue.gif","img/card_backs/set2/gray.gif","""event"",""trial"",""time""
""fullscreenenter"",""1"",""2019""
","
","
","""event"",""trial"",""time""
""fullscreenenter"",""1"",""2019""
","
","","433.29999999701977","","","","practice_card_selection","2021-07-13 19:12:29.859","img/practice_cards/backs/brown.gif","3","-100","","",""
"casino-keyboard-response","22","93161","0.0-16.0-0.0","954","false","img/card_backs/set1/green.gif","img/card_backs/set1/red.gif","img/card_backs/set1/purple.gif","img/card_backs/set1/yellow.gif","img/card_backs/set2/orange.gif","img/card_backs/set2/pink.gif","img/card_backs/set2/blue.gif","img/card_backs/set2/gray.gif","""event"",""trial"",""time""
""fullscreenenter"",""1"",""2019""
","
","
","""event"",""trial"",""time""
""fullscreenenter"",""1"",""2019""
","
","","3351.8999999910593","Great! It seems like you are getting the hang of this.","80","","instructions","2021-07-13 19:12:33.212","","","","","",""
"casino-keyboard-response","23","100090","0.0-16.0-0.1","954","false","img/card_backs/set1/green.gif","img/card_backs/set1/red.gif","img/card_backs/set1/purple.gif","img/card_backs/set1/yellow.gif","img/card_backs/set2/orange.gif","img/card_backs/set2/pink.gif","img/card_backs/set2/blue.gif","img/card_backs/set2/gray.gif","""event"",""trial"",""time""
""fullscreenenter"",""1"",""2019""
","
","
","""event"",""trial"",""time""
""fullscreenenter"",""1"",""2019""
","
","","6928.899999991059","You may have noticed that some cards will cause you to <b> win </b> tokens while other cards will cause you to <b> lose </b>  tokens.","70","","instructions","2021-07-13 19:12:40.141","","","","","",""
"casino-keyboard-response","24","106056","0.0-16.0-0.2","954","false","img/card_backs/set1/green.gif","img/card_backs/set1/red.gif","img/card_backs/set1/purple.gif","img/card_backs/set1/yellow.gif","img/card_backs/set2/orange.gif","img/card_backs/set2/pink.gif","img/card_backs/set2/blue.gif","img/card_backs/set2/gray.gif","""event"",""trial"",""time""
""fullscreenenter"",""1"",""2019""
","
","
","""event"",""trial"",""time""
""fullscreenenter"",""1"",""2019""
","
","","5964.79999999702","Each deck has a mix of cards that will cause you to win and lose tokens. </br> However, the cards in each colored deck are different.","73","","instructions","2021-07-13 19:12:46.107","","","","","",""
"casino-keyboard-response","25","115423","0.0-16.0-0.3","954","false","img/card_backs/set1/green.gif","img/card_backs/set1/red.gif","img/card_backs/set1/purple.gif","img/card_backs/set1/yellow.gif","img/card_backs/set2/orange.gif","img/card_backs/set2/pink.gif","img/card_backs/set2/blue.gif","img/card_backs/set2/gray.gif","""event"",""trial"",""time""
""fullscreenenter"",""1"",""2019""
","
","
","""event"",""trial"",""time""
""fullscreenenter"",""1"",""2019""
","
","","9365.90000000596","Some colored decks are luckier than others. </br> If you choose the lucky decks, you will earn more tokens than if you choose the unlucky decks.","69","","instructions","2021-07-13 19:12:55.474","","","","","",""
"casino-keyboard-response","26","122611","0.0-16.0-0.4","954","false","img/card_backs/set1/green.gif","img/card_backs/set1/red.gif","img/card_backs/set1/purple.gif","img/card_backs/set1/yellow.gif","img/card_backs/set2/orange.gif","img/card_backs/set2/pink.gif","img/card_backs/set2/blue.gif","img/card_backs/set2/gray.gif","""event"",""trial"",""time""
""fullscreenenter"",""1"",""2019""
","
","
","""event"",""trial"",""time""
""fullscreenenter"",""1"",""2019""
","
","","7187.20000000298","You should try to figure out which decks are lucky. </br> Then, try to choose the lucky decks so you can win the most tokens.","87","","instructions","2021-07-13 19:13:02.662","","","","","",""
"casino-keyboard-response","27","134106","0.0-16.0-0.5","954","false","img/card_backs/set1/green.gif","img/card_backs/set1/red.gif","img/card_backs/set1/purple.gif","img/card_backs/set1/yellow.gif","img/card_backs/set2/orange.gif","img/card_backs/set2/pink.gif","img/card_backs/set2/blue.gif","img/card_backs/set2/gray.gif","""event"",""trial"",""time""
""fullscreenenter"",""1"",""2019""
","
","
","""event"",""trial"",""time""
""fullscreenenter"",""1"",""2019""
","
","","11493.10000000894","To make it trickier, the casino dealer will switch the locations of the decks on every turn. </br> The color of the deck determines how lucky it is. The location does not matter.","88","","instructions","2021-07-13 19:13:14.157","","","","","",""
"casino-keyboard-response","28","143827","0.0-16.0-0.6","954","false","img/card_backs/set1/green.gif","img/card_backs/set1/red.gif","img/card_backs/set1/purple.gif","img/card_backs/set1/yellow.gif","img/card_backs/set2/orange.gif","img/card_backs/set2/pink.gif","img/card_backs/set2/blue.gif","img/card_backs/set2/gray.gif","""event"",""trial"",""time""
""fullscreenenter"",""1"",""2019""
","
","
","""event"",""trial"",""time""
""fullscreenenter"",""1"",""2019""
","
","","9720.40000000596","The mix of cards in each colored deck will stay the same throughout the game. </br> That means that a deck that is lucky early on will stay lucky.","79","","instructions","2021-07-13 19:13:23.878","","","","","",""
"casino-keyboard-response","29","147703","0.0-16.0-0.7","954","false","img/card_backs/set1/green.gif","img/card_backs/set1/red.gif","img/card_backs/set1/purple.gif","img/card_backs/set1/yellow.gif","img/card_backs/set2/orange.gif","img/card_backs/set2/pink.gif","img/card_backs/set2/blue.gif","img/card_backs/set2/gray.gif","""event"",""trial"",""time""
""fullscreenenter"",""1"",""2019""
","
","
","""event"",""trial"",""time""
""fullscreenenter"",""1"",""2019""
","
","","3874.9000000059605","Remember though, all the decks have a <b> mix </b> of both <b> good </b> and <b> bad </b> cards so it may take a couple of turns to figure out if a deck is lucky.","69","","instructions","2021-07-13 19:13:27.754","","","","","",""
"casino-keyboard-response","30","156859","0.0-16.0-0.8","954","false","img/card_backs/set1/green.gif","img/card_backs/set1/red.gif","img/card_backs/set1/purple.gif","img/card_backs/set1/yellow.gif","img/card_backs/set2/orange.gif","img/card_backs/set2/pink.gif","img/card_backs/set2/blue.gif","img/card_backs/set2/gray.gif","""event"",""trial"",""time""
""fullscreenenter"",""1"",""2019""
","
","
","""event"",""trial"",""time""
""fullscreenenter"",""1"",""2019""
","
","","9155.09999999404","At the end of the game, you will be paid bonus money based on how many tokens you win. </br> If you win more tokens, you will earn more money!","72","","instructions","2021-07-13 19:13:36.910","","","","","",""
"casino-keyboard-response","31","161807","0.0-16.0-0.9","954","false","img/card_backs/set1/green.gif","img/card_backs/set1/red.gif","img/card_backs/set1/purple.gif","img/card_backs/set1/yellow.gif","img/card_backs/set2/orange.gif","img/card_backs/set2/pink.gif","img/card_backs/set2/blue.gif","img/card_backs/set2/gray.gif","""event"",""trial"",""time""
""fullscreenenter"",""1"",""2019""
","
","
","""event"",""trial"",""time""
""fullscreenenter"",""1"",""2019""
","
","","4946.4000000059605","You will never <b> lose </b> money. </br> If you end up with fewer than 0 tokens, you will earn $0 of bonus money, but you will still be paid for playing the game.","83","","instructions","2021-07-13 19:13:41.858","","","","","",""
"casino-keyboard-response","32","165904","0.0-16.0-0.10","954","false","img/card_backs/set1/green.gif","img/card_backs/set1/red.gif","img/card_backs/set1/purple.gif","img/card_backs/set1/yellow.gif","img/card_backs/set2/orange.gif","img/card_backs/set2/pink.gif","img/card_backs/set2/blue.gif","img/card_backs/set2/gray.gif","""event"",""trial"",""time""
""fullscreenenter"",""1"",""2019""
","
","
","""event"",""trial"",""time""
""fullscreenenter"",""1"",""2019""
","
","","4096.29999999702","You will have 10 seconds to make each choice.","82","","instructions","2021-07-13 19:13:45.955","","","","","",""
"casino-keyboard-response","33","172030","0.0-16.0-0.11","954","false","img/card_backs/set1/green.gif","img/card_backs/set1/red.gif","img/card_backs/set1/purple.gif","img/card_backs/set1/yellow.gif","img/card_backs/set2/orange.gif","img/card_backs/set2/pink.gif","img/card_backs/set2/blue.gif","img/card_backs/set2/gray.gif","""event"",""trial"",""time""
""fullscreenenter"",""1"",""2019""
","
","
","""event"",""trial"",""time""
""fullscreenenter"",""1"",""2019""
","
","","6124.5","Before you play the game for real, you will play with practice decks. </br> The tokens you earn during practice won't count toward your total.","86","","instructions","2021-07-13 19:13:52.081","","","","","",""
"casino-keyboard-response","34","174344","0.0-16.0-0.12","954","false","img/card_backs/set1/green.gif","img/card_backs/set1/red.gif","img/card_backs/set1/purple.gif","img/card_backs/set1/yellow.gif","img/card_backs/set2/orange.gif","img/card_backs/set2/pink.gif","img/card_backs/set2/blue.gif","img/card_backs/set2/gray.gif","""event"",""trial"",""time""
""fullscreenenter"",""1"",""2019""
","
","
","""event"",""trial"",""time""
""fullscreenenter"",""1"",""2019""
","
","","2312.6000000089407","Ready? Remember, use the '2', '4', '6', and '8' keys to select the decks. </br> Put your fingers on those keys now and then press '2' to begin.","50","","instructions","2021-07-13 19:13:54.395","","","","","",""
"casino-fixation","35","174847","0.0-17.0-0.0","954","false","img/card_backs/set1/green.gif","img/card_backs/set1/red.gif","img/card_backs/set1/purple.gif","img/card_backs/set1/yellow.gif","img/card_backs/set2/orange.gif","img/card_backs/set2/pink.gif","img/card_backs/set2/blue.gif","img/card_backs/set2/gray.gif","""event"",""trial"",""time""
""fullscreenenter"",""1"",""2019""
","
","
","""event"",""trial"",""time""
""fullscreenenter"",""1"",""2019""
","
","","null","","null","","fixation","2021-07-13 19:13:54.898","","","","","",""
"card-selection-trial","36","178315","0.0-17.0-1.0","954","false","img/card_backs/set1/green.gif","img/card_backs/set1/red.gif","img/card_backs/set1/purple.gif","img/card_backs/set1/yellow.gif","img/card_backs/set2/orange.gif","img/card_backs/set2/pink.gif","img/card_backs/set2/blue.gif","img/card_backs/set2/gray.gif","""event"",""trial"",""time""
""fullscreenenter"",""1"",""2019""
","
","
","""event"",""trial"",""time""
""fullscreenenter"",""1"",""2019""
","
","","1460.5999999940395","","","","practice","2021-07-13 19:13:58.366","img/practice_cards/backs/dark_blue.gif","1","200","0","",""
"casino-fixation","37","178818","0.0-17.0-0.1","954","false","img/card_backs/set1/green.gif","img/card_backs/set1/red.gif","img/card_backs/set1/purple.gif","img/card_backs/set1/yellow.gif","img/card_backs/set2/orange.gif","img/card_backs/set2/pink.gif","img/card_backs/set2/blue.gif","img/card_backs/set2/gray.gif","""event"",""trial"",""time""
""fullscreenenter"",""1"",""2019""
","
","
","""event"",""trial"",""time""
""fullscreenenter"",""1"",""2019""
","
","","null","","null","","fixation","2021-07-13 19:13:58.869","","","","","",""
"card-selection-trial","38","182933","0.0-17.0-1.1","954","false","img/card_backs/set1/green.gif","img/card_backs/set1/red.gif","img/card_backs/set1/purple.gif","img/card_backs/set1/yellow.gif","img/card_backs/set2/orange.gif","img/card_backs/set2/pink.gif","img/card_backs/set2/blue.gif","img/card_backs/set2/gray.gif","""event"",""trial"",""time""
""fullscreenenter"",""1"",""2019""
","
","
","""event"",""trial"",""time""
""fullscreenenter"",""1"",""2019""
","
","","2108.7999999970198","","","","practice","2021-07-13 19:14:02.984","img/practice_cards/backs/dark_blue.gif","3","200","0","",""
"casino-fixation","39","183436","0.0-17.0-0.2","954","false","img/card_backs/set1/green.gif","img/card_backs/set1/red.gif","img/card_backs/set1/purple.gif","img/card_backs/set1/yellow.gif","img/card_backs/set2/orange.gif","img/card_backs/set2/pink.gif","img/card_backs/set2/blue.gif","img/card_backs/set2/gray.gif","""event"",""trial"",""time""
""fullscreenenter"",""1"",""2019""
","
","
","""event"",""trial"",""time""
""fullscreenenter"",""1"",""2019""
","
","","null","","null","","fixation","2021-07-13 19:14:03.487","","","","","",""
"card-selection-trial","40","186663","0.0-17.0-1.2","954","false","img/card_backs/set1/green.gif","img/card_backs/set1/red.gif","img/card_backs/set1/purple.gif","img/card_backs/set1/yellow.gif","img/card_backs/set2/orange.gif","img/card_backs/set2/pink.gif","img/card_backs/set2/blue.gif","img/card_backs/set2/gray.gif","""event"",""trial"",""time""
""fullscreenenter"",""1"",""2019""
","
","
","""event"",""trial"",""time""
""fullscreenenter"",""1"",""2019""
","
","","1222.2999999970198","","","","practice","2021-07-13 19:14:06.714","img/practice_cards/backs/brown.gif","2","100","0","",""
"casino-fixation","41","187164","0.0-17.0-0.3","954","false","img/card_backs/set1/green.gif","img/card_backs/set1/red.gif","img/card_backs/set1/purple.gif","img/card_backs/set1/yellow.gif","img/card_backs/set2/orange.gif","img/card_backs/set2/pink.gif","img/card_backs/set2/blue.gif","img/card_backs/set2/gray.gif","""event"",""trial"",""time""
""fullscreenenter"",""1"",""2019""
","
","
","""event"",""trial"",""time""
""fullscreenenter"",""1"",""2019""
","
","","null","","null","","fixation","2021-07-13 19:14:07.215","","","","","",""
"card-selection-trial","42","190912","0.0-17.0-1.3","954","false","img/card_backs/set1/green.gif","img/card_backs/set1/red.gif","img/card_backs/set1/purple.gif","img/card_backs/set1/yellow.gif","img/card_backs/set2/orange.gif","img/card_backs/set2/pink.gif","img/card_backs/set2/blue.gif","img/card_backs/set2/gray.gif","""event"",""trial"",""time""
""fullscreenenter"",""1"",""2019""
","
","
","""event"",""trial"",""time""
""fullscreenenter"",""1"",""2019""
","
","","1742.9000000059605","","","","practice","2021-07-13 19:14:10.963","img/practice_cards/backs/dark_blue.gif","1","200","0","",""
"casino-fixation","43","191419","0.0-17.0-0.4","954","false","img/card_backs/set1/green.gif","img/card_backs/set1/red.gif","img/card_backs/set1/purple.gif","img/card_backs/set1/yellow.gif","img/card_backs/set2/orange.gif","img/card_backs/set2/pink.gif","img/card_backs/set2/blue.gif","img/card_backs/set2/gray.gif","""event"",""trial"",""time""
""fullscreenenter"",""1"",""2019""
","
","
","""event"",""trial"",""time""
""fullscreenenter"",""1"",""2019""
","
","","null","","null","","fixation","2021-07-13 19:14:11.470","","","","","",""
"card-selection-trial","44","194393","0.0-17.0-1.4","954","false","img/card_backs/set1/green.gif","img/card_backs/set1/red.gif","img/card_backs/set1/purple.gif","img/card_backs/set1/yellow.gif","img/card_backs/set2/orange.gif","img/card_backs/set2/pink.gif","img/card_backs/set2/blue.gif","img/card_backs/set2/gray.gif","""event"",""trial"",""time""
""fullscreenenter"",""1"",""2019""
","
","
","""event"",""trial"",""time""
""fullscreenenter"",""1"",""2019""
","
","","968.2999999970198","","","","practice","2021-07-13 19:14:14.444","img/practice_cards/backs/dark_blue.gif","2","200","0","",""
"casino-fixation","45","194898","0.0-17.0-0.5","954","false","img/card_backs/set1/green.gif","img/card_backs/set1/red.gif","img/card_backs/set1/purple.gif","img/card_backs/set1/yellow.gif","img/card_backs/set2/orange.gif","img/card_backs/set2/pink.gif","img/card_backs/set2/blue.gif","img/card_backs/set2/gray.gif","""event"",""trial"",""time""
""fullscreenenter"",""1"",""2019""
","
","
","""event"",""trial"",""time""
""fullscreenenter"",""1"",""2019""
","
","","null","","null","","fixation","2021-07-13 19:14:14.949","","","","","",""
"card-selection-trial","46","198068","0.0-17.0-1.5","954","false","img/card_backs/set1/green.gif","img/card_backs/set1/red.gif","img/card_backs/set1/purple.gif","img/card_backs/set1/yellow.gif","img/card_backs/set2/orange.gif","img/card_backs/set2/pink.gif","img/card_backs/set2/blue.gif","img/card_backs/set2/gray.gif","""event"",""trial"",""time""
""fullscreenenter"",""1"",""2019""
","
","
","""event"",""trial"",""time""
""fullscreenenter"",""1"",""2019""
","
","","1160.6000000089407","","","","practice","2021-07-13 19:14:18.119","img/practice_cards/backs/dark_blue.gif","3","200","0","",""
"casino-fixation","47","198572","0.0-17.0-0.6","954","false","img/card_backs/set1/green.gif","img/card_backs/set1/red.gif","img/card_backs/set1/purple.gif","img/card_backs/set1/yellow.gif","img/card_backs/set2/orange.gif","img/card_backs/set2/pink.gif","img/card_backs/set2/blue.gif","img/card_backs/set2/gray.gif","""event"",""trial"",""time""
""fullscreenenter"",""1"",""2019""
","
","
","""event"",""trial"",""time""
""fullscreenenter"",""1"",""2019""
","
","","null","","null","","fixation","2021-07-13 19:14:18.623","","","","","",""
"card-selection-trial","48","201563","0.0-17.0-1.6","954","false","img/card_backs/set1/green.gif","img/card_backs/set1/red.gif","img/card_backs/set1/purple.gif","img/card_backs/set1/yellow.gif","img/card_backs/set2/orange.gif","img/card_backs/set2/pink.gif","img/card_backs/set2/blue.gif","img/card_backs/set2/gray.gif","""event"",""trial"",""time""
""fullscreenenter"",""1"",""2019""
","
","
","""event"",""trial"",""time""
""fullscreenenter"",""1"",""2019""
","
","","984.2000000029802","","","","practice","2021-07-13 19:14:21.614","img/practice_cards/backs/dark_blue.gif","3","-200","0","",""
"casino-fixation","49","202066","0.0-17.0-0.7","954","false","img/card_backs/set1/green.gif","img/card_backs/set1/red.gif","img/card_backs/set1/purple.gif","img/card_backs/set1/yellow.gif","img/card_backs/set2/orange.gif","img/card_backs/set2/pink.gif","img/card_backs/set2/blue.gif","img/card_backs/set2/gray.gif","""event"",""trial"",""time""
""fullscreenenter"",""1"",""2019""
","
","
","""event"",""trial"",""time""
""fullscreenenter"",""1"",""2019""
","
","","null","","null","","fixation","2021-07-13 19:14:22.117","","","","","",""
"card-selection-trial","50","206930","0.0-17.0-1.7","954","false","img/card_backs/set1/green.gif","img/card_backs/set1/red.gif","img/card_backs/set1/purple.gif","img/card_backs/set1/yellow.gif","img/card_backs/set2/orange.gif","img/card_backs/set2/pink.gif","img/card_backs/set2/blue.gif","img/card_backs/set2/gray.gif","""event"",""trial"",""time""
""fullscreenenter"",""1"",""2019""
","
","
","""event"",""trial"",""time""
""fullscreenenter"",""1"",""2019""
","
","","2855.9000000059605","","","","practice","2021-07-13 19:14:26.981","img/practice_cards/backs/dark_blue.gif","0","-200","0","",""
"casino-fixation","51","207433","0.0-17.0-0.8","954","false","img/card_backs/set1/green.gif","img/card_backs/set1/red.gif","img/card_backs/set1/purple.gif","img/card_backs/set1/yellow.gif","img/card_backs/set2/orange.gif","img/card_backs/set2/pink.gif","img/card_backs/set2/blue.gif","img/card_backs/set2/gray.gif","""event"",""trial"",""time""
""fullscreenenter"",""1"",""2019""
","
","
","""event"",""trial"",""time""
""fullscreenenter"",""1"",""2019""
","
","","null","","null","","fixation","2021-07-13 19:14:27.485","","","","","",""
"card-selection-trial","52","210972","0.0-17.0-1.8","954","false","img/card_backs/set1/green.gif","img/card_backs/set1/red.gif","img/card_backs/set1/purple.gif","img/card_backs/set1/yellow.gif","img/card_backs/set2/orange.gif","img/card_backs/set2/pink.gif","img/card_backs/set2/blue.gif","img/card_backs/set2/gray.gif","""event"",""trial"",""time""
""fullscreenenter"",""1"",""2019""
","
","
","""event"",""trial"",""time""
""fullscreenenter"",""1"",""2019""
","
","","1532.5","","","","practice","2021-07-13 19:14:31.023","img/practice_cards/backs/brown.gif","2","100","0","",""
"casino-fixation","53","211477","0.0-17.0-0.9","954","false","img/card_backs/set1/green.gif","img/card_backs/set1/red.gif","img/card_backs/set1/purple.gif","img/card_backs/set1/yellow.gif","img/card_backs/set2/orange.gif","img/card_backs/set2/pink.gif","img/card_backs/set2/blue.gif","img/card_backs/set2/gray.gif","""event"",""trial"",""time""
""fullscreenenter"",""1"",""2019""
","
","
","""event"",""trial"",""time""
""fullscreenenter"",""1"",""2019""
","
","","null","","null","","fixation","2021-07-13 19:14:31.528","","","","","",""
"card-selection-trial","54","214281","0.0-17.0-1.9","954","false","img/card_backs/set1/green.gif","img/card_backs/set1/red.gif","img/card_backs/set1/purple.gif","img/card_backs/set1/yellow.gif","img/card_backs/set2/orange.gif","img/card_backs/set2/pink.gif","img/card_backs/set2/blue.gif","img/card_backs/set2/gray.gif","""event"",""trial"",""time""
""fullscreenenter"",""1"",""2019""
","
","
","""event"",""trial"",""time""
""fullscreenenter"",""1"",""2019""
","
","","796.5","","","","practice","2021-07-13 19:14:34.332","img/practice_cards/backs/black.gif","3","100","0","",""
"casino-keyboard-response","55","216821","0.0-18.0","954","false","img/card_backs/set1/green.gif","img/card_backs/set1/red.gif","img/card_backs/set1/purple.gif","img/card_backs/set1/yellow.gif","img/card_backs/set2/orange.gif","img/card_backs/set2/pink.gif","img/card_backs/set2/blue.gif","img/card_backs/set2/gray.gif","""event"",""trial"",""time""
""fullscreenenter"",""1"",""2019""
","
","
","""event"",""trial"",""time""
""fullscreenenter"",""1"",""2019""
","
","","2538.5999999940395","You earned 900 tokens during the practice round!","82","","","2021-07-13 19:14:36.872","","","","","",""
"casino-keyboard-response","56","220914","0.0-19.0-0.0","954","false","img/card_backs/set1/green.gif","img/card_backs/set1/red.gif","img/card_backs/set1/purple.gif","img/card_backs/set1/yellow.gif","img/card_backs/set2/orange.gif","img/card_backs/set2/pink.gif","img/card_backs/set2/blue.gif","img/card_backs/set2/gray.gif","""event"",""trial"",""time""
""fullscreenenter"",""1"",""2019""
","
","
","""event"",""trial"",""time""
""fullscreenenter"",""1"",""2019""
","
","","4091.4000000059605","Nice job! You are almost ready to play the real game.","86","","instructions","2021-07-13 19:14:40.965","","","","","",""
"casino-keyboard-response","57","227353","0.0-19.0-0.1","954","false","img/card_backs/set1/green.gif","img/card_backs/set1/red.gif","img/card_backs/set1/purple.gif","img/card_backs/set1/yellow.gif","img/card_backs/set2/orange.gif","img/card_backs/set2/pink.gif","img/card_backs/set2/blue.gif","img/card_backs/set2/gray.gif","""event"",""trial"",""time""
""fullscreenenter"",""1"",""2019""
","
","
","""event"",""trial"",""time""
""fullscreenenter"",""1"",""2019""
","
","","6438.0999999940395","You will play two rounds of the real game. In each round, you will pick 100 cards in total.","73","","instructions","2021-07-13 19:14:47.404","","","","","",""
"casino-keyboard-response","58","231340","0.0-19.0-0.2","954","false","img/card_backs/set1/green.gif","img/card_backs/set1/red.gif","img/card_backs/set1/purple.gif","img/card_backs/set1/yellow.gif","img/card_backs/set2/orange.gif","img/card_backs/set2/pink.gif","img/card_backs/set2/blue.gif","img/card_backs/set2/gray.gif","""event"",""trial"",""time""
""fullscreenenter"",""1"",""2019""
","
","
","""event"",""trial"",""time""
""fullscreenenter"",""1"",""2019""
","
","","3986.7999999970198","We are now going to ask you some questions about how the game works.","66","","instructions","2021-07-13 19:14:51.392","","","","","",""
"casino-keyboard-response","59","234655","0.0-19.0-0.3","954","false","img/card_backs/set1/green.gif","img/card_backs/set1/red.gif","img/card_backs/set1/purple.gif","img/card_backs/set1/yellow.gif","img/card_backs/set2/orange.gif","img/card_backs/set2/pink.gif","img/card_backs/set2/blue.gif","img/card_backs/set2/gray.gif","""event"",""trial"",""time""
""fullscreenenter"",""1"",""2019""
","
","
","""event"",""trial"",""time""
""fullscreenenter"",""1"",""2019""
","
","","3313.199999988079","Answer carefully. You will not be able to begin the game until you answer them correctly.","67","","instructions","2021-07-13 19:14:54.706","","","","","",""
"casino-comp_q","60","234787","0.0-20.0-0.0","954","false","img/card_backs/set1/green.gif","img/card_backs/set1/red.gif","img/card_backs/set1/purple.gif","img/card_backs/set1/yellow.gif","img/card_backs/set2/orange.gif","img/card_backs/set2/pink.gif","img/card_backs/set2/blue.gif","img/card_backs/set2/gray.gif","""event"",""trial"",""time""
""fullscreenenter"",""1"",""2019""
","
","
","""event"",""trial"",""time""
""fullscreenenter"",""1"",""2019""
","
","","131.40000000596046","True or False: All the decks have some cards that cause you to win tokens and some cards that cause you to lose tokens.","68","","","2021-07-13 19:14:54.838","","","","","",""
"casino-keyboard-response","61","238357","0.0-20.0-1.0","954","false","img/card_backs/set1/green.gif","img/card_backs/set1/red.gif","img/card_backs/set1/purple.gif","img/card_backs/set1/yellow.gif","img/card_backs/set2/orange.gif","img/card_backs/set2/pink.gif","img/card_backs/set2/blue.gif","img/card_backs/set2/gray.gif","""event"",""trial"",""time""
""fullscreenenter"",""1"",""2019""
","
","
","""event"",""trial"",""time""
""fullscreenenter"",""1"",""2019""
","
","","3569.2000000029802","False is incorrect. All the decks have a mix of winning and losing cards.","77","","","2021-07-13 19:14:58.409","","","","","false",""
"casino-comp_q","62","243762","0.0-20.1-0.1","954","false","img/card_backs/set1/green.gif","img/card_backs/set1/red.gif","img/card_backs/set1/purple.gif","img/card_backs/set1/yellow.gif","img/card_backs/set2/orange.gif","img/card_backs/set2/pink.gif","img/card_backs/set2/blue.gif","img/card_backs/set2/gray.gif","""event"",""trial"",""time""
""fullscreenenter"",""1"",""2019""
","
","
","""event"",""trial"",""time""
""fullscreenenter"",""1"",""2019""
","
","","5403.199999988079","True or False: All the decks have some cards that cause you to win tokens and some cards that cause you to lose tokens.","84","","","2021-07-13 19:15:03.813","","","","","",""
"casino-keyboard-response","63","247208","0.0-20.1-1.1","954","false","img/card_backs/set1/green.gif","img/card_backs/set1/red.gif","img/card_backs/set1/purple.gif","img/card_backs/set1/yellow.gif","img/card_backs/set2/orange.gif","img/card_backs/set2/pink.gif","img/card_backs/set2/blue.gif","img/card_backs/set2/gray.gif","""event"",""trial"",""time""
""fullscreenenter"",""1"",""2019""
","
","
","""event"",""trial"",""time""
""fullscreenenter"",""1"",""2019""
","
","","3444.1000000089407","True is correct! All the decks have a mix of winning and losing cards.","77","","","2021-07-13 19:15:07.259","","","","","true",""
"casino-comp_q","64","249762","0.0-21.0-0.0","954","false","img/card_backs/set1/green.gif","img/card_backs/set1/red.gif","img/card_backs/set1/purple.gif","img/card_backs/set1/yellow.gif","img/card_backs/set2/orange.gif","img/card_backs/set2/pink.gif","img/card_backs/set2/blue.gif","img/card_backs/set2/gray.gif","""event"",""trial"",""time""
""fullscreenenter"",""1"",""2019""
","
","
","""event"",""trial"",""time""
""fullscreenenter"",""1"",""2019""
","
","","2553.2000000029802","True or False: You will have as much time as you want to make your response.","70","","","2021-07-13 19:15:09.813","","","","","",""
"casino-keyboard-response","65","252362","0.0-21.0-1.0","954","false","img/card_backs/set1/green.gif","img/card_backs/set1/red.gif","img/card_backs/set1/purple.gif","img/card_backs/set1/yellow.gif","img/card_backs/set2/orange.gif","img/card_backs/set2/pink.gif","img/card_backs/set2/blue.gif","img/card_backs/set2/gray.gif","""event"",""trial"",""time""
""fullscreenenter"",""1"",""2019""
","
","
","""event"",""trial"",""time""
""fullscreenenter"",""1"",""2019""
","
","","2599.0999999940395","False is correct! You will only have 10 seconds to make each choice.","75","","","2021-07-13 19:15:12.413","","","","","true",""
"casino-comp_q","66","254964","0.0-22.0-0.0","954","false","img/card_backs/set1/green.gif","img/card_backs/set1/red.gif","img/card_backs/set1/purple.gif","img/card_backs/set1/yellow.gif","img/card_backs/set2/orange.gif","img/card_backs/set2/pink.gif","img/card_backs/set2/blue.gif","img/card_backs/set2/gray.gif","""event"",""trial"",""time""
""fullscreenenter"",""1"",""2019""
","
","
","""event"",""trial"",""time""
""fullscreenenter"",""1"",""2019""
","
","","2601.1000000089407","True or False: The location of the deck determines how lucky it is.","84","","","2021-07-13 19:15:15.015","","","","","",""
"casino-keyboard-response","67","258775","0.0-22.0-1.0","954","false","img/card_backs/set1/green.gif","img/card_backs/set1/red.gif","img/card_backs/set1/purple.gif","img/card_backs/set1/yellow.gif","img/card_backs/set2/orange.gif","img/card_backs/set2/pink.gif","img/card_backs/set2/blue.gif","img/card_backs/set2/gray.gif","""event"",""trial"",""time""
""fullscreenenter"",""1"",""2019""
","
","
","""event"",""trial"",""time""
""fullscreenenter"",""1"",""2019""
","
","","3809.7000000029802","True is incorrect. The <i>color</i> of the deck determines how lucky or unlucky it is.","68","","","2021-07-13 19:15:18.826","","","","","false",""
"casino-comp_q","68","263460","0.0-22.1-0.1","954","false","img/card_backs/set1/green.gif","img/card_backs/set1/red.gif","img/card_backs/set1/purple.gif","img/card_backs/set1/yellow.gif","img/card_backs/set2/orange.gif","img/card_backs/set2/pink.gif","img/card_backs/set2/blue.gif","img/card_backs/set2/gray.gif","""event"",""trial"",""time""
""fullscreenenter"",""1"",""2019""
","
","
","""event"",""trial"",""time""
""fullscreenenter"",""1"",""2019""
","
","","4683.79999999702","True or False: The location of the deck determines how lucky it is.","70","","","2021-07-13 19:15:23.511","","","","","",""
"casino-keyboard-response","69","266134","0.0-22.1-1.1","954","false","img/card_backs/set1/green.gif","img/card_backs/set1/red.gif","img/card_backs/set1/purple.gif","img/card_backs/set1/yellow.gif","img/card_backs/set2/orange.gif","img/card_backs/set2/pink.gif","img/card_backs/set2/blue.gif","img/card_backs/set2/gray.gif","""event"",""trial"",""time""
""fullscreenenter"",""1"",""2019""
","
","
","""event"",""trial"",""time""
""fullscreenenter"",""1"",""2019""
","
","","2673.3999999910593","False is correct! The <i>color</i>  of the deck determines how lucky or unlucky it is.","68","","","2021-07-13 19:15:26.185","","","","","true",""
"casino-keyboard-response","70","271029","0.0-23.0-0.0","954","false","img/card_backs/set1/green.gif","img/card_backs/set1/red.gif","img/card_backs/set1/purple.gif","img/card_backs/set1/yellow.gif","img/card_backs/set2/orange.gif","img/card_backs/set2/pink.gif","img/card_backs/set2/blue.gif","img/card_backs/set2/gray.gif","""event"",""trial"",""time""
""fullscreenenter"",""1"",""2019""
","
","
","""event"",""trial"",""time""
""fullscreenenter"",""1"",""2019""
","
","","4894.70000000298","Great job! Now it's time to start the real game.","82","","instructions","2021-07-13 19:15:31.080","","","","","",""
"casino-keyboard-response","71","276109","0.0-23.0-0.1","954","false","img/card_backs/set1/green.gif","img/card_backs/set1/red.gif","img/card_backs/set1/purple.gif","img/card_backs/set1/yellow.gif","img/card_backs/set2/orange.gif","img/card_backs/set2/pink.gif","img/card_backs/set2/blue.gif","img/card_backs/set2/gray.gif","""event"",""trial"",""time""
""fullscreenenter"",""1"",""2019""
","
","
","""event"",""trial"",""time""
""fullscreenenter"",""1"",""2019""
","
","","5079","Before we start, we're going to head into a new room of the casino.","86","","instructions","2021-07-13 19:15:36.160","","","","","",""
"casino-keyboard-response","72","282029","0.0-24.0-0.0","954","false","img/card_backs/set1/green.gif","img/card_backs/set1/red.gif","img/card_backs/set1/purple.gif","img/card_backs/set1/yellow.gif","img/card_backs/set2/orange.gif","img/card_backs/set2/pink.gif","img/card_backs/set2/blue.gif","img/card_backs/set2/gray.gif","""event"",""trial"",""time""
""fullscreenenter"",""1"",""2019""
","
","
","""event"",""trial"",""time""
""fullscreenenter"",""1"",""2019""
","
","","5919.100000008941","Here we are! The real game will use different cards, but the rules will be the same.","71","","instructions","2021-07-13 19:15:42.080","","","","","",""
"casino-keyboard-response","73","283857","0.0-24.0-0.1","954","false","img/card_backs/set1/green.gif","img/card_backs/set1/red.gif","img/card_backs/set1/purple.gif","img/card_backs/set1/yellow.gif","img/card_backs/set2/orange.gif","img/card_backs/set2/pink.gif","img/card_backs/set2/blue.gif","img/card_backs/set2/gray.gif","""event"",""trial"",""time""
""fullscreenenter"",""1"",""2019""
","
","
","""event"",""trial"",""time""
""fullscreenenter"",""1"",""2019""
","
","","1826.800000011921","Ready? Put your fingers over the '2', '4', 6', and '8' keys so you are ready to play the game. </br> Then press 2 to start.","50","","instructions","2021-07-13 19:15:43.908","","","","","",""
"casino-fixation","74","284359","0.0-25.0-0.0","954","false","img/card_backs/set1/green.gif","img/card_backs/set1/red.gif","img/card_backs/set1/purple.gif","img/card_backs/set1/yellow.gif","img/card_backs/set2/orange.gif","img/card_backs/set2/pink.gif","img/card_backs/set2/blue.gif","img/card_backs/set2/gray.gif","""event"",""trial"",""time""
""fullscreenenter"",""1"",""2019""
","
","
","""event"",""trial"",""time""
""fullscreenenter"",""1"",""2019""
","
","","null","","null","","fixation","2021-07-13 19:15:44.410","","","","","",""
"card-selection-trial","75","287527","0.0-25.0-1.0","954","false","img/card_backs/set1/green.gif","img/card_backs/set1/red.gif","img/card_backs/set1/purple.gif","img/card_backs/set1/yellow.gif","img/card_backs/set2/orange.gif","img/card_backs/set2/pink.gif","img/card_backs/set2/blue.gif","img/card_backs/set2/gray.gif","""event"",""trial"",""time""
""fullscreenenter"",""1"",""2019""
","
","
","""event"",""trial"",""time""
""fullscreenenter"",""1"",""2019""
","
","","1160.2999999970198","","","","real_trial","2021-07-13 19:15:47.578","img/card_backs/set1/yellow.gif","0","100","1","",""
"casino-fixation","76","288028","0.0-25.0-0.1","954","false","img/card_backs/set1/green.gif","img/card_backs/set1/red.gif","img/card_backs/set1/purple.gif","img/card_backs/set1/yellow.gif","img/card_backs/set2/orange.gif","img/card_backs/set2/pink.gif","img/card_backs/set2/blue.gif","img/card_backs/set2/gray.gif","""event"",""trial"",""time""
""fullscreenenter"",""1"",""2019""
","
","
","""event"",""trial"",""time""
""fullscreenenter"",""1"",""2019""
","
","","null","","null","","fixation","2021-07-13 19:15:48.079","","","","","",""
"card-selection-trial","77","291595","0.0-25.0-1.1","954","false","img/card_backs/set1/green.gif","img/card_backs/set1/red.gif","img/card_backs/set1/purple.gif","img/card_backs/set1/yellow.gif","img/card_backs/set2/orange.gif","img/card_backs/set2/pink.gif","img/card_backs/set2/blue.gif","img/card_backs/set2/gray.gif","""event"",""trial"",""time""
""fullscreenenter"",""1"",""2019""
","
","
","""event"",""trial"",""time""
""fullscreenenter"",""1"",""2019""
","
","","1559.2999999970198","","","","real_trial","2021-07-13 19:15:51.647","img/card_backs/set1/purple.gif","0","-50","1","",""
"casino-fixation","78","292099","0.0-25.0-0.2","954","false","img/card_backs/set1/green.gif","img/card_backs/set1/red.gif","img/card_backs/set1/purple.gif","img/card_backs/set1/yellow.gif","img/card_backs/set2/orange.gif","img/card_backs/set2/pink.gif","img/card_backs/set2/blue.gif","img/card_backs/set2/gray.gif","""event"",""trial"",""time""
""fullscreenenter"",""1"",""2019""
","
","
","""event"",""trial"",""time""
""fullscreenenter"",""1"",""2019""
","
","","null","","null","","fixation","2021-07-13 19:15:52.150","","","","","",""
"card-selection-trial","79","295170","0.0-25.0-1.2","954","false","img/card_backs/set1/green.gif","img/card_backs/set1/red.gif","img/card_backs/set1/purple.gif","img/card_backs/set1/yellow.gif","img/card_backs/set2/orange.gif","img/card_backs/set2/pink.gif","img/card_backs/set2/blue.gif","img/card_backs/set2/gray.gif","""event"",""trial"",""time""
""fullscreenenter"",""1"",""2019""
","
","
","""event"",""trial"",""time""
""fullscreenenter"",""1"",""2019""
","
","","1062.5999999940395","","","","real_trial","2021-07-13 19:15:55.221","img/card_backs/set1/green.gif","0","-250","1","",""
"casino-fixation","80","295676","0.0-25.0-0.3","954","false","img/card_backs/set1/green.gif","img/card_backs/set1/red.gif","img/card_backs/set1/purple.gif","img/card_backs/set1/yellow.gif","img/card_backs/set2/orange.gif","img/card_backs/set2/pink.gif","img/card_backs/set2/blue.gif","img/card_backs/set2/gray.gif","""event"",""trial"",""time""
""fullscreenenter"",""1"",""2019""
","
","
","""event"",""trial"",""time""
""fullscreenenter"",""1"",""2019""
","
","","null","","null","","fixation","2021-07-13 19:15:55.727","","","","","",""
"card-selection-trial","81","299185","0.0-25.0-1.3","954","false","img/card_backs/set1/green.gif","img/card_backs/set1/red.gif","img/card_backs/set1/purple.gif","img/card_backs/set1/yellow.gif","img/card_backs/set2/orange.gif","img/card_backs/set2/pink.gif","img/card_backs/set2/blue.gif","img/card_backs/set2/gray.gif","""event"",""trial"",""time""
""fullscreenenter"",""1"",""2019""
","
","
","""event"",""trial"",""time""
""fullscreenenter"",""1"",""2019""
","
","","1501","","","","real_trial","2021-07-13 19:15:59.236","img/card_backs/set1/red.gif","1","-250","1","",""
"casino-fixation","82","299691","0.0-25.0-0.4","954","false","img/card_backs/set1/green.gif","img/card_backs/set1/red.gif","img/card_backs/set1/purple.gif","img/card_backs/set1/yellow.gif","img/card_backs/set2/orange.gif","img/card_backs/set2/pink.gif","img/card_backs/set2/blue.gif","img/card_backs/set2/gray.gif","""event"",""trial"",""time""
""fullscreenenter"",""1"",""2019""
","
","
","""event"",""trial"",""time""
""fullscreenenter"",""1"",""2019""
","
","","null","","null","","fixation","2021-07-13 19:15:59.742","","","","","",""
"card-selection-trial","83","302468","0.0-25.0-1.4","954","false","img/card_backs/set1/green.gif","img/card_backs/set1/red.gif","img/card_backs/set1/purple.gif","img/card_backs/set1/yellow.gif","img/card_backs/set2/orange.gif","img/card_backs/set2/pink.gif","img/card_backs/set2/blue.gif","img/card_backs/set2/gray.gif","""event"",""trial"",""time""
""fullscreenenter"",""1"",""2019""
","
","
","""event"",""trial"",""time""
""fullscreenenter"",""1"",""2019""
","
","","768.8000000119209","","","","real_trial","2021-07-13 19:16:02.519","img/card_backs/set1/yellow.gif","0","120","1","",""
"casino-fixation","84","302972","0.0-25.0-0.5","954","false","img/card_backs/set1/green.gif","img/card_backs/set1/red.gif","img/card_backs/set1/purple.gif","img/card_backs/set1/yellow.gif","img/card_backs/set2/orange.gif","img/card_backs/set2/pink.gif","img/card_backs/set2/blue.gif","img/card_backs/set2/gray.gif","""event"",""trial"",""time""
""fullscreenenter"",""1"",""2019""
","
","
","""event"",""trial"",""time""
""fullscreenenter"",""1"",""2019""
","
","","null","","null","","fixation","2021-07-13 19:16:03.023","","","","","",""
"card-selection-trial","85","305867","0.0-25.0-1.5","954","false","img/card_backs/set1/green.gif","img/card_backs/set1/red.gif","img/card_backs/set1/purple.gif","img/card_backs/set1/yellow.gif","img/card_backs/set2/orange.gif","img/card_backs/set2/pink.gif","img/card_backs/set2/blue.gif","img/card_backs/set2/gray.gif","""event"",""trial"",""time""
""fullscreenenter"",""1"",""2019""
","
","
","""event"",""trial"",""time""
""fullscreenenter"",""1"",""2019""
","
","","889.7999999970198","","","","real_trial","2021-07-13 19:16:05.918","img/card_backs/set1/yellow.gif","2","120","1","",""
"casino-fixation","86","306369","0.0-25.0-0.6","954","false","img/card_backs/set1/green.gif","img/card_backs/set1/red.gif","img/card_backs/set1/purple.gif","img/card_backs/set1/yellow.gif","img/card_backs/set2/orange.gif","img/card_backs/set2/pink.gif","img/card_backs/set2/blue.gif","img/card_backs/set2/gray.gif","""event"",""trial"",""time""
""fullscreenenter"",""1"",""2019""
","
","
","""event"",""trial"",""time""
""fullscreenenter"",""1"",""2019""
","
","","null","","null","","fixation","2021-07-13 19:16:06.420","","","","","",""
"card-selection-trial","87","309286","0.0-25.0-1.6","954","false","img/card_backs/set1/green.gif","img/card_backs/set1/red.gif","img/card_backs/set1/purple.gif","img/card_backs/set1/yellow.gif","img/card_backs/set2/orange.gif","img/card_backs/set2/pink.gif","img/card_backs/set2/blue.gif","img/card_backs/set2/gray.gif","""event"",""trial"",""time""
""fullscreenenter"",""1"",""2019""
","
","
","""event"",""trial"",""time""
""fullscreenenter"",""1"",""2019""
","
","","909.3999999910593","","","","real_trial","2021-07-13 19:16:09.337","img/card_backs/set1/yellow.gif","0","100","1","",""
"casino-fixation","88","309788","0.0-25.0-0.7","954","false","img/card_backs/set1/green.gif","img/card_backs/set1/red.gif","img/card_backs/set1/purple.gif","img/card_backs/set1/yellow.gif","img/card_backs/set2/orange.gif","img/card_backs/set2/pink.gif","img/card_backs/set2/blue.gif","img/card_backs/set2/gray.gif","""event"",""trial"",""time""
""fullscreenenter"",""1"",""2019""
","
","
","""event"",""trial"",""time""
""fullscreenenter"",""1"",""2019""
","
","","null","","null","","fixation","2021-07-13 19:16:09.839","","","","","",""
"card-selection-trial","89","312818","0.0-25.0-1.7","954","false","img/card_backs/set1/green.gif","img/card_backs/set1/red.gif","img/card_backs/set1/purple.gif","img/card_backs/set1/yellow.gif","img/card_backs/set2/orange.gif","img/card_backs/set2/pink.gif","img/card_backs/set2/blue.gif","img/card_backs/set2/gray.gif","""event"",""trial"",""time""
""fullscreenenter"",""1"",""2019""
","
","
","""event"",""trial"",""time""
""fullscreenenter"",""1"",""2019""
","
","","1021.7000000029802","","","","real_trial","2021-07-13 19:16:12.869","img/card_backs/set1/yellow.gif","2","100","1","",""
"casino-fixation","90","313320","0.0-25.0-0.8","954","false","img/card_backs/set1/green.gif","img/card_backs/set1/red.gif","img/card_backs/set1/purple.gif","img/card_backs/set1/yellow.gif","img/card_backs/set2/orange.gif","img/card_backs/set2/pink.gif","img/card_backs/set2/blue.gif","img/card_backs/set2/gray.gif","""event"",""trial"",""time""
""fullscreenenter"",""1"",""2019""
","
","
","""event"",""trial"",""time""
""fullscreenenter"",""1"",""2019""
","
","","null","","null","","fixation","2021-07-13 19:16:13.371","","","","","",""
"card-selection-trial","91","316171","0.0-25.0-1.8","954","false","img/card_backs/set1/green.gif","img/card_backs/set1/red.gif","img/card_backs/set1/purple.gif","img/card_backs/set1/yellow.gif","img/card_backs/set2/orange.gif","img/card_backs/set2/pink.gif","img/card_backs/set2/blue.gif","img/card_backs/set2/gray.gif","""event"",""trial"",""time""
""fullscreenenter"",""1"",""2019""
","
","
","""event"",""trial"",""time""
""fullscreenenter"",""1"",""2019""
","
","","845.1999999880791","","","","real_trial","2021-07-13 19:16:16.223","img/card_backs/set1/yellow.gif","2","110","1","",""
"casino-fixation","92","316676","0.0-25.0-0.9","954","false","img/card_backs/set1/green.gif","img/card_backs/set1/red.gif","img/card_backs/set1/purple.gif","img/card_backs/set1/yellow.gif","img/card_backs/set2/orange.gif","img/card_backs/set2/pink.gif","img/card_backs/set2/blue.gif","img/card_backs/set2/gray.gif","""event"",""trial"",""time""
""fullscreenenter"",""1"",""2019""
","
","
","""event"",""trial"",""time""
""fullscreenenter"",""1"",""2019""
","
","","null","","null","","fixation","2021-07-13 19:16:16.727","","","","","",""
"card-selection-trial","93","320229","0.0-25.0-1.9","954","false","img/card_backs/set1/green.gif","img/card_backs/set1/red.gif","img/card_backs/set1/purple.gif","img/card_backs/set1/yellow.gif","img/card_backs/set2/orange.gif","img/card_backs/set2/pink.gif","img/card_backs/set2/blue.gif","img/card_backs/set2/gray.gif","""event"",""trial"",""time""
""fullscreenenter"",""1"",""2019""
","
","
","""event"",""trial"",""time""
""fullscreenenter"",""1"",""2019""
","
","","1540.9000000059605","","","","real_trial","2021-07-13 19:16:20.280","img/card_backs/set1/yellow.gif","0","110","1","",""
"casino-fixation","94","320734","0.0-25.0-0.10","954","false","img/card_backs/set1/green.gif","img/card_backs/set1/red.gif","img/card_backs/set1/purple.gif","img/card_backs/set1/yellow.gif","img/card_backs/set2/orange.gif","img/card_backs/set2/pink.gif","img/card_backs/set2/blue.gif","img/card_backs/set2/gray.gif","""event"",""trial"",""time""
""fullscreenenter"",""1"",""2019""
","
","
","""event"",""trial"",""time""
""fullscreenenter"",""1"",""2019""
","
","","null","","null","","fixation","2021-07-13 19:16:20.785","","","","","",""
"card-selection-trial","95","323517","0.0-25.0-1.10","954","false","img/card_backs/set1/green.gif","img/card_backs/set1/red.gif","img/card_backs/set1/purple.gif","img/card_backs/set1/yellow.gif","img/card_backs/set2/orange.gif","img/card_backs/set2/pink.gif","img/card_backs/set2/blue.gif","img/card_backs/set2/gray.gif","""event"",""trial"",""time""
""fullscreenenter"",""1"",""2019""
","
","
","""event"",""trial"",""time""
""fullscreenenter"",""1"",""2019""
","
","","772.5999999940395","","","","real_trial","2021-07-13 19:16:23.568","img/card_backs/set1/yellow.gif","0","100","1","",""
"casino-fixation","96","324019","0.0-25.0-0.11","954","false","img/card_backs/set1/green.gif","img/card_backs/set1/red.gif","img/card_backs/set1/purple.gif","img/card_backs/set1/yellow.gif","img/card_backs/set2/orange.gif","img/card_backs/set2/pink.gif","img/card_backs/set2/blue.gif","img/card_backs/set2/gray.gif","""event"",""trial"",""time""
""fullscreenenter"",""1"",""2019""
","
","
","""event"",""trial"",""time""
""fullscreenenter"",""1"",""2019""
","
","","null","","null","","fixation","2021-07-13 19:16:24.071","","","","","",""
"card-selection-trial","97","326707","0.0-25.0-1.11","954","false","img/card_backs/set1/green.gif","img/card_backs/set1/red.gif","img/card_backs/set1/purple.gif","img/card_backs/set1/yellow.gif","img/card_backs/set2/orange.gif","img/card_backs/set2/pink.gif","img/card_backs/set2/blue.gif","img/card_backs/set2/gray.gif","""event"",""trial"",""time""
""fullscreenenter"",""1"",""2019""
","
","
","""event"",""trial"",""time""
""fullscreenenter"",""1"",""2019""
","
","","677.3999999910593","","","","real_trial","2021-07-13 19:16:26.758","img/card_backs/set1/yellow.gif","0","110","1","",""
"casino-fixation","98","327212","0.0-25.0-0.12","954","false","img/card_backs/set1/green.gif","img/card_backs/set1/red.gif","img/card_backs/set1/purple.gif","img/card_backs/set1/yellow.gif","img/card_backs/set2/orange.gif","img/card_backs/set2/pink.gif","img/card_backs/set2/blue.gif","img/card_backs/set2/gray.gif","""event"",""trial"",""time""
""fullscreenenter"",""1"",""2019""
","
","
","""event"",""trial"",""time""
""fullscreenenter"",""1"",""2019""
","
","","null","","null","","fixation","2021-07-13 19:16:27.263","","","","","",""
"card-selection-trial","99","330453","0.0-25.0-1.12","954","false","img/card_backs/set1/green.gif","img/card_backs/set1/red.gif","img/card_backs/set1/purple.gif","img/card_backs/set1/yellow.gif","img/card_backs/set2/orange.gif","img/card_backs/set2/pink.gif","img/card_backs/set2/blue.gif","img/card_backs/set2/gray.gif","""event"",""trial"",""time""
""fullscreenenter"",""1"",""2019""
","
","
","""event"",""trial"",""time""
""fullscreenenter"",""1"",""2019""
","
","","1233.7999999970198","","","","real_trial","2021-07-13 19:16:30.504","img/card_backs/set1/yellow.gif","2","-70","1","",""
"casino-fixation","100","330957","0.0-25.0-0.13","954","false","img/card_backs/set1/green.gif","img/card_backs/set1/red.gif","img/card_backs/set1/purple.gif","img/card_backs/set1/yellow.gif","img/card_backs/set2/orange.gif","img/card_backs/set2/pink.gif","img/card_backs/set2/blue.gif","img/card_backs/set2/gray.gif","""event"",""trial"",""time""
""fullscreenenter"",""1"",""2019""
","
","
","""event"",""trial"",""time""
""fullscreenenter"",""1"",""2019""
","
","","null","","null","","fixation","2021-07-13 19:16:31.008","","","","","",""
"card-selection-trial","101","333882","0.0-25.0-1.13","954","false","img/card_backs/set1/green.gif","img/card_backs/set1/red.gif","img/card_backs/set1/purple.gif","img/card_backs/set1/yellow.gif","img/card_backs/set2/orange.gif","img/card_backs/set2/pink.gif","img/card_backs/set2/blue.gif","img/card_backs/set2/gray.gif","""event"",""trial"",""time""
""fullscreenenter"",""1"",""2019""
","
","
","""event"",""trial"",""time""
""fullscreenenter"",""1"",""2019""
","
","","919.6999999880791","","","","real_trial","2021-07-13 19:16:33.934","img/card_backs/set1/purple.gif","1","110","1","",""
"casino-fixation","102","334387","0.0-25.0-0.14","954","false","img/card_backs/set1/green.gif","img/card_backs/set1/red.gif","img/card_backs/set1/purple.gif","img/card_backs/set1/yellow.gif","img/card_backs/set2/orange.gif","img/card_backs/set2/pink.gif","img/card_backs/set2/blue.gif","img/card_backs/set2/gray.gif","""event"",""trial"",""time""
""fullscreenenter"",""1"",""2019""
","
","
","""event"",""trial"",""time""
""fullscreenenter"",""1"",""2019""
","
","","null","","null","","fixation","2021-07-13 19:16:34.438","","","","","",""
"card-selection-trial","103","337156","0.0-25.0-1.14","954","false","img/card_backs/set1/green.gif","img/card_backs/set1/red.gif","img/card_backs/set1/purple.gif","img/card_backs/set1/yellow.gif","img/card_backs/set2/orange.gif","img/card_backs/set2/pink.gif","img/card_backs/set2/blue.gif","img/card_backs/set2/gray.gif","""event"",""trial"",""time""
""fullscreenenter"",""1"",""2019""
","
","
","""event"",""trial"",""time""
""fullscreenenter"",""1"",""2019""
","
","","758.5","","","","real_trial","2021-07-13 19:16:37.207","img/card_backs/set1/purple.gif","1","-50","1","",""
"casino-fixation","104","337661","0.0-25.0-0.15","954","false","img/card_backs/set1/green.gif","img/card_backs/set1/red.gif","img/card_backs/set1/purple.gif","img/card_backs/set1/yellow.gif","img/card_backs/set2/orange.gif","img/card_backs/set2/pink.gif","img/card_backs/set2/blue.gif","img/card_backs/set2/gray.gif","""event"",""trial"",""time""
""fullscreenenter"",""1"",""2019""
","
","
","""event"",""trial"",""time""
""fullscreenenter"",""1"",""2019""
","
","","null","","null","","fixation","2021-07-13 19:16:37.712","","","","","",""
"card-selection-trial","105","340669","0.0-25.0-1.15","954","false","img/card_backs/set1/green.gif","img/card_backs/set1/red.gif","img/card_backs/set1/purple.gif","img/card_backs/set1/yellow.gif","img/card_backs/set2/orange.gif","img/card_backs/set2/pink.gif","img/card_backs/set2/blue.gif","img/card_backs/set2/gray.gif","""event"",""trial"",""time""
""fullscreenenter"",""1"",""2019""
","
","
","""event"",""trial"",""time""
""fullscreenenter"",""1"",""2019""
","
","","999.4000000059605","","","","real_trial","2021-07-13 19:16:40.720","img/card_backs/set1/red.gif","2","-250","1","",""
"casino-fixation","106","341173","0.0-25.0-0.16","954","false","img/card_backs/set1/green.gif","img/card_backs/set1/red.gif","img/card_backs/set1/purple.gif","img/card_backs/set1/yellow.gif","img/card_backs/set2/orange.gif","img/card_backs/set2/pink.gif","img/card_backs/set2/blue.gif","img/card_backs/set2/gray.gif","""event"",""trial"",""time""
""fullscreenenter"",""1"",""2019""
","
","
","""event"",""trial"",""time""
""fullscreenenter"",""1"",""2019""
","
","","null","","null","","fixation","2021-07-13 19:16:41.224","","","","","",""
"card-selection-trial","107","344140","0.0-25.0-1.16","954","false","img/card_backs/set1/green.gif","img/card_backs/set1/red.gif","img/card_backs/set1/purple.gif","img/card_backs/set1/yellow.gif","img/card_backs/set2/orange.gif","img/card_backs/set2/pink.gif","img/card_backs/set2/blue.gif","img/card_backs/set2/gray.gif","""event"",""trial"",""time""
""fullscreenenter"",""1"",""2019""
","
","
","""event"",""trial"",""time""
""fullscreenenter"",""1"",""2019""
","
","","956","","","","real_trial","2021-07-13 19:16:44.191","img/card_backs/set1/green.gif","0","200","1","",""
"casino-fixation","108","344644","0.0-25.0-0.17","954","false","img/card_backs/set1/green.gif","img/card_backs/set1/red.gif","img/card_backs/set1/purple.gif","img/card_backs/set1/yellow.gif","img/card_backs/set2/orange.gif","img/card_backs/set2/pink.gif","img/card_backs/set2/blue.gif","img/card_backs/set2/gray.gif","""event"",""trial"",""time""
""fullscreenenter"",""1"",""2019""
","
","
","""event"",""trial"",""time""
""fullscreenenter"",""1"",""2019""
","
","","null","","null","","fixation","2021-07-13 19:16:44.695","","","","","",""
"card-selection-trial","109","347704","0.0-25.0-1.17","954","false","img/card_backs/set1/green.gif","img/card_backs/set1/red.gif","img/card_backs/set1/purple.gif","img/card_backs/set1/yellow.gif","img/card_backs/set2/orange.gif","img/card_backs/set2/pink.gif","img/card_backs/set2/blue.gif","img/card_backs/set2/gray.gif","""event"",""trial"",""time""
""fullscreenenter"",""1"",""2019""
","
","
","""event"",""trial"",""time""
""fullscreenenter"",""1"",""2019""
","
","","1051.8999999910593","","","","real_trial","2021-07-13 19:16:47.755","img/card_backs/set1/green.gif","3","180","1","",""
"casino-fixation","110","348210","0.0-25.0-0.18","954","false","img/card_backs/set1/green.gif","img/card_backs/set1/red.gif","img/card_backs/set1/purple.gif","img/card_backs/set1/yellow.gif","img/card_backs/set2/orange.gif","img/card_backs/set2/pink.gif","img/card_backs/set2/blue.gif","img/card_backs/set2/gray.gif","""event"",""trial"",""time""
""fullscreenenter"",""1"",""2019""
","
","
","""event"",""trial"",""time""
""fullscreenenter"",""1"",""2019""
","
","","null","","null","","fixation","2021-07-13 19:16:48.261","","","","","",""
"card-selection-trial","111","351169","0.0-25.0-1.18","954","false","img/card_backs/set1/green.gif","img/card_backs/set1/red.gif","img/card_backs/set1/purple.gif","img/card_backs/set1/yellow.gif","img/card_backs/set2/orange.gif","img/card_backs/set2/pink.gif","img/card_backs/set2/blue.gif","img/card_backs/set2/gray.gif","""event"",""trial"",""time""
""fullscreenenter"",""1"",""2019""
","
","
","""event"",""trial"",""time""
""fullscreenenter"",""1"",""2019""
","
","","950.2999999970198","","","","real_trial","2021-07-13 19:16:51.220","img/card_backs/set1/green.gif","0","-240","1","",""
"casino-fixation","112","351674","0.0-25.0-0.19","954","false","img/card_backs/set1/green.gif","img/card_backs/set1/red.gif","img/card_backs/set1/purple.gif","img/card_backs/set1/yellow.gif","img/card_backs/set2/orange.gif","img/card_backs/set2/pink.gif","img/card_backs/set2/blue.gif","img/card_backs/set2/gray.gif","""event"",""trial"",""time""
""fullscreenenter"",""1"",""2019""
","
","
","""event"",""trial"",""time""
""fullscreenenter"",""1"",""2019""
","
","","null","","null","","fixation","2021-07-13 19:16:51.726","","","","","",""
"card-selection-trial","113","355384","0.0-25.0-1.19","954","false","img/card_backs/set1/green.gif","img/card_backs/set1/red.gif","img/card_backs/set1/purple.gif","img/card_backs/set1/yellow.gif","img/card_backs/set2/orange.gif","img/card_backs/set2/pink.gif","img/card_backs/set2/blue.gif","img/card_backs/set2/gray.gif","""event"",""trial"",""time""
""fullscreenenter"",""1"",""2019""
","
","
","""event"",""trial"",""time""
""fullscreenenter"",""1"",""2019""
","
","","1700.6000000089407","","","","real_trial","2021-07-13 19:16:55.435","img/card_backs/set1/yellow.gif","3","-70","1","",""
"casino-fixation","114","355889","0.0-25.0-0.20","954","false","img/card_backs/set1/green.gif","img/card_backs/set1/red.gif","img/card_backs/set1/purple.gif","img/card_backs/set1/yellow.gif","img/card_backs/set2/orange.gif","img/card_backs/set2/pink.gif","img/card_backs/set2/blue.gif","img/card_backs/set2/gray.gif","""event"",""trial"",""time""
""fullscreenenter"",""1"",""2019""
","
","
","""event"",""trial"",""time""
""fullscreenenter"",""1"",""2019""
","
","","null","","null","","fixation","2021-07-13 19:16:55.940","","","","","",""
"card-selection-trial","115","359372","0.0-25.0-1.20","954","false","img/card_backs/set1/green.gif","img/card_backs/set1/red.gif","img/card_backs/set1/purple.gif","img/card_backs/set1/yellow.gif","img/card_backs/set2/orange.gif","img/card_backs/set2/pink.gif","img/card_backs/set2/blue.gif","img/card_backs/set2/gray.gif","""event"",""trial"",""time""
""fullscreenenter"",""1"",""2019""
","
","
","""event"",""trial"",""time""
""fullscreenenter"",""1"",""2019""
","
","","1472.9000000059605","","","","real_trial","2021-07-13 19:16:59.423","img/card_backs/set1/red.gif","0","-250","1","",""
"casino-fixation","116","359877","0.0-25.0-0.21","954","false","img/card_backs/set1/green.gif","img/card_backs/set1/red.gif","img/card_backs/set1/purple.gif","img/card_backs/set1/yellow.gif","img/card_backs/set2/orange.gif","img/card_backs/set2/pink.gif","img/card_backs/set2/blue.gif","img/card_backs/set2/gray.gif","""event"",""trial"",""time""
""fullscreenenter"",""1"",""2019""
","
","
","""event"",""trial"",""time""
""fullscreenenter"",""1"",""2019""
","
","","null","","null","","fixation","2021-07-13 19:16:59.928","","","","","",""
"card-selection-trial","117","363685","0.0-25.0-1.21","954","false","img/card_backs/set1/green.gif","img/card_backs/set1/red.gif","img/card_backs/set1/purple.gif","img/card_backs/set1/yellow.gif","img/card_backs/set2/orange.gif","img/card_backs/set2/pink.gif","img/card_backs/set2/blue.gif","img/card_backs/set2/gray.gif","""event"",""trial"",""time""
""fullscreenenter"",""1"",""2019""
","
","
","""event"",""trial"",""time""
""fullscreenenter"",""1"",""2019""
","
","","1798.5","","","","real_trial","2021-07-13 19:17:03.736","img/card_backs/set1/green.gif","2","-230","1","",""
"casino-fixation","118","364190","0.0-25.0-0.22","954","false","img/card_backs/set1/green.gif","img/card_backs/set1/red.gif","img/card_backs/set1/purple.gif","img/card_backs/set1/yellow.gif","img/card_backs/set2/orange.gif","img/card_backs/set2/pink.gif","img/card_backs/set2/blue.gif","img/card_backs/set2/gray.gif","""event"",""trial"",""time""
""fullscreenenter"",""1"",""2019""
","
","
","""event"",""trial"",""time""
""fullscreenenter"",""1"",""2019""
","
","","null","","null","","fixation","2021-07-13 19:17:04.241","","","","","",""
"card-selection-trial","119","367087","0.0-25.0-1.22","954","false","img/card_backs/set1/green.gif","img/card_backs/set1/red.gif","img/card_backs/set1/purple.gif","img/card_backs/set1/yellow.gif","img/card_backs/set2/orange.gif","img/card_backs/set2/pink.gif","img/card_backs/set2/blue.gif","img/card_backs/set2/gray.gif","""event"",""trial"",""time""
""fullscreenenter"",""1"",""2019""
","
","
","""event"",""trial"",""time""
""fullscreenenter"",""1"",""2019""
","
","","886.7000000029802","","","","real_trial","2021-07-13 19:17:07.138","img/card_backs/set1/purple.gif","1","-50","1","",""
"casino-fixation","120","367592","0.0-25.0-0.23","954","false","img/card_backs/set1/green.gif","img/card_backs/set1/red.gif","img/card_backs/set1/purple.gif","img/card_backs/set1/yellow.gif","img/card_backs/set2/orange.gif","img/card_backs/set2/pink.gif","img/card_backs/set2/blue.gif","img/card_backs/set2/gray.gif","""event"",""trial"",""time""
""fullscreenenter"",""1"",""2019""
","
","
","""event"",""trial"",""time""
""fullscreenenter"",""1"",""2019""
","
","","null","","null","","fixation","2021-07-13 19:17:07.643","","","","","",""
"card-selection-trial","121","370669","0.0-25.0-1.23","954","false","img/card_backs/set1/green.gif","img/card_backs/set1/red.gif","img/card_backs/set1/purple.gif","img/card_backs/set1/yellow.gif","img/card_backs/set2/orange.gif","img/card_backs/set2/pink.gif","img/card_backs/set2/blue.gif","img/card_backs/set2/gray.gif","""event"",""trial"",""time""
""fullscreenenter"",""1"",""2019""
","
","
","""event"",""trial"",""time""
""fullscreenenter"",""1"",""2019""
","
","","1069","","","","real_trial","2021-07-13 19:17:10.720","img/card_backs/set1/yellow.gif","0","120","1","",""
"casino-fixation","122","371173","0.0-25.0-0.24","954","false","img/card_backs/set1/green.gif","img/card_backs/set1/red.gif","img/card_backs/set1/purple.gif","img/card_backs/set1/yellow.gif","img/card_backs/set2/orange.gif","img/card_backs/set2/pink.gif","img/card_backs/set2/blue.gif","img/card_backs/set2/gray.gif","""event"",""trial"",""time""
""fullscreenenter"",""1"",""2019""
","
","
","""event"",""trial"",""time""
""fullscreenenter"",""1"",""2019""
","
","","null","","null","","fixation","2021-07-13 19:17:11.225","","","","","",""
"card-selection-trial","123","374221","0.0-25.0-1.24","954","false","img/card_backs/set1/green.gif","img/card_backs/set1/red.gif","img/card_backs/set1/purple.gif","img/card_backs/set1/yellow.gif","img/card_backs/set2/orange.gif","img/card_backs/set2/pink.gif","img/card_backs/set2/blue.gif","img/card_backs/set2/gray.gif","""event"",""trial"",""time""
""fullscreenenter"",""1"",""2019""
","
","
","""event"",""trial"",""time""
""fullscreenenter"",""1"",""2019""
","
","","1039.7999999970198","","","","real_trial","2021-07-13 19:17:14.273","img/card_backs/set1/yellow.gif","1","110","1","",""
"casino-fixation","124","374726","0.0-25.0-0.25","954","false","img/card_backs/set1/green.gif","img/card_backs/set1/red.gif","img/card_backs/set1/purple.gif","img/card_backs/set1/yellow.gif","img/card_backs/set2/orange.gif","img/card_backs/set2/pink.gif","img/card_backs/set2/blue.gif","img/card_backs/set2/gray.gif","""event"",""trial"",""time""
""fullscreenenter"",""1"",""2019""
","
","
","""event"",""trial"",""time""
""fullscreenenter"",""1"",""2019""
","
","","null","","null","","fixation","2021-07-13 19:17:14.777","","","","","",""
"card-selection-trial","125","377599","0.0-25.0-1.25","954","false","img/card_backs/set1/green.gif","img/card_backs/set1/red.gif","img/card_backs/set1/purple.gif","img/card_backs/set1/yellow.gif","img/card_backs/set2/orange.gif","img/card_backs/set2/pink.gif","img/card_backs/set2/blue.gif","img/card_backs/set2/gray.gif","""event"",""trial"",""time""
""fullscreenenter"",""1"",""2019""
","
","
","""event"",""trial"",""time""
""fullscreenenter"",""1"",""2019""
","
","","865.3999999910593","","","","real_trial","2021-07-13 19:17:17.650","img/card_backs/set1/yellow.gif","3","120","1","",""
"casino-fixation","126","378105","0.0-25.0-0.26","954","false","img/card_backs/set1/green.gif","img/card_backs/set1/red.gif","img/card_backs/set1/purple.gif","img/card_backs/set1/yellow.gif","img/card_backs/set2/orange.gif","img/card_backs/set2/pink.gif","img/card_backs/set2/blue.gif","img/card_backs/set2/gray.gif","""event"",""trial"",""time""
""fullscreenenter"",""1"",""2019""
","
","
","""event"",""trial"",""time""
""fullscreenenter"",""1"",""2019""
","
","","null","","null","","fixation","2021-07-13 19:17:18.156","","","","","",""
"card-selection-trial","127","380967","0.0-25.0-1.26","954","false","img/card_backs/set1/green.gif","img/card_backs/set1/red.gif","img/card_backs/set1/purple.gif","img/card_backs/set1/yellow.gif","img/card_backs/set2/orange.gif","img/card_backs/set2/pink.gif","img/card_backs/set2/blue.gif","img/card_backs/set2/gray.gif","""event"",""trial"",""time""
""fullscreenenter"",""1"",""2019""
","
","
","""event"",""trial"",""time""
""fullscreenenter"",""1"",""2019""
","
","","853.7000000029802","","","","real_trial","2021-07-13 19:17:21.018","img/card_backs/set1/green.gif","2","180","1","",""
"casino-fixation","128","381472","0.0-25.0-0.27","954","false","img/card_backs/set1/green.gif","img/card_backs/set1/red.gif","img/card_backs/set1/purple.gif","img/card_backs/set1/yellow.gif","img/card_backs/set2/orange.gif","img/card_backs/set2/pink.gif","img/card_backs/set2/blue.gif","img/card_backs/set2/gray.gif","""event"",""trial"",""time""
""fullscreenenter"",""1"",""2019""
","
","
","""event"",""trial"",""time""
""fullscreenenter"",""1"",""2019""
","
","","null","","null","","fixation","2021-07-13 19:17:21.523","","","","","",""
"card-selection-trial","129","384415","0.0-25.0-1.27","954","false","img/card_backs/set1/green.gif","img/card_backs/set1/red.gif","img/card_backs/set1/purple.gif","img/card_backs/set1/yellow.gif","img/card_backs/set2/orange.gif","img/card_backs/set2/pink.gif","img/card_backs/set2/blue.gif","img/card_backs/set2/gray.gif","""event"",""trial"",""time""
""fullscreenenter"",""1"",""2019""
","
","
","""event"",""trial"",""time""
""fullscreenenter"",""1"",""2019""
","
","","936.5","","","","real_trial","2021-07-13 19:17:24.466","img/card_backs/set1/yellow.gif","2","-70","1","",""
"casino-fixation","130","384919","0.0-25.0-0.28","954","false","img/card_backs/set1/green.gif","img/card_backs/set1/red.gif","img/card_backs/set1/purple.gif","img/card_backs/set1/yellow.gif","img/card_backs/set2/orange.gif","img/card_backs/set2/pink.gif","img/card_backs/set2/blue.gif","img/card_backs/set2/gray.gif","""event"",""trial"",""time""
""fullscreenenter"",""1"",""2019""
","
","
","""event"",""trial"",""time""
""fullscreenenter"",""1"",""2019""
","
","","null","","null","","fixation","2021-07-13 19:17:24.971","","","","","",""
"card-selection-trial","131","387619","0.0-25.0-1.28","954","false","img/card_backs/set1/green.gif","img/card_backs/set1/red.gif","img/card_backs/set1/purple.gif","img/card_backs/set1/yellow.gif","img/card_backs/set2/orange.gif","img/card_backs/set2/pink.gif","img/card_backs/set2/blue.gif","img/card_backs/set2/gray.gif","""event"",""trial"",""time""
""fullscreenenter"",""1"",""2019""
","
","
","""event"",""trial"",""time""
""fullscreenenter"",""1"",""2019""
","
","","691.0999999940395","","","","real_trial","2021-07-13 19:17:27.670","img/card_backs/set1/green.gif","2","200","1","",""
"casino-fixation","132","388124","0.0-25.0-0.29","954","false","img/card_backs/set1/green.gif","img/card_backs/set1/red.gif","img/card_backs/set1/purple.gif","img/card_backs/set1/yellow.gif","img/card_backs/set2/orange.gif","img/card_backs/set2/pink.gif","img/card_backs/set2/blue.gif","img/card_backs/set2/gray.gif","""event"",""trial"",""time""
""fullscreenenter"",""1"",""2019""
","
","
","""event"",""trial"",""time""
""fullscreenenter"",""1"",""2019""
","
","","null","","null","","fixation","2021-07-13 19:17:28.175","","","","","",""
"card-selection-trial","133","391050","0.0-25.0-1.29","954","false","img/card_backs/set1/green.gif","img/card_backs/set1/red.gif","img/card_backs/set1/purple.gif","img/card_backs/set1/yellow.gif","img/card_backs/set2/orange.gif","img/card_backs/set2/pink.gif","img/card_backs/set2/blue.gif","img/card_backs/set2/gray.gif","""event"",""trial"",""time""
""fullscreenenter"",""1"",""2019""
","
","
","""event"",""trial"",""time""
""fullscreenenter"",""1"",""2019""
","
","","915.3000000119209","","","","real_trial","2021-07-13 19:17:31.101","img/card_backs/set1/green.gif","0","-230","1","",""
"casino-fixation","134","391555","0.0-25.0-0.30","954","false","img/card_backs/set1/green.gif","img/card_backs/set1/red.gif","img/card_backs/set1/purple.gif","img/card_backs/set1/yellow.gif","img/card_backs/set2/orange.gif","img/card_backs/set2/pink.gif","img/card_backs/set2/blue.gif","img/card_backs/set2/gray.gif","""event"",""trial"",""time""
""fullscreenenter"",""1"",""2019""
","
","
","""event"",""trial"",""time""
""fullscreenenter"",""1"",""2019""
","
","","null","","null","","fixation","2021-07-13 19:17:31.606","","","","","",""
"card-selection-trial","135","394788","0.0-25.0-1.30","954","false","img/card_backs/set1/green.gif","img/card_backs/set1/red.gif","img/card_backs/set1/purple.gif","img/card_backs/set1/yellow.gif","img/card_backs/set2/orange.gif","img/card_backs/set2/pink.gif","img/card_backs/set2/blue.gif","img/card_backs/set2/gray.gif","""event"",""trial"",""time""
""fullscreenenter"",""1"",""2019""
","
","
","""event"",""trial"",""time""
""fullscreenenter"",""1"",""2019""
","
","","1222.7000000029802","","","","real_trial","2021-07-13 19:17:34.839","img/card_backs/set1/purple.gif","0","110","1","",""
"casino-fixation","136","395293","0.0-25.0-0.31","954","false","img/card_backs/set1/green.gif","img/card_backs/set1/red.gif","img/card_backs/set1/purple.gif","img/card_backs/set1/yellow.gif","img/card_backs/set2/orange.gif","img/card_backs/set2/pink.gif","img/card_backs/set2/blue.gif","img/card_backs/set2/gray.gif","""event"",""trial"",""time""
""fullscreenenter"",""1"",""2019""
","
","
","""event"",""trial"",""time""
""fullscreenenter"",""1"",""2019""
","
","","null","","null","","fixation","2021-07-13 19:17:35.344","","","","","",""
"card-selection-trial","137","398411","0.0-25.0-1.31","954","false","img/card_backs/set1/green.gif","img/card_backs/set1/red.gif","img/card_backs/set1/purple.gif","img/card_backs/set1/yellow.gif","img/card_backs/set2/orange.gif","img/card_backs/set2/pink.gif","img/card_backs/set2/blue.gif","img/card_backs/set2/gray.gif","""event"",""trial"",""time""
""fullscreenenter"",""1"",""2019""
","
","
","""event"",""trial"",""time""
""fullscreenenter"",""1"",""2019""
","
","","1109.7000000029802","","","","real_trial","2021-07-13 19:17:38.462","img/card_backs/set1/green.gif","3","-250","1","",""
"casino-fixation","138","398916","0.0-25.0-0.32","954","false","img/card_backs/set1/green.gif","img/card_backs/set1/red.gif","img/card_backs/set1/purple.gif","img/card_backs/set1/yellow.gif","img/card_backs/set2/orange.gif","img/card_backs/set2/pink.gif","img/card_backs/set2/blue.gif","img/card_backs/set2/gray.gif","""event"",""trial"",""time""
""fullscreenenter"",""1"",""2019""
","
","
","""event"",""trial"",""time""
""fullscreenenter"",""1"",""2019""
","
","","null","","null","","fixation","2021-07-13 19:17:38.967","","","","","",""
"card-selection-trial","139","401185","0.0-25.0-1.32","954","false","img/card_backs/set1/green.gif","img/card_backs/set1/red.gif","img/card_backs/set1/purple.gif","img/card_backs/set1/yellow.gif","img/card_backs/set2/orange.gif","img/card_backs/set2/pink.gif","img/card_backs/set2/blue.gif","img/card_backs/set2/gray.gif","""event"",""trial"",""time""
""fullscreenenter"",""1"",""2019""
","
","
","""event"",""trial"",""time""
""fullscreenenter"",""1"",""2019""
","
","","260.40000000596046","","","","real_trial","2021-07-13 19:17:41.236","img/card_backs/set1/purple.gif","2","-50","1","",""
"casino-fixation","140","401690","0.0-25.0-0.33","954","false","img/card_backs/set1/green.gif","img/card_backs/set1/red.gif","img/card_backs/set1/purple.gif","img/card_backs/set1/yellow.gif","img/card_backs/set2/orange.gif","img/card_backs/set2/pink.gif","img/card_backs/set2/blue.gif","img/card_backs/set2/gray.gif","""event"",""trial"",""time""
""fullscreenenter"",""1"",""2019""
","
","
","""event"",""trial"",""time""
""fullscreenenter"",""1"",""2019""
","
","","null","","null","","fixation","2021-07-13 19:17:41.741","","","","","",""
"card-selection-trial","141","404071","0.0-25.0-1.33","954","false","img/card_backs/set1/green.gif","img/card_backs/set1/red.gif","img/card_backs/set1/purple.gif","img/card_backs/set1/yellow.gif","img/card_backs/set2/orange.gif","img/card_backs/set2/pink.gif","img/card_backs/set2/blue.gif","img/card_backs/set2/gray.gif","""event"",""trial"",""time""
""fullscreenenter"",""1"",""2019""
","
","
","""event"",""trial"",""time""
""fullscreenenter"",""1"",""2019""
","
","","370.79999999701977","","","","real_trial","2021-07-13 19:17:44.122","img/card_backs/set1/purple.gif","1","100","1","",""
"casino-fixation","142","404575","0.0-25.0-0.34","954","false","img/card_backs/set1/green.gif","img/card_backs/set1/red.gif","img/card_backs/set1/purple.gif","img/card_backs/set1/yellow.gif","img/card_backs/set2/orange.gif","img/card_backs/set2/pink.gif","img/card_backs/set2/blue.gif","img/card_backs/set2/gray.gif","""event"",""trial"",""time""
""fullscreenenter"",""1"",""2019""
","
","
","""event"",""trial"",""time""
""fullscreenenter"",""1"",""2019""
","
","","null","","null","","fixation","2021-07-13 19:17:44.626","","","","","",""
"card-selection-trial","143","406892","0.0-25.0-1.34","954","false","img/card_backs/set1/green.gif","img/card_backs/set1/red.gif","img/card_backs/set1/purple.gif","img/card_backs/set1/yellow.gif","img/card_backs/set2/orange.gif","img/card_backs/set2/pink.gif","img/card_backs/set2/blue.gif","img/card_backs/set2/gray.gif","""event"",""trial"",""time""
""fullscreenenter"",""1"",""2019""
","
","
","""event"",""trial"",""time""
""fullscreenenter"",""1"",""2019""
","
","","309.59999999403954","","","","real_trial","2021-07-13 19:17:46.943","img/card_backs/set1/yellow.gif","1","-60","1","",""
"casino-fixation","144","407397","0.0-25.0-0.35","954","false","img/card_backs/set1/green.gif","img/card_backs/set1/red.gif","img/card_backs/set1/purple.gif","img/card_backs/set1/yellow.gif","img/card_backs/set2/orange.gif","img/card_backs/set2/pink.gif","img/card_backs/set2/blue.gif","img/card_backs/set2/gray.gif","""event"",""trial"",""time""
""fullscreenenter"",""1"",""2019""
","
","
","""event"",""trial"",""time""
""fullscreenenter"",""1"",""2019""
","
","","null","","null","","fixation","2021-07-13 19:17:47.448","","","","","",""
"card-selection-trial","145","409678","0.0-25.0-1.35","954","false","img/card_backs/set1/green.gif","img/card_backs/set1/red.gif","img/card_backs/set1/purple.gif","img/card_backs/set1/yellow.gif","img/card_backs/set2/orange.gif","img/card_backs/set2/pink.gif","img/card_backs/set2/blue.gif","img/card_backs/set2/gray.gif","""event"",""trial"",""time""
""fullscreenenter"",""1"",""2019""
","
","
","""event"",""trial"",""time""
""fullscreenenter"",""1"",""2019""
","
","","271.29999999701977","","","","real_trial","2021-07-13 19:17:49.729","img/card_backs/set1/red.gif","3","190","1","",""
"casino-fixation","146","410183","0.0-25.0-0.36","954","false","img/card_backs/set1/green.gif","img/card_backs/set1/red.gif","img/card_backs/set1/purple.gif","img/card_backs/set1/yellow.gif","img/card_backs/set2/orange.gif","img/card_backs/set2/pink.gif","img/card_backs/set2/blue.gif","img/card_backs/set2/gray.gif","""event"",""trial"",""time""
""fullscreenenter"",""1"",""2019""
","
","
","""event"",""trial"",""time""
""fullscreenenter"",""1"",""2019""
","
","","null","","null","","fixation","2021-07-13 19:17:50.234","","","","","",""
"card-selection-trial","147","412972","0.0-25.0-1.36","954","false","img/card_backs/set1/green.gif","img/card_backs/set1/red.gif","img/card_backs/set1/purple.gif","img/card_backs/set1/yellow.gif","img/card_backs/set2/orange.gif","img/card_backs/set2/pink.gif","img/card_backs/set2/blue.gif","img/card_backs/set2/gray.gif","""event"",""trial"",""time""
""fullscreenenter"",""1"",""2019""
","
","
","""event"",""trial"",""time""
""fullscreenenter"",""1"",""2019""
","
","","780.2000000029802","","","","real_trial","2021-07-13 19:17:53.023","img/card_backs/set1/red.gif","1","190","1","",""
"casino-fixation","148","413475","0.0-25.0-0.37","954","false","img/card_backs/set1/green.gif","img/card_backs/set1/red.gif","img/card_backs/set1/purple.gif","img/card_backs/set1/yellow.gif","img/card_backs/set2/orange.gif","img/card_backs/set2/pink.gif","img/card_backs/set2/blue.gif","img/card_backs/set2/gray.gif","""event"",""trial"",""time""
""fullscreenenter"",""1"",""2019""
","
","
","""event"",""trial"",""time""
""fullscreenenter"",""1"",""2019""
","
","","null","","null","","fixation","2021-07-13 19:17:53.526","","","","","",""
"card-selection-trial","149","416267","0.0-25.0-1.37","954","false","img/card_backs/set1/green.gif","img/card_backs/set1/red.gif","img/card_backs/set1/purple.gif","img/card_backs/set1/yellow.gif","img/card_backs/set2/orange.gif","img/card_backs/set2/pink.gif","img/card_backs/set2/blue.gif","img/card_backs/set2/gray.gif","""event"",""trial"",""time""
""fullscreenenter"",""1"",""2019""
","
","
","""event"",""trial"",""time""
""fullscreenenter"",""1"",""2019""
","
","","785.7000000029802","","","","real_trial","2021-07-13 19:17:56.318","img/card_backs/set1/red.gif","2","200","1","",""
"casino-fixation","150","416772","0.0-25.0-0.38","954","false","img/card_backs/set1/green.gif","img/card_backs/set1/red.gif","img/card_backs/set1/purple.gif","img/card_backs/set1/yellow.gif","img/card_backs/set2/orange.gif","img/card_backs/set2/pink.gif","img/card_backs/set2/blue.gif","img/card_backs/set2/gray.gif","""event"",""trial"",""time""
""fullscreenenter"",""1"",""2019""
","
","
","""event"",""trial"",""time""
""fullscreenenter"",""1"",""2019""
","
","","null","","null","","fixation","2021-07-13 19:17:56.823","","","","","",""
"card-selection-trial","151","419607","0.0-25.0-1.38","954","false","img/card_backs/set1/green.gif","img/card_backs/set1/red.gif","img/card_backs/set1/purple.gif","img/card_backs/set1/yellow.gif","img/card_backs/set2/orange.gif","img/card_backs/set2/pink.gif","img/card_backs/set2/blue.gif","img/card_backs/set2/gray.gif","""event"",""trial"",""time""
""fullscreenenter"",""1"",""2019""
","
","
","""event"",""trial"",""time""
""fullscreenenter"",""1"",""2019""
","
","","829.1000000089407","","","","real_trial","2021-07-13 19:17:59.659","img/card_backs/set1/red.gif","3","200","1","",""
"casino-fixation","152","420110","0.0-25.0-0.39","954","false","img/card_backs/set1/green.gif","img/card_backs/set1/red.gif","img/card_backs/set1/purple.gif","img/card_backs/set1/yellow.gif","img/card_backs/set2/orange.gif","img/card_backs/set2/pink.gif","img/card_backs/set2/blue.gif","img/card_backs/set2/gray.gif","""event"",""trial"",""time""
""fullscreenenter"",""1"",""2019""
","
","
","""event"",""trial"",""time""
""fullscreenenter"",""1"",""2019""
","
","","null","","null","","fixation","2021-07-13 19:18:00.161","","","","","",""
"card-selection-trial","153","422897","0.0-25.0-1.39","954","false","img/card_backs/set1/green.gif","img/card_backs/set1/red.gif","img/card_backs/set1/purple.gif","img/card_backs/set1/yellow.gif","img/card_backs/set2/orange.gif","img/card_backs/set2/pink.gif","img/card_backs/set2/blue.gif","img/card_backs/set2/gray.gif","""event"",""trial"",""time""
""fullscreenenter"",""1"",""2019""
","
","
","""event"",""trial"",""time""
""fullscreenenter"",""1"",""2019""
","
","","778.3000000119209","","","","real_trial","2021-07-13 19:18:02.948","img/card_backs/set1/red.gif","2","180","1","",""
"casino-fixation","154","423401","0.0-25.0-0.40","954","false","img/card_backs/set1/green.gif","img/card_backs/set1/red.gif","img/card_backs/set1/purple.gif","img/card_backs/set1/yellow.gif","img/card_backs/set2/orange.gif","img/card_backs/set2/pink.gif","img/card_backs/set2/blue.gif","img/card_backs/set2/gray.gif","""event"",""trial"",""time""
""fullscreenenter"",""1"",""2019""
","
","
","""event"",""trial"",""time""
""fullscreenenter"",""1"",""2019""
","
","","null","","null","","fixation","2021-07-13 19:18:03.452","","","","","",""
"card-selection-trial","155","426585","0.0-25.0-1.40","954","false","img/card_backs/set1/green.gif","img/card_backs/set1/red.gif","img/card_backs/set1/purple.gif","img/card_backs/set1/yellow.gif","img/card_backs/set2/orange.gif","img/card_backs/set2/pink.gif","img/card_backs/set2/blue.gif","img/card_backs/set2/gray.gif","""event"",""trial"",""time""
""fullscreenenter"",""1"",""2019""
","
","
","""event"",""trial"",""time""
""fullscreenenter"",""1"",""2019""
","
","","1174.7999999970198","","","","real_trial","2021-07-13 19:18:06.636","img/card_backs/set1/red.gif","0","190","1","",""
"casino-fixation","156","427089","0.0-25.0-0.41","954","false","img/card_backs/set1/green.gif","img/card_backs/set1/red.gif","img/card_backs/set1/purple.gif","img/card_backs/set1/yellow.gif","img/card_backs/set2/orange.gif","img/card_backs/set2/pink.gif","img/card_backs/set2/blue.gif","img/card_backs/set2/gray.gif","""event"",""trial"",""time""
""fullscreenenter"",""1"",""2019""
","
","
","""event"",""trial"",""time""
""fullscreenenter"",""1"",""2019""
","
","","null","","null","","fixation","2021-07-13 19:18:07.140","","","","","",""
"card-selection-trial","157","430071","0.0-25.0-1.41","954","false","img/card_backs/set1/green.gif","img/card_backs/set1/red.gif","img/card_backs/set1/purple.gif","img/card_backs/set1/yellow.gif","img/card_backs/set2/orange.gif","img/card_backs/set2/pink.gif","img/card_backs/set2/blue.gif","img/card_backs/set2/gray.gif","""event"",""trial"",""time""
""fullscreenenter"",""1"",""2019""
","
","
","""event"",""trial"",""time""
""fullscreenenter"",""1"",""2019""
","
","","970.5999999940395","","","","real_trial","2021-07-13 19:18:10.122","img/card_backs/set1/red.gif","2","180","1","",""
"casino-fixation","158","430576","0.0-25.0-0.42","954","false","img/card_backs/set1/green.gif","img/card_backs/set1/red.gif","img/card_backs/set1/purple.gif","img/card_backs/set1/yellow.gif","img/card_backs/set2/orange.gif","img/card_backs/set2/pink.gif","img/card_backs/set2/blue.gif","img/card_backs/set2/gray.gif","""event"",""trial"",""time""
""fullscreenenter"",""1"",""2019""
","
","
","""event"",""trial"",""time""
""fullscreenenter"",""1"",""2019""
","
","","null","","null","","fixation","2021-07-13 19:18:10.627","","","","","",""
"card-selection-trial","159","433374","0.0-25.0-1.42","954","false","img/card_backs/set1/green.gif","img/card_backs/set1/red.gif","img/card_backs/set1/purple.gif","img/card_backs/set1/yellow.gif","img/card_backs/set2/orange.gif","img/card_backs/set2/pink.gif","img/card_backs/set2/blue.gif","img/card_backs/set2/gray.gif","""event"",""trial"",""time""
""fullscreenenter"",""1"",""2019""
","
","
","""event"",""trial"",""time""
""fullscreenenter"",""1"",""2019""
","
","","787.5999999940395","","","","real_trial","2021-07-13 19:18:13.425","img/card_backs/set1/red.gif","1","180","1","",""
"casino-fixation","160","433879","0.0-25.0-0.43","954","false","img/card_backs/set1/green.gif","img/card_backs/set1/red.gif","img/card_backs/set1/purple.gif","img/card_backs/set1/yellow.gif","img/card_backs/set2/orange.gif","img/card_backs/set2/pink.gif","img/card_backs/set2/blue.gif","img/card_backs/set2/gray.gif","""event"",""trial"",""time""
""fullscreenenter"",""1"",""2019""
","
","
","""event"",""trial"",""time""
""fullscreenenter"",""1"",""2019""
","
","","null","","null","","fixation","2021-07-13 19:18:13.930","","","","","",""
"card-selection-trial","161","436649","0.0-25.0-1.43","954","false","img/card_backs/set1/green.gif","img/card_backs/set1/red.gif","img/card_backs/set1/purple.gif","img/card_backs/set1/yellow.gif","img/card_backs/set2/orange.gif","img/card_backs/set2/pink.gif","img/card_backs/set2/blue.gif","img/card_backs/set2/gray.gif","""event"",""trial"",""time""
""fullscreenenter"",""1"",""2019""
","
","
","""event"",""trial"",""time""
""fullscreenenter"",""1"",""2019""
","
","","760.5","","","","real_trial","2021-07-13 19:18:16.701","img/card_backs/set1/red.gif","1","200","1","",""
"casino-fixation","162","437153","0.0-25.0-0.44","954","false","img/card_backs/set1/green.gif","img/card_backs/set1/red.gif","img/card_backs/set1/purple.gif","img/card_backs/set1/yellow.gif","img/card_backs/set2/orange.gif","img/card_backs/set2/pink.gif","img/card_backs/set2/blue.gif","img/card_backs/set2/gray.gif","""event"",""trial"",""time""
""fullscreenenter"",""1"",""2019""
","
","
","""event"",""trial"",""time""
""fullscreenenter"",""1"",""2019""
","
","","null","","null","","fixation","2021-07-13 19:18:17.204","","","","","",""
"card-selection-trial","163","440172","0.0-25.0-1.44","954","false","img/card_backs/set1/green.gif","img/card_backs/set1/red.gif","img/card_backs/set1/purple.gif","img/card_backs/set1/yellow.gif","img/card_backs/set2/orange.gif","img/card_backs/set2/pink.gif","img/card_backs/set2/blue.gif","img/card_backs/set2/gray.gif","""event"",""trial"",""time""
""fullscreenenter"",""1"",""2019""
","
","
","""event"",""trial"",""time""
""fullscreenenter"",""1"",""2019""
","
","","1008.7000000029802","","","","real_trial","2021-07-13 19:18:20.223","img/card_backs/set1/red.gif","2","180","1","",""
"casino-fixation","164","440676","0.0-25.0-0.45","954","false","img/card_backs/set1/green.gif","img/card_backs/set1/red.gif","img/card_backs/set1/purple.gif","img/card_backs/set1/yellow.gif","img/card_backs/set2/orange.gif","img/card_backs/set2/pink.gif","img/card_backs/set2/blue.gif","img/card_backs/set2/gray.gif","""event"",""trial"",""time""
""fullscreenenter"",""1"",""2019""
","
","
","""event"",""trial"",""time""
""fullscreenenter"",""1"",""2019""
","
","","null","","null","","fixation","2021-07-13 19:18:20.727","","","","","",""
"card-selection-trial","165","443463","0.0-25.0-1.45","954","false","img/card_backs/set1/green.gif","img/card_backs/set1/red.gif","img/card_backs/set1/purple.gif","img/card_backs/set1/yellow.gif","img/card_backs/set2/orange.gif","img/card_backs/set2/pink.gif","img/card_backs/set2/blue.gif","img/card_backs/set2/gray.gif","""event"",""trial"",""time""
""fullscreenenter"",""1"",""2019""
","
","
","""event"",""trial"",""time""
""fullscreenenter"",""1"",""2019""
","
","","780","","","","real_trial","2021-07-13 19:18:23.514","img/card_backs/set1/red.gif","2","-230","1","",""
"casino-fixation","166","443968","0.0-25.0-0.46","954","false","img/card_backs/set1/green.gif","img/card_backs/set1/red.gif","img/card_backs/set1/purple.gif","img/card_backs/set1/yellow.gif","img/card_backs/set2/orange.gif","img/card_backs/set2/pink.gif","img/card_backs/set2/blue.gif","img/card_backs/set2/gray.gif","""event"",""trial"",""time""
""fullscreenenter"",""1"",""2019""
","
","
","""event"",""trial"",""time""
""fullscreenenter"",""1"",""2019""
","
","","null","","null","","fixation","2021-07-13 19:18:24.019","","","","","",""
