"trial_type","trial_index","time_elapsed","internal_node_id","sub_id","risk_good_first","block1_A","block1_B","block1_C","block1_D","block2_A","block2_B","block2_C","block2_D","interactions","blur_events","focus_events","fullscreenenter_events","fullscreenexit_events","success","rt","stimulus","key_press","button_pressed","task_part","timestamp","card_choice","choice_position","points_earned","block","correct","response"
"pavlovia","0","8","0.0-0.0","641","false","img/card_backs/set1/yellow.gif","img/card_backs/set1/purple.gif","img/card_backs/set1/red.gif","img/card_backs/set1/green.gif","img/card_backs/set2/pink.gif","img/card_backs/set2/orange.gif","img/card_backs/set2/blue.gif","img/card_backs/set2/gray.gif","""event"",""trial"",""time""
""focus"",""0"",""0""
""fullscreenenter"",""1"",""1833""
","
","""event"",""trial"",""time""
""focus"",""0"",""0""
","""event"",""trial"",""time""
""fullscreenenter"",""1"",""1833""
","
","","","","","","","","","","","","",""
"fullscreen","1","2571","0.0-1.0","641","false","img/card_backs/set1/yellow.gif","img/card_backs/set1/purple.gif","img/card_backs/set1/red.gif","img/card_backs/set1/green.gif","img/card_backs/set2/pink.gif","img/card_backs/set2/orange.gif","img/card_backs/set2/blue.gif","img/card_backs/set2/gray.gif","""event"",""trial"",""time""
""focus"",""0"",""0""
""fullscreenenter"",""1"",""1833""
","
","""event"",""trial"",""time""
""focus"",""0"",""0""
","""event"",""trial"",""time""
""fullscreenenter"",""1"",""1833""
","
","true","","","","","","","","","","","",""
"audio-keyboard-response","2","7812","0.0-2.0","641","false","img/card_backs/set1/yellow.gif","img/card_backs/set1/purple.gif","img/card_backs/set1/red.gif","img/card_backs/set1/green.gif","img/card_backs/set2/pink.gif","img/card_backs/set2/orange.gif","img/card_backs/set2/blue.gif","img/card_backs/set2/gray.gif","""event"",""trial"",""time""
""focus"",""0"",""0""
""fullscreenenter"",""1"",""1833""
","
","""event"",""trial"",""time""
""focus"",""0"",""0""
","""event"",""trial"",""time""
""fullscreenenter"",""1"",""1833""
","
","","5213","audio/beep_loop.wav","32","","","","","","","","",""
"audio-button-response","3","10432","0.0-3.0","641","false","img/card_backs/set1/yellow.gif","img/card_backs/set1/purple.gif","img/card_backs/set1/red.gif","img/card_backs/set1/green.gif","img/card_backs/set2/pink.gif","img/card_backs/set2/orange.gif","img/card_backs/set2/blue.gif","img/card_backs/set2/gray.gif","""event"",""trial"",""time""
""focus"",""0"",""0""
""fullscreenenter"",""1"",""1833""
","
","""event"",""trial"",""time""
""focus"",""0"",""0""
","""event"",""trial"",""time""
""fullscreenenter"",""1"",""1833""
","
","","NaN","audio/turtle.mp3","","3","","","","","","","",""
"audio-button-response","4","12701","0.0-4.0","641","false","img/card_backs/set1/yellow.gif","img/card_backs/set1/purple.gif","img/card_backs/set1/red.gif","img/card_backs/set1/green.gif","img/card_backs/set2/pink.gif","img/card_backs/set2/orange.gif","img/card_backs/set2/blue.gif","img/card_backs/set2/gray.gif","""event"",""trial"",""time""
""focus"",""0"",""0""
""fullscreenenter"",""1"",""1833""
","
","""event"",""trial"",""time""
""focus"",""0"",""0""
","""event"",""trial"",""time""
""fullscreenenter"",""1"",""1833""
","
","","NaN","audio/shark.mp3","","2","","","","","","","",""
"fullscreen","5","19564","0.0-5.0","641","false","img/card_backs/set1/yellow.gif","img/card_backs/set1/purple.gif","img/card_backs/set1/red.gif","img/card_backs/set1/green.gif","img/card_backs/set2/pink.gif","img/card_backs/set2/orange.gif","img/card_backs/set2/blue.gif","img/card_backs/set2/gray.gif","""event"",""trial"",""time""
""focus"",""0"",""0""
""fullscreenenter"",""1"",""1833""
","
","""event"",""trial"",""time""
""focus"",""0"",""0""
","""event"",""trial"",""time""
""fullscreenenter"",""1"",""1833""
","
","true","","","","","","","","","","","",""
"casino-keyboard-response","6","24565","0.0-6.0-0.0","641","false","img/card_backs/set1/yellow.gif","img/card_backs/set1/purple.gif","img/card_backs/set1/red.gif","img/card_backs/set1/green.gif","img/card_backs/set2/pink.gif","img/card_backs/set2/orange.gif","img/card_backs/set2/blue.gif","img/card_backs/set2/gray.gif","""event"",""trial"",""time""
""focus"",""0"",""0""
""fullscreenenter"",""1"",""1833""
","
","""event"",""trial"",""time""
""focus"",""0"",""0""
","""event"",""trial"",""time""
""fullscreenenter"",""1"",""1833""
","
","","4997","Welcome to the casino!","71","","instructions","2021-06-02 23:24:08.292","","","","","",""
"casino-keyboard-response","7","34570","0.0-6.0-0.1","641","false","img/card_backs/set1/yellow.gif","img/card_backs/set1/purple.gif","img/card_backs/set1/red.gif","img/card_backs/set1/green.gif","img/card_backs/set2/pink.gif","img/card_backs/set2/orange.gif","img/card_backs/set2/blue.gif","img/card_backs/set2/gray.gif","""event"",""trial"",""time""
""focus"",""0"",""0""
""fullscreenenter"",""1"",""1833""
","
","""event"",""trial"",""time""
""focus"",""0"",""0""
","""event"",""trial"",""time""
""fullscreenenter"",""1"",""1833""
","
","","10004","Today you will be playing a game to earn tokens. </br> At the end of the experiment, you will be paid a bonus based on how many tokens you win. ","69","","instructions","2021-06-02 23:24:18.297","","","","","",""
"casino-keyboard-response","8","42325","0.0-6.0-0.2","641","false","img/card_backs/set1/yellow.gif","img/card_backs/set1/purple.gif","img/card_backs/set1/red.gif","img/card_backs/set1/green.gif","img/card_backs/set2/pink.gif","img/card_backs/set2/orange.gif","img/card_backs/set2/blue.gif","img/card_backs/set2/gray.gif","""event"",""trial"",""time""
""focus"",""0"",""0""
""fullscreenenter"",""1"",""1833""
","
","""event"",""trial"",""time""
""focus"",""0"",""0""
","""event"",""trial"",""time""
""fullscreenenter"",""1"",""1833""
","
","","7754","On every turn, you will be shown four different decks of cards. </br> You need to select a card from one of the four decks.  ","75","","instructions","2021-06-02 23:24:26.052","","","","","",""
"casino-keyboard-response","9","48906","0.0-6.0-0.3","641","false","img/card_backs/set1/yellow.gif","img/card_backs/set1/purple.gif","img/card_backs/set1/red.gif","img/card_backs/set1/green.gif","img/card_backs/set2/pink.gif","img/card_backs/set2/orange.gif","img/card_backs/set2/blue.gif","img/card_backs/set2/gray.gif","""event"",""trial"",""time""
""focus"",""0"",""0""
""fullscreenenter"",""1"",""1833""
","
","""event"",""trial"",""time""
""focus"",""0"",""0""
","""event"",""trial"",""time""
""fullscreenenter"",""1"",""1833""
","
","","6580","On the next screen, you will see what the decks will look like. ","66","","instructions","2021-06-02 23:24:32.633","","","","","",""
"card-selection-trial","10","52912","0.0-7.0-0.0","641","false","img/card_backs/set1/yellow.gif","img/card_backs/set1/purple.gif","img/card_backs/set1/red.gif","img/card_backs/set1/green.gif","img/card_backs/set2/pink.gif","img/card_backs/set2/orange.gif","img/card_backs/set2/blue.gif","img/card_backs/set2/gray.gif","""event"",""trial"",""time""
""focus"",""0"",""0""
""fullscreenenter"",""1"",""1833""
","
","""event"",""trial"",""time""
""focus"",""0"",""0""
","""event"",""trial"",""time""
""fullscreenenter"",""1"",""1833""
","
","","null","","","","practice","2021-06-02 23:24:36.640","null","null","null","0","",""
"casino-keyboard-response","11","60897","0.0-8.0-0.0","641","false","img/card_backs/set1/yellow.gif","img/card_backs/set1/purple.gif","img/card_backs/set1/red.gif","img/card_backs/set1/green.gif","img/card_backs/set2/pink.gif","img/card_backs/set2/orange.gif","img/card_backs/set2/blue.gif","img/card_backs/set2/gray.gif","""event"",""trial"",""time""
""focus"",""0"",""0""
""fullscreenenter"",""1"",""1833""
","
","""event"",""trial"",""time""
""focus"",""0"",""0""
","""event"",""trial"",""time""
""fullscreenenter"",""1"",""1833""
","
","","7981","You should pick a card from a deck using the '2', '4', '6', and '8' keys at the top of the keyboard.","85","","instructions","2021-06-02 23:24:44.624","","","","","",""
"casino-keyboard-response","12","66995","0.0-8.0-0.1","641","false","img/card_backs/set1/yellow.gif","img/card_backs/set1/purple.gif","img/card_backs/set1/red.gif","img/card_backs/set1/green.gif","img/card_backs/set2/pink.gif","img/card_backs/set2/orange.gif","img/card_backs/set2/blue.gif","img/card_backs/set2/gray.gif","""event"",""trial"",""time""
""focus"",""0"",""0""
""fullscreenenter"",""1"",""1833""
","
","""event"",""trial"",""time""
""focus"",""0"",""0""
","""event"",""trial"",""time""
""fullscreenenter"",""1"",""1833""
","
","","6092","Once you select a card, it will turn over and you will see how many tokens you earned.","83","","instructions","2021-06-02 23:24:50.722","","","","","",""
"casino-keyboard-response","13","81522","0.0-8.0-0.2","641","false","img/card_backs/set1/yellow.gif","img/card_backs/set1/purple.gif","img/card_backs/set1/red.gif","img/card_backs/set1/green.gif","img/card_backs/set2/pink.gif","img/card_backs/set2/orange.gif","img/card_backs/set2/blue.gif","img/card_backs/set2/gray.gif","""event"",""trial"",""time""
""focus"",""0"",""0""
""fullscreenenter"",""1"",""1833""
","
","""event"",""trial"",""time""
""focus"",""0"",""0""
","""event"",""trial"",""time""
""fullscreenenter"",""1"",""1833""
","
","","14524","Let's try practicing that! </br> First, try to put your fingers over the '2', '4', '6', and '8' keys. </br>  You can use whatever fingers are most comfortable for you. Try to find a comfortable position now. ","50","","instructions","2021-06-02 23:25:05.249","","","","","",""
"casino-keyboard-response","14","86587","0.0-8.0-0.3","641","false","img/card_backs/set1/yellow.gif","img/card_backs/set1/purple.gif","img/card_backs/set1/red.gif","img/card_backs/set1/green.gif","img/card_backs/set2/pink.gif","img/card_backs/set2/orange.gif","img/card_backs/set2/blue.gif","img/card_backs/set2/gray.gif","""event"",""trial"",""time""
""focus"",""0"",""0""
""fullscreenenter"",""1"",""1833""
","
","""event"",""trial"",""time""
""focus"",""0"",""0""
","""event"",""trial"",""time""
""fullscreenenter"",""1"",""1833""
","
","","5064","Okay ready? </br> On the next screen, press '2' to select the left deck. ","50","","instructions","2021-06-02 23:25:10.315","","","","","",""
"card-selection-trial","15","90728","0.0-9.0-0.0","641","false","img/card_backs/set1/yellow.gif","img/card_backs/set1/purple.gif","img/card_backs/set1/red.gif","img/card_backs/set1/green.gif","img/card_backs/set2/pink.gif","img/card_backs/set2/orange.gif","img/card_backs/set2/blue.gif","img/card_backs/set2/gray.gif","""event"",""trial"",""time""
""focus"",""0"",""0""
""fullscreenenter"",""1"",""1833""
","
","""event"",""trial"",""time""
""focus"",""0"",""0""
","""event"",""trial"",""time""
""fullscreenenter"",""1"",""1833""
","
","","2136","","","","practice_card_selection","2021-06-02 23:25:14.456","img/practice_cards/backs/black.gif","0","100","","",""
"casino-keyboard-response","16","96882","0.0-10.0-0.0","641","false","img/card_backs/set1/yellow.gif","img/card_backs/set1/purple.gif","img/card_backs/set1/red.gif","img/card_backs/set1/green.gif","img/card_backs/set2/pink.gif","img/card_backs/set2/orange.gif","img/card_backs/set2/blue.gif","img/card_backs/set2/gray.gif","""event"",""trial"",""time""
""focus"",""0"",""0""
""fullscreenenter"",""1"",""1833""
","
","""event"",""trial"",""time""
""focus"",""0"",""0""
","""event"",""trial"",""time""
""fullscreenenter"",""1"",""1833""
","
","","6152","Great! Now on the next screen, try pressing '6' to select the third deck.","54","","instructions","2021-06-02 23:25:20.609","","","","","",""
"card-selection-trial","17","99372","0.0-11.0-0.0","641","false","img/card_backs/set1/yellow.gif","img/card_backs/set1/purple.gif","img/card_backs/set1/red.gif","img/card_backs/set1/green.gif","img/card_backs/set2/pink.gif","img/card_backs/set2/orange.gif","img/card_backs/set2/blue.gif","img/card_backs/set2/gray.gif","""event"",""trial"",""time""
""focus"",""0"",""0""
""fullscreenenter"",""1"",""1833""
","
","""event"",""trial"",""time""
""focus"",""0"",""0""
","""event"",""trial"",""time""
""fullscreenenter"",""1"",""1833""
","
","","482","","","","practice_card_selection","2021-06-02 23:25:23.099","img/practice_cards/backs/brown.gif","2","-100","","",""
"casino-keyboard-response","18","104585","0.0-12.0-0.0","641","false","img/card_backs/set1/yellow.gif","img/card_backs/set1/purple.gif","img/card_backs/set1/red.gif","img/card_backs/set1/green.gif","img/card_backs/set2/pink.gif","img/card_backs/set2/orange.gif","img/card_backs/set2/blue.gif","img/card_backs/set2/gray.gif","""event"",""trial"",""time""
""focus"",""0"",""0""
""fullscreenenter"",""1"",""1833""
","
","""event"",""trial"",""time""
""focus"",""0"",""0""
","""event"",""trial"",""time""
""fullscreenenter"",""1"",""1833""
","
","","5212","Now on the next screen, try pressing '4' to select the second deck.","52","","instructions","2021-06-02 23:25:28.312","","","","","",""
"card-selection-trial","19","106918","0.0-13.0-0.0","641","false","img/card_backs/set1/yellow.gif","img/card_backs/set1/purple.gif","img/card_backs/set1/red.gif","img/card_backs/set1/green.gif","img/card_backs/set2/pink.gif","img/card_backs/set2/orange.gif","img/card_backs/set2/blue.gif","img/card_backs/set2/gray.gif","""event"",""trial"",""time""
""focus"",""0"",""0""
""fullscreenenter"",""1"",""1833""
","
","""event"",""trial"",""time""
""focus"",""0"",""0""
","""event"",""trial"",""time""
""fullscreenenter"",""1"",""1833""
","
","","327","","","","practice_card_selection","2021-06-02 23:25:30.645","img/practice_cards/backs/dark_blue.gif","1","-200","","",""
"casino-keyboard-response","20","107611","0.0-14.0-0.0","641","false","img/card_backs/set1/yellow.gif","img/card_backs/set1/purple.gif","img/card_backs/set1/red.gif","img/card_backs/set1/green.gif","img/card_backs/set2/pink.gif","img/card_backs/set2/orange.gif","img/card_backs/set2/blue.gif","img/card_backs/set2/gray.gif","""event"",""trial"",""time""
""focus"",""0"",""0""
""fullscreenenter"",""1"",""1833""
","
","""event"",""trial"",""time""
""focus"",""0"",""0""
","""event"",""trial"",""time""
""fullscreenenter"",""1"",""1833""
","
","","690","Finally, try pressing '8' to select the deck all the way on the right.","56","","instructions","2021-06-02 23:25:31.338","","","","","",""
"card-selection-trial","21","110096","0.0-15.0-0.0","641","false","img/card_backs/set1/yellow.gif","img/card_backs/set1/purple.gif","img/card_backs/set1/red.gif","img/card_backs/set1/green.gif","img/card_backs/set2/pink.gif","img/card_backs/set2/orange.gif","img/card_backs/set2/blue.gif","img/card_backs/set2/gray.gif","""event"",""trial"",""time""
""focus"",""0"",""0""
""fullscreenenter"",""1"",""1833""
","
","""event"",""trial"",""time""
""focus"",""0"",""0""
","""event"",""trial"",""time""
""fullscreenenter"",""1"",""1833""
","
","","478","","","","practice_card_selection","2021-06-02 23:25:33.823","img/practice_cards/backs/black.gif","3","-100","","",""
"casino-keyboard-response","22","118228","0.0-16.0-0.0","641","false","img/card_backs/set1/yellow.gif","img/card_backs/set1/purple.gif","img/card_backs/set1/red.gif","img/card_backs/set1/green.gif","img/card_backs/set2/pink.gif","img/card_backs/set2/orange.gif","img/card_backs/set2/blue.gif","img/card_backs/set2/gray.gif","""event"",""trial"",""time""
""focus"",""0"",""0""
""fullscreenenter"",""1"",""1833""
","
","""event"",""trial"",""time""
""focus"",""0"",""0""
","""event"",""trial"",""time""
""fullscreenenter"",""1"",""1833""
","
","","8131","Great! It seems like you are getting the hang of this.","80","","instructions","2021-06-02 23:25:41.955","","","","","",""
"casino-keyboard-response","23","126169","0.0-16.0-0.1","641","false","img/card_backs/set1/yellow.gif","img/card_backs/set1/purple.gif","img/card_backs/set1/red.gif","img/card_backs/set1/green.gif","img/card_backs/set2/pink.gif","img/card_backs/set2/orange.gif","img/card_backs/set2/blue.gif","img/card_backs/set2/gray.gif","""event"",""trial"",""time""
""focus"",""0"",""0""
""fullscreenenter"",""1"",""1833""
","
","""event"",""trial"",""time""
""focus"",""0"",""0""
","""event"",""trial"",""time""
""fullscreenenter"",""1"",""1833""
","
","","7938","You may have noticed that some cards will cause you to <b> win </b> tokens while other cards will cause you to <b> lose </b>  tokens.","70","","instructions","2021-06-02 23:25:49.897","","","","","",""
"casino-keyboard-response","24","134577","0.0-16.0-0.2","641","false","img/card_backs/set1/yellow.gif","img/card_backs/set1/purple.gif","img/card_backs/set1/red.gif","img/card_backs/set1/green.gif","img/card_backs/set2/pink.gif","img/card_backs/set2/orange.gif","img/card_backs/set2/blue.gif","img/card_backs/set2/gray.gif","""event"",""trial"",""time""
""focus"",""0"",""0""
""fullscreenenter"",""1"",""1833""
","
","""event"",""trial"",""time""
""focus"",""0"",""0""
","""event"",""trial"",""time""
""fullscreenenter"",""1"",""1833""
","
","","8402","Each deck has a mix of cards that will cause you to win and lose tokens. </br> However, the cards in each colored deck are different.","73","","instructions","2021-06-02 23:25:58.304","","","","","",""
"casino-keyboard-response","25","144582","0.0-16.0-0.3","641","false","img/card_backs/set1/yellow.gif","img/card_backs/set1/purple.gif","img/card_backs/set1/red.gif","img/card_backs/set1/green.gif","img/card_backs/set2/pink.gif","img/card_backs/set2/orange.gif","img/card_backs/set2/blue.gif","img/card_backs/set2/gray.gif","""event"",""trial"",""time""
""focus"",""0"",""0""
""fullscreenenter"",""1"",""1833""
","
","""event"",""trial"",""time""
""focus"",""0"",""0""
","""event"",""trial"",""time""
""fullscreenenter"",""1"",""1833""
","
","","10003","Some colored decks are luckier than others. </br> If you choose the lucky decks, you will earn more tokens than if you choose the unlucky decks.","69","","instructions","2021-06-02 23:26:08.309","","","","","",""
"casino-keyboard-response","26","153412","0.0-16.0-0.4","641","false","img/card_backs/set1/yellow.gif","img/card_backs/set1/purple.gif","img/card_backs/set1/red.gif","img/card_backs/set1/green.gif","img/card_backs/set2/pink.gif","img/card_backs/set2/orange.gif","img/card_backs/set2/blue.gif","img/card_backs/set2/gray.gif","""event"",""trial"",""time""
""focus"",""0"",""0""
""fullscreenenter"",""1"",""1833""
","
","""event"",""trial"",""time""
""focus"",""0"",""0""
","""event"",""trial"",""time""
""fullscreenenter"",""1"",""1833""
","
","","8829","You should try to figure out which decks are lucky. </br> Then, try to choose the lucky decks so you can win the most tokens.","87","","instructions","2021-06-02 23:26:17.139","","","","","",""
"casino-keyboard-response","27","165738","0.0-16.0-0.5","641","false","img/card_backs/set1/yellow.gif","img/card_backs/set1/purple.gif","img/card_backs/set1/red.gif","img/card_backs/set1/green.gif","img/card_backs/set2/pink.gif","img/card_backs/set2/orange.gif","img/card_backs/set2/blue.gif","img/card_backs/set2/gray.gif","""event"",""trial"",""time""
""focus"",""0"",""0""
""fullscreenenter"",""1"",""1833""
","
","""event"",""trial"",""time""
""focus"",""0"",""0""
","""event"",""trial"",""time""
""fullscreenenter"",""1"",""1833""
","
","","12325","To make it trickier, the casino dealer will switch the locations of the decks on every turn. </br> The color of the deck determines how lucky it is. The location does not matter.","88","","instructions","2021-06-02 23:26:29.465","","","","","",""
"casino-keyboard-response","28","175602","0.0-16.0-0.6","641","false","img/card_backs/set1/yellow.gif","img/card_backs/set1/purple.gif","img/card_backs/set1/red.gif","img/card_backs/set1/green.gif","img/card_backs/set2/pink.gif","img/card_backs/set2/orange.gif","img/card_backs/set2/blue.gif","img/card_backs/set2/gray.gif","""event"",""trial"",""time""
""focus"",""0"",""0""
""fullscreenenter"",""1"",""1833""
","
","""event"",""trial"",""time""
""focus"",""0"",""0""
","""event"",""trial"",""time""
""fullscreenenter"",""1"",""1833""
","
","","9863","The mix of cards in each colored deck will stay the same throughout the game. </br> That means that a deck that is lucky early on will stay lucky.","79","","instructions","2021-06-02 23:26:39.329","","","","","",""
"casino-keyboard-response","29","185251","0.0-16.0-0.7","641","false","img/card_backs/set1/yellow.gif","img/card_backs/set1/purple.gif","img/card_backs/set1/red.gif","img/card_backs/set1/green.gif","img/card_backs/set2/pink.gif","img/card_backs/set2/orange.gif","img/card_backs/set2/blue.gif","img/card_backs/set2/gray.gif","""event"",""trial"",""time""
""focus"",""0"",""0""
""fullscreenenter"",""1"",""1833""
","
","""event"",""trial"",""time""
""focus"",""0"",""0""
","""event"",""trial"",""time""
""fullscreenenter"",""1"",""1833""
","
","","9648","Remember though, all the decks have a <b> mix </b> of both <b> good </b> and <b> bad </b> cards so it may take a couple of turns to figure out if a deck is lucky.","69","","instructions","2021-06-02 23:26:48.980","","","","","",""
"casino-keyboard-response","30","196862","0.0-16.0-0.8","641","false","img/card_backs/set1/yellow.gif","img/card_backs/set1/purple.gif","img/card_backs/set1/red.gif","img/card_backs/set1/green.gif","img/card_backs/set2/pink.gif","img/card_backs/set2/orange.gif","img/card_backs/set2/blue.gif","img/card_backs/set2/gray.gif","""event"",""trial"",""time""
""focus"",""0"",""0""
""fullscreenenter"",""1"",""1833""
","
","""event"",""trial"",""time""
""focus"",""0"",""0""
","""event"",""trial"",""time""
""fullscreenenter"",""1"",""1833""
","
","","11605","At the end of the game, you will be paid bonus money based on how many tokens you win. </br> If you win more tokens, you will earn more money!","72","","instructions","2021-06-02 23:27:00.589","","","","","",""
"casino-keyboard-response","31","208388","0.0-16.0-0.9","641","false","img/card_backs/set1/yellow.gif","img/card_backs/set1/purple.gif","img/card_backs/set1/red.gif","img/card_backs/set1/green.gif","img/card_backs/set2/pink.gif","img/card_backs/set2/orange.gif","img/card_backs/set2/blue.gif","img/card_backs/set2/gray.gif","""event"",""trial"",""time""
""focus"",""0"",""0""
""fullscreenenter"",""1"",""1833""
","
","""event"",""trial"",""time""
""focus"",""0"",""0""
","""event"",""trial"",""time""
""fullscreenenter"",""1"",""1833""
","
","","11520","You will never <b> lose </b> money. </br> If you end up with fewer than 0 tokens, you will earn $0 of bonus money, but you will still be paid for playing the game.","83","","instructions","2021-06-02 23:27:12.115","","","","","",""
"casino-keyboard-response","32","213494","0.0-16.0-0.10","641","false","img/card_backs/set1/yellow.gif","img/card_backs/set1/purple.gif","img/card_backs/set1/red.gif","img/card_backs/set1/green.gif","img/card_backs/set2/pink.gif","img/card_backs/set2/orange.gif","img/card_backs/set2/blue.gif","img/card_backs/set2/gray.gif","""event"",""trial"",""time""
""focus"",""0"",""0""
""fullscreenenter"",""1"",""1833""
","
","""event"",""trial"",""time""
""focus"",""0"",""0""
","""event"",""trial"",""time""
""fullscreenenter"",""1"",""1833""
","
","","5104","You will have 10 seconds to make each choice.","82","","instructions","2021-06-02 23:27:17.221","","","","","",""
"casino-keyboard-response","33","222199","0.0-16.0-0.11","641","false","img/card_backs/set1/yellow.gif","img/card_backs/set1/purple.gif","img/card_backs/set1/red.gif","img/card_backs/set1/green.gif","img/card_backs/set2/pink.gif","img/card_backs/set2/orange.gif","img/card_backs/set2/blue.gif","img/card_backs/set2/gray.gif","""event"",""trial"",""time""
""focus"",""0"",""0""
""fullscreenenter"",""1"",""1833""
","
","""event"",""trial"",""time""
""focus"",""0"",""0""
","""event"",""trial"",""time""
""fullscreenenter"",""1"",""1833""
","
","","8704","Before you play the game for real, you will play with practice decks. </br> The tokens you earn during practice won't count toward your total.","86","","instructions","2021-06-02 23:27:25.927","","","","","",""
"casino-keyboard-response","34","225638","0.0-16.0-0.12","641","false","img/card_backs/set1/yellow.gif","img/card_backs/set1/purple.gif","img/card_backs/set1/red.gif","img/card_backs/set1/green.gif","img/card_backs/set2/pink.gif","img/card_backs/set2/orange.gif","img/card_backs/set2/blue.gif","img/card_backs/set2/gray.gif","""event"",""trial"",""time""
""focus"",""0"",""0""
""fullscreenenter"",""1"",""1833""
","
","""event"",""trial"",""time""
""focus"",""0"",""0""
","""event"",""trial"",""time""
""fullscreenenter"",""1"",""1833""
","
","","3435","Ready? Remember, use the '2', '4', '6', and '8' keys to select the decks. </br> Put your fingers on those keys now and then press '2' to begin.","50","","instructions","2021-06-02 23:27:29.365","","","","","",""
"casino-fixation","35","226141","0.0-17.0-0.0","641","false","img/card_backs/set1/yellow.gif","img/card_backs/set1/purple.gif","img/card_backs/set1/red.gif","img/card_backs/set1/green.gif","img/card_backs/set2/pink.gif","img/card_backs/set2/orange.gif","img/card_backs/set2/blue.gif","img/card_backs/set2/gray.gif","""event"",""trial"",""time""
""focus"",""0"",""0""
""fullscreenenter"",""1"",""1833""
","
","""event"",""trial"",""time""
""focus"",""0"",""0""
","""event"",""trial"",""time""
""fullscreenenter"",""1"",""1833""
","
","","null","","null","","fixation","2021-06-02 23:27:29.868","","","","","",""
"card-selection-trial","36","229272","0.0-17.0-1.0","641","false","img/card_backs/set1/yellow.gif","img/card_backs/set1/purple.gif","img/card_backs/set1/red.gif","img/card_backs/set1/green.gif","img/card_backs/set2/pink.gif","img/card_backs/set2/orange.gif","img/card_backs/set2/blue.gif","img/card_backs/set2/gray.gif","""event"",""trial"",""time""
""focus"",""0"",""0""
""fullscreenenter"",""1"",""1833""
","
","""event"",""trial"",""time""
""focus"",""0"",""0""
","""event"",""trial"",""time""
""fullscreenenter"",""1"",""1833""
","
","","1122","","","","practice","2021-06-02 23:27:32.999","img/practice_cards/backs/brown.gif","0","100","0","",""
"casino-fixation","37","229775","0.0-17.0-0.1","641","false","img/card_backs/set1/yellow.gif","img/card_backs/set1/purple.gif","img/card_backs/set1/red.gif","img/card_backs/set1/green.gif","img/card_backs/set2/pink.gif","img/card_backs/set2/orange.gif","img/card_backs/set2/blue.gif","img/card_backs/set2/gray.gif","""event"",""trial"",""time""
""focus"",""0"",""0""
""fullscreenenter"",""1"",""1833""
","
","""event"",""trial"",""time""
""focus"",""0"",""0""
","""event"",""trial"",""time""
""fullscreenenter"",""1"",""1833""
","
","","null","","null","","fixation","2021-06-02 23:27:33.503","","","","","",""
"card-selection-trial","38","233101","0.0-17.0-1.1","641","false","img/card_backs/set1/yellow.gif","img/card_backs/set1/purple.gif","img/card_backs/set1/red.gif","img/card_backs/set1/green.gif","img/card_backs/set2/pink.gif","img/card_backs/set2/orange.gif","img/card_backs/set2/blue.gif","img/card_backs/set2/gray.gif","""event"",""trial"",""time""
""focus"",""0"",""0""
""fullscreenenter"",""1"",""1833""
","
","""event"",""trial"",""time""
""focus"",""0"",""0""
","""event"",""trial"",""time""
""fullscreenenter"",""1"",""1833""
","
","","1317","","","","practice","2021-06-02 23:27:36.828","img/practice_cards/backs/dark_blue.gif","1","200","0","",""
"casino-fixation","39","233604","0.0-17.0-0.2","641","false","img/card_backs/set1/yellow.gif","img/card_backs/set1/purple.gif","img/card_backs/set1/red.gif","img/card_backs/set1/green.gif","img/card_backs/set2/pink.gif","img/card_backs/set2/orange.gif","img/card_backs/set2/blue.gif","img/card_backs/set2/gray.gif","""event"",""trial"",""time""
""focus"",""0"",""0""
""fullscreenenter"",""1"",""1833""
","
","""event"",""trial"",""time""
""focus"",""0"",""0""
","""event"",""trial"",""time""
""fullscreenenter"",""1"",""1833""
","
","","null","","null","","fixation","2021-06-02 23:27:37.331","","","","","",""
"card-selection-trial","40","236668","0.0-17.0-1.2","641","false","img/card_backs/set1/yellow.gif","img/card_backs/set1/purple.gif","img/card_backs/set1/red.gif","img/card_backs/set1/green.gif","img/card_backs/set2/pink.gif","img/card_backs/set2/orange.gif","img/card_backs/set2/blue.gif","img/card_backs/set2/gray.gif","""event"",""trial"",""time""
""focus"",""0"",""0""
""fullscreenenter"",""1"",""1833""
","
","""event"",""trial"",""time""
""focus"",""0"",""0""
","""event"",""trial"",""time""
""fullscreenenter"",""1"",""1833""
","
","","1059","","","","practice","2021-06-02 23:27:40.395","img/practice_cards/backs/dark_green.gif","0","200","0","",""
"casino-fixation","41","237174","0.0-17.0-0.3","641","false","img/card_backs/set1/yellow.gif","img/card_backs/set1/purple.gif","img/card_backs/set1/red.gif","img/card_backs/set1/green.gif","img/card_backs/set2/pink.gif","img/card_backs/set2/orange.gif","img/card_backs/set2/blue.gif","img/card_backs/set2/gray.gif","""event"",""trial"",""time""
""focus"",""0"",""0""
""fullscreenenter"",""1"",""1833""
","
","""event"",""trial"",""time""
""focus"",""0"",""0""
","""event"",""trial"",""time""
""fullscreenenter"",""1"",""1833""
","
","","null","","null","","fixation","2021-06-02 23:27:40.901","","","","","",""
"card-selection-trial","42","239740","0.0-17.0-1.3","641","false","img/card_backs/set1/yellow.gif","img/card_backs/set1/purple.gif","img/card_backs/set1/red.gif","img/card_backs/set1/green.gif","img/card_backs/set2/pink.gif","img/card_backs/set2/orange.gif","img/card_backs/set2/blue.gif","img/card_backs/set2/gray.gif","""event"",""trial"",""time""
""focus"",""0"",""0""
""fullscreenenter"",""1"",""1833""
","
","""event"",""trial"",""time""
""focus"",""0"",""0""
","""event"",""trial"",""time""
""fullscreenenter"",""1"",""1833""
","
","","558","","","","practice","2021-06-02 23:27:43.467","img/practice_cards/backs/black.gif","1","100","0","",""
"casino-fixation","43","240245","0.0-17.0-0.4","641","false","img/card_backs/set1/yellow.gif","img/card_backs/set1/purple.gif","img/card_backs/set1/red.gif","img/card_backs/set1/green.gif","img/card_backs/set2/pink.gif","img/card_backs/set2/orange.gif","img/card_backs/set2/blue.gif","img/card_backs/set2/gray.gif","""event"",""trial"",""time""
""focus"",""0"",""0""
""fullscreenenter"",""1"",""1833""
","
","""event"",""trial"",""time""
""focus"",""0"",""0""
","""event"",""trial"",""time""
""fullscreenenter"",""1"",""1833""
","
","","null","","null","","fixation","2021-06-02 23:27:43.972","","","","","",""
"card-selection-trial","44","243747","0.0-17.0-1.4","641","false","img/card_backs/set1/yellow.gif","img/card_backs/set1/purple.gif","img/card_backs/set1/red.gif","img/card_backs/set1/green.gif","img/card_backs/set2/pink.gif","img/card_backs/set2/orange.gif","img/card_backs/set2/blue.gif","img/card_backs/set2/gray.gif","""event"",""trial"",""time""
""focus"",""0"",""0""
""fullscreenenter"",""1"",""1833""
","
","""event"",""trial"",""time""
""focus"",""0"",""0""
","""event"",""trial"",""time""
""fullscreenenter"",""1"",""1833""
","
","","1496","","","","practice","2021-06-02 23:27:47.474","img/practice_cards/backs/dark_blue.gif","3","-200","0","",""
"casino-fixation","45","244254","0.0-17.0-0.5","641","false","img/card_backs/set1/yellow.gif","img/card_backs/set1/purple.gif","img/card_backs/set1/red.gif","img/card_backs/set1/green.gif","img/card_backs/set2/pink.gif","img/card_backs/set2/orange.gif","img/card_backs/set2/blue.gif","img/card_backs/set2/gray.gif","""event"",""trial"",""time""
""focus"",""0"",""0""
""fullscreenenter"",""1"",""1833""
","
","""event"",""trial"",""time""
""focus"",""0"",""0""
","""event"",""trial"",""time""
""fullscreenenter"",""1"",""1833""
","
","","null","","null","","fixation","2021-06-02 23:27:47.981","","","","","",""
"card-selection-trial","46","247416","0.0-17.0-1.5","641","false","img/card_backs/set1/yellow.gif","img/card_backs/set1/purple.gif","img/card_backs/set1/red.gif","img/card_backs/set1/green.gif","img/card_backs/set2/pink.gif","img/card_backs/set2/orange.gif","img/card_backs/set2/blue.gif","img/card_backs/set2/gray.gif","""event"",""trial"",""time""
""focus"",""0"",""0""
""fullscreenenter"",""1"",""1833""
","
","""event"",""trial"",""time""
""focus"",""0"",""0""
","""event"",""trial"",""time""
""fullscreenenter"",""1"",""1833""
","
","","1153","","","","practice","2021-06-02 23:27:51.143","img/practice_cards/backs/black.gif","2","-100","0","",""
"casino-fixation","47","247917","0.0-17.0-0.6","641","false","img/card_backs/set1/yellow.gif","img/card_backs/set1/purple.gif","img/card_backs/set1/red.gif","img/card_backs/set1/green.gif","img/card_backs/set2/pink.gif","img/card_backs/set2/orange.gif","img/card_backs/set2/blue.gif","img/card_backs/set2/gray.gif","""event"",""trial"",""time""
""focus"",""0"",""0""
""fullscreenenter"",""1"",""1833""
","
","""event"",""trial"",""time""
""focus"",""0"",""0""
","""event"",""trial"",""time""
""fullscreenenter"",""1"",""1833""
","
","","null","","null","","fixation","2021-06-02 23:27:51.644","","","","","",""
"card-selection-trial","48","250569","0.0-17.0-1.6","641","false","img/card_backs/set1/yellow.gif","img/card_backs/set1/purple.gif","img/card_backs/set1/red.gif","img/card_backs/set1/green.gif","img/card_backs/set2/pink.gif","img/card_backs/set2/orange.gif","img/card_backs/set2/blue.gif","img/card_backs/set2/gray.gif","""event"",""trial"",""time""
""focus"",""0"",""0""
""fullscreenenter"",""1"",""1833""
","
","""event"",""trial"",""time""
""focus"",""0"",""0""
","""event"",""trial"",""time""
""fullscreenenter"",""1"",""1833""
","
","","647","","","","practice","2021-06-02 23:27:54.296","img/practice_cards/backs/black.gif","0","-100","0","",""
"casino-fixation","49","251074","0.0-17.0-0.7","641","false","img/card_backs/set1/yellow.gif","img/card_backs/set1/purple.gif","img/card_backs/set1/red.gif","img/card_backs/set1/green.gif","img/card_backs/set2/pink.gif","img/card_backs/set2/orange.gif","img/card_backs/set2/blue.gif","img/card_backs/set2/gray.gif","""event"",""trial"",""time""
""focus"",""0"",""0""
""fullscreenenter"",""1"",""1833""
","
","""event"",""trial"",""time""
""focus"",""0"",""0""
","""event"",""trial"",""time""
""fullscreenenter"",""1"",""1833""
","
","","null","","null","","fixation","2021-06-02 23:27:54.802","","","","","",""
"card-selection-trial","50","257742","0.0-17.0-1.7","641","false","img/card_backs/set1/yellow.gif","img/card_backs/set1/purple.gif","img/card_backs/set1/red.gif","img/card_backs/set1/green.gif","img/card_backs/set2/pink.gif","img/card_backs/set2/orange.gif","img/card_backs/set2/blue.gif","img/card_backs/set2/gray.gif","""event"",""trial"",""time""
""focus"",""0"",""0""
""fullscreenenter"",""1"",""1833""
","
","""event"",""trial"",""time""
""focus"",""0"",""0""
","""event"",""trial"",""time""
""fullscreenenter"",""1"",""1833""
","
","","4662","","","","practice","2021-06-02 23:28:01.470","img/practice_cards/backs/black.gif","2","-100","0","",""
"casino-fixation","51","258249","0.0-17.0-0.8","641","false","img/card_backs/set1/yellow.gif","img/card_backs/set1/purple.gif","img/card_backs/set1/red.gif","img/card_backs/set1/green.gif","img/card_backs/set2/pink.gif","img/card_backs/set2/orange.gif","img/card_backs/set2/blue.gif","img/card_backs/set2/gray.gif","""event"",""trial"",""time""
""focus"",""0"",""0""
""fullscreenenter"",""1"",""1833""
","
","""event"",""trial"",""time""
""focus"",""0"",""0""
","""event"",""trial"",""time""
""fullscreenenter"",""1"",""1833""
","
","","null","","null","","fixation","2021-06-02 23:28:01.977","","","","","",""
"card-selection-trial","52","260853","0.0-17.0-1.8","641","false","img/card_backs/set1/yellow.gif","img/card_backs/set1/purple.gif","img/card_backs/set1/red.gif","img/card_backs/set1/green.gif","img/card_backs/set2/pink.gif","img/card_backs/set2/orange.gif","img/card_backs/set2/blue.gif","img/card_backs/set2/gray.gif","""event"",""trial"",""time""
""focus"",""0"",""0""
""fullscreenenter"",""1"",""1833""
","
","""event"",""trial"",""time""
""focus"",""0"",""0""
","""event"",""trial"",""time""
""fullscreenenter"",""1"",""1833""
","
","","595","","","","practice","2021-06-02 23:28:04.580","img/practice_cards/backs/dark_blue.gif","0","-200","0","",""
"casino-fixation","53","261360","0.0-17.0-0.9","641","false","img/card_backs/set1/yellow.gif","img/card_backs/set1/purple.gif","img/card_backs/set1/red.gif","img/card_backs/set1/green.gif","img/card_backs/set2/pink.gif","img/card_backs/set2/orange.gif","img/card_backs/set2/blue.gif","img/card_backs/set2/gray.gif","""event"",""trial"",""time""
""focus"",""0"",""0""
""fullscreenenter"",""1"",""1833""
","
","""event"",""trial"",""time""
""focus"",""0"",""0""
","""event"",""trial"",""time""
""fullscreenenter"",""1"",""1833""
","
","","null","","null","","fixation","2021-06-02 23:28:05.088","","","","","",""
"card-selection-trial","54","264399","0.0-17.0-1.9","641","false","img/card_backs/set1/yellow.gif","img/card_backs/set1/purple.gif","img/card_backs/set1/red.gif","img/card_backs/set1/green.gif","img/card_backs/set2/pink.gif","img/card_backs/set2/orange.gif","img/card_backs/set2/blue.gif","img/card_backs/set2/gray.gif","""event"",""trial"",""time""
""focus"",""0"",""0""
""fullscreenenter"",""1"",""1833""
","
","""event"",""trial"",""time""
""focus"",""0"",""0""
","""event"",""trial"",""time""
""fullscreenenter"",""1"",""1833""
","
","","1031","","","","practice","2021-06-02 23:28:08.126","img/practice_cards/backs/brown.gif","1","100","0","",""
"casino-keyboard-response","55","268444","0.0-18.0","641","false","img/card_backs/set1/yellow.gif","img/card_backs/set1/purple.gif","img/card_backs/set1/red.gif","img/card_backs/set1/green.gif","img/card_backs/set2/pink.gif","img/card_backs/set2/orange.gif","img/card_backs/set2/blue.gif","img/card_backs/set2/gray.gif","""event"",""trial"",""time""
""focus"",""0"",""0""
""fullscreenenter"",""1"",""1833""
","
","""event"",""trial"",""time""
""focus"",""0"",""0""
","""event"",""trial"",""time""
""fullscreenenter"",""1"",""1833""
","
","","4044","You earned 0 tokens during the practice round!","82","","","2021-06-02 23:28:12.172","","","","","",""
"casino-keyboard-response","56","273721","0.0-19.0-0.0","641","false","img/card_backs/set1/yellow.gif","img/card_backs/set1/purple.gif","img/card_backs/set1/red.gif","img/card_backs/set1/green.gif","img/card_backs/set2/pink.gif","img/card_backs/set2/orange.gif","img/card_backs/set2/blue.gif","img/card_backs/set2/gray.gif","""event"",""trial"",""time""
""focus"",""0"",""0""
""fullscreenenter"",""1"",""1833""
","
","""event"",""trial"",""time""
""focus"",""0"",""0""
","""event"",""trial"",""time""
""fullscreenenter"",""1"",""1833""
","
","","5274","Nice job! You are almost ready to play the real game.","86","","instructions","2021-06-02 23:28:17.448","","","","","",""
"casino-keyboard-response","57","280407","0.0-19.0-0.1","641","false","img/card_backs/set1/yellow.gif","img/card_backs/set1/purple.gif","img/card_backs/set1/red.gif","img/card_backs/set1/green.gif","img/card_backs/set2/pink.gif","img/card_backs/set2/orange.gif","img/card_backs/set2/blue.gif","img/card_backs/set2/gray.gif","""event"",""trial"",""time""
""focus"",""0"",""0""
""fullscreenenter"",""1"",""1833""
","
","""event"",""trial"",""time""
""focus"",""0"",""0""
","""event"",""trial"",""time""
""fullscreenenter"",""1"",""1833""
","
","","6684","You will play two rounds of the real game. In each round, you will pick 100 cards in total.","73","","instructions","2021-06-02 23:28:24.134","","","","","",""
"casino-keyboard-response","58","284875","0.0-19.0-0.2","641","false","img/card_backs/set1/yellow.gif","img/card_backs/set1/purple.gif","img/card_backs/set1/red.gif","img/card_backs/set1/green.gif","img/card_backs/set2/pink.gif","img/card_backs/set2/orange.gif","img/card_backs/set2/blue.gif","img/card_backs/set2/gray.gif","""event"",""trial"",""time""
""focus"",""0"",""0""
""fullscreenenter"",""1"",""1833""
","
","""event"",""trial"",""time""
""focus"",""0"",""0""
","""event"",""trial"",""time""
""fullscreenenter"",""1"",""1833""
","
","","4466","We are now going to ask you some questions about how the game works.","66","","instructions","2021-06-02 23:28:28.602","","","","","",""
"casino-keyboard-response","59","291146","0.0-19.0-0.3","641","false","img/card_backs/set1/yellow.gif","img/card_backs/set1/purple.gif","img/card_backs/set1/red.gif","img/card_backs/set1/green.gif","img/card_backs/set2/pink.gif","img/card_backs/set2/orange.gif","img/card_backs/set2/blue.gif","img/card_backs/set2/gray.gif","""event"",""trial"",""time""
""focus"",""0"",""0""
""fullscreenenter"",""1"",""1833""
","
","""event"",""trial"",""time""
""focus"",""0"",""0""
","""event"",""trial"",""time""
""fullscreenenter"",""1"",""1833""
","
","","6269","Answer carefully. You will not be able to begin the game until you answer them correctly.","67","","instructions","2021-06-02 23:28:34.873","","","","","",""
"casino-comp_q","60","298529","0.0-20.0-0.0","641","false","img/card_backs/set1/yellow.gif","img/card_backs/set1/purple.gif","img/card_backs/set1/red.gif","img/card_backs/set1/green.gif","img/card_backs/set2/pink.gif","img/card_backs/set2/orange.gif","img/card_backs/set2/blue.gif","img/card_backs/set2/gray.gif","""event"",""trial"",""time""
""focus"",""0"",""0""
""fullscreenenter"",""1"",""1833""
","
","""event"",""trial"",""time""
""focus"",""0"",""0""
","""event"",""trial"",""time""
""fullscreenenter"",""1"",""1833""
","
","","7381","True or False: All the decks have some cards that cause you to win tokens and some cards that cause you to lose tokens.","84","","","2021-06-02 23:28:42.256","","","","","",""
"casino-keyboard-response","61","301866","0.0-20.0-1.0","641","false","img/card_backs/set1/yellow.gif","img/card_backs/set1/purple.gif","img/card_backs/set1/red.gif","img/card_backs/set1/green.gif","img/card_backs/set2/pink.gif","img/card_backs/set2/orange.gif","img/card_backs/set2/blue.gif","img/card_backs/set2/gray.gif","""event"",""trial"",""time""
""focus"",""0"",""0""
""fullscreenenter"",""1"",""1833""
","
","""event"",""trial"",""time""
""focus"",""0"",""0""
","""event"",""trial"",""time""
""fullscreenenter"",""1"",""1833""
","
","","3335","True is correct! All the decks have a mix of winning and losing cards.","77","","","2021-06-02 23:28:45.593","","","","","true",""
"casino-comp_q","62","305788","0.0-21.0-0.0","641","false","img/card_backs/set1/yellow.gif","img/card_backs/set1/purple.gif","img/card_backs/set1/red.gif","img/card_backs/set1/green.gif","img/card_backs/set2/pink.gif","img/card_backs/set2/orange.gif","img/card_backs/set2/blue.gif","img/card_backs/set2/gray.gif","""event"",""trial"",""time""
""focus"",""0"",""0""
""fullscreenenter"",""1"",""1833""
","
","""event"",""trial"",""time""
""focus"",""0"",""0""
","""event"",""trial"",""time""
""fullscreenenter"",""1"",""1833""
","
","","3921","True or False: You will have as much time as you want to make your response.","70","","","2021-06-02 23:28:49.516","","","","","",""
"casino-keyboard-response","63","311823","0.0-21.0-1.0","641","false","img/card_backs/set1/yellow.gif","img/card_backs/set1/purple.gif","img/card_backs/set1/red.gif","img/card_backs/set1/green.gif","img/card_backs/set2/pink.gif","img/card_backs/set2/orange.gif","img/card_backs/set2/blue.gif","img/card_backs/set2/gray.gif","""event"",""trial"",""time""
""focus"",""0"",""0""
""fullscreenenter"",""1"",""1833""
","
","""event"",""trial"",""time""
""focus"",""0"",""0""
","""event"",""trial"",""time""
""fullscreenenter"",""1"",""1833""
","
","","6032","False is correct! You will only have 10 seconds to make each choice.","75","","","2021-06-02 23:28:55.550","","","","","true",""
"casino-comp_q","64","316269","0.0-22.0-0.0","641","false","img/card_backs/set1/yellow.gif","img/card_backs/set1/purple.gif","img/card_backs/set1/red.gif","img/card_backs/set1/green.gif","img/card_backs/set2/pink.gif","img/card_backs/set2/orange.gif","img/card_backs/set2/blue.gif","img/card_backs/set2/gray.gif","""event"",""trial"",""time""
""focus"",""0"",""0""
""fullscreenenter"",""1"",""1833""
","
","""event"",""trial"",""time""
""focus"",""0"",""0""
","""event"",""trial"",""time""
""fullscreenenter"",""1"",""1833""
","
","","4446","True or False: The location of the deck determines how lucky it is.","70","","","2021-06-02 23:28:59.996","","","","","",""
"casino-keyboard-response","65","319594","0.0-22.0-1.0","641","false","img/card_backs/set1/yellow.gif","img/card_backs/set1/purple.gif","img/card_backs/set1/red.gif","img/card_backs/set1/green.gif","img/card_backs/set2/pink.gif","img/card_backs/set2/orange.gif","img/card_backs/set2/blue.gif","img/card_backs/set2/gray.gif","""event"",""trial"",""time""
""focus"",""0"",""0""
""fullscreenenter"",""1"",""1833""
","
","""event"",""trial"",""time""
""focus"",""0"",""0""
","""event"",""trial"",""time""
""fullscreenenter"",""1"",""1833""
","
","","3324","False is correct! The <i>color</i>  of the deck determines how lucky or unlucky it is.","68","","","2021-06-02 23:29:03.321","","","","","true",""
"casino-keyboard-response","66","323976","0.0-23.0-0.0","641","false","img/card_backs/set1/yellow.gif","img/card_backs/set1/purple.gif","img/card_backs/set1/red.gif","img/card_backs/set1/green.gif","img/card_backs/set2/pink.gif","img/card_backs/set2/orange.gif","img/card_backs/set2/blue.gif","img/card_backs/set2/gray.gif","""event"",""trial"",""time""
""focus"",""0"",""0""
""fullscreenenter"",""1"",""1833""
","
","""event"",""trial"",""time""
""focus"",""0"",""0""
","""event"",""trial"",""time""
""fullscreenenter"",""1"",""1833""
","
","","4380","Great job! Now it's time to start the real game.","82","","instructions","2021-06-02 23:29:07.703","","","","","",""
"casino-keyboard-response","67","329372","0.0-23.0-0.1","641","false","img/card_backs/set1/yellow.gif","img/card_backs/set1/purple.gif","img/card_backs/set1/red.gif","img/card_backs/set1/green.gif","img/card_backs/set2/pink.gif","img/card_backs/set2/orange.gif","img/card_backs/set2/blue.gif","img/card_backs/set2/gray.gif","""event"",""trial"",""time""
""focus"",""0"",""0""
""fullscreenenter"",""1"",""1833""
","
","""event"",""trial"",""time""
""focus"",""0"",""0""
","""event"",""trial"",""time""
""fullscreenenter"",""1"",""1833""
","
","","5394","Before we start, we're going to head into a new room of the casino.","86","","instructions","2021-06-02 23:29:13.100","","","","","",""
"casino-keyboard-response","68","336288","0.0-24.0-0.0","641","false","img/card_backs/set1/yellow.gif","img/card_backs/set1/purple.gif","img/card_backs/set1/red.gif","img/card_backs/set1/green.gif","img/card_backs/set2/pink.gif","img/card_backs/set2/orange.gif","img/card_backs/set2/blue.gif","img/card_backs/set2/gray.gif","""event"",""trial"",""time""
""focus"",""0"",""0""
""fullscreenenter"",""1"",""1833""
","
","""event"",""trial"",""time""
""focus"",""0"",""0""
","""event"",""trial"",""time""
""fullscreenenter"",""1"",""1833""
","
","","6913","Here we are! The real game will use different cards, but the rules will be the same.","71","","instructions","2021-06-02 23:29:20.015","","","","","",""
"casino-keyboard-response","69","343064","0.0-24.0-0.1","641","false","img/card_backs/set1/yellow.gif","img/card_backs/set1/purple.gif","img/card_backs/set1/red.gif","img/card_backs/set1/green.gif","img/card_backs/set2/pink.gif","img/card_backs/set2/orange.gif","img/card_backs/set2/blue.gif","img/card_backs/set2/gray.gif","""event"",""trial"",""time""
""focus"",""0"",""0""
""fullscreenenter"",""1"",""1833""
","
","""event"",""trial"",""time""
""focus"",""0"",""0""
","""event"",""trial"",""time""
""fullscreenenter"",""1"",""1833""
","
","","6776","Ready? Put your fingers over the '2', '4', 6', and '8' keys so you are ready to play the game. </br> Then press 2 to start.","50","","instructions","2021-06-02 23:29:26.791","","","","","",""
"casino-fixation","70","343569","0.0-25.0-0.0","641","false","img/card_backs/set1/yellow.gif","img/card_backs/set1/purple.gif","img/card_backs/set1/red.gif","img/card_backs/set1/green.gif","img/card_backs/set2/pink.gif","img/card_backs/set2/orange.gif","img/card_backs/set2/blue.gif","img/card_backs/set2/gray.gif","""event"",""trial"",""time""
""focus"",""0"",""0""
""fullscreenenter"",""1"",""1833""
","
","""event"",""trial"",""time""
""focus"",""0"",""0""
","""event"",""trial"",""time""
""fullscreenenter"",""1"",""1833""
","
","","null","","null","","fixation","2021-06-02 23:29:27.296","","","","","",""
"card-selection-trial","71","347005","0.0-25.0-1.0","641","false","img/card_backs/set1/yellow.gif","img/card_backs/set1/purple.gif","img/card_backs/set1/red.gif","img/card_backs/set1/green.gif","img/card_backs/set2/pink.gif","img/card_backs/set2/orange.gif","img/card_backs/set2/blue.gif","img/card_backs/set2/gray.gif","""event"",""trial"",""time""
""focus"",""0"",""0""
""fullscreenenter"",""1"",""1833""
","
","""event"",""trial"",""time""
""focus"",""0"",""0""
","""event"",""trial"",""time""
""fullscreenenter"",""1"",""1833""
","
","","1432","","","","real_trial","2021-06-02 23:29:30.732","img/card_backs/set1/green.gif","1","-70","1","",""
"casino-fixation","72","347511","0.0-25.0-0.1","641","false","img/card_backs/set1/yellow.gif","img/card_backs/set1/purple.gif","img/card_backs/set1/red.gif","img/card_backs/set1/green.gif","img/card_backs/set2/pink.gif","img/card_backs/set2/orange.gif","img/card_backs/set2/blue.gif","img/card_backs/set2/gray.gif","""event"",""trial"",""time""
""focus"",""0"",""0""
""fullscreenenter"",""1"",""1833""
","
","""event"",""trial"",""time""
""focus"",""0"",""0""
","""event"",""trial"",""time""
""fullscreenenter"",""1"",""1833""
","
","","null","","null","","fixation","2021-06-02 23:29:31.238","","","","","",""
"card-selection-trial","73","350751","0.0-25.0-1.1","641","false","img/card_backs/set1/yellow.gif","img/card_backs/set1/purple.gif","img/card_backs/set1/red.gif","img/card_backs/set1/green.gif","img/card_backs/set2/pink.gif","img/card_backs/set2/orange.gif","img/card_backs/set2/blue.gif","img/card_backs/set2/gray.gif","""event"",""trial"",""time""
""focus"",""0"",""0""
""fullscreenenter"",""1"",""1833""
","
","""event"",""trial"",""time""
""focus"",""0"",""0""
","""event"",""trial"",""time""
""fullscreenenter"",""1"",""1833""
","
","","1234","","","","real_trial","2021-06-02 23:29:34.479","img/card_backs/set1/yellow.gif","2","-250","1","",""
"casino-fixation","74","351254","0.0-25.0-0.2","641","false","img/card_backs/set1/yellow.gif","img/card_backs/set1/purple.gif","img/card_backs/set1/red.gif","img/card_backs/set1/green.gif","img/card_backs/set2/pink.gif","img/card_backs/set2/orange.gif","img/card_backs/set2/blue.gif","img/card_backs/set2/gray.gif","""event"",""trial"",""time""
""focus"",""0"",""0""
""fullscreenenter"",""1"",""1833""
","
","""event"",""trial"",""time""
""focus"",""0"",""0""
","""event"",""trial"",""time""
""fullscreenenter"",""1"",""1833""
","
","","null","","null","","fixation","2021-06-02 23:29:34.982","","","","","",""
"card-selection-trial","75","354429","0.0-25.0-1.2","641","false","img/card_backs/set1/yellow.gif","img/card_backs/set1/purple.gif","img/card_backs/set1/red.gif","img/card_backs/set1/green.gif","img/card_backs/set2/pink.gif","img/card_backs/set2/orange.gif","img/card_backs/set2/blue.gif","img/card_backs/set2/gray.gif","""event"",""trial"",""time""
""focus"",""0"",""0""
""fullscreenenter"",""1"",""1833""
","
","""event"",""trial"",""time""
""focus"",""0"",""0""
","""event"",""trial"",""time""
""fullscreenenter"",""1"",""1833""
","
","","1170","","","","real_trial","2021-06-02 23:29:38.156","img/card_backs/set1/purple.gif","3","200","1","",""
"casino-fixation","76","354935","0.0-25.0-0.3","641","false","img/card_backs/set1/yellow.gif","img/card_backs/set1/purple.gif","img/card_backs/set1/red.gif","img/card_backs/set1/green.gif","img/card_backs/set2/pink.gif","img/card_backs/set2/orange.gif","img/card_backs/set2/blue.gif","img/card_backs/set2/gray.gif","""event"",""trial"",""time""
""focus"",""0"",""0""
""fullscreenenter"",""1"",""1833""
","
","""event"",""trial"",""time""
""focus"",""0"",""0""
","""event"",""trial"",""time""
""fullscreenenter"",""1"",""1833""
","
","","null","","null","","fixation","2021-06-02 23:29:38.662","","","","","",""
"card-selection-trial","77","358331","0.0-25.0-1.3","641","false","img/card_backs/set1/yellow.gif","img/card_backs/set1/purple.gif","img/card_backs/set1/red.gif","img/card_backs/set1/green.gif","img/card_backs/set2/pink.gif","img/card_backs/set2/orange.gif","img/card_backs/set2/blue.gif","img/card_backs/set2/gray.gif","""event"",""trial"",""time""
""focus"",""0"",""0""
""fullscreenenter"",""1"",""1833""
","
","""event"",""trial"",""time""
""focus"",""0"",""0""
","""event"",""trial"",""time""
""fullscreenenter"",""1"",""1833""
","
","","1386","","","","real_trial","2021-06-02 23:29:42.058","img/card_backs/set1/yellow.gif","0","180","1","",""
"casino-fixation","78","358836","0.0-25.0-0.4","641","false","img/card_backs/set1/yellow.gif","img/card_backs/set1/purple.gif","img/card_backs/set1/red.gif","img/card_backs/set1/green.gif","img/card_backs/set2/pink.gif","img/card_backs/set2/orange.gif","img/card_backs/set2/blue.gif","img/card_backs/set2/gray.gif","""event"",""trial"",""time""
""focus"",""0"",""0""
""fullscreenenter"",""1"",""1833""
","
","""event"",""trial"",""time""
""focus"",""0"",""0""
","""event"",""trial"",""time""
""fullscreenenter"",""1"",""1833""
","
","","null","","null","","fixation","2021-06-02 23:29:42.563","","","","","",""
"card-selection-trial","79","363328","0.0-25.0-1.4","641","false","img/card_backs/set1/yellow.gif","img/card_backs/set1/purple.gif","img/card_backs/set1/red.gif","img/card_backs/set1/green.gif","img/card_backs/set2/pink.gif","img/card_backs/set2/orange.gif","img/card_backs/set2/blue.gif","img/card_backs/set2/gray.gif","""event"",""trial"",""time""
""focus"",""0"",""0""
""fullscreenenter"",""1"",""1833""
","
","""event"",""trial"",""time""
""focus"",""0"",""0""
","""event"",""trial"",""time""
""fullscreenenter"",""1"",""1833""
","
","","2485","","","","real_trial","2021-06-02 23:29:47.056","img/card_backs/set1/red.gif","2","-70","1","",""
"casino-fixation","80","363833","0.0-25.0-0.5","641","false","img/card_backs/set1/yellow.gif","img/card_backs/set1/purple.gif","img/card_backs/set1/red.gif","img/card_backs/set1/green.gif","img/card_backs/set2/pink.gif","img/card_backs/set2/orange.gif","img/card_backs/set2/blue.gif","img/card_backs/set2/gray.gif","""event"",""trial"",""time""
""focus"",""0"",""0""
""fullscreenenter"",""1"",""1833""
","
","""event"",""trial"",""time""
""focus"",""0"",""0""
","""event"",""trial"",""time""
""fullscreenenter"",""1"",""1833""
","
","","null","","null","","fixation","2021-06-02 23:29:47.561","","","","","",""
"card-selection-trial","81","366566","0.0-25.0-1.5","641","false","img/card_backs/set1/yellow.gif","img/card_backs/set1/purple.gif","img/card_backs/set1/red.gif","img/card_backs/set1/green.gif","img/card_backs/set2/pink.gif","img/card_backs/set2/orange.gif","img/card_backs/set2/blue.gif","img/card_backs/set2/gray.gif","""event"",""trial"",""time""
""focus"",""0"",""0""
""fullscreenenter"",""1"",""1833""
","
","""event"",""trial"",""time""
""focus"",""0"",""0""
","""event"",""trial"",""time""
""fullscreenenter"",""1"",""1833""
","
","","724","","","","real_trial","2021-06-02 23:29:50.293","img/card_backs/set1/purple.gif","3","180","1","",""
"casino-fixation","82","367073","0.0-25.0-0.6","641","false","img/card_backs/set1/yellow.gif","img/card_backs/set1/purple.gif","img/card_backs/set1/red.gif","img/card_backs/set1/green.gif","img/card_backs/set2/pink.gif","img/card_backs/set2/orange.gif","img/card_backs/set2/blue.gif","img/card_backs/set2/gray.gif","""event"",""trial"",""time""
""focus"",""0"",""0""
""fullscreenenter"",""1"",""1833""
","
","""event"",""trial"",""time""
""focus"",""0"",""0""
","""event"",""trial"",""time""
""fullscreenenter"",""1"",""1833""
","
","","null","","null","","fixation","2021-06-02 23:29:50.800","","","","","",""
"card-selection-trial","83","370620","0.0-25.0-1.6","641","false","img/card_backs/set1/yellow.gif","img/card_backs/set1/purple.gif","img/card_backs/set1/red.gif","img/card_backs/set1/green.gif","img/card_backs/set2/pink.gif","img/card_backs/set2/orange.gif","img/card_backs/set2/blue.gif","img/card_backs/set2/gray.gif","""event"",""trial"",""time""
""focus"",""0"",""0""
""fullscreenenter"",""1"",""1833""
","
","""event"",""trial"",""time""
""focus"",""0"",""0""
","""event"",""trial"",""time""
""fullscreenenter"",""1"",""1833""
","
","","1543","","","","real_trial","2021-06-02 23:29:54.347","img/card_backs/set1/red.gif","2","-60","1","",""
"casino-fixation","84","371125","0.0-25.0-0.7","641","false","img/card_backs/set1/yellow.gif","img/card_backs/set1/purple.gif","img/card_backs/set1/red.gif","img/card_backs/set1/green.gif","img/card_backs/set2/pink.gif","img/card_backs/set2/orange.gif","img/card_backs/set2/blue.gif","img/card_backs/set2/gray.gif","""event"",""trial"",""time""
""focus"",""0"",""0""
""fullscreenenter"",""1"",""1833""
","
","""event"",""trial"",""time""
""focus"",""0"",""0""
","""event"",""trial"",""time""
""fullscreenenter"",""1"",""1833""
","
","","null","","null","","fixation","2021-06-02 23:29:54.852","","","","","",""
"card-selection-trial","85","374260","0.0-25.0-1.7","641","false","img/card_backs/set1/yellow.gif","img/card_backs/set1/purple.gif","img/card_backs/set1/red.gif","img/card_backs/set1/green.gif","img/card_backs/set2/pink.gif","img/card_backs/set2/orange.gif","img/card_backs/set2/blue.gif","img/card_backs/set2/gray.gif","""event"",""trial"",""time""
""focus"",""0"",""0""
""fullscreenenter"",""1"",""1833""
","
","""event"",""trial"",""time""
""focus"",""0"",""0""
","""event"",""trial"",""time""
""fullscreenenter"",""1"",""1833""
","
","","1130","","","","real_trial","2021-06-02 23:29:57.987","img/card_backs/set1/red.gif","1","-70","1","",""
"casino-fixation","86","374764","0.0-25.0-0.8","641","false","img/card_backs/set1/yellow.gif","img/card_backs/set1/purple.gif","img/card_backs/set1/red.gif","img/card_backs/set1/green.gif","img/card_backs/set2/pink.gif","img/card_backs/set2/orange.gif","img/card_backs/set2/blue.gif","img/card_backs/set2/gray.gif","""event"",""trial"",""time""
""focus"",""0"",""0""
""fullscreenenter"",""1"",""1833""
","
","""event"",""trial"",""time""
""focus"",""0"",""0""
","""event"",""trial"",""time""
""fullscreenenter"",""1"",""1833""
","
","","null","","null","","fixation","2021-06-02 23:29:58.491","","","","","",""
"card-selection-trial","87","377195","0.0-25.0-1.8","641","false","img/card_backs/set1/yellow.gif","img/card_backs/set1/purple.gif","img/card_backs/set1/red.gif","img/card_backs/set1/green.gif","img/card_backs/set2/pink.gif","img/card_backs/set2/orange.gif","img/card_backs/set2/blue.gif","img/card_backs/set2/gray.gif","""event"",""trial"",""time""
""focus"",""0"",""0""
""fullscreenenter"",""1"",""1833""
","
","""event"",""trial"",""time""
""focus"",""0"",""0""
","""event"",""trial"",""time""
""fullscreenenter"",""1"",""1833""
","
","","425","","","","real_trial","2021-06-02 23:30:00.922","img/card_backs/set1/purple.gif","0","190","1","",""
"casino-fixation","88","377701","0.0-25.0-0.9","641","false","img/card_backs/set1/yellow.gif","img/card_backs/set1/purple.gif","img/card_backs/set1/red.gif","img/card_backs/set1/green.gif","img/card_backs/set2/pink.gif","img/card_backs/set2/orange.gif","img/card_backs/set2/blue.gif","img/card_backs/set2/gray.gif","""event"",""trial"",""time""
""focus"",""0"",""0""
""fullscreenenter"",""1"",""1833""
","
","""event"",""trial"",""time""
""focus"",""0"",""0""
","""event"",""trial"",""time""
""fullscreenenter"",""1"",""1833""
","
","","null","","null","","fixation","2021-06-02 23:30:01.428","","","","","",""
"card-selection-trial","89","381440","0.0-25.0-1.9","641","false","img/card_backs/set1/yellow.gif","img/card_backs/set1/purple.gif","img/card_backs/set1/red.gif","img/card_backs/set1/green.gif","img/card_backs/set2/pink.gif","img/card_backs/set2/orange.gif","img/card_backs/set2/blue.gif","img/card_backs/set2/gray.gif","""event"",""trial"",""time""
""focus"",""0"",""0""
""fullscreenenter"",""1"",""1833""
","
","""event"",""trial"",""time""
""focus"",""0"",""0""
","""event"",""trial"",""time""
""fullscreenenter"",""1"",""1833""
","
","","1731","","","","real_trial","2021-06-02 23:30:05.167","img/card_backs/set1/red.gif","3","110","1","",""
"casino-fixation","90","381945","0.0-25.0-0.10","641","false","img/card_backs/set1/yellow.gif","img/card_backs/set1/purple.gif","img/card_backs/set1/red.gif","img/card_backs/set1/green.gif","img/card_backs/set2/pink.gif","img/card_backs/set2/orange.gif","img/card_backs/set2/blue.gif","img/card_backs/set2/gray.gif","""event"",""trial"",""time""
""focus"",""0"",""0""
""fullscreenenter"",""1"",""1833""
","
","""event"",""trial"",""time""
""focus"",""0"",""0""
","""event"",""trial"",""time""
""fullscreenenter"",""1"",""1833""
","
","","null","","null","","fixation","2021-06-02 23:30:05.672","","","","","",""
"card-selection-trial","91","385530","0.0-25.0-1.10","641","false","img/card_backs/set1/yellow.gif","img/card_backs/set1/purple.gif","img/card_backs/set1/red.gif","img/card_backs/set1/green.gif","img/card_backs/set2/pink.gif","img/card_backs/set2/orange.gif","img/card_backs/set2/blue.gif","img/card_backs/set2/gray.gif","""event"",""trial"",""time""
""focus"",""0"",""0""
""fullscreenenter"",""1"",""1833""
","
","""event"",""trial"",""time""
""focus"",""0"",""0""
","""event"",""trial"",""time""
""fullscreenenter"",""1"",""1833""
","
","","1582","","","","real_trial","2021-06-02 23:30:09.257","img/card_backs/set1/green.gif","1","-50","1","",""
"casino-fixation","92","386035","0.0-25.0-0.11","641","false","img/card_backs/set1/yellow.gif","img/card_backs/set1/purple.gif","img/card_backs/set1/red.gif","img/card_backs/set1/green.gif","img/card_backs/set2/pink.gif","img/card_backs/set2/orange.gif","img/card_backs/set2/blue.gif","img/card_backs/set2/gray.gif","""event"",""trial"",""time""
""focus"",""0"",""0""
""fullscreenenter"",""1"",""1833""
","
","""event"",""trial"",""time""
""focus"",""0"",""0""
","""event"",""trial"",""time""
""fullscreenenter"",""1"",""1833""
","
","","null","","null","","fixation","2021-06-02 23:30:09.762","","","","","",""
"card-selection-trial","93","388057","0.0-25.0-1.11","641","false","img/card_backs/set1/yellow.gif","img/card_backs/set1/purple.gif","img/card_backs/set1/red.gif","img/card_backs/set1/green.gif","img/card_backs/set2/pink.gif","img/card_backs/set2/orange.gif","img/card_backs/set2/blue.gif","img/card_backs/set2/gray.gif","""event"",""trial"",""time""
""focus"",""0"",""0""
""fullscreenenter"",""1"",""1833""
","
","""event"",""trial"",""time""
""focus"",""0"",""0""
","""event"",""trial"",""time""
""fullscreenenter"",""1"",""1833""
","
","","14","","","","real_trial","2021-06-02 23:30:11.784","img/card_backs/set1/red.gif","2","110","1","",""
"casino-fixation","94","388563","0.0-25.0-0.12","641","false","img/card_backs/set1/yellow.gif","img/card_backs/set1/purple.gif","img/card_backs/set1/red.gif","img/card_backs/set1/green.gif","img/card_backs/set2/pink.gif","img/card_backs/set2/orange.gif","img/card_backs/set2/blue.gif","img/card_backs/set2/gray.gif","""event"",""trial"",""time""
""focus"",""0"",""0""
""fullscreenenter"",""1"",""1833""
","
","""event"",""trial"",""time""
""focus"",""0"",""0""
","""event"",""trial"",""time""
""fullscreenenter"",""1"",""1833""
","
","","null","","null","","fixation","2021-06-02 23:30:12.290","","","","","",""
"card-selection-trial","95","391186","0.0-25.0-1.12","641","false","img/card_backs/set1/yellow.gif","img/card_backs/set1/purple.gif","img/card_backs/set1/red.gif","img/card_backs/set1/green.gif","img/card_backs/set2/pink.gif","img/card_backs/set2/orange.gif","img/card_backs/set2/blue.gif","img/card_backs/set2/gray.gif","""event"",""trial"",""time""
""focus"",""0"",""0""
""fullscreenenter"",""1"",""1833""
","
","""event"",""trial"",""time""
""focus"",""0"",""0""
","""event"",""trial"",""time""
""fullscreenenter"",""1"",""1833""
","
","","617","","","","real_trial","2021-06-02 23:30:14.913","img/card_backs/set1/green.gif","3","-70","1","",""
"casino-fixation","96","391691","0.0-25.0-0.13","641","false","img/card_backs/set1/yellow.gif","img/card_backs/set1/purple.gif","img/card_backs/set1/red.gif","img/card_backs/set1/green.gif","img/card_backs/set2/pink.gif","img/card_backs/set2/orange.gif","img/card_backs/set2/blue.gif","img/card_backs/set2/gray.gif","""event"",""trial"",""time""
""focus"",""0"",""0""
""fullscreenenter"",""1"",""1833""
","
","""event"",""trial"",""time""
""focus"",""0"",""0""
","""event"",""trial"",""time""
""fullscreenenter"",""1"",""1833""
","
","","null","","null","","fixation","2021-06-02 23:30:15.418","","","","","",""
"card-selection-trial","97","395254","0.0-25.0-1.13","641","false","img/card_backs/set1/yellow.gif","img/card_backs/set1/purple.gif","img/card_backs/set1/red.gif","img/card_backs/set1/green.gif","img/card_backs/set2/pink.gif","img/card_backs/set2/orange.gif","img/card_backs/set2/blue.gif","img/card_backs/set2/gray.gif","""event"",""trial"",""time""
""focus"",""0"",""0""
""fullscreenenter"",""1"",""1833""
","
","""event"",""trial"",""time""
""focus"",""0"",""0""
","""event"",""trial"",""time""
""fullscreenenter"",""1"",""1833""
","
","","1559","","","","real_trial","2021-06-02 23:30:18.981","img/card_backs/set1/yellow.gif","0","180","1","",""
"casino-fixation","98","395760","0.0-25.0-0.14","641","false","img/card_backs/set1/yellow.gif","img/card_backs/set1/purple.gif","img/card_backs/set1/red.gif","img/card_backs/set1/green.gif","img/card_backs/set2/pink.gif","img/card_backs/set2/orange.gif","img/card_backs/set2/blue.gif","img/card_backs/set2/gray.gif","""event"",""trial"",""time""
""focus"",""0"",""0""
""fullscreenenter"",""1"",""1833""
","
","""event"",""trial"",""time""
""focus"",""0"",""0""
","""event"",""trial"",""time""
""fullscreenenter"",""1"",""1833""
","
","","null","","null","","fixation","2021-06-02 23:30:19.487","","","","","",""
"card-selection-trial","99","399284","0.0-25.0-1.14","641","false","img/card_backs/set1/yellow.gif","img/card_backs/set1/purple.gif","img/card_backs/set1/red.gif","img/card_backs/set1/green.gif","img/card_backs/set2/pink.gif","img/card_backs/set2/orange.gif","img/card_backs/set2/blue.gif","img/card_backs/set2/gray.gif","""event"",""trial"",""time""
""focus"",""0"",""0""
""fullscreenenter"",""1"",""1833""
","
","""event"",""trial"",""time""
""focus"",""0"",""0""
","""event"",""trial"",""time""
""fullscreenenter"",""1"",""1833""
","
","","1519","","","","real_trial","2021-06-02 23:30:23.011","img/card_backs/set1/yellow.gif","0","-230","1","",""
"casino-fixation","100","399792","0.0-25.0-0.15","641","false","img/card_backs/set1/yellow.gif","img/card_backs/set1/purple.gif","img/card_backs/set1/red.gif","img/card_backs/set1/green.gif","img/card_backs/set2/pink.gif","img/card_backs/set2/orange.gif","img/card_backs/set2/blue.gif","img/card_backs/set2/gray.gif","""event"",""trial"",""time""
""focus"",""0"",""0""
""fullscreenenter"",""1"",""1833""
","
","""event"",""trial"",""time""
""focus"",""0"",""0""
","""event"",""trial"",""time""
""fullscreenenter"",""1"",""1833""
","
","","null","","null","","fixation","2021-06-02 23:30:23.519","","","","","",""
"card-selection-trial","101","402929","0.0-25.0-1.15","641","false","img/card_backs/set1/yellow.gif","img/card_backs/set1/purple.gif","img/card_backs/set1/red.gif","img/card_backs/set1/green.gif","img/card_backs/set2/pink.gif","img/card_backs/set2/orange.gif","img/card_backs/set2/blue.gif","img/card_backs/set2/gray.gif","""event"",""trial"",""time""
""focus"",""0"",""0""
""fullscreenenter"",""1"",""1833""
","
","""event"",""trial"",""time""
""focus"",""0"",""0""
","""event"",""trial"",""time""
""fullscreenenter"",""1"",""1833""
","
","","1130","","","","real_trial","2021-06-02 23:30:26.656","img/card_backs/set1/green.gif","3","120","1","",""
"casino-fixation","102","403436","0.0-25.0-0.16","641","false","img/card_backs/set1/yellow.gif","img/card_backs/set1/purple.gif","img/card_backs/set1/red.gif","img/card_backs/set1/green.gif","img/card_backs/set2/pink.gif","img/card_backs/set2/orange.gif","img/card_backs/set2/blue.gif","img/card_backs/set2/gray.gif","""event"",""trial"",""time""
""focus"",""0"",""0""
""fullscreenenter"",""1"",""1833""
","
","""event"",""trial"",""time""
""focus"",""0"",""0""
","""event"",""trial"",""time""
""fullscreenenter"",""1"",""1833""
","
","","null","","null","","fixation","2021-06-02 23:30:27.163","","","","","",""
"card-selection-trial","103","407404","0.0-25.0-1.16","641","false","img/card_backs/set1/yellow.gif","img/card_backs/set1/purple.gif","img/card_backs/set1/red.gif","img/card_backs/set1/green.gif","img/card_backs/set2/pink.gif","img/card_backs/set2/orange.gif","img/card_backs/set2/blue.gif","img/card_backs/set2/gray.gif","""event"",""trial"",""time""
""focus"",""0"",""0""
""fullscreenenter"",""1"",""1833""
","
","""event"",""trial"",""time""
""focus"",""0"",""0""
","""event"",""trial"",""time""
""fullscreenenter"",""1"",""1833""
","
","","1960","","","","real_trial","2021-06-02 23:30:31.131","img/card_backs/set1/green.gif","2","100","1","",""
"casino-fixation","104","407908","0.0-25.0-0.17","641","false","img/card_backs/set1/yellow.gif","img/card_backs/set1/purple.gif","img/card_backs/set1/red.gif","img/card_backs/set1/green.gif","img/card_backs/set2/pink.gif","img/card_backs/set2/orange.gif","img/card_backs/set2/blue.gif","img/card_backs/set2/gray.gif","""event"",""trial"",""time""
""focus"",""0"",""0""
""fullscreenenter"",""1"",""1833""
","
","""event"",""trial"",""time""
""focus"",""0"",""0""
","""event"",""trial"",""time""
""fullscreenenter"",""1"",""1833""
","
","","null","","null","","fixation","2021-06-02 23:30:31.635","","","","","",""
"card-selection-trial","105","412171","0.0-25.0-1.17","641","false","img/card_backs/set1/yellow.gif","img/card_backs/set1/purple.gif","img/card_backs/set1/red.gif","img/card_backs/set1/green.gif","img/card_backs/set2/pink.gif","img/card_backs/set2/orange.gif","img/card_backs/set2/blue.gif","img/card_backs/set2/gray.gif","""event"",""trial"",""time""
""focus"",""0"",""0""
""fullscreenenter"",""1"",""1833""
","
","""event"",""trial"",""time""
""focus"",""0"",""0""
","""event"",""trial"",""time""
""fullscreenenter"",""1"",""1833""
","
","","2254","","","","real_trial","2021-06-02 23:30:35.898","img/card_backs/set1/green.gif","3","-50","1","",""
"casino-fixation","106","412672","0.0-25.0-0.18","641","false","img/card_backs/set1/yellow.gif","img/card_backs/set1/purple.gif","img/card_backs/set1/red.gif","img/card_backs/set1/green.gif","img/card_backs/set2/pink.gif","img/card_backs/set2/orange.gif","img/card_backs/set2/blue.gif","img/card_backs/set2/gray.gif","""event"",""trial"",""time""
""focus"",""0"",""0""
""fullscreenenter"",""1"",""1833""
","
","""event"",""trial"",""time""
""focus"",""0"",""0""
","""event"",""trial"",""time""
""fullscreenenter"",""1"",""1833""
","
","","null","","null","","fixation","2021-06-02 23:30:36.399","","","","","",""
"card-selection-trial","107","415836","0.0-25.0-1.18","641","false","img/card_backs/set1/yellow.gif","img/card_backs/set1/purple.gif","img/card_backs/set1/red.gif","img/card_backs/set1/green.gif","img/card_backs/set2/pink.gif","img/card_backs/set2/orange.gif","img/card_backs/set2/blue.gif","img/card_backs/set2/gray.gif","""event"",""trial"",""time""
""focus"",""0"",""0""
""fullscreenenter"",""1"",""1833""
","
","""event"",""trial"",""time""
""focus"",""0"",""0""
","""event"",""trial"",""time""
""fullscreenenter"",""1"",""1833""
","
","","1156","","","","real_trial","2021-06-02 23:30:39.563","img/card_backs/set1/red.gif","2","120","1","",""
"casino-fixation","108","416338","0.0-25.0-0.19","641","false","img/card_backs/set1/yellow.gif","img/card_backs/set1/purple.gif","img/card_backs/set1/red.gif","img/card_backs/set1/green.gif","img/card_backs/set2/pink.gif","img/card_backs/set2/orange.gif","img/card_backs/set2/blue.gif","img/card_backs/set2/gray.gif","""event"",""trial"",""time""
""focus"",""0"",""0""
""fullscreenenter"",""1"",""1833""
","
","""event"",""trial"",""time""
""focus"",""0"",""0""
","""event"",""trial"",""time""
""fullscreenenter"",""1"",""1833""
","
","","null","","null","","fixation","2021-06-02 23:30:40.065","","","","","",""
"card-selection-trial","109","420427","0.0-25.0-1.19","641","false","img/card_backs/set1/yellow.gif","img/card_backs/set1/purple.gif","img/card_backs/set1/red.gif","img/card_backs/set1/green.gif","img/card_backs/set2/pink.gif","img/card_backs/set2/orange.gif","img/card_backs/set2/blue.gif","img/card_backs/set2/gray.gif","""event"",""trial"",""time""
""focus"",""0"",""0""
""fullscreenenter"",""1"",""1833""
","
","""event"",""trial"",""time""
""focus"",""0"",""0""
","""event"",""trial"",""time""
""fullscreenenter"",""1"",""1833""
","
","","2083","","","","real_trial","2021-06-02 23:30:44.154","img/card_backs/set1/yellow.gif","0","-240","1","",""
"casino-fixation","110","420934","0.0-25.0-0.20","641","false","img/card_backs/set1/yellow.gif","img/card_backs/set1/purple.gif","img/card_backs/set1/red.gif","img/card_backs/set1/green.gif","img/card_backs/set2/pink.gif","img/card_backs/set2/orange.gif","img/card_backs/set2/blue.gif","img/card_backs/set2/gray.gif","""event"",""trial"",""time""
""focus"",""0"",""0""
""fullscreenenter"",""1"",""1833""
","
","""event"",""trial"",""time""
""focus"",""0"",""0""
","""event"",""trial"",""time""
""fullscreenenter"",""1"",""1833""
","
","","null","","null","","fixation","2021-06-02 23:30:44.661","","","","","",""
"card-selection-trial","111","424121","0.0-25.0-1.20","641","false","img/card_backs/set1/yellow.gif","img/card_backs/set1/purple.gif","img/card_backs/set1/red.gif","img/card_backs/set1/green.gif","img/card_backs/set2/pink.gif","img/card_backs/set2/orange.gif","img/card_backs/set2/blue.gif","img/card_backs/set2/gray.gif","""event"",""trial"",""time""
""focus"",""0"",""0""
""fullscreenenter"",""1"",""1833""
","
","""event"",""trial"",""time""
""focus"",""0"",""0""
","""event"",""trial"",""time""
""fullscreenenter"",""1"",""1833""
","
","","1182","","","","real_trial","2021-06-02 23:30:47.848","img/card_backs/set1/purple.gif","1","-250","1","",""
"casino-fixation","112","424627","0.0-25.0-0.21","641","false","img/card_backs/set1/yellow.gif","img/card_backs/set1/purple.gif","img/card_backs/set1/red.gif","img/card_backs/set1/green.gif","img/card_backs/set2/pink.gif","img/card_backs/set2/orange.gif","img/card_backs/set2/blue.gif","img/card_backs/set2/gray.gif","""event"",""trial"",""time""
""focus"",""0"",""0""
""fullscreenenter"",""1"",""1833""
","
","""event"",""trial"",""time""
""focus"",""0"",""0""
","""event"",""trial"",""time""
""fullscreenenter"",""1"",""1833""
","
","","null","","null","","fixation","2021-06-02 23:30:48.354","","","","","",""
"card-selection-trial","113","429640","0.0-25.0-1.21","641","false","img/card_backs/set1/yellow.gif","img/card_backs/set1/purple.gif","img/card_backs/set1/red.gif","img/card_backs/set1/green.gif","img/card_backs/set2/pink.gif","img/card_backs/set2/orange.gif","img/card_backs/set2/blue.gif","img/card_backs/set2/gray.gif","""event"",""trial"",""time""
""focus"",""0"",""0""
""fullscreenenter"",""1"",""1833""
","
","""event"",""trial"",""time""
""focus"",""0"",""0""
","""event"",""trial"",""time""
""fullscreenenter"",""1"",""1833""
","
","","3007","","","","real_trial","2021-06-02 23:30:53.367","img/card_backs/set1/green.gif","3","-70","1","",""
"casino-fixation","114","430141","0.0-25.0-0.22","641","false","img/card_backs/set1/yellow.gif","img/card_backs/set1/purple.gif","img/card_backs/set1/red.gif","img/card_backs/set1/green.gif","img/card_backs/set2/pink.gif","img/card_backs/set2/orange.gif","img/card_backs/set2/blue.gif","img/card_backs/set2/gray.gif","""event"",""trial"",""time""
""focus"",""0"",""0""
""fullscreenenter"",""1"",""1833""
","
","""event"",""trial"",""time""
""focus"",""0"",""0""
","""event"",""trial"",""time""
""fullscreenenter"",""1"",""1833""
","
","","null","","null","","fixation","2021-06-02 23:30:53.869","","","","","",""
"card-selection-trial","115","434310","0.0-25.0-1.22","641","false","img/card_backs/set1/yellow.gif","img/card_backs/set1/purple.gif","img/card_backs/set1/red.gif","img/card_backs/set1/green.gif","img/card_backs/set2/pink.gif","img/card_backs/set2/orange.gif","img/card_backs/set2/blue.gif","img/card_backs/set2/gray.gif","""event"",""trial"",""time""
""focus"",""0"",""0""
""fullscreenenter"",""1"",""1833""
","
","""event"",""trial"",""time""
""focus"",""0"",""0""
","""event"",""trial"",""time""
""fullscreenenter"",""1"",""1833""
","
","","2159","","","","real_trial","2021-06-02 23:30:58.037","img/card_backs/set1/purple.gif","3","190","1","",""
"casino-fixation","116","434815","0.0-25.0-0.23","641","false","img/card_backs/set1/yellow.gif","img/card_backs/set1/purple.gif","img/card_backs/set1/red.gif","img/card_backs/set1/green.gif","img/card_backs/set2/pink.gif","img/card_backs/set2/orange.gif","img/card_backs/set2/blue.gif","img/card_backs/set2/gray.gif","""event"",""trial"",""time""
""focus"",""0"",""0""
""fullscreenenter"",""1"",""1833""
","
","""event"",""trial"",""time""
""focus"",""0"",""0""
","""event"",""trial"",""time""
""fullscreenenter"",""1"",""1833""
","
","","null","","null","","fixation","2021-06-02 23:30:58.542","","","","","",""
"card-selection-trial","117","439572","0.0-25.0-1.23","641","false","img/card_backs/set1/yellow.gif","img/card_backs/set1/purple.gif","img/card_backs/set1/red.gif","img/card_backs/set1/green.gif","img/card_backs/set2/pink.gif","img/card_backs/set2/orange.gif","img/card_backs/set2/blue.gif","img/card_backs/set2/gray.gif","""event"",""trial"",""time""
""focus"",""0"",""0""
""fullscreenenter"",""1"",""1833""
","
","""event"",""trial"",""time""
""focus"",""0"",""0""
","""event"",""trial"",""time""
""fullscreenenter"",""1"",""1833""
","
","","2750","","","","real_trial","2021-06-02 23:31:03.299","img/card_backs/set1/green.gif","2","-60","1","",""
"casino-fixation","118","440079","0.0-25.0-0.24","641","false","img/card_backs/set1/yellow.gif","img/card_backs/set1/purple.gif","img/card_backs/set1/red.gif","img/card_backs/set1/green.gif","img/card_backs/set2/pink.gif","img/card_backs/set2/orange.gif","img/card_backs/set2/blue.gif","img/card_backs/set2/gray.gif","""event"",""trial"",""time""
""focus"",""0"",""0""
""fullscreenenter"",""1"",""1833""
","
","""event"",""trial"",""time""
""focus"",""0"",""0""
","""event"",""trial"",""time""
""fullscreenenter"",""1"",""1833""
","
","","null","","null","","fixation","2021-06-02 23:31:03.806","","","","","",""
"card-selection-trial","119","443251","0.0-25.0-1.24","641","false","img/card_backs/set1/yellow.gif","img/card_backs/set1/purple.gif","img/card_backs/set1/red.gif","img/card_backs/set1/green.gif","img/card_backs/set2/pink.gif","img/card_backs/set2/orange.gif","img/card_backs/set2/blue.gif","img/card_backs/set2/gray.gif","""event"",""trial"",""time""
""focus"",""0"",""0""
""fullscreenenter"",""1"",""1833""
","
","""event"",""trial"",""time""
""focus"",""0"",""0""
","""event"",""trial"",""time""
""fullscreenenter"",""1"",""1833""
","
","","1165","","","","real_trial","2021-06-02 23:31:06.978","img/card_backs/set1/yellow.gif","1","-250","1","",""
"casino-fixation","120","443758","0.0-25.0-0.25","641","false","img/card_backs/set1/yellow.gif","img/card_backs/set1/purple.gif","img/card_backs/set1/red.gif","img/card_backs/set1/green.gif","img/card_backs/set2/pink.gif","img/card_backs/set2/orange.gif","img/card_backs/set2/blue.gif","img/card_backs/set2/gray.gif","""event"",""trial"",""time""
""focus"",""0"",""0""
""fullscreenenter"",""1"",""1833""
","
","""event"",""trial"",""time""
""focus"",""0"",""0""
","""event"",""trial"",""time""
""fullscreenenter"",""1"",""1833""
","
","","null","","null","","fixation","2021-06-02 23:31:07.485","","","","","",""
"card-selection-trial","121","446953","0.0-25.0-1.25","641","false","img/card_backs/set1/yellow.gif","img/card_backs/set1/purple.gif","img/card_backs/set1/red.gif","img/card_backs/set1/green.gif","img/card_backs/set2/pink.gif","img/card_backs/set2/orange.gif","img/card_backs/set2/blue.gif","img/card_backs/set2/gray.gif","""event"",""trial"",""time""
""focus"",""0"",""0""
""fullscreenenter"",""1"",""1833""
","
","""event"",""trial"",""time""
""focus"",""0"",""0""
","""event"",""trial"",""time""
""fullscreenenter"",""1"",""1833""
","
","","1191","","","","real_trial","2021-06-02 23:31:10.680","img/card_backs/set1/green.gif","0","110","1","",""
"casino-fixation","122","447459","0.0-25.0-0.26","641","false","img/card_backs/set1/yellow.gif","img/card_backs/set1/purple.gif","img/card_backs/set1/red.gif","img/card_backs/set1/green.gif","img/card_backs/set2/pink.gif","img/card_backs/set2/orange.gif","img/card_backs/set2/blue.gif","img/card_backs/set2/gray.gif","""event"",""trial"",""time""
""focus"",""0"",""0""
""fullscreenenter"",""1"",""1833""
","
","""event"",""trial"",""time""
""focus"",""0"",""0""
","""event"",""trial"",""time""
""fullscreenenter"",""1"",""1833""
","
","","null","","null","","fixation","2021-06-02 23:31:11.186","","","","","",""
"card-selection-trial","123","451112","0.0-25.0-1.26","641","false","img/card_backs/set1/yellow.gif","img/card_backs/set1/purple.gif","img/card_backs/set1/red.gif","img/card_backs/set1/green.gif","img/card_backs/set2/pink.gif","img/card_backs/set2/orange.gif","img/card_backs/set2/blue.gif","img/card_backs/set2/gray.gif","""event"",""trial"",""time""
""focus"",""0"",""0""
""fullscreenenter"",""1"",""1833""
","
","""event"",""trial"",""time""
""focus"",""0"",""0""
","""event"",""trial"",""time""
""fullscreenenter"",""1"",""1833""
","
","","1647","","","","real_trial","2021-06-02 23:31:14.839","img/card_backs/set1/green.gif","3","120","1","",""
"casino-fixation","124","451616","0.0-25.0-0.27","641","false","img/card_backs/set1/yellow.gif","img/card_backs/set1/purple.gif","img/card_backs/set1/red.gif","img/card_backs/set1/green.gif","img/card_backs/set2/pink.gif","img/card_backs/set2/orange.gif","img/card_backs/set2/blue.gif","img/card_backs/set2/gray.gif","""event"",""trial"",""time""
""focus"",""0"",""0""
""fullscreenenter"",""1"",""1833""
","
","""event"",""trial"",""time""
""focus"",""0"",""0""
","""event"",""trial"",""time""
""fullscreenenter"",""1"",""1833""
","
","","null","","null","","fixation","2021-06-02 23:31:15.343","","","","","",""
"card-selection-trial","125","455355","0.0-25.0-1.27","641","false","img/card_backs/set1/yellow.gif","img/card_backs/set1/purple.gif","img/card_backs/set1/red.gif","img/card_backs/set1/green.gif","img/card_backs/set2/pink.gif","img/card_backs/set2/orange.gif","img/card_backs/set2/blue.gif","img/card_backs/set2/gray.gif","""event"",""trial"",""time""
""focus"",""0"",""0""
""fullscreenenter"",""1"",""1833""
","
","""event"",""trial"",""time""
""focus"",""0"",""0""
","""event"",""trial"",""time""
""fullscreenenter"",""1"",""1833""
","
","","1735","","","","real_trial","2021-06-02 23:31:19.082","img/card_backs/set1/red.gif","1","110","1","",""
"casino-fixation","126","455857","0.0-25.0-0.28","641","false","img/card_backs/set1/yellow.gif","img/card_backs/set1/purple.gif","img/card_backs/set1/red.gif","img/card_backs/set1/green.gif","img/card_backs/set2/pink.gif","img/card_backs/set2/orange.gif","img/card_backs/set2/blue.gif","img/card_backs/set2/gray.gif","""event"",""trial"",""time""
""focus"",""0"",""0""
""fullscreenenter"",""1"",""1833""
","
","""event"",""trial"",""time""
""focus"",""0"",""0""
","""event"",""trial"",""time""
""fullscreenenter"",""1"",""1833""
","
","","null","","null","","fixation","2021-06-02 23:31:19.585","","","","","",""
"card-selection-trial","127","459190","0.0-25.0-1.28","641","false","img/card_backs/set1/yellow.gif","img/card_backs/set1/purple.gif","img/card_backs/set1/red.gif","img/card_backs/set1/green.gif","img/card_backs/set2/pink.gif","img/card_backs/set2/orange.gif","img/card_backs/set2/blue.gif","img/card_backs/set2/gray.gif","""event"",""trial"",""time""
""focus"",""0"",""0""
""fullscreenenter"",""1"",""1833""
","
","""event"",""trial"",""time""
""focus"",""0"",""0""
","""event"",""trial"",""time""
""fullscreenenter"",""1"",""1833""
","
","","1325","","","","real_trial","2021-06-02 23:31:22.917","img/card_backs/set1/red.gif","3","110","1","",""
"casino-fixation","128","459693","0.0-25.0-0.29","641","false","img/card_backs/set1/yellow.gif","img/card_backs/set1/purple.gif","img/card_backs/set1/red.gif","img/card_backs/set1/green.gif","img/card_backs/set2/pink.gif","img/card_backs/set2/orange.gif","img/card_backs/set2/blue.gif","img/card_backs/set2/gray.gif","""event"",""trial"",""time""
""focus"",""0"",""0""
""fullscreenenter"",""1"",""1833""
","
","""event"",""trial"",""time""
""focus"",""0"",""0""
","""event"",""trial"",""time""
""fullscreenenter"",""1"",""1833""
","
","","null","","null","","fixation","2021-06-02 23:31:23.420","","","","","",""
"card-selection-trial","129","463218","0.0-25.0-1.29","641","false","img/card_backs/set1/yellow.gif","img/card_backs/set1/purple.gif","img/card_backs/set1/red.gif","img/card_backs/set1/green.gif","img/card_backs/set2/pink.gif","img/card_backs/set2/orange.gif","img/card_backs/set2/blue.gif","img/card_backs/set2/gray.gif","""event"",""trial"",""time""
""focus"",""0"",""0""
""fullscreenenter"",""1"",""1833""
","
","""event"",""trial"",""time""
""focus"",""0"",""0""
","""event"",""trial"",""time""
""fullscreenenter"",""1"",""1833""
","
","","1519","","","","real_trial","2021-06-02 23:31:26.945","img/card_backs/set1/red.gif","3","-50","1","",""
"casino-fixation","130","463720","0.0-25.0-0.30","641","false","img/card_backs/set1/yellow.gif","img/card_backs/set1/purple.gif","img/card_backs/set1/red.gif","img/card_backs/set1/green.gif","img/card_backs/set2/pink.gif","img/card_backs/set2/orange.gif","img/card_backs/set2/blue.gif","img/card_backs/set2/gray.gif","""event"",""trial"",""time""
""focus"",""0"",""0""
""fullscreenenter"",""1"",""1833""
","
","""event"",""trial"",""time""
""focus"",""0"",""0""
","""event"",""trial"",""time""
""fullscreenenter"",""1"",""1833""
","
","","null","","null","","fixation","2021-06-02 23:31:27.447","","","","","",""
"card-selection-trial","131","469027","0.0-25.0-1.30","641","false","img/card_backs/set1/yellow.gif","img/card_backs/set1/purple.gif","img/card_backs/set1/red.gif","img/card_backs/set1/green.gif","img/card_backs/set2/pink.gif","img/card_backs/set2/orange.gif","img/card_backs/set2/blue.gif","img/card_backs/set2/gray.gif","""event"",""trial"",""time""
""focus"",""0"",""0""
""fullscreenenter"",""1"",""1833""
","
","""event"",""trial"",""time""
""focus"",""0"",""0""
","""event"",""trial"",""time""
""fullscreenenter"",""1"",""1833""
","
","","3303","","","","real_trial","2021-06-02 23:31:32.754","img/card_backs/set1/purple.gif","1","190","1","",""
"casino-fixation","132","469532","0.0-25.0-0.31","641","false","img/card_backs/set1/yellow.gif","img/card_backs/set1/purple.gif","img/card_backs/set1/red.gif","img/card_backs/set1/green.gif","img/card_backs/set2/pink.gif","img/card_backs/set2/orange.gif","img/card_backs/set2/blue.gif","img/card_backs/set2/gray.gif","""event"",""trial"",""time""
""focus"",""0"",""0""
""fullscreenenter"",""1"",""1833""
","
","""event"",""trial"",""time""
""focus"",""0"",""0""
","""event"",""trial"",""time""
""fullscreenenter"",""1"",""1833""
","
","","null","","null","","fixation","2021-06-02 23:31:33.259","","","","","",""
"card-selection-trial","133","472833","0.0-25.0-1.31","641","false","img/card_backs/set1/yellow.gif","img/card_backs/set1/purple.gif","img/card_backs/set1/red.gif","img/card_backs/set1/green.gif","img/card_backs/set2/pink.gif","img/card_backs/set2/orange.gif","img/card_backs/set2/blue.gif","img/card_backs/set2/gray.gif","""event"",""trial"",""time""
""focus"",""0"",""0""
""fullscreenenter"",""1"",""1833""
","
","""event"",""trial"",""time""
""focus"",""0"",""0""
","""event"",""trial"",""time""
""fullscreenenter"",""1"",""1833""
","
","","1295","","","","real_trial","2021-06-02 23:31:36.561","img/card_backs/set1/green.gif","3","-50","1","",""
"casino-fixation","134","473335","0.0-25.0-0.32","641","false","img/card_backs/set1/yellow.gif","img/card_backs/set1/purple.gif","img/card_backs/set1/red.gif","img/card_backs/set1/green.gif","img/card_backs/set2/pink.gif","img/card_backs/set2/orange.gif","img/card_backs/set2/blue.gif","img/card_backs/set2/gray.gif","""event"",""trial"",""time""
""focus"",""0"",""0""
""fullscreenenter"",""1"",""1833""
","
","""event"",""trial"",""time""
""focus"",""0"",""0""
","""event"",""trial"",""time""
""fullscreenenter"",""1"",""1833""
","
","","null","","null","","fixation","2021-06-02 23:31:37.062","","","","","",""
"card-selection-trial","135","476649","0.0-25.0-1.32","641","false","img/card_backs/set1/yellow.gif","img/card_backs/set1/purple.gif","img/card_backs/set1/red.gif","img/card_backs/set1/green.gif","img/card_backs/set2/pink.gif","img/card_backs/set2/orange.gif","img/card_backs/set2/blue.gif","img/card_backs/set2/gray.gif","""event"",""trial"",""time""
""focus"",""0"",""0""
""fullscreenenter"",""1"",""1833""
","
","""event"",""trial"",""time""
""focus"",""0"",""0""
","""event"",""trial"",""time""
""fullscreenenter"",""1"",""1833""
","
","","1307","","","","real_trial","2021-06-02 23:31:40.376","img/card_backs/set1/green.gif","0","-60","1","",""
"casino-fixation","136","477150","0.0-25.0-0.33","641","false","img/card_backs/set1/yellow.gif","img/card_backs/set1/purple.gif","img/card_backs/set1/red.gif","img/card_backs/set1/green.gif","img/card_backs/set2/pink.gif","img/card_backs/set2/orange.gif","img/card_backs/set2/blue.gif","img/card_backs/set2/gray.gif","""event"",""trial"",""time""
""focus"",""0"",""0""
""fullscreenenter"",""1"",""1833""
","
","""event"",""trial"",""time""
""focus"",""0"",""0""
","""event"",""trial"",""time""
""fullscreenenter"",""1"",""1833""
","
","","null","","null","","fixation","2021-06-02 23:31:40.877","","","","","",""
"card-selection-trial","137","483648","0.0-25.0-1.33","641","false","img/card_backs/set1/yellow.gif","img/card_backs/set1/purple.gif","img/card_backs/set1/red.gif","img/card_backs/set1/green.gif","img/card_backs/set2/pink.gif","img/card_backs/set2/orange.gif","img/card_backs/set2/blue.gif","img/card_backs/set2/gray.gif","""event"",""trial"",""time""
""focus"",""0"",""0""
""fullscreenenter"",""1"",""1833""
","
","""event"",""trial"",""time""
""focus"",""0"",""0""
","""event"",""trial"",""time""
""fullscreenenter"",""1"",""1833""
","
","","4490","","","","real_trial","2021-06-02 23:31:47.375","img/card_backs/set1/yellow.gif","0","200","1","",""
"casino-fixation","138","484150","0.0-25.0-0.34","641","false","img/card_backs/set1/yellow.gif","img/card_backs/set1/purple.gif","img/card_backs/set1/red.gif","img/card_backs/set1/green.gif","img/card_backs/set2/pink.gif","img/card_backs/set2/orange.gif","img/card_backs/set2/blue.gif","img/card_backs/set2/gray.gif","""event"",""trial"",""time""
""focus"",""0"",""0""
""fullscreenenter"",""1"",""1833""
","
","""event"",""trial"",""time""
""focus"",""0"",""0""
","""event"",""trial"",""time""
""fullscreenenter"",""1"",""1833""
","
","","null","","null","","fixation","2021-06-02 23:31:47.877","","","","","",""
"card-selection-trial","139","488059","0.0-25.0-1.34","641","false","img/card_backs/set1/yellow.gif","img/card_backs/set1/purple.gif","img/card_backs/set1/red.gif","img/card_backs/set1/green.gif","img/card_backs/set2/pink.gif","img/card_backs/set2/orange.gif","img/card_backs/set2/blue.gif","img/card_backs/set2/gray.gif","""event"",""trial"",""time""
""focus"",""0"",""0""
""fullscreenenter"",""1"",""1833""
","
","""event"",""trial"",""time""
""focus"",""0"",""0""
","""event"",""trial"",""time""
""fullscreenenter"",""1"",""1833""
","
","","1901","","","","real_trial","2021-06-02 23:31:51.786","img/card_backs/set1/yellow.gif","3","-230","1","",""
"casino-fixation","140","488565","0.0-25.0-0.35","641","false","img/card_backs/set1/yellow.gif","img/card_backs/set1/purple.gif","img/card_backs/set1/red.gif","img/card_backs/set1/green.gif","img/card_backs/set2/pink.gif","img/card_backs/set2/orange.gif","img/card_backs/set2/blue.gif","img/card_backs/set2/gray.gif","""event"",""trial"",""time""
""focus"",""0"",""0""
""fullscreenenter"",""1"",""1833""
","
","""event"",""trial"",""time""
""focus"",""0"",""0""
","""event"",""trial"",""time""
""fullscreenenter"",""1"",""1833""
","
","","null","","null","","fixation","2021-06-02 23:31:52.292","","","","","",""
"card-selection-trial","141","492439","0.0-25.0-1.35","641","false","img/card_backs/set1/yellow.gif","img/card_backs/set1/purple.gif","img/card_backs/set1/red.gif","img/card_backs/set1/green.gif","img/card_backs/set2/pink.gif","img/card_backs/set2/orange.gif","img/card_backs/set2/blue.gif","img/card_backs/set2/gray.gif","""event"",""trial"",""time""
""focus"",""0"",""0""
""fullscreenenter"",""1"",""1833""
","
","""event"",""trial"",""time""
""focus"",""0"",""0""
","""event"",""trial"",""time""
""fullscreenenter"",""1"",""1833""
","
","","1865","","","","real_trial","2021-06-02 23:31:56.166","img/card_backs/set1/green.gif","0","-50","1","",""
"casino-fixation","142","492946","0.0-25.0-0.36","641","false","img/card_backs/set1/yellow.gif","img/card_backs/set1/purple.gif","img/card_backs/set1/red.gif","img/card_backs/set1/green.gif","img/card_backs/set2/pink.gif","img/card_backs/set2/orange.gif","img/card_backs/set2/blue.gif","img/card_backs/set2/gray.gif","""event"",""trial"",""time""
""focus"",""0"",""0""
""fullscreenenter"",""1"",""1833""
","
","""event"",""trial"",""time""
""focus"",""0"",""0""
","""event"",""trial"",""time""
""fullscreenenter"",""1"",""1833""
","
","","null","","null","","fixation","2021-06-02 23:31:56.674","","","","","",""
"card-selection-trial","143","496747","0.0-25.0-1.36","641","false","img/card_backs/set1/yellow.gif","img/card_backs/set1/purple.gif","img/card_backs/set1/red.gif","img/card_backs/set1/green.gif","img/card_backs/set2/pink.gif","img/card_backs/set2/orange.gif","img/card_backs/set2/blue.gif","img/card_backs/set2/gray.gif","""event"",""trial"",""time""
""focus"",""0"",""0""
""fullscreenenter"",""1"",""1833""
","
","""event"",""trial"",""time""
""focus"",""0"",""0""
","""event"",""trial"",""time""
""fullscreenenter"",""1"",""1833""
","
","","1795","","","","real_trial","2021-06-02 23:32:00.474","img/card_backs/set1/purple.gif","3","-250","1","",""
"casino-fixation","144","497254","0.0-25.0-0.37","641","false","img/card_backs/set1/yellow.gif","img/card_backs/set1/purple.gif","img/card_backs/set1/red.gif","img/card_backs/set1/green.gif","img/card_backs/set2/pink.gif","img/card_backs/set2/orange.gif","img/card_backs/set2/blue.gif","img/card_backs/set2/gray.gif","""event"",""trial"",""time""
""focus"",""0"",""0""
""fullscreenenter"",""1"",""1833""
","
","""event"",""trial"",""time""
""focus"",""0"",""0""
","""event"",""trial"",""time""
""fullscreenenter"",""1"",""1833""
","
","","null","","null","","fixation","2021-06-02 23:32:00.981","","","","","",""
"card-selection-trial","145","500586","0.0-25.0-1.37","641","false","img/card_backs/set1/yellow.gif","img/card_backs/set1/purple.gif","img/card_backs/set1/red.gif","img/card_backs/set1/green.gif","img/card_backs/set2/pink.gif","img/card_backs/set2/orange.gif","img/card_backs/set2/blue.gif","img/card_backs/set2/gray.gif","""event"",""trial"",""time""
""focus"",""0"",""0""
""fullscreenenter"",""1"",""1833""
","
","""event"",""trial"",""time""
""focus"",""0"",""0""
","""event"",""trial"",""time""
""fullscreenenter"",""1"",""1833""
","
","","1325","","","","real_trial","2021-06-02 23:32:04.314","img/card_backs/set1/green.gif","2","120","1","",""
"casino-fixation","146","501089","0.0-25.0-0.38","641","false","img/card_backs/set1/yellow.gif","img/card_backs/set1/purple.gif","img/card_backs/set1/red.gif","img/card_backs/set1/green.gif","img/card_backs/set2/pink.gif","img/card_backs/set2/orange.gif","img/card_backs/set2/blue.gif","img/card_backs/set2/gray.gif","""event"",""trial"",""time""
""focus"",""0"",""0""
""fullscreenenter"",""1"",""1833""
","
","""event"",""trial"",""time""
""focus"",""0"",""0""
","""event"",""trial"",""time""
""fullscreenenter"",""1"",""1833""
","
","","null","","null","","fixation","2021-06-02 23:32:04.816","","","","","",""
"card-selection-trial","147","504405","0.0-25.0-1.38","641","false","img/card_backs/set1/yellow.gif","img/card_backs/set1/purple.gif","img/card_backs/set1/red.gif","img/card_backs/set1/green.gif","img/card_backs/set2/pink.gif","img/card_backs/set2/orange.gif","img/card_backs/set2/blue.gif","img/card_backs/set2/gray.gif","""event"",""trial"",""time""
""focus"",""0"",""0""
""fullscreenenter"",""1"",""1833""
","
","""event"",""trial"",""time""
""focus"",""0"",""0""
","""event"",""trial"",""time""
""fullscreenenter"",""1"",""1833""
","
","","1312","","","","real_trial","2021-06-02 23:32:08.132","img/card_backs/set1/red.gif","2","-70","1","",""
"casino-fixation","148","504908","0.0-25.0-0.39","641","false","img/card_backs/set1/yellow.gif","img/card_backs/set1/purple.gif","img/card_backs/set1/red.gif","img/card_backs/set1/green.gif","img/card_backs/set2/pink.gif","img/card_backs/set2/orange.gif","img/card_backs/set2/blue.gif","img/card_backs/set2/gray.gif","""event"",""trial"",""time""
""focus"",""0"",""0""
""fullscreenenter"",""1"",""1833""
","
","""event"",""trial"",""time""
""focus"",""0"",""0""
","""event"",""trial"",""time""
""fullscreenenter"",""1"",""1833""
","
","","null","","null","","fixation","2021-06-02 23:32:08.635","","","","","",""
"card-selection-trial","149","508722","0.0-25.0-1.39","641","false","img/card_backs/set1/yellow.gif","img/card_backs/set1/purple.gif","img/card_backs/set1/red.gif","img/card_backs/set1/green.gif","img/card_backs/set2/pink.gif","img/card_backs/set2/orange.gif","img/card_backs/set2/blue.gif","img/card_backs/set2/gray.gif","""event"",""trial"",""time""
""focus"",""0"",""0""
""fullscreenenter"",""1"",""1833""
","
","""event"",""trial"",""time""
""focus"",""0"",""0""
","""event"",""trial"",""time""
""fullscreenenter"",""1"",""1833""
","
","","1810","","","","real_trial","2021-06-02 23:32:12.449","img/card_backs/set1/green.gif","1","110","1","",""
