"trial_type","trial_index","time_elapsed","internal_node_id","sub_id","risk_good_first","block1_A","block1_B","block1_C","block1_D","block2_A","block2_B","block2_C","block2_D","interactions","blur_events","focus_events","fullscreenenter_events","fullscreenexit_events","success","rt","stimulus","key_press","button_pressed","task_part","timestamp","card_choice","choice_position","points_earned","block","correct","response"
"pavlovia","0","2","0.0-0.0","239","true","img/card_backs/set1/green.gif","img/card_backs/set1/red.gif","img/card_backs/set1/yellow.gif","img/card_backs/set1/purple.gif","img/card_backs/set2/blue.gif","img/card_backs/set2/gray.gif","img/card_backs/set2/orange.gif","img/card_backs/set2/pink.gif","""event"",""trial"",""time""
""fullscreenenter"",""1"",""3557""
","
","
","""event"",""trial"",""time""
""fullscreenenter"",""1"",""3557""
","
","","","","","","","","","","","","",""
"fullscreen","1","4555","0.0-1.0","239","true","img/card_backs/set1/green.gif","img/card_backs/set1/red.gif","img/card_backs/set1/yellow.gif","img/card_backs/set1/purple.gif","img/card_backs/set2/blue.gif","img/card_backs/set2/gray.gif","img/card_backs/set2/orange.gif","img/card_backs/set2/pink.gif","""event"",""trial"",""time""
""fullscreenenter"",""1"",""3557""
","
","
","""event"",""trial"",""time""
""fullscreenenter"",""1"",""3557""
","
","true","","","","","","","","","","","",""
"audio-keyboard-response","2","7727","0.0-2.0","239","true","img/card_backs/set1/green.gif","img/card_backs/set1/red.gif","img/card_backs/set1/yellow.gif","img/card_backs/set1/purple.gif","img/card_backs/set2/blue.gif","img/card_backs/set2/gray.gif","img/card_backs/set2/orange.gif","img/card_backs/set2/pink.gif","""event"",""trial"",""time""
""fullscreenenter"",""1"",""3557""
","
","
","""event"",""trial"",""time""
""fullscreenenter"",""1"",""3557""
","
","","3171","audio/beep_loop.wav","32","","","","","","","","",""
"audio-button-response","3","9172","0.0-3.0","239","true","img/card_backs/set1/green.gif","img/card_backs/set1/red.gif","img/card_backs/set1/yellow.gif","img/card_backs/set1/purple.gif","img/card_backs/set2/blue.gif","img/card_backs/set2/gray.gif","img/card_backs/set2/orange.gif","img/card_backs/set2/pink.gif","""event"",""trial"",""time""
""fullscreenenter"",""1"",""3557""
","
","
","""event"",""trial"",""time""
""fullscreenenter"",""1"",""3557""
","
","","NaN","audio/turtle.mp3","","3","","","","","","","",""
"audio-button-response","4","11001","0.0-4.0","239","true","img/card_backs/set1/green.gif","img/card_backs/set1/red.gif","img/card_backs/set1/yellow.gif","img/card_backs/set1/purple.gif","img/card_backs/set2/blue.gif","img/card_backs/set2/gray.gif","img/card_backs/set2/orange.gif","img/card_backs/set2/pink.gif","""event"",""trial"",""time""
""fullscreenenter"",""1"",""3557""
","
","
","""event"",""trial"",""time""
""fullscreenenter"",""1"",""3557""
","
","","NaN","audio/shark.mp3","","2","","","","","","","",""
"fullscreen","5","13626","0.0-5.0","239","true","img/card_backs/set1/green.gif","img/card_backs/set1/red.gif","img/card_backs/set1/yellow.gif","img/card_backs/set1/purple.gif","img/card_backs/set2/blue.gif","img/card_backs/set2/gray.gif","img/card_backs/set2/orange.gif","img/card_backs/set2/pink.gif","""event"",""trial"",""time""
""fullscreenenter"",""1"",""3557""
","
","
","""event"",""trial"",""time""
""fullscreenenter"",""1"",""3557""
","
","true","","","","","","","","","","","",""
"casino-keyboard-response","6","16800","0.0-6.0-0.0","239","true","img/card_backs/set1/green.gif","img/card_backs/set1/red.gif","img/card_backs/set1/yellow.gif","img/card_backs/set1/purple.gif","img/card_backs/set2/blue.gif","img/card_backs/set2/gray.gif","img/card_backs/set2/orange.gif","img/card_backs/set2/pink.gif","""event"",""trial"",""time""
""fullscreenenter"",""1"",""3557""
","
","
","""event"",""trial"",""time""
""fullscreenenter"",""1"",""3557""
","
","","3172.5100000039674","Welcome to the casino!","71","","instructions","2021-04-01 15:45:32.111","","","","","",""
"casino-keyboard-response","7","26220","0.0-6.0-0.1","239","true","img/card_backs/set1/green.gif","img/card_backs/set1/red.gif","img/card_backs/set1/yellow.gif","img/card_backs/set1/purple.gif","img/card_backs/set2/blue.gif","img/card_backs/set2/gray.gif","img/card_backs/set2/orange.gif","img/card_backs/set2/pink.gif","""event"",""trial"",""time""
""fullscreenenter"",""1"",""3557""
","
","
","""event"",""trial"",""time""
""fullscreenenter"",""1"",""3557""
","
","","9419.040000007953","Today you will be playing a game to earn tokens. </br> At the end of the experiment, you will be paid a bonus based on how many tokens you win. ","69","","instructions","2021-04-01 15:45:41.531","","","","","",""
"casino-keyboard-response","8","33643","0.0-6.0-0.2","239","true","img/card_backs/set1/green.gif","img/card_backs/set1/red.gif","img/card_backs/set1/yellow.gif","img/card_backs/set1/purple.gif","img/card_backs/set2/blue.gif","img/card_backs/set2/gray.gif","img/card_backs/set2/orange.gif","img/card_backs/set2/pink.gif","""event"",""trial"",""time""
""fullscreenenter"",""1"",""3557""
","
","
","""event"",""trial"",""time""
""fullscreenenter"",""1"",""3557""
","
","","7422.055000002729","On every turn, you will be shown four different decks of cards. </br> You need to select a card from one of the four decks.  ","75","","instructions","2021-04-01 15:45:48.954","","","","","",""
"casino-keyboard-response","9","38135","0.0-6.0-0.3","239","true","img/card_backs/set1/green.gif","img/card_backs/set1/red.gif","img/card_backs/set1/yellow.gif","img/card_backs/set1/purple.gif","img/card_backs/set2/blue.gif","img/card_backs/set2/gray.gif","img/card_backs/set2/orange.gif","img/card_backs/set2/pink.gif","""event"",""trial"",""time""
""fullscreenenter"",""1"",""3557""
","
","
","""event"",""trial"",""time""
""fullscreenenter"",""1"",""3557""
","
","","4491.479999996955","On the next screen, you will see what the decks will look like. ","66","","instructions","2021-04-01 15:45:53.446","","","","","",""
"card-selection-trial","10","42139","0.0-7.0-0.0","239","true","img/card_backs/set1/green.gif","img/card_backs/set1/red.gif","img/card_backs/set1/yellow.gif","img/card_backs/set1/purple.gif","img/card_backs/set2/blue.gif","img/card_backs/set2/gray.gif","img/card_backs/set2/orange.gif","img/card_backs/set2/pink.gif","""event"",""trial"",""time""
""fullscreenenter"",""1"",""3557""
","
","
","""event"",""trial"",""time""
""fullscreenenter"",""1"",""3557""
","
","","null","","","","practice","2021-04-01 15:45:57.450","null","null","null","0","",""
"casino-keyboard-response","11","49202","0.0-8.0-0.0","239","true","img/card_backs/set1/green.gif","img/card_backs/set1/red.gif","img/card_backs/set1/yellow.gif","img/card_backs/set1/purple.gif","img/card_backs/set2/blue.gif","img/card_backs/set2/gray.gif","img/card_backs/set2/orange.gif","img/card_backs/set2/pink.gif","""event"",""trial"",""time""
""fullscreenenter"",""1"",""3557""
","
","
","""event"",""trial"",""time""
""fullscreenenter"",""1"",""3557""
","
","","7062.0749999943655","You should pick a card from a deck using the '2', '4', '6', and '8' keys at the top of the keyboard.","85","","instructions","2021-04-01 15:46:04.513","","","","","",""
"casino-keyboard-response","12","54181","0.0-8.0-0.1","239","true","img/card_backs/set1/green.gif","img/card_backs/set1/red.gif","img/card_backs/set1/yellow.gif","img/card_backs/set1/purple.gif","img/card_backs/set2/blue.gif","img/card_backs/set2/gray.gif","img/card_backs/set2/orange.gif","img/card_backs/set2/pink.gif","""event"",""trial"",""time""
""fullscreenenter"",""1"",""3557""
","
","
","""event"",""trial"",""time""
""fullscreenenter"",""1"",""3557""
","
","","4977.950000000419","Once you select a card, it will turn over and you will see how many tokens you earned.","83","","instructions","2021-04-01 15:46:09.492","","","","","",""
"casino-keyboard-response","13","68558","0.0-8.0-0.2","239","true","img/card_backs/set1/green.gif","img/card_backs/set1/red.gif","img/card_backs/set1/yellow.gif","img/card_backs/set1/purple.gif","img/card_backs/set2/blue.gif","img/card_backs/set2/gray.gif","img/card_backs/set2/orange.gif","img/card_backs/set2/pink.gif","""event"",""trial"",""time""
""fullscreenenter"",""1"",""3557""
","
","
","""event"",""trial"",""time""
""fullscreenenter"",""1"",""3557""
","
","","14376.4749999973","Let's try practicing that! </br> First, try to put your fingers over the '2', '4', '6', and '8' keys. </br>  You can use whatever fingers are most comfortable for you. Try to find a comfortable position now. ","50","","instructions","2021-04-01 15:46:23.869","","","","","",""
"casino-keyboard-response","14","69687","0.0-8.0-0.3","239","true","img/card_backs/set1/green.gif","img/card_backs/set1/red.gif","img/card_backs/set1/yellow.gif","img/card_backs/set1/purple.gif","img/card_backs/set2/blue.gif","img/card_backs/set2/gray.gif","img/card_backs/set2/orange.gif","img/card_backs/set2/pink.gif","""event"",""trial"",""time""
""fullscreenenter"",""1"",""3557""
","
","
","""event"",""trial"",""time""
""fullscreenenter"",""1"",""3557""
","
","","1128.2000000064727","Okay ready? </br> On the next screen, press '2' to select the left deck. ","50","","instructions","2021-04-01 15:46:24.998","","","","","",""
"card-selection-trial","15","72397","0.0-9.0-0.0","239","true","img/card_backs/set1/green.gif","img/card_backs/set1/red.gif","img/card_backs/set1/yellow.gif","img/card_backs/set1/purple.gif","img/card_backs/set2/blue.gif","img/card_backs/set2/gray.gif","img/card_backs/set2/orange.gif","img/card_backs/set2/pink.gif","""event"",""trial"",""time""
""fullscreenenter"",""1"",""3557""
","
","
","""event"",""trial"",""time""
""fullscreenenter"",""1"",""3557""
","
","","693.8350000127684","","","","practice_card_selection","2021-04-01 15:46:27.708","img/practice_cards/backs/dark_blue.gif","0","200","","",""
"casino-keyboard-response","16","73894","0.0-10.0-0.0","239","true","img/card_backs/set1/green.gif","img/card_backs/set1/red.gif","img/card_backs/set1/yellow.gif","img/card_backs/set1/purple.gif","img/card_backs/set2/blue.gif","img/card_backs/set2/gray.gif","img/card_backs/set2/orange.gif","img/card_backs/set2/pink.gif","""event"",""trial"",""time""
""fullscreenenter"",""1"",""3557""
","
","
","""event"",""trial"",""time""
""fullscreenenter"",""1"",""3557""
","
","","1497.0549999852665","Great! Now on the next screen, try pressing '6' to select the third deck.","54","","instructions","2021-04-01 15:46:29.205","","","","","",""
"card-selection-trial","17","76482","0.0-11.0-0.0","239","true","img/card_backs/set1/green.gif","img/card_backs/set1/red.gif","img/card_backs/set1/yellow.gif","img/card_backs/set1/purple.gif","img/card_backs/set2/blue.gif","img/card_backs/set2/gray.gif","img/card_backs/set2/orange.gif","img/card_backs/set2/pink.gif","""event"",""trial"",""time""
""fullscreenenter"",""1"",""3557""
","
","
","""event"",""trial"",""time""
""fullscreenenter"",""1"",""3557""
","
","","584.3049999966752","","","","practice_card_selection","2021-04-01 15:46:31.793","img/practice_cards/backs/brown.gif","2","100","","",""
"casino-keyboard-response","18","80681","0.0-12.0-0.0","239","true","img/card_backs/set1/green.gif","img/card_backs/set1/red.gif","img/card_backs/set1/yellow.gif","img/card_backs/set1/purple.gif","img/card_backs/set2/blue.gif","img/card_backs/set2/gray.gif","img/card_backs/set2/orange.gif","img/card_backs/set2/pink.gif","""event"",""trial"",""time""
""fullscreenenter"",""1"",""3557""
","
","
","""event"",""trial"",""time""
""fullscreenenter"",""1"",""3557""
","
","","4198.795000003884","Now on the next screen, try pressing '4' to select the second deck.","52","","instructions","2021-04-01 15:46:35.992","","","","","",""
"card-selection-trial","19","82911","0.0-13.0-0.0","239","true","img/card_backs/set1/green.gif","img/card_backs/set1/red.gif","img/card_backs/set1/yellow.gif","img/card_backs/set1/purple.gif","img/card_backs/set2/blue.gif","img/card_backs/set2/gray.gif","img/card_backs/set2/orange.gif","img/card_backs/set2/pink.gif","""event"",""trial"",""time""
""fullscreenenter"",""1"",""3557""
","
","
","""event"",""trial"",""time""
""fullscreenenter"",""1"",""3557""
","
","","216.66999999433756","","","","practice_card_selection","2021-04-01 15:46:38.222","img/practice_cards/backs/brown.gif","1","100","","",""
"casino-keyboard-response","20","84373","0.0-14.0-0.0","239","true","img/card_backs/set1/green.gif","img/card_backs/set1/red.gif","img/card_backs/set1/yellow.gif","img/card_backs/set1/purple.gif","img/card_backs/set2/blue.gif","img/card_backs/set2/gray.gif","img/card_backs/set2/orange.gif","img/card_backs/set2/pink.gif","""event"",""trial"",""time""
""fullscreenenter"",""1"",""3557""
","
","
","""event"",""trial"",""time""
""fullscreenenter"",""1"",""3557""
","
","","1461.410000018077","Finally, try pressing '8' to select the deck all the way on the right.","56","","instructions","2021-04-01 15:46:39.684","","","","","",""
"card-selection-trial","21","86793","0.0-15.0-0.0","239","true","img/card_backs/set1/green.gif","img/card_backs/set1/red.gif","img/card_backs/set1/yellow.gif","img/card_backs/set1/purple.gif","img/card_backs/set2/blue.gif","img/card_backs/set2/gray.gif","img/card_backs/set2/orange.gif","img/card_backs/set2/pink.gif","""event"",""trial"",""time""
""fullscreenenter"",""1"",""3557""
","
","
","""event"",""trial"",""time""
""fullscreenenter"",""1"",""3557""
","
","","401.50000000721775","","","","practice_card_selection","2021-04-01 15:46:42.104","img/practice_cards/backs/dark_green.gif","3","-200","","",""
"casino-keyboard-response","22","91570","0.0-16.0-0.0","239","true","img/card_backs/set1/green.gif","img/card_backs/set1/red.gif","img/card_backs/set1/yellow.gif","img/card_backs/set1/purple.gif","img/card_backs/set2/blue.gif","img/card_backs/set2/gray.gif","img/card_backs/set2/orange.gif","img/card_backs/set2/pink.gif","""event"",""trial"",""time""
""fullscreenenter"",""1"",""3557""
","
","
","""event"",""trial"",""time""
""fullscreenenter"",""1"",""3557""
","
","","4776.534999982687","Great! It seems like you are getting the hang of this.","80","","instructions","2021-04-01 15:46:46.881","","","","","",""
"casino-keyboard-response","23","100032","0.0-16.0-0.1","239","true","img/card_backs/set1/green.gif","img/card_backs/set1/red.gif","img/card_backs/set1/yellow.gif","img/card_backs/set1/purple.gif","img/card_backs/set2/blue.gif","img/card_backs/set2/gray.gif","img/card_backs/set2/orange.gif","img/card_backs/set2/pink.gif","""event"",""trial"",""time""
""fullscreenenter"",""1"",""3557""
","
","
","""event"",""trial"",""time""
""fullscreenenter"",""1"",""3557""
","
","","8461.715000012191","You may have noticed that some cards will cause you to <b> win </b> tokens while other cards will cause you to <b> lose </b>  tokens.","70","","instructions","2021-04-01 15:46:55.343","","","","","",""
"casino-keyboard-response","24","108416","0.0-16.0-0.2","239","true","img/card_backs/set1/green.gif","img/card_backs/set1/red.gif","img/card_backs/set1/yellow.gif","img/card_backs/set1/purple.gif","img/card_backs/set2/blue.gif","img/card_backs/set2/gray.gif","img/card_backs/set2/orange.gif","img/card_backs/set2/pink.gif","""event"",""trial"",""time""
""fullscreenenter"",""1"",""3557""
","
","
","""event"",""trial"",""time""
""fullscreenenter"",""1"",""3557""
","
","","8382.800000021234","Each deck has a mix of cards that will cause you to win and lose tokens. </br> However, the cards in each colored deck are different.","73","","instructions","2021-04-01 15:47:03.727","","","","","",""
"casino-keyboard-response","25","116785","0.0-16.0-0.3","239","true","img/card_backs/set1/green.gif","img/card_backs/set1/red.gif","img/card_backs/set1/yellow.gif","img/card_backs/set1/purple.gif","img/card_backs/set2/blue.gif","img/card_backs/set2/gray.gif","img/card_backs/set2/orange.gif","img/card_backs/set2/pink.gif","""event"",""trial"",""time""
""fullscreenenter"",""1"",""3557""
","
","
","""event"",""trial"",""time""
""fullscreenenter"",""1"",""3557""
","
","","8368.124999979045","Some colored decks are luckier than others. </br> If you choose the lucky decks, you will earn more tokens than if you choose the unlucky decks.","69","","instructions","2021-04-01 15:47:12.096","","","","","",""
"casino-keyboard-response","26","123743","0.0-16.0-0.4","239","true","img/card_backs/set1/green.gif","img/card_backs/set1/red.gif","img/card_backs/set1/yellow.gif","img/card_backs/set1/purple.gif","img/card_backs/set2/blue.gif","img/card_backs/set2/gray.gif","img/card_backs/set2/orange.gif","img/card_backs/set2/pink.gif","""event"",""trial"",""time""
""fullscreenenter"",""1"",""3557""
","
","
","""event"",""trial"",""time""
""fullscreenenter"",""1"",""3557""
","
","","6957.599999994272","You should try to figure out which decks are lucky. </br> Then, try to choose the lucky decks so you can win the most tokens.","87","","instructions","2021-04-01 15:47:19.054","","","","","",""
"casino-keyboard-response","27","135278","0.0-16.0-0.5","239","true","img/card_backs/set1/green.gif","img/card_backs/set1/red.gif","img/card_backs/set1/yellow.gif","img/card_backs/set1/purple.gif","img/card_backs/set2/blue.gif","img/card_backs/set2/gray.gif","img/card_backs/set2/orange.gif","img/card_backs/set2/pink.gif","""event"",""trial"",""time""
""fullscreenenter"",""1"",""3557""
","
","
","""event"",""trial"",""time""
""fullscreenenter"",""1"",""3557""
","
","","11533.714999997756","To make it trickier, the casino dealer will switch the locations of the decks on every turn. </br> The color of the deck determines how lucky it is. The location does not matter.","88","","instructions","2021-04-01 15:47:30.589","","","","","",""
"casino-keyboard-response","28","144570","0.0-16.0-0.6","239","true","img/card_backs/set1/green.gif","img/card_backs/set1/red.gif","img/card_backs/set1/yellow.gif","img/card_backs/set1/purple.gif","img/card_backs/set2/blue.gif","img/card_backs/set2/gray.gif","img/card_backs/set2/orange.gif","img/card_backs/set2/pink.gif","""event"",""trial"",""time""
""fullscreenenter"",""1"",""3557""
","
","
","""event"",""trial"",""time""
""fullscreenenter"",""1"",""3557""
","
","","9291.91999998875","The mix of cards in each colored deck will stay the same throughout the game. </br> That means that a deck that is lucky early on will stay lucky.","79","","instructions","2021-04-01 15:47:39.882","","","","","",""
"casino-keyboard-response","29","152463","0.0-16.0-0.7","239","true","img/card_backs/set1/green.gif","img/card_backs/set1/red.gif","img/card_backs/set1/yellow.gif","img/card_backs/set1/purple.gif","img/card_backs/set2/blue.gif","img/card_backs/set2/gray.gif","img/card_backs/set2/orange.gif","img/card_backs/set2/pink.gif","""event"",""trial"",""time""
""fullscreenenter"",""1"",""3557""
","
","
","""event"",""trial"",""time""
""fullscreenenter"",""1"",""3557""
","
","","7891.415000020061","Remember though, all the decks have a <b> mix </b> of both <b> good </b> and <b> bad </b> cards so it may take a couple of turns to figure out if a deck is lucky.","69","","instructions","2021-04-01 15:47:47.774","","","","","",""
"casino-keyboard-response","30","160861","0.0-16.0-0.8","239","true","img/card_backs/set1/green.gif","img/card_backs/set1/red.gif","img/card_backs/set1/yellow.gif","img/card_backs/set1/purple.gif","img/card_backs/set2/blue.gif","img/card_backs/set2/gray.gif","img/card_backs/set2/orange.gif","img/card_backs/set2/pink.gif","""event"",""trial"",""time""
""fullscreenenter"",""1"",""3557""
","
","
","""event"",""trial"",""time""
""fullscreenenter"",""1"",""3557""
","
","","8397.739999985788","At the end of the game, you will be paid bonus money based on how many tokens you win. </br> If you win more tokens, you will earn more money!","72","","instructions","2021-04-01 15:47:56.172","","","","","",""
"casino-keyboard-response","31","170845","0.0-16.0-0.9","239","true","img/card_backs/set1/green.gif","img/card_backs/set1/red.gif","img/card_backs/set1/yellow.gif","img/card_backs/set1/purple.gif","img/card_backs/set2/blue.gif","img/card_backs/set2/gray.gif","img/card_backs/set2/orange.gif","img/card_backs/set2/pink.gif","""event"",""trial"",""time""
""fullscreenenter"",""1"",""3557""
","
","
","""event"",""trial"",""time""
""fullscreenenter"",""1"",""3557""
","
","","9983.58499997994","You will never <b> lose </b> money. </br> If you end up with fewer than 0 tokens, you will earn $0 of bonus money, but you will still be paid for playing the game.","83","","instructions","2021-04-01 15:48:06.156","","","","","",""
"casino-keyboard-response","32","174782","0.0-16.0-0.10","239","true","img/card_backs/set1/green.gif","img/card_backs/set1/red.gif","img/card_backs/set1/yellow.gif","img/card_backs/set1/purple.gif","img/card_backs/set2/blue.gif","img/card_backs/set2/gray.gif","img/card_backs/set2/orange.gif","img/card_backs/set2/pink.gif","""event"",""trial"",""time""
""fullscreenenter"",""1"",""3557""
","
","
","""event"",""trial"",""time""
""fullscreenenter"",""1"",""3557""
","
","","3935.2950000029523","You will have 10 seconds to make each choice.","82","","instructions","2021-04-01 15:48:10.093","","","","","",""
"casino-keyboard-response","33","182638","0.0-16.0-0.11","239","true","img/card_backs/set1/green.gif","img/card_backs/set1/red.gif","img/card_backs/set1/yellow.gif","img/card_backs/set1/purple.gif","img/card_backs/set2/blue.gif","img/card_backs/set2/gray.gif","img/card_backs/set2/orange.gif","img/card_backs/set2/pink.gif","""event"",""trial"",""time""
""fullscreenenter"",""1"",""3557""
","
","
","""event"",""trial"",""time""
""fullscreenenter"",""1"",""3557""
","
","","7855.599999980768","Before you play the game for real, you will play with practice decks. </br> The tokens you earn during practice won't count toward your total.","86","","instructions","2021-04-01 15:48:17.949","","","","","",""
"casino-keyboard-response","34","187406","0.0-16.0-0.12","239","true","img/card_backs/set1/green.gif","img/card_backs/set1/red.gif","img/card_backs/set1/yellow.gif","img/card_backs/set1/purple.gif","img/card_backs/set2/blue.gif","img/card_backs/set2/gray.gif","img/card_backs/set2/orange.gif","img/card_backs/set2/pink.gif","""event"",""trial"",""time""
""fullscreenenter"",""1"",""3557""
","
","
","""event"",""trial"",""time""
""fullscreenenter"",""1"",""3557""
","
","","4767.989999993006","Ready? Remember, use the '2', '4', '6', and '8' keys to select the decks. </br> Put your fingers on those keys now and then press '2' to begin.","50","","instructions","2021-04-01 15:48:22.717","","","","","",""
"casino-fixation","35","187909","0.0-17.0-0.0","239","true","img/card_backs/set1/green.gif","img/card_backs/set1/red.gif","img/card_backs/set1/yellow.gif","img/card_backs/set1/purple.gif","img/card_backs/set2/blue.gif","img/card_backs/set2/gray.gif","img/card_backs/set2/orange.gif","img/card_backs/set2/pink.gif","""event"",""trial"",""time""
""fullscreenenter"",""1"",""3557""
","
","
","""event"",""trial"",""time""
""fullscreenenter"",""1"",""3557""
","
","","null","","null","","fixation","2021-04-01 15:48:23.220","","","","","",""
"card-selection-trial","36","190566","0.0-17.0-1.0","239","true","img/card_backs/set1/green.gif","img/card_backs/set1/red.gif","img/card_backs/set1/yellow.gif","img/card_backs/set1/purple.gif","img/card_backs/set2/blue.gif","img/card_backs/set2/gray.gif","img/card_backs/set2/orange.gif","img/card_backs/set2/pink.gif","""event"",""trial"",""time""
""fullscreenenter"",""1"",""3557""
","
","
","""event"",""trial"",""time""
""fullscreenenter"",""1"",""3557""
","
","","646.6500000096858","","","","practice","2021-04-01 15:48:25.877","img/practice_cards/backs/dark_blue.gif","0","200","0","",""
"casino-fixation","37","191079","0.0-17.0-0.1","239","true","img/card_backs/set1/green.gif","img/card_backs/set1/red.gif","img/card_backs/set1/yellow.gif","img/card_backs/set1/purple.gif","img/card_backs/set2/blue.gif","img/card_backs/set2/gray.gif","img/card_backs/set2/orange.gif","img/card_backs/set2/pink.gif","""event"",""trial"",""time""
""fullscreenenter"",""1"",""3557""
","
","
","""event"",""trial"",""time""
""fullscreenenter"",""1"",""3557""
","
","","null","","null","","fixation","2021-04-01 15:48:26.390","","","","","",""
"card-selection-trial","38","195225","0.0-17.0-1.1","239","true","img/card_backs/set1/green.gif","img/card_backs/set1/red.gif","img/card_backs/set1/yellow.gif","img/card_backs/set1/purple.gif","img/card_backs/set2/blue.gif","img/card_backs/set2/gray.gif","img/card_backs/set2/orange.gif","img/card_backs/set2/pink.gif","""event"",""trial"",""time""
""fullscreenenter"",""1"",""3557""
","
","
","""event"",""trial"",""time""
""fullscreenenter"",""1"",""3557""
","
","","2133.8749999995343","","","","practice","2021-04-01 15:48:30.536","img/practice_cards/backs/dark_green.gif","0","200","0","",""
"casino-fixation","39","195741","0.0-17.0-0.2","239","true","img/card_backs/set1/green.gif","img/card_backs/set1/red.gif","img/card_backs/set1/yellow.gif","img/card_backs/set1/purple.gif","img/card_backs/set2/blue.gif","img/card_backs/set2/gray.gif","img/card_backs/set2/orange.gif","img/card_backs/set2/pink.gif","""event"",""trial"",""time""
""fullscreenenter"",""1"",""3557""
","
","
","""event"",""trial"",""time""
""fullscreenenter"",""1"",""3557""
","
","","null","","null","","fixation","2021-04-01 15:48:31.052","","","","","",""
"card-selection-trial","40","199289","0.0-17.0-1.2","239","true","img/card_backs/set1/green.gif","img/card_backs/set1/red.gif","img/card_backs/set1/yellow.gif","img/card_backs/set1/purple.gif","img/card_backs/set2/blue.gif","img/card_backs/set2/gray.gif","img/card_backs/set2/orange.gif","img/card_backs/set2/pink.gif","""event"",""trial"",""time""
""fullscreenenter"",""1"",""3557""
","
","
","""event"",""trial"",""time""
""fullscreenenter"",""1"",""3557""
","
","","1540.2049999975134","","","","practice","2021-04-01 15:48:34.600","img/practice_cards/backs/black.gif","0","-100","0","",""
"casino-fixation","41","199798","0.0-17.0-0.3","239","true","img/card_backs/set1/green.gif","img/card_backs/set1/red.gif","img/card_backs/set1/yellow.gif","img/card_backs/set1/purple.gif","img/card_backs/set2/blue.gif","img/card_backs/set2/gray.gif","img/card_backs/set2/orange.gif","img/card_backs/set2/pink.gif","""event"",""trial"",""time""
""fullscreenenter"",""1"",""3557""
","
","
","""event"",""trial"",""time""
""fullscreenenter"",""1"",""3557""
","
","","null","","null","","fixation","2021-04-01 15:48:35.110","","","","","",""
"card-selection-trial","42","203648","0.0-17.0-1.3","239","true","img/card_backs/set1/green.gif","img/card_backs/set1/red.gif","img/card_backs/set1/yellow.gif","img/card_backs/set1/purple.gif","img/card_backs/set2/blue.gif","img/card_backs/set2/gray.gif","img/card_backs/set2/orange.gif","img/card_backs/set2/pink.gif","""event"",""trial"",""time""
""fullscreenenter"",""1"",""3557""
","
","
","""event"",""trial"",""time""
""fullscreenenter"",""1"",""3557""
","
","","1842.8600000042934","","","","practice","2021-04-01 15:48:38.959","img/practice_cards/backs/brown.gif","2","100","0","",""
"casino-fixation","43","204163","0.0-17.0-0.4","239","true","img/card_backs/set1/green.gif","img/card_backs/set1/red.gif","img/card_backs/set1/yellow.gif","img/card_backs/set1/purple.gif","img/card_backs/set2/blue.gif","img/card_backs/set2/gray.gif","img/card_backs/set2/orange.gif","img/card_backs/set2/pink.gif","""event"",""trial"",""time""
""fullscreenenter"",""1"",""3557""
","
","
","""event"",""trial"",""time""
""fullscreenenter"",""1"",""3557""
","
","","null","","null","","fixation","2021-04-01 15:48:39.474","","","","","",""
"card-selection-trial","44","207333","0.0-17.0-1.4","239","true","img/card_backs/set1/green.gif","img/card_backs/set1/red.gif","img/card_backs/set1/yellow.gif","img/card_backs/set1/purple.gif","img/card_backs/set2/blue.gif","img/card_backs/set2/gray.gif","img/card_backs/set2/orange.gif","img/card_backs/set2/pink.gif","""event"",""trial"",""time""
""fullscreenenter"",""1"",""3557""
","
","
","""event"",""trial"",""time""
""fullscreenenter"",""1"",""3557""
","
","","1163.3549999969546","","","","practice","2021-04-01 15:48:42.644","img/practice_cards/backs/dark_blue.gif","2","-200","0","",""
"casino-fixation","45","207850","0.0-17.0-0.5","239","true","img/card_backs/set1/green.gif","img/card_backs/set1/red.gif","img/card_backs/set1/yellow.gif","img/card_backs/set1/purple.gif","img/card_backs/set2/blue.gif","img/card_backs/set2/gray.gif","img/card_backs/set2/orange.gif","img/card_backs/set2/pink.gif","""event"",""trial"",""time""
""fullscreenenter"",""1"",""3557""
","
","
","""event"",""trial"",""time""
""fullscreenenter"",""1"",""3557""
","
","","null","","null","","fixation","2021-04-01 15:48:43.161","","","","","",""
"card-selection-trial","46","210382","0.0-17.0-1.5","239","true","img/card_backs/set1/green.gif","img/card_backs/set1/red.gif","img/card_backs/set1/yellow.gif","img/card_backs/set1/purple.gif","img/card_backs/set2/blue.gif","img/card_backs/set2/gray.gif","img/card_backs/set2/orange.gif","img/card_backs/set2/pink.gif","""event"",""trial"",""time""
""fullscreenenter"",""1"",""3557""
","
","
","""event"",""trial"",""time""
""fullscreenenter"",""1"",""3557""
","
","","522.6450000191107","","","","practice","2021-04-01 15:48:45.693","img/practice_cards/backs/dark_green.gif","0","200","0","",""
"casino-fixation","47","210898","0.0-17.0-0.6","239","true","img/card_backs/set1/green.gif","img/card_backs/set1/red.gif","img/card_backs/set1/yellow.gif","img/card_backs/set1/purple.gif","img/card_backs/set2/blue.gif","img/card_backs/set2/gray.gif","img/card_backs/set2/orange.gif","img/card_backs/set2/pink.gif","""event"",""trial"",""time""
""fullscreenenter"",""1"",""3557""
","
","
","""event"",""trial"",""time""
""fullscreenenter"",""1"",""3557""
","
","","null","","null","","fixation","2021-04-01 15:48:46.209","","","","","",""
"card-selection-trial","48","216356","0.0-17.0-1.6","239","true","img/card_backs/set1/green.gif","img/card_backs/set1/red.gif","img/card_backs/set1/yellow.gif","img/card_backs/set1/purple.gif","img/card_backs/set2/blue.gif","img/card_backs/set2/gray.gif","img/card_backs/set2/orange.gif","img/card_backs/set2/pink.gif","""event"",""trial"",""time""
""fullscreenenter"",""1"",""3557""
","
","
","""event"",""trial"",""time""
""fullscreenenter"",""1"",""3557""
","
","","3442.1499999880325","","","","practice","2021-04-01 15:48:51.667","img/practice_cards/backs/brown.gif","1","-100","0","",""
"casino-fixation","49","216867","0.0-17.0-0.7","239","true","img/card_backs/set1/green.gif","img/card_backs/set1/red.gif","img/card_backs/set1/yellow.gif","img/card_backs/set1/purple.gif","img/card_backs/set2/blue.gif","img/card_backs/set2/gray.gif","img/card_backs/set2/orange.gif","img/card_backs/set2/pink.gif","""event"",""trial"",""time""
""fullscreenenter"",""1"",""3557""
","
","
","""event"",""trial"",""time""
""fullscreenenter"",""1"",""3557""
","
","","null","","null","","fixation","2021-04-01 15:48:52.178","","","","","",""
"card-selection-trial","50","219837","0.0-17.0-1.7","239","true","img/card_backs/set1/green.gif","img/card_backs/set1/red.gif","img/card_backs/set1/yellow.gif","img/card_backs/set1/purple.gif","img/card_backs/set2/blue.gif","img/card_backs/set2/gray.gif","img/card_backs/set2/orange.gif","img/card_backs/set2/pink.gif","""event"",""trial"",""time""
""fullscreenenter"",""1"",""3557""
","
","
","""event"",""trial"",""time""
""fullscreenenter"",""1"",""3557""
","
","","966.4800000027753","","","","practice","2021-04-01 15:48:55.148","img/practice_cards/backs/dark_blue.gif","0","200","0","",""
"casino-fixation","51","220339","0.0-17.0-0.8","239","true","img/card_backs/set1/green.gif","img/card_backs/set1/red.gif","img/card_backs/set1/yellow.gif","img/card_backs/set1/purple.gif","img/card_backs/set2/blue.gif","img/card_backs/set2/gray.gif","img/card_backs/set2/orange.gif","img/card_backs/set2/pink.gif","""event"",""trial"",""time""
""fullscreenenter"",""1"",""3557""
","
","
","""event"",""trial"",""time""
""fullscreenenter"",""1"",""3557""
","
","","null","","null","","fixation","2021-04-01 15:48:55.650","","","","","",""
"card-selection-trial","52","222721","0.0-17.0-1.8","239","true","img/card_backs/set1/green.gif","img/card_backs/set1/red.gif","img/card_backs/set1/yellow.gif","img/card_backs/set1/purple.gif","img/card_backs/set2/blue.gif","img/card_backs/set2/gray.gif","img/card_backs/set2/orange.gif","img/card_backs/set2/pink.gif","""event"",""trial"",""time""
""fullscreenenter"",""1"",""3557""
","
","
","""event"",""trial"",""time""
""fullscreenenter"",""1"",""3557""
","
","","379.43000000086613","","","","practice","2021-04-01 15:48:58.033","img/practice_cards/backs/black.gif","1","100","0","",""
"casino-fixation","53","223224","0.0-17.0-0.9","239","true","img/card_backs/set1/green.gif","img/card_backs/set1/red.gif","img/card_backs/set1/yellow.gif","img/card_backs/set1/purple.gif","img/card_backs/set2/blue.gif","img/card_backs/set2/gray.gif","img/card_backs/set2/orange.gif","img/card_backs/set2/pink.gif","""event"",""trial"",""time""
""fullscreenenter"",""1"",""3557""
","
","
","""event"",""trial"",""time""
""fullscreenenter"",""1"",""3557""
","
","","null","","null","","fixation","2021-04-01 15:48:58.535","","","","","",""
"card-selection-trial","54","225800","0.0-17.0-1.9","239","true","img/card_backs/set1/green.gif","img/card_backs/set1/red.gif","img/card_backs/set1/yellow.gif","img/card_backs/set1/purple.gif","img/card_backs/set2/blue.gif","img/card_backs/set2/gray.gif","img/card_backs/set2/orange.gif","img/card_backs/set2/pink.gif","""event"",""trial"",""time""
""fullscreenenter"",""1"",""3557""
","
","
","""event"",""trial"",""time""
""fullscreenenter"",""1"",""3557""
","
","","570.6349999818485","","","","practice","2021-04-01 15:49:01.112","img/practice_cards/backs/dark_blue.gif","0","200","0","",""
"casino-keyboard-response","55","228827","0.0-18.0","239","true","img/card_backs/set1/green.gif","img/card_backs/set1/red.gif","img/card_backs/set1/yellow.gif","img/card_backs/set1/purple.gif","img/card_backs/set2/blue.gif","img/card_backs/set2/gray.gif","img/card_backs/set2/orange.gif","img/card_backs/set2/pink.gif","""event"",""trial"",""time""
""fullscreenenter"",""1"",""3557""
","
","
","""event"",""trial"",""time""
""fullscreenenter"",""1"",""3557""
","
","","3025.580000015907","You earned 800 tokens during the practice round!","75","","","2021-04-01 15:49:04.138","","","","","",""
"casino-keyboard-response","56","233043","0.0-19.0-0.0","239","true","img/card_backs/set1/green.gif","img/card_backs/set1/red.gif","img/card_backs/set1/yellow.gif","img/card_backs/set1/purple.gif","img/card_backs/set2/blue.gif","img/card_backs/set2/gray.gif","img/card_backs/set2/orange.gif","img/card_backs/set2/pink.gif","""event"",""trial"",""time""
""fullscreenenter"",""1"",""3557""
","
","
","""event"",""trial"",""time""
""fullscreenenter"",""1"",""3557""
","
","","4215.679999993881","Nice job! You are almost ready to play the real game.","86","","instructions","2021-04-01 15:49:08.354","","","","","",""
"casino-keyboard-response","57","239149","0.0-19.0-0.1","239","true","img/card_backs/set1/green.gif","img/card_backs/set1/red.gif","img/card_backs/set1/yellow.gif","img/card_backs/set1/purple.gif","img/card_backs/set2/blue.gif","img/card_backs/set2/gray.gif","img/card_backs/set2/orange.gif","img/card_backs/set2/pink.gif","""event"",""trial"",""time""
""fullscreenenter"",""1"",""3557""
","
","
","""event"",""trial"",""time""
""fullscreenenter"",""1"",""3557""
","
","","6104.785000003176","You will play two rounds of the real game. In each round, you will pick 100 cards in total.","73","","instructions","2021-04-01 15:49:14.460","","","","","",""
"casino-keyboard-response","58","243106","0.0-19.0-0.2","239","true","img/card_backs/set1/green.gif","img/card_backs/set1/red.gif","img/card_backs/set1/yellow.gif","img/card_backs/set1/purple.gif","img/card_backs/set2/blue.gif","img/card_backs/set2/gray.gif","img/card_backs/set2/orange.gif","img/card_backs/set2/pink.gif","""event"",""trial"",""time""
""fullscreenenter"",""1"",""3557""
","
","
","""event"",""trial"",""time""
""fullscreenenter"",""1"",""3557""
","
","","3956.8450000078883","We are now going to ask you some questions about how the game works.","66","","instructions","2021-04-01 15:49:18.417","","","","","",""
"casino-keyboard-response","59","249076","0.0-19.0-0.3","239","true","img/card_backs/set1/green.gif","img/card_backs/set1/red.gif","img/card_backs/set1/yellow.gif","img/card_backs/set1/purple.gif","img/card_backs/set2/blue.gif","img/card_backs/set2/gray.gif","img/card_backs/set2/orange.gif","img/card_backs/set2/pink.gif","""event"",""trial"",""time""
""fullscreenenter"",""1"",""3557""
","
","
","""event"",""trial"",""time""
""fullscreenenter"",""1"",""3557""
","
","","5968.349999981001","Answer carefully. You will not be able to begin the game until you answer them correctly.","67","","instructions","2021-04-01 15:49:24.387","","","","","",""
"casino-comp_q","60","253420","0.0-20.0-0.0","239","true","img/card_backs/set1/green.gif","img/card_backs/set1/red.gif","img/card_backs/set1/yellow.gif","img/card_backs/set1/purple.gif","img/card_backs/set2/blue.gif","img/card_backs/set2/gray.gif","img/card_backs/set2/orange.gif","img/card_backs/set2/pink.gif","""event"",""trial"",""time""
""fullscreenenter"",""1"",""3557""
","
","
","""event"",""trial"",""time""
""fullscreenenter"",""1"",""3557""
","
","","4342.869999993127","True or False: All the decks have some cards that cause you to win tokens and some cards that cause you to lose tokens.","84","","","2021-04-01 15:49:28.731","","","","","",""
"casino-keyboard-response","61","256159","0.0-20.0-1.0","239","true","img/card_backs/set1/green.gif","img/card_backs/set1/red.gif","img/card_backs/set1/yellow.gif","img/card_backs/set1/purple.gif","img/card_backs/set2/blue.gif","img/card_backs/set2/gray.gif","img/card_backs/set2/orange.gif","img/card_backs/set2/pink.gif","""event"",""trial"",""time""
""fullscreenenter"",""1"",""3557""
","
","
","""event"",""trial"",""time""
""fullscreenenter"",""1"",""3557""
","
","","2738.3649999974295","True is correct! All the decks have a mix of winning and losing cards.","77","","","2021-04-01 15:49:31.470","","","","","true",""
"casino-comp_q","62","258607","0.0-21.0-0.0","239","true","img/card_backs/set1/green.gif","img/card_backs/set1/red.gif","img/card_backs/set1/yellow.gif","img/card_backs/set1/purple.gif","img/card_backs/set2/blue.gif","img/card_backs/set2/gray.gif","img/card_backs/set2/orange.gif","img/card_backs/set2/pink.gif","""event"",""trial"",""time""
""fullscreenenter"",""1"",""3557""
","
","
","""event"",""trial"",""time""
""fullscreenenter"",""1"",""3557""
","
","","2446.464999986347","True or False: You will have as much time as you want to make your response.","70","","","2021-04-01 15:49:33.918","","","","","",""
"casino-keyboard-response","63","261149","0.0-21.0-1.0","239","true","img/card_backs/set1/green.gif","img/card_backs/set1/red.gif","img/card_backs/set1/yellow.gif","img/card_backs/set1/purple.gif","img/card_backs/set2/blue.gif","img/card_backs/set2/gray.gif","img/card_backs/set2/orange.gif","img/card_backs/set2/pink.gif","""event"",""trial"",""time""
""fullscreenenter"",""1"",""3557""
","
","
","""event"",""trial"",""time""
""fullscreenenter"",""1"",""3557""
","
","","2541.895000002114","False is correct! You will only have 10 seconds to make each choice.","75","","","2021-04-01 15:49:36.460","","","","","true",""
"casino-comp_q","64","263848","0.0-22.0-0.0","239","true","img/card_backs/set1/green.gif","img/card_backs/set1/red.gif","img/card_backs/set1/yellow.gif","img/card_backs/set1/purple.gif","img/card_backs/set2/blue.gif","img/card_backs/set2/gray.gif","img/card_backs/set2/orange.gif","img/card_backs/set2/pink.gif","""event"",""trial"",""time""
""fullscreenenter"",""1"",""3557""
","
","
","""event"",""trial"",""time""
""fullscreenenter"",""1"",""3557""
","
","","2698.4299999894574","True or False: The location of the deck determines how lucky it is.","70","","","2021-04-01 15:49:39.159","","","","","",""
"casino-keyboard-response","65","266792","0.0-22.0-1.0","239","true","img/card_backs/set1/green.gif","img/card_backs/set1/red.gif","img/card_backs/set1/yellow.gif","img/card_backs/set1/purple.gif","img/card_backs/set2/blue.gif","img/card_backs/set2/gray.gif","img/card_backs/set2/orange.gif","img/card_backs/set2/pink.gif","""event"",""trial"",""time""
""fullscreenenter"",""1"",""3557""
","
","
","""event"",""trial"",""time""
""fullscreenenter"",""1"",""3557""
","
","","2943.184999981895","False is correct! The <i>color</i>  of the deck determines how lucky or unlucky it is.","68","","","2021-04-01 15:49:42.103","","","","","true",""
"casino-keyboard-response","66","270788","0.0-23.0-0.0","239","true","img/card_backs/set1/green.gif","img/card_backs/set1/red.gif","img/card_backs/set1/yellow.gif","img/card_backs/set1/purple.gif","img/card_backs/set2/blue.gif","img/card_backs/set2/gray.gif","img/card_backs/set2/orange.gif","img/card_backs/set2/pink.gif","""event"",""trial"",""time""
""fullscreenenter"",""1"",""3557""
","
","
","""event"",""trial"",""time""
""fullscreenenter"",""1"",""3557""
","
","","3995.569999999134","Great job! Now it's time to start the real game.","82","","instructions","2021-04-01 15:49:46.099","","","","","",""
"casino-keyboard-response","67","275572","0.0-23.0-0.1","239","true","img/card_backs/set1/green.gif","img/card_backs/set1/red.gif","img/card_backs/set1/yellow.gif","img/card_backs/set1/purple.gif","img/card_backs/set2/blue.gif","img/card_backs/set2/gray.gif","img/card_backs/set2/orange.gif","img/card_backs/set2/pink.gif","""event"",""trial"",""time""
""fullscreenenter"",""1"",""3557""
","
","
","""event"",""trial"",""time""
""fullscreenenter"",""1"",""3557""
","
","","4783.389999996871","Before we start, we're going to head into a new room of the casino.","86","","instructions","2021-04-01 15:49:50.883","","","","","",""
"casino-keyboard-response","68","282421","0.0-24.0-0.0","239","true","img/card_backs/set1/green.gif","img/card_backs/set1/red.gif","img/card_backs/set1/yellow.gif","img/card_backs/set1/purple.gif","img/card_backs/set2/blue.gif","img/card_backs/set2/gray.gif","img/card_backs/set2/orange.gif","img/card_backs/set2/pink.gif","""event"",""trial"",""time""
""fullscreenenter"",""1"",""3557""
","
","
","""event"",""trial"",""time""
""fullscreenenter"",""1"",""3557""
","
","","6848.175000021001","Here we are! The real game will use different cards, but the rules will be the same.","71","","instructions","2021-04-01 15:49:57.732","","","","","",""
"casino-keyboard-response","69","283552","0.0-24.0-0.1","239","true","img/card_backs/set1/green.gif","img/card_backs/set1/red.gif","img/card_backs/set1/yellow.gif","img/card_backs/set1/purple.gif","img/card_backs/set2/blue.gif","img/card_backs/set2/gray.gif","img/card_backs/set2/orange.gif","img/card_backs/set2/pink.gif","""event"",""trial"",""time""
""fullscreenenter"",""1"",""3557""
","
","
","""event"",""trial"",""time""
""fullscreenenter"",""1"",""3557""
","
","","1130.4700000036974","Ready? Put your fingers over the '2', '4', 6', and '8' keys so you are ready to play the game. </br> Then press 2 to start.","50","","instructions","2021-04-01 15:49:58.863","","","","","",""
"casino-fixation","70","284064","0.0-25.0-0.0","239","true","img/card_backs/set1/green.gif","img/card_backs/set1/red.gif","img/card_backs/set1/yellow.gif","img/card_backs/set1/purple.gif","img/card_backs/set2/blue.gif","img/card_backs/set2/gray.gif","img/card_backs/set2/orange.gif","img/card_backs/set2/pink.gif","""event"",""trial"",""time""
""fullscreenenter"",""1"",""3557""
","
","
","""event"",""trial"",""time""
""fullscreenenter"",""1"",""3557""
","
","","null","","null","","fixation","2021-04-01 15:49:59.375","","","","","",""
"card-selection-trial","71","291183","0.0-25.0-1.0","239","true","img/card_backs/set1/green.gif","img/card_backs/set1/red.gif","img/card_backs/set1/yellow.gif","img/card_backs/set1/purple.gif","img/card_backs/set2/blue.gif","img/card_backs/set2/gray.gif","img/card_backs/set2/orange.gif","img/card_backs/set2/pink.gif","""event"",""trial"",""time""
""fullscreenenter"",""1"",""3557""
","
","
","""event"",""trial"",""time""
""fullscreenenter"",""1"",""3557""
","
","","5107.47500002617","","","","real_trial","2021-04-01 15:50:06.494","img/card_backs/set1/red.gif","0","-200","1","",""
"casino-fixation","72","291695","0.0-25.0-0.1","239","true","img/card_backs/set1/green.gif","img/card_backs/set1/red.gif","img/card_backs/set1/yellow.gif","img/card_backs/set1/purple.gif","img/card_backs/set2/blue.gif","img/card_backs/set2/gray.gif","img/card_backs/set2/orange.gif","img/card_backs/set2/pink.gif","""event"",""trial"",""time""
""fullscreenenter"",""1"",""3557""
","
","
","""event"",""trial"",""time""
""fullscreenenter"",""1"",""3557""
","
","","null","","null","","fixation","2021-04-01 15:50:07.006","","","","","",""
"card-selection-trial","73","294906","0.0-25.0-1.1","239","true","img/card_backs/set1/green.gif","img/card_backs/set1/red.gif","img/card_backs/set1/yellow.gif","img/card_backs/set1/purple.gif","img/card_backs/set2/blue.gif","img/card_backs/set2/gray.gif","img/card_backs/set2/orange.gif","img/card_backs/set2/pink.gif","""event"",""trial"",""time""
""fullscreenenter"",""1"",""3557""
","
","
","""event"",""trial"",""time""
""fullscreenenter"",""1"",""3557""
","
","","1198.6850000103004","","","","real_trial","2021-04-01 15:50:10.217","img/card_backs/set1/green.gif","2","240","1","",""
"casino-fixation","74","295407","0.0-25.0-0.2","239","true","img/card_backs/set1/green.gif","img/card_backs/set1/red.gif","img/card_backs/set1/yellow.gif","img/card_backs/set1/purple.gif","img/card_backs/set2/blue.gif","img/card_backs/set2/gray.gif","img/card_backs/set2/orange.gif","img/card_backs/set2/pink.gif","""event"",""trial"",""time""
""fullscreenenter"",""1"",""3557""
","
","
","""event"",""trial"",""time""
""fullscreenenter"",""1"",""3557""
","
","","null","","null","","fixation","2021-04-01 15:50:10.718","","","","","",""
"card-selection-trial","75","298969","0.0-25.0-1.2","239","true","img/card_backs/set1/green.gif","img/card_backs/set1/red.gif","img/card_backs/set1/yellow.gif","img/card_backs/set1/purple.gif","img/card_backs/set2/blue.gif","img/card_backs/set2/gray.gif","img/card_backs/set2/orange.gif","img/card_backs/set2/pink.gif","""event"",""trial"",""time""
""fullscreenenter"",""1"",""3557""
","
","
","""event"",""trial"",""time""
""fullscreenenter"",""1"",""3557""
","
","","1554.7499999811407","","","","real_trial","2021-04-01 15:50:14.280","img/card_backs/set1/purple.gif","0","-100","1","",""
"casino-fixation","76","299483","0.0-25.0-0.3","239","true","img/card_backs/set1/green.gif","img/card_backs/set1/red.gif","img/card_backs/set1/yellow.gif","img/card_backs/set1/purple.gif","img/card_backs/set2/blue.gif","img/card_backs/set2/gray.gif","img/card_backs/set2/orange.gif","img/card_backs/set2/pink.gif","""event"",""trial"",""time""
""fullscreenenter"",""1"",""3557""
","
","
","""event"",""trial"",""time""
""fullscreenenter"",""1"",""3557""
","
","","null","","null","","fixation","2021-04-01 15:50:14.794","","","","","",""
"card-selection-trial","77","302319","0.0-25.0-1.3","239","true","img/card_backs/set1/green.gif","img/card_backs/set1/red.gif","img/card_backs/set1/yellow.gif","img/card_backs/set1/purple.gif","img/card_backs/set2/blue.gif","img/card_backs/set2/gray.gif","img/card_backs/set2/orange.gif","img/card_backs/set2/pink.gif","""event"",""trial"",""time""
""fullscreenenter"",""1"",""3557""
","
","
","""event"",""trial"",""time""
""fullscreenenter"",""1"",""3557""
","
","","820.8849999937229","","","","real_trial","2021-04-01 15:50:17.630","img/card_backs/set1/yellow.gif","0","-100","1","",""
"casino-fixation","78","302832","0.0-25.0-0.4","239","true","img/card_backs/set1/green.gif","img/card_backs/set1/red.gif","img/card_backs/set1/yellow.gif","img/card_backs/set1/purple.gif","img/card_backs/set2/blue.gif","img/card_backs/set2/gray.gif","img/card_backs/set2/orange.gif","img/card_backs/set2/pink.gif","""event"",""trial"",""time""
""fullscreenenter"",""1"",""3557""
","
","
","""event"",""trial"",""time""
""fullscreenenter"",""1"",""3557""
","
","","null","","null","","fixation","2021-04-01 15:50:18.143","","","","","",""
"card-selection-trial","79","305903","0.0-25.0-1.4","239","true","img/card_backs/set1/green.gif","img/card_backs/set1/red.gif","img/card_backs/set1/yellow.gif","img/card_backs/set1/purple.gif","img/card_backs/set2/blue.gif","img/card_backs/set2/gray.gif","img/card_backs/set2/orange.gif","img/card_backs/set2/pink.gif","""event"",""trial"",""time""
""fullscreenenter"",""1"",""3557""
","
","
","""event"",""trial"",""time""
""fullscreenenter"",""1"",""3557""
","
","","1065.0949999981094","","","","real_trial","2021-04-01 15:50:21.214","img/card_backs/set1/red.gif","1","250","1","",""
"casino-fixation","80","306408","0.0-25.0-0.5","239","true","img/card_backs/set1/green.gif","img/card_backs/set1/red.gif","img/card_backs/set1/yellow.gif","img/card_backs/set1/purple.gif","img/card_backs/set2/blue.gif","img/card_backs/set2/gray.gif","img/card_backs/set2/orange.gif","img/card_backs/set2/pink.gif","""event"",""trial"",""time""
""fullscreenenter"",""1"",""3557""
","
","
","""event"",""trial"",""time""
""fullscreenenter"",""1"",""3557""
","
","","null","","null","","fixation","2021-04-01 15:50:21.719","","","","","",""
"card-selection-trial","81","310746","0.0-25.0-1.5","239","true","img/card_backs/set1/green.gif","img/card_backs/set1/red.gif","img/card_backs/set1/yellow.gif","img/card_backs/set1/purple.gif","img/card_backs/set2/blue.gif","img/card_backs/set2/gray.gif","img/card_backs/set2/orange.gif","img/card_backs/set2/pink.gif","""event"",""trial"",""time""
""fullscreenenter"",""1"",""3557""
","
","
","""event"",""trial"",""time""
""fullscreenenter"",""1"",""3557""
","
","","2332.620000001043","","","","real_trial","2021-04-01 15:50:26.057","img/card_backs/set1/green.gif","3","-200","1","",""
"casino-fixation","82","311256","0.0-25.0-0.6","239","true","img/card_backs/set1/green.gif","img/card_backs/set1/red.gif","img/card_backs/set1/yellow.gif","img/card_backs/set1/purple.gif","img/card_backs/set2/blue.gif","img/card_backs/set2/gray.gif","img/card_backs/set2/orange.gif","img/card_backs/set2/pink.gif","""event"",""trial"",""time""
""fullscreenenter"",""1"",""3557""
","
","
","""event"",""trial"",""time""
""fullscreenenter"",""1"",""3557""
","
","","null","","null","","fixation","2021-04-01 15:50:26.567","","","","","",""
"card-selection-trial","83","315504","0.0-25.0-1.6","239","true","img/card_backs/set1/green.gif","img/card_backs/set1/red.gif","img/card_backs/set1/yellow.gif","img/card_backs/set1/purple.gif","img/card_backs/set2/blue.gif","img/card_backs/set2/gray.gif","img/card_backs/set2/orange.gif","img/card_backs/set2/pink.gif","""event"",""trial"",""time""
""fullscreenenter"",""1"",""3557""
","
","
","""event"",""trial"",""time""
""fullscreenenter"",""1"",""3557""
","
","","2245.469999994384","","","","real_trial","2021-04-01 15:50:30.816","img/card_backs/set1/purple.gif","3","50","1","",""
"casino-fixation","84","316006","0.0-25.0-0.7","239","true","img/card_backs/set1/green.gif","img/card_backs/set1/red.gif","img/card_backs/set1/yellow.gif","img/card_backs/set1/purple.gif","img/card_backs/set2/blue.gif","img/card_backs/set2/gray.gif","img/card_backs/set2/orange.gif","img/card_backs/set2/pink.gif","""event"",""trial"",""time""
""fullscreenenter"",""1"",""3557""
","
","
","""event"",""trial"",""time""
""fullscreenenter"",""1"",""3557""
","
","","null","","null","","fixation","2021-04-01 15:50:31.317","","","","","",""
"card-selection-trial","85","319412","0.0-25.0-1.7","239","true","img/card_backs/set1/green.gif","img/card_backs/set1/red.gif","img/card_backs/set1/yellow.gif","img/card_backs/set1/purple.gif","img/card_backs/set2/blue.gif","img/card_backs/set2/gray.gif","img/card_backs/set2/orange.gif","img/card_backs/set2/pink.gif","""event"",""trial"",""time""
""fullscreenenter"",""1"",""3557""
","
","
","""event"",""trial"",""time""
""fullscreenenter"",""1"",""3557""
","
","","1403.0499999935273","","","","real_trial","2021-04-01 15:50:34.723","img/card_backs/set1/yellow.gif","1","60","1","",""
"casino-fixation","86","319913","0.0-25.0-0.8","239","true","img/card_backs/set1/green.gif","img/card_backs/set1/red.gif","img/card_backs/set1/yellow.gif","img/card_backs/set1/purple.gif","img/card_backs/set2/blue.gif","img/card_backs/set2/gray.gif","img/card_backs/set2/orange.gif","img/card_backs/set2/pink.gif","""event"",""trial"",""time""
""fullscreenenter"",""1"",""3557""
","
","
","""event"",""trial"",""time""
""fullscreenenter"",""1"",""3557""
","
","","null","","null","","fixation","2021-04-01 15:50:35.224","","","","","",""
"card-selection-trial","87","322905","0.0-25.0-1.8","239","true","img/card_backs/set1/green.gif","img/card_backs/set1/red.gif","img/card_backs/set1/yellow.gif","img/card_backs/set1/purple.gif","img/card_backs/set2/blue.gif","img/card_backs/set2/gray.gif","img/card_backs/set2/orange.gif","img/card_backs/set2/pink.gif","""event"",""trial"",""time""
""fullscreenenter"",""1"",""3557""
","
","
","""event"",""trial"",""time""
""fullscreenenter"",""1"",""3557""
","
","","989.8200000170618","","","","real_trial","2021-04-01 15:50:38.216","img/card_backs/set1/red.gif","2","240","1","",""
"casino-fixation","88","323407","0.0-25.0-0.9","239","true","img/card_backs/set1/green.gif","img/card_backs/set1/red.gif","img/card_backs/set1/yellow.gif","img/card_backs/set1/purple.gif","img/card_backs/set2/blue.gif","img/card_backs/set2/gray.gif","img/card_backs/set2/orange.gif","img/card_backs/set2/pink.gif","""event"",""trial"",""time""
""fullscreenenter"",""1"",""3557""
","
","
","""event"",""trial"",""time""
""fullscreenenter"",""1"",""3557""
","
","","null","","null","","fixation","2021-04-01 15:50:38.718","","","","","",""
"card-selection-trial","89","326029","0.0-25.0-1.9","239","true","img/card_backs/set1/green.gif","img/card_backs/set1/red.gif","img/card_backs/set1/yellow.gif","img/card_backs/set1/purple.gif","img/card_backs/set2/blue.gif","img/card_backs/set2/gray.gif","img/card_backs/set2/orange.gif","img/card_backs/set2/pink.gif","""event"",""trial"",""time""
""fullscreenenter"",""1"",""3557""
","
","
","""event"",""trial"",""time""
""fullscreenenter"",""1"",""3557""
","
","","618.4399999910966","","","","real_trial","2021-04-01 15:50:41.340","img/card_backs/set1/green.gif","2","250","1","",""
"casino-fixation","90","326530","0.0-25.0-0.10","239","true","img/card_backs/set1/green.gif","img/card_backs/set1/red.gif","img/card_backs/set1/yellow.gif","img/card_backs/set1/purple.gif","img/card_backs/set2/blue.gif","img/card_backs/set2/gray.gif","img/card_backs/set2/orange.gif","img/card_backs/set2/pink.gif","""event"",""trial"",""time""
""fullscreenenter"",""1"",""3557""
","
","
","""event"",""trial"",""time""
""fullscreenenter"",""1"",""3557""
","
","","null","","null","","fixation","2021-04-01 15:50:41.841","","","","","",""
"card-selection-trial","91","329835","0.0-25.0-1.10","239","true","img/card_backs/set1/green.gif","img/card_backs/set1/red.gif","img/card_backs/set1/yellow.gif","img/card_backs/set1/purple.gif","img/card_backs/set2/blue.gif","img/card_backs/set2/gray.gif","img/card_backs/set2/orange.gif","img/card_backs/set2/pink.gif","""event"",""trial"",""time""
""fullscreenenter"",""1"",""3557""
","
","
","""event"",""trial"",""time""
""fullscreenenter"",""1"",""3557""
","
","","1301.4149999944493","","","","real_trial","2021-04-01 15:50:45.146","img/card_backs/set1/purple.gif","2","50","1","",""
"casino-fixation","92","330336","0.0-25.0-0.11","239","true","img/card_backs/set1/green.gif","img/card_backs/set1/red.gif","img/card_backs/set1/yellow.gif","img/card_backs/set1/purple.gif","img/card_backs/set2/blue.gif","img/card_backs/set2/gray.gif","img/card_backs/set2/orange.gif","img/card_backs/set2/pink.gif","""event"",""trial"",""time""
""fullscreenenter"",""1"",""3557""
","
","
","""event"",""trial"",""time""
""fullscreenenter"",""1"",""3557""
","
","","null","","null","","fixation","2021-04-01 15:50:45.647","","","","","",""
"card-selection-trial","93","333296","0.0-25.0-1.11","239","true","img/card_backs/set1/green.gif","img/card_backs/set1/red.gif","img/card_backs/set1/yellow.gif","img/card_backs/set1/purple.gif","img/card_backs/set2/blue.gif","img/card_backs/set2/gray.gif","img/card_backs/set2/orange.gif","img/card_backs/set2/pink.gif","""event"",""trial"",""time""
""fullscreenenter"",""1"",""3557""
","
","
","""event"",""trial"",""time""
""fullscreenenter"",""1"",""3557""
","
","","957.1850000065751","","","","real_trial","2021-04-01 15:50:48.607","img/card_backs/set1/yellow.gif","0","60","1","",""
"casino-fixation","94","333799","0.0-25.0-0.12","239","true","img/card_backs/set1/green.gif","img/card_backs/set1/red.gif","img/card_backs/set1/yellow.gif","img/card_backs/set1/purple.gif","img/card_backs/set2/blue.gif","img/card_backs/set2/gray.gif","img/card_backs/set2/orange.gif","img/card_backs/set2/pink.gif","""event"",""trial"",""time""
""fullscreenenter"",""1"",""3557""
","
","
","""event"",""trial"",""time""
""fullscreenenter"",""1"",""3557""
","
","","null","","null","","fixation","2021-04-01 15:50:49.110","","","","","",""
"card-selection-trial","95","336468","0.0-25.0-1.12","239","true","img/card_backs/set1/green.gif","img/card_backs/set1/red.gif","img/card_backs/set1/yellow.gif","img/card_backs/set1/purple.gif","img/card_backs/set2/blue.gif","img/card_backs/set2/gray.gif","img/card_backs/set2/orange.gif","img/card_backs/set2/pink.gif","""event"",""trial"",""time""
""fullscreenenter"",""1"",""3557""
","
","
","""event"",""trial"",""time""
""fullscreenenter"",""1"",""3557""
","
","","665.9849999996368","","","","real_trial","2021-04-01 15:50:51.779","img/card_backs/set1/red.gif","0","-200","1","",""
"casino-fixation","96","336969","0.0-25.0-0.13","239","true","img/card_backs/set1/green.gif","img/card_backs/set1/red.gif","img/card_backs/set1/yellow.gif","img/card_backs/set1/purple.gif","img/card_backs/set2/blue.gif","img/card_backs/set2/gray.gif","img/card_backs/set2/orange.gif","img/card_backs/set2/pink.gif","""event"",""trial"",""time""
""fullscreenenter"",""1"",""3557""
","
","
","""event"",""trial"",""time""
""fullscreenenter"",""1"",""3557""
","
","","null","","null","","fixation","2021-04-01 15:50:52.280","","","","","",""
"card-selection-trial","97","339542","0.0-25.0-1.13","239","true","img/card_backs/set1/green.gif","img/card_backs/set1/red.gif","img/card_backs/set1/yellow.gif","img/card_backs/set1/purple.gif","img/card_backs/set2/blue.gif","img/card_backs/set2/gray.gif","img/card_backs/set2/orange.gif","img/card_backs/set2/pink.gif","""event"",""trial"",""time""
""fullscreenenter"",""1"",""3557""
","
","
","""event"",""trial"",""time""
""fullscreenenter"",""1"",""3557""
","
","","570.7050000200979","","","","real_trial","2021-04-01 15:50:54.853","img/card_backs/set1/green.gif","3","250","1","",""
"casino-fixation","98","340043","0.0-25.0-0.14","239","true","img/card_backs/set1/green.gif","img/card_backs/set1/red.gif","img/card_backs/set1/yellow.gif","img/card_backs/set1/purple.gif","img/card_backs/set2/blue.gif","img/card_backs/set2/gray.gif","img/card_backs/set2/orange.gif","img/card_backs/set2/pink.gif","""event"",""trial"",""time""
""fullscreenenter"",""1"",""3557""
","
","
","""event"",""trial"",""time""
""fullscreenenter"",""1"",""3557""
","
","","null","","null","","fixation","2021-04-01 15:50:55.355","","","","","",""
"card-selection-trial","99","343385","0.0-25.0-1.14","239","true","img/card_backs/set1/green.gif","img/card_backs/set1/red.gif","img/card_backs/set1/yellow.gif","img/card_backs/set1/purple.gif","img/card_backs/set2/blue.gif","img/card_backs/set2/gray.gif","img/card_backs/set2/orange.gif","img/card_backs/set2/pink.gif","""event"",""trial"",""time""
""fullscreenenter"",""1"",""3557""
","
","
","""event"",""trial"",""time""
""fullscreenenter"",""1"",""3557""
","
","","1338.4249999944586","","","","real_trial","2021-04-01 15:50:58.696","img/card_backs/set1/yellow.gif","0","50","1","",""
"casino-fixation","100","343887","0.0-25.0-0.15","239","true","img/card_backs/set1/green.gif","img/card_backs/set1/red.gif","img/card_backs/set1/yellow.gif","img/card_backs/set1/purple.gif","img/card_backs/set2/blue.gif","img/card_backs/set2/gray.gif","img/card_backs/set2/orange.gif","img/card_backs/set2/pink.gif","""event"",""trial"",""time""
""fullscreenenter"",""1"",""3557""
","
","
","""event"",""trial"",""time""
""fullscreenenter"",""1"",""3557""
","
","","null","","null","","fixation","2021-04-01 15:50:59.198","","","","","",""
"card-selection-trial","101","347679","0.0-25.0-1.15","239","true","img/card_backs/set1/green.gif","img/card_backs/set1/red.gif","img/card_backs/set1/yellow.gif","img/card_backs/set1/purple.gif","img/card_backs/set2/blue.gif","img/card_backs/set2/gray.gif","img/card_backs/set2/orange.gif","img/card_backs/set2/pink.gif","""event"",""trial"",""time""
""fullscreenenter"",""1"",""3557""
","
","
","""event"",""trial"",""time""
""fullscreenenter"",""1"",""3557""
","
","","1788.9150000119116","","","","real_trial","2021-04-01 15:51:02.990","img/card_backs/set1/purple.gif","3","-110","1","",""
"casino-fixation","102","348180","0.0-25.0-0.16","239","true","img/card_backs/set1/green.gif","img/card_backs/set1/red.gif","img/card_backs/set1/yellow.gif","img/card_backs/set1/purple.gif","img/card_backs/set2/blue.gif","img/card_backs/set2/gray.gif","img/card_backs/set2/orange.gif","img/card_backs/set2/pink.gif","""event"",""trial"",""time""
""fullscreenenter"",""1"",""3557""
","
","
","""event"",""trial"",""time""
""fullscreenenter"",""1"",""3557""
","
","","null","","null","","fixation","2021-04-01 15:51:03.491","","","","","",""
"card-selection-trial","103","352139","0.0-25.0-1.16","239","true","img/card_backs/set1/green.gif","img/card_backs/set1/red.gif","img/card_backs/set1/yellow.gif","img/card_backs/set1/purple.gif","img/card_backs/set2/blue.gif","img/card_backs/set2/gray.gif","img/card_backs/set2/orange.gif","img/card_backs/set2/pink.gif","""event"",""trial"",""time""
""fullscreenenter"",""1"",""3557""
","
","
","""event"",""trial"",""time""
""fullscreenenter"",""1"",""3557""
","
","","1955.355000012787","","","","real_trial","2021-04-01 15:51:07.450","img/card_backs/set1/green.gif","1","240","1","",""
"casino-fixation","104","352640","0.0-25.0-0.17","239","true","img/card_backs/set1/green.gif","img/card_backs/set1/red.gif","img/card_backs/set1/yellow.gif","img/card_backs/set1/purple.gif","img/card_backs/set2/blue.gif","img/card_backs/set2/gray.gif","img/card_backs/set2/orange.gif","img/card_backs/set2/pink.gif","""event"",""trial"",""time""
""fullscreenenter"",""1"",""3557""
","
","
","""event"",""trial"",""time""
""fullscreenenter"",""1"",""3557""
","
","","null","","null","","fixation","2021-04-01 15:51:07.951","","","","","",""
"card-selection-trial","105","355131","0.0-25.0-1.17","239","true","img/card_backs/set1/green.gif","img/card_backs/set1/red.gif","img/card_backs/set1/yellow.gif","img/card_backs/set1/purple.gif","img/card_backs/set2/blue.gif","img/card_backs/set2/gray.gif","img/card_backs/set2/orange.gif","img/card_backs/set2/pink.gif","""event"",""trial"",""time""
""fullscreenenter"",""1"",""3557""
","
","
","""event"",""trial"",""time""
""fullscreenenter"",""1"",""3557""
","
","","488.5350000113249","","","","real_trial","2021-04-01 15:51:10.443","img/card_backs/set1/red.gif","3","-190","1","",""
"casino-fixation","106","355634","0.0-25.0-0.18","239","true","img/card_backs/set1/green.gif","img/card_backs/set1/red.gif","img/card_backs/set1/yellow.gif","img/card_backs/set1/purple.gif","img/card_backs/set2/blue.gif","img/card_backs/set2/gray.gif","img/card_backs/set2/orange.gif","img/card_backs/set2/pink.gif","""event"",""trial"",""time""
""fullscreenenter"",""1"",""3557""
","
","
","""event"",""trial"",""time""
""fullscreenenter"",""1"",""3557""
","
","","null","","null","","fixation","2021-04-01 15:51:10.945","","","","","",""
"card-selection-trial","107","359001","0.0-25.0-1.18","239","true","img/card_backs/set1/green.gif","img/card_backs/set1/red.gif","img/card_backs/set1/yellow.gif","img/card_backs/set1/purple.gif","img/card_backs/set2/blue.gif","img/card_backs/set2/gray.gif","img/card_backs/set2/orange.gif","img/card_backs/set2/pink.gif","""event"",""trial"",""time""
""fullscreenenter"",""1"",""3557""
","
","
","""event"",""trial"",""time""
""fullscreenenter"",""1"",""3557""
","
","","1361.8699999933597","","","","real_trial","2021-04-01 15:51:14.312","img/card_backs/set1/red.gif","1","260","1","",""
"casino-fixation","108","359502","0.0-25.0-0.19","239","true","img/card_backs/set1/green.gif","img/card_backs/set1/red.gif","img/card_backs/set1/yellow.gif","img/card_backs/set1/purple.gif","img/card_backs/set2/blue.gif","img/card_backs/set2/gray.gif","img/card_backs/set2/orange.gif","img/card_backs/set2/pink.gif","""event"",""trial"",""time""
""fullscreenenter"",""1"",""3557""
","
","
","""event"",""trial"",""time""
""fullscreenenter"",""1"",""3557""
","
","","null","","null","","fixation","2021-04-01 15:51:14.813","","","","","",""
"card-selection-trial","109","362125","0.0-25.0-1.19","239","true","img/card_backs/set1/green.gif","img/card_backs/set1/red.gif","img/card_backs/set1/yellow.gif","img/card_backs/set1/purple.gif","img/card_backs/set2/blue.gif","img/card_backs/set2/gray.gif","img/card_backs/set2/orange.gif","img/card_backs/set2/pink.gif","""event"",""trial"",""time""
""fullscreenenter"",""1"",""3557""
","
","
","""event"",""trial"",""time""
""fullscreenenter"",""1"",""3557""
","
","","620.005000004312","","","","real_trial","2021-04-01 15:51:17.436","img/card_backs/set1/green.gif","3","240","1","",""
"casino-fixation","110","362627","0.0-25.0-0.20","239","true","img/card_backs/set1/green.gif","img/card_backs/set1/red.gif","img/card_backs/set1/yellow.gif","img/card_backs/set1/purple.gif","img/card_backs/set2/blue.gif","img/card_backs/set2/gray.gif","img/card_backs/set2/orange.gif","img/card_backs/set2/pink.gif","""event"",""trial"",""time""
""fullscreenenter"",""1"",""3557""
","
","
","""event"",""trial"",""time""
""fullscreenenter"",""1"",""3557""
","
","","null","","null","","fixation","2021-04-01 15:51:17.938","","","","","",""
"card-selection-trial","111","365217","0.0-25.0-1.20","239","true","img/card_backs/set1/green.gif","img/card_backs/set1/red.gif","img/card_backs/set1/yellow.gif","img/card_backs/set1/purple.gif","img/card_backs/set2/blue.gif","img/card_backs/set2/gray.gif","img/card_backs/set2/orange.gif","img/card_backs/set2/pink.gif","""event"",""trial"",""time""
""fullscreenenter"",""1"",""3557""
","
","
","""event"",""trial"",""time""
""fullscreenenter"",""1"",""3557""
","
","","587.5899999809917","","","","real_trial","2021-04-01 15:51:20.528","img/card_backs/set1/red.gif","3","240","1","",""
"casino-fixation","112","365719","0.0-25.0-0.21","239","true","img/card_backs/set1/green.gif","img/card_backs/set1/red.gif","img/card_backs/set1/yellow.gif","img/card_backs/set1/purple.gif","img/card_backs/set2/blue.gif","img/card_backs/set2/gray.gif","img/card_backs/set2/orange.gif","img/card_backs/set2/pink.gif","""event"",""trial"",""time""
""fullscreenenter"",""1"",""3557""
","
","
","""event"",""trial"",""time""
""fullscreenenter"",""1"",""3557""
","
","","null","","null","","fixation","2021-04-01 15:51:21.030","","","","","",""
"card-selection-trial","113","368305","0.0-25.0-1.21","239","true","img/card_backs/set1/green.gif","img/card_backs/set1/red.gif","img/card_backs/set1/yellow.gif","img/card_backs/set1/purple.gif","img/card_backs/set2/blue.gif","img/card_backs/set2/gray.gif","img/card_backs/set2/orange.gif","img/card_backs/set2/pink.gif","""event"",""trial"",""time""
""fullscreenenter"",""1"",""3557""
","
","
","""event"",""trial"",""time""
""fullscreenenter"",""1"",""3557""
","
","","582.63999997871","","","","real_trial","2021-04-01 15:51:23.616","img/card_backs/set1/green.gif","0","-190","1","",""
"casino-fixation","114","368808","0.0-25.0-0.22","239","true","img/card_backs/set1/green.gif","img/card_backs/set1/red.gif","img/card_backs/set1/yellow.gif","img/card_backs/set1/purple.gif","img/card_backs/set2/blue.gif","img/card_backs/set2/gray.gif","img/card_backs/set2/orange.gif","img/card_backs/set2/pink.gif","""event"",""trial"",""time""
""fullscreenenter"",""1"",""3557""
","
","
","""event"",""trial"",""time""
""fullscreenenter"",""1"",""3557""
","
","","null","","null","","fixation","2021-04-01 15:51:24.119","","","","","",""
"card-selection-trial","115","371380","0.0-25.0-1.22","239","true","img/card_backs/set1/green.gif","img/card_backs/set1/red.gif","img/card_backs/set1/yellow.gif","img/card_backs/set1/purple.gif","img/card_backs/set2/blue.gif","img/card_backs/set2/gray.gif","img/card_backs/set2/orange.gif","img/card_backs/set2/pink.gif","""event"",""trial"",""time""
""fullscreenenter"",""1"",""3557""
","
","
","""event"",""trial"",""time""
""fullscreenenter"",""1"",""3557""
","
","","569.3599999940488","","","","real_trial","2021-04-01 15:51:26.691","img/card_backs/set1/green.gif","0","-200","1","",""
"casino-fixation","116","371882","0.0-25.0-0.23","239","true","img/card_backs/set1/green.gif","img/card_backs/set1/red.gif","img/card_backs/set1/yellow.gif","img/card_backs/set1/purple.gif","img/card_backs/set2/blue.gif","img/card_backs/set2/gray.gif","img/card_backs/set2/orange.gif","img/card_backs/set2/pink.gif","""event"",""trial"",""time""
""fullscreenenter"",""1"",""3557""
","
","
","""event"",""trial"",""time""
""fullscreenenter"",""1"",""3557""
","
","","null","","null","","fixation","2021-04-01 15:51:27.193","","","","","",""
"card-selection-trial","117","374297","0.0-25.0-1.23","239","true","img/card_backs/set1/green.gif","img/card_backs/set1/red.gif","img/card_backs/set1/yellow.gif","img/card_backs/set1/purple.gif","img/card_backs/set2/blue.gif","img/card_backs/set2/gray.gif","img/card_backs/set2/orange.gif","img/card_backs/set2/pink.gif","""event"",""trial"",""time""
""fullscreenenter"",""1"",""3557""
","
","
","""event"",""trial"",""time""
""fullscreenenter"",""1"",""3557""
","
","","412.40500001003966","","","","real_trial","2021-04-01 15:51:29.608","img/card_backs/set1/green.gif","0","-190","1","",""
"casino-fixation","118","374798","0.0-25.0-0.24","239","true","img/card_backs/set1/green.gif","img/card_backs/set1/red.gif","img/card_backs/set1/yellow.gif","img/card_backs/set1/purple.gif","img/card_backs/set2/blue.gif","img/card_backs/set2/gray.gif","img/card_backs/set2/orange.gif","img/card_backs/set2/pink.gif","""event"",""trial"",""time""
""fullscreenenter"",""1"",""3557""
","
","
","""event"",""trial"",""time""
""fullscreenenter"",""1"",""3557""
","
","","null","","null","","fixation","2021-04-01 15:51:30.109","","","","","",""
"card-selection-trial","119","377136","0.0-25.0-1.24","239","true","img/card_backs/set1/green.gif","img/card_backs/set1/red.gif","img/card_backs/set1/yellow.gif","img/card_backs/set1/purple.gif","img/card_backs/set2/blue.gif","img/card_backs/set2/gray.gif","img/card_backs/set2/orange.gif","img/card_backs/set2/pink.gif","""event"",""trial"",""time""
""fullscreenenter"",""1"",""3557""
","
","
","""event"",""trial"",""time""
""fullscreenenter"",""1"",""3557""
","
","","336.2150000175461","","","","real_trial","2021-04-01 15:51:32.447","img/card_backs/set1/green.gif","0","260","1","",""
"casino-fixation","120","377638","0.0-25.0-0.25","239","true","img/card_backs/set1/green.gif","img/card_backs/set1/red.gif","img/card_backs/set1/yellow.gif","img/card_backs/set1/purple.gif","img/card_backs/set2/blue.gif","img/card_backs/set2/gray.gif","img/card_backs/set2/orange.gif","img/card_backs/set2/pink.gif","""event"",""trial"",""time""
""fullscreenenter"",""1"",""3557""
","
","
","""event"",""trial"",""time""
""fullscreenenter"",""1"",""3557""
","
","","null","","null","","fixation","2021-04-01 15:51:32.949","","","","","",""
"card-selection-trial","121","380248","0.0-25.0-1.25","239","true","img/card_backs/set1/green.gif","img/card_backs/set1/red.gif","img/card_backs/set1/yellow.gif","img/card_backs/set1/purple.gif","img/card_backs/set2/blue.gif","img/card_backs/set2/gray.gif","img/card_backs/set2/orange.gif","img/card_backs/set2/pink.gif","""event"",""trial"",""time""
""fullscreenenter"",""1"",""3557""
","
","
","""event"",""trial"",""time""
""fullscreenenter"",""1"",""3557""
","
","","607.4350000126287","","","","real_trial","2021-04-01 15:51:35.559","img/card_backs/set1/green.gif","2","-210","1","",""
"casino-fixation","122","380750","0.0-25.0-0.26","239","true","img/card_backs/set1/green.gif","img/card_backs/set1/red.gif","img/card_backs/set1/yellow.gif","img/card_backs/set1/purple.gif","img/card_backs/set2/blue.gif","img/card_backs/set2/gray.gif","img/card_backs/set2/orange.gif","img/card_backs/set2/pink.gif","""event"",""trial"",""time""
""fullscreenenter"",""1"",""3557""
","
","
","""event"",""trial"",""time""
""fullscreenenter"",""1"",""3557""
","
","","null","","null","","fixation","2021-04-01 15:51:36.061","","","","","",""
"card-selection-trial","123","383655","0.0-25.0-1.26","239","true","img/card_backs/set1/green.gif","img/card_backs/set1/red.gif","img/card_backs/set1/yellow.gif","img/card_backs/set1/purple.gif","img/card_backs/set2/blue.gif","img/card_backs/set2/gray.gif","img/card_backs/set2/orange.gif","img/card_backs/set2/pink.gif","""event"",""trial"",""time""
""fullscreenenter"",""1"",""3557""
","
","
","""event"",""trial"",""time""
""fullscreenenter"",""1"",""3557""
","
","","901.8050000013318","","","","real_trial","2021-04-01 15:51:38.966","img/card_backs/set1/red.gif","2","240","1","",""
"casino-fixation","124","384157","0.0-25.0-0.27","239","true","img/card_backs/set1/green.gif","img/card_backs/set1/red.gif","img/card_backs/set1/yellow.gif","img/card_backs/set1/purple.gif","img/card_backs/set2/blue.gif","img/card_backs/set2/gray.gif","img/card_backs/set2/orange.gif","img/card_backs/set2/pink.gif","""event"",""trial"",""time""
""fullscreenenter"",""1"",""3557""
","
","
","""event"",""trial"",""time""
""fullscreenenter"",""1"",""3557""
","
","","null","","null","","fixation","2021-04-01 15:51:39.468","","","","","",""
"card-selection-trial","125","386793","0.0-25.0-1.27","239","true","img/card_backs/set1/green.gif","img/card_backs/set1/red.gif","img/card_backs/set1/yellow.gif","img/card_backs/set1/purple.gif","img/card_backs/set2/blue.gif","img/card_backs/set2/gray.gif","img/card_backs/set2/orange.gif","img/card_backs/set2/pink.gif","""event"",""trial"",""time""
""fullscreenenter"",""1"",""3557""
","
","
","""event"",""trial"",""time""
""fullscreenenter"",""1"",""3557""
","
","","633.0049999814946","","","","real_trial","2021-04-01 15:51:42.104","img/card_backs/set1/red.gif","3","240","1","",""
"casino-fixation","126","387294","0.0-25.0-0.28","239","true","img/card_backs/set1/green.gif","img/card_backs/set1/red.gif","img/card_backs/set1/yellow.gif","img/card_backs/set1/purple.gif","img/card_backs/set2/blue.gif","img/card_backs/set2/gray.gif","img/card_backs/set2/orange.gif","img/card_backs/set2/pink.gif","""event"",""trial"",""time""
""fullscreenenter"",""1"",""3557""
","
","
","""event"",""trial"",""time""
""fullscreenenter"",""1"",""3557""
","
","","null","","null","","fixation","2021-04-01 15:51:42.605","","","","","",""
"card-selection-trial","127","389927","0.0-25.0-1.28","239","true","img/card_backs/set1/green.gif","img/card_backs/set1/red.gif","img/card_backs/set1/yellow.gif","img/card_backs/set1/purple.gif","img/card_backs/set2/blue.gif","img/card_backs/set2/gray.gif","img/card_backs/set2/orange.gif","img/card_backs/set2/pink.gif","""event"",""trial"",""time""
""fullscreenenter"",""1"",""3557""
","
","
","""event"",""trial"",""time""
""fullscreenenter"",""1"",""3557""
","
","","630.2799999830313","","","","real_trial","2021-04-01 15:51:45.238","img/card_backs/set1/red.gif","0","-200","1","",""
"casino-fixation","128","390428","0.0-25.0-0.29","239","true","img/card_backs/set1/green.gif","img/card_backs/set1/red.gif","img/card_backs/set1/yellow.gif","img/card_backs/set1/purple.gif","img/card_backs/set2/blue.gif","img/card_backs/set2/gray.gif","img/card_backs/set2/orange.gif","img/card_backs/set2/pink.gif","""event"",""trial"",""time""
""fullscreenenter"",""1"",""3557""
","
","
","""event"",""trial"",""time""
""fullscreenenter"",""1"",""3557""
","
","","null","","null","","fixation","2021-04-01 15:51:45.740","","","","","",""
"card-selection-trial","129","393265","0.0-25.0-1.29","239","true","img/card_backs/set1/green.gif","img/card_backs/set1/red.gif","img/card_backs/set1/yellow.gif","img/card_backs/set1/purple.gif","img/card_backs/set2/blue.gif","img/card_backs/set2/gray.gif","img/card_backs/set2/orange.gif","img/card_backs/set2/pink.gif","""event"",""trial"",""time""
""fullscreenenter"",""1"",""3557""
","
","
","""event"",""trial"",""time""
""fullscreenenter"",""1"",""3557""
","
","","834.3150000146125","","","","real_trial","2021-04-01 15:51:48.576","img/card_backs/set1/red.gif","3","-210","1","",""
"casino-fixation","130","393767","0.0-25.0-0.30","239","true","img/card_backs/set1/green.gif","img/card_backs/set1/red.gif","img/card_backs/set1/yellow.gif","img/card_backs/set1/purple.gif","img/card_backs/set2/blue.gif","img/card_backs/set2/gray.gif","img/card_backs/set2/orange.gif","img/card_backs/set2/pink.gif","""event"",""trial"",""time""
""fullscreenenter"",""1"",""3557""
","
","
","""event"",""trial"",""time""
""fullscreenenter"",""1"",""3557""
","
","","null","","null","","fixation","2021-04-01 15:51:49.078","","","","","",""
"card-selection-trial","131","396349","0.0-25.0-1.30","239","true","img/card_backs/set1/green.gif","img/card_backs/set1/red.gif","img/card_backs/set1/yellow.gif","img/card_backs/set1/purple.gif","img/card_backs/set2/blue.gif","img/card_backs/set2/gray.gif","img/card_backs/set2/orange.gif","img/card_backs/set2/pink.gif","""event"",""trial"",""time""
""fullscreenenter"",""1"",""3557""
","
","
","""event"",""trial"",""time""
""fullscreenenter"",""1"",""3557""
","
","","579.1299999982584","","","","real_trial","2021-04-01 15:51:51.660","img/card_backs/set1/red.gif","0","250","1","",""
"casino-fixation","132","396850","0.0-25.0-0.31","239","true","img/card_backs/set1/green.gif","img/card_backs/set1/red.gif","img/card_backs/set1/yellow.gif","img/card_backs/set1/purple.gif","img/card_backs/set2/blue.gif","img/card_backs/set2/gray.gif","img/card_backs/set2/orange.gif","img/card_backs/set2/pink.gif","""event"",""trial"",""time""
""fullscreenenter"",""1"",""3557""
","
","
","""event"",""trial"",""time""
""fullscreenenter"",""1"",""3557""
","
","","null","","null","","fixation","2021-04-01 15:51:52.161","","","","","",""
"card-selection-trial","133","400785","0.0-25.0-1.31","239","true","img/card_backs/set1/green.gif","img/card_backs/set1/red.gif","img/card_backs/set1/yellow.gif","img/card_backs/set1/purple.gif","img/card_backs/set2/blue.gif","img/card_backs/set2/gray.gif","img/card_backs/set2/orange.gif","img/card_backs/set2/pink.gif","""event"",""trial"",""time""
""fullscreenenter"",""1"",""3557""
","
","
","""event"",""trial"",""time""
""fullscreenenter"",""1"",""3557""
","
","","1931.975000014063","","","","real_trial","2021-04-01 15:51:56.096","img/card_backs/set1/red.gif","0","250","1","",""
"casino-fixation","134","401287","0.0-25.0-0.32","239","true","img/card_backs/set1/green.gif","img/card_backs/set1/red.gif","img/card_backs/set1/yellow.gif","img/card_backs/set1/purple.gif","img/card_backs/set2/blue.gif","img/card_backs/set2/gray.gif","img/card_backs/set2/orange.gif","img/card_backs/set2/pink.gif","""event"",""trial"",""time""
""fullscreenenter"",""1"",""3557""
","
","
","""event"",""trial"",""time""
""fullscreenenter"",""1"",""3557""
","
","","null","","null","","fixation","2021-04-01 15:51:56.598","","","","","",""
"card-selection-trial","135","404164","0.0-25.0-1.32","239","true","img/card_backs/set1/green.gif","img/card_backs/set1/red.gif","img/card_backs/set1/yellow.gif","img/card_backs/set1/purple.gif","img/card_backs/set2/blue.gif","img/card_backs/set2/gray.gif","img/card_backs/set2/orange.gif","img/card_backs/set2/pink.gif","""event"",""trial"",""time""
""fullscreenenter"",""1"",""3557""
","
","
","""event"",""trial"",""time""
""fullscreenenter"",""1"",""3557""
","
","","873.4800000092946","","","","real_trial","2021-04-01 15:51:59.475","img/card_backs/set1/green.gif","1","-190","1","",""
"casino-fixation","136","404665","0.0-25.0-0.33","239","true","img/card_backs/set1/green.gif","img/card_backs/set1/red.gif","img/card_backs/set1/yellow.gif","img/card_backs/set1/purple.gif","img/card_backs/set2/blue.gif","img/card_backs/set2/gray.gif","img/card_backs/set2/orange.gif","img/card_backs/set2/pink.gif","""event"",""trial"",""time""
""fullscreenenter"",""1"",""3557""
","
","
","""event"",""trial"",""time""
""fullscreenenter"",""1"",""3557""
","
","","null","","null","","fixation","2021-04-01 15:51:59.976","","","","","",""
"card-selection-trial","137","406975","0.0-25.0-1.33","239","true","img/card_backs/set1/green.gif","img/card_backs/set1/red.gif","img/card_backs/set1/yellow.gif","img/card_backs/set1/purple.gif","img/card_backs/set2/blue.gif","img/card_backs/set2/gray.gif","img/card_backs/set2/orange.gif","img/card_backs/set2/pink.gif","""event"",""trial"",""time""
""fullscreenenter"",""1"",""3557""
","
","
","""event"",""trial"",""time""
""fullscreenenter"",""1"",""3557""
","
","","307.539999979781","","","","real_trial","2021-04-01 15:52:02.286","img/card_backs/set1/purple.gif","3","-110","1","",""
"casino-fixation","138","407477","0.0-25.0-0.34","239","true","img/card_backs/set1/green.gif","img/card_backs/set1/red.gif","img/card_backs/set1/yellow.gif","img/card_backs/set1/purple.gif","img/card_backs/set2/blue.gif","img/card_backs/set2/gray.gif","img/card_backs/set2/orange.gif","img/card_backs/set2/pink.gif","""event"",""trial"",""time""
""fullscreenenter"",""1"",""3557""
","
","
","""event"",""trial"",""time""
""fullscreenenter"",""1"",""3557""
","
","","null","","null","","fixation","2021-04-01 15:52:02.788","","","","","",""
"card-selection-trial","139","410240","0.0-25.0-1.34","239","true","img/card_backs/set1/green.gif","img/card_backs/set1/red.gif","img/card_backs/set1/yellow.gif","img/card_backs/set1/purple.gif","img/card_backs/set2/blue.gif","img/card_backs/set2/gray.gif","img/card_backs/set2/orange.gif","img/card_backs/set2/pink.gif","""event"",""trial"",""time""
""fullscreenenter"",""1"",""3557""
","
","
","""event"",""trial"",""time""
""fullscreenenter"",""1"",""3557""
","
","","760.0549999915529","","","","real_trial","2021-04-01 15:52:05.551","img/card_backs/set1/yellow.gif","1","60","1","",""
"casino-fixation","140","410741","0.0-25.0-0.35","239","true","img/card_backs/set1/green.gif","img/card_backs/set1/red.gif","img/card_backs/set1/yellow.gif","img/card_backs/set1/purple.gif","img/card_backs/set2/blue.gif","img/card_backs/set2/gray.gif","img/card_backs/set2/orange.gif","img/card_backs/set2/pink.gif","""event"",""trial"",""time""
""fullscreenenter"",""1"",""3557""
","
","
","""event"",""trial"",""time""
""fullscreenenter"",""1"",""3557""
","
","","null","","null","","fixation","2021-04-01 15:52:06.052","","","","","",""
"card-selection-trial","141","413462","0.0-25.0-1.35","239","true","img/card_backs/set1/green.gif","img/card_backs/set1/red.gif","img/card_backs/set1/yellow.gif","img/card_backs/set1/purple.gif","img/card_backs/set2/blue.gif","img/card_backs/set2/gray.gif","img/card_backs/set2/orange.gif","img/card_backs/set2/pink.gif","""event"",""trial"",""time""
""fullscreenenter"",""1"",""3557""
","
","
","""event"",""trial"",""time""
""fullscreenenter"",""1"",""3557""
","
","","706.7950000055134","","","","real_trial","2021-04-01 15:52:08.773","img/card_backs/set1/red.gif","3","260","1","",""
"casino-fixation","142","413964","0.0-25.0-0.36","239","true","img/card_backs/set1/green.gif","img/card_backs/set1/red.gif","img/card_backs/set1/yellow.gif","img/card_backs/set1/purple.gif","img/card_backs/set2/blue.gif","img/card_backs/set2/gray.gif","img/card_backs/set2/orange.gif","img/card_backs/set2/pink.gif","""event"",""trial"",""time""
""fullscreenenter"",""1"",""3557""
","
","
","""event"",""trial"",""time""
""fullscreenenter"",""1"",""3557""
","
","","null","","null","","fixation","2021-04-01 15:52:09.275","","","","","",""
"card-selection-trial","143","416582","0.0-25.0-1.36","239","true","img/card_backs/set1/green.gif","img/card_backs/set1/red.gif","img/card_backs/set1/yellow.gif","img/card_backs/set1/purple.gif","img/card_backs/set2/blue.gif","img/card_backs/set2/gray.gif","img/card_backs/set2/orange.gif","img/card_backs/set2/pink.gif","""event"",""trial"",""time""
""fullscreenenter"",""1"",""3557""
","
","
","""event"",""trial"",""time""
""fullscreenenter"",""1"",""3557""
","
","","614.4050000002608","","","","real_trial","2021-04-01 15:52:11.893","img/card_backs/set1/red.gif","1","260","1","",""
"casino-fixation","144","417083","0.0-25.0-0.37","239","true","img/card_backs/set1/green.gif","img/card_backs/set1/red.gif","img/card_backs/set1/yellow.gif","img/card_backs/set1/purple.gif","img/card_backs/set2/blue.gif","img/card_backs/set2/gray.gif","img/card_backs/set2/orange.gif","img/card_backs/set2/pink.gif","""event"",""trial"",""time""
""fullscreenenter"",""1"",""3557""
","
","
","""event"",""trial"",""time""
""fullscreenenter"",""1"",""3557""
","
","","null","","null","","fixation","2021-04-01 15:52:12.394","","","","","",""
"card-selection-trial","145","419548","0.0-25.0-1.37","239","true","img/card_backs/set1/green.gif","img/card_backs/set1/red.gif","img/card_backs/set1/yellow.gif","img/card_backs/set1/purple.gif","img/card_backs/set2/blue.gif","img/card_backs/set2/gray.gif","img/card_backs/set2/orange.gif","img/card_backs/set2/pink.gif","""event"",""trial"",""time""
""fullscreenenter"",""1"",""3557""
","
","
","""event"",""trial"",""time""
""fullscreenenter"",""1"",""3557""
","
","","461.37000000453554","","","","real_trial","2021-04-01 15:52:14.859","img/card_backs/set1/green.gif","0","-190","1","",""
"casino-fixation","146","420051","0.0-25.0-0.38","239","true","img/card_backs/set1/green.gif","img/card_backs/set1/red.gif","img/card_backs/set1/yellow.gif","img/card_backs/set1/purple.gif","img/card_backs/set2/blue.gif","img/card_backs/set2/gray.gif","img/card_backs/set2/orange.gif","img/card_backs/set2/pink.gif","""event"",""trial"",""time""
""fullscreenenter"",""1"",""3557""
","
","
","""event"",""trial"",""time""
""fullscreenenter"",""1"",""3557""
","
","","null","","null","","fixation","2021-04-01 15:52:15.362","","","","","",""
"card-selection-trial","147","422727","0.0-25.0-1.38","239","true","img/card_backs/set1/green.gif","img/card_backs/set1/red.gif","img/card_backs/set1/yellow.gif","img/card_backs/set1/purple.gif","img/card_backs/set2/blue.gif","img/card_backs/set2/gray.gif","img/card_backs/set2/orange.gif","img/card_backs/set2/pink.gif","""event"",""trial"",""time""
""fullscreenenter"",""1"",""3557""
","
","
","""event"",""trial"",""time""
""fullscreenenter"",""1"",""3557""
","
","","673.0700000189245","","","","real_trial","2021-04-01 15:52:18.038","img/card_backs/set1/red.gif","3","260","1","",""
"casino-fixation","148","423228","0.0-25.0-0.39","239","true","img/card_backs/set1/green.gif","img/card_backs/set1/red.gif","img/card_backs/set1/yellow.gif","img/card_backs/set1/purple.gif","img/card_backs/set2/blue.gif","img/card_backs/set2/gray.gif","img/card_backs/set2/orange.gif","img/card_backs/set2/pink.gif","""event"",""trial"",""time""
""fullscreenenter"",""1"",""3557""
","
","
","""event"",""trial"",""time""
""fullscreenenter"",""1"",""3557""
","
","","null","","null","","fixation","2021-04-01 15:52:18.539","","","","","",""
"card-selection-trial","149","425826","0.0-25.0-1.39","239","true","img/card_backs/set1/green.gif","img/card_backs/set1/red.gif","img/card_backs/set1/yellow.gif","img/card_backs/set1/purple.gif","img/card_backs/set2/blue.gif","img/card_backs/set2/gray.gif","img/card_backs/set2/orange.gif","img/card_backs/set2/pink.gif","""event"",""trial"",""time""
""fullscreenenter"",""1"",""3557""
","
","
","""event"",""trial"",""time""
""fullscreenenter"",""1"",""3557""
","
","","594.7499999892898","","","","real_trial","2021-04-01 15:52:21.137","img/card_backs/set1/red.gif","2","-210","1","",""
"casino-fixation","150","426328","0.0-25.0-0.40","239","true","img/card_backs/set1/green.gif","img/card_backs/set1/red.gif","img/card_backs/set1/yellow.gif","img/card_backs/set1/purple.gif","img/card_backs/set2/blue.gif","img/card_backs/set2/gray.gif","img/card_backs/set2/orange.gif","img/card_backs/set2/pink.gif","""event"",""trial"",""time""
""fullscreenenter"",""1"",""3557""
","
","
","""event"",""trial"",""time""
""fullscreenenter"",""1"",""3557""
","
","","null","","null","","fixation","2021-04-01 15:52:21.639","","","","","",""
"card-selection-trial","151","428824","0.0-25.0-1.40","239","true","img/card_backs/set1/green.gif","img/card_backs/set1/red.gif","img/card_backs/set1/yellow.gif","img/card_backs/set1/purple.gif","img/card_backs/set2/blue.gif","img/card_backs/set2/gray.gif","img/card_backs/set2/orange.gif","img/card_backs/set2/pink.gif","""event"",""trial"",""time""
""fullscreenenter"",""1"",""3557""
","
","
","""event"",""trial"",""time""
""fullscreenenter"",""1"",""3557""
","
","","491.9050000025891","","","","real_trial","2021-04-01 15:52:24.135","img/card_backs/set1/red.gif","3","240","1","",""
"casino-fixation","152","429325","0.0-25.0-0.41","239","true","img/card_backs/set1/green.gif","img/card_backs/set1/red.gif","img/card_backs/set1/yellow.gif","img/card_backs/set1/purple.gif","img/card_backs/set2/blue.gif","img/card_backs/set2/gray.gif","img/card_backs/set2/orange.gif","img/card_backs/set2/pink.gif","""event"",""trial"",""time""
""fullscreenenter"",""1"",""3557""
","
","
","""event"",""trial"",""time""
""fullscreenenter"",""1"",""3557""
","
","","null","","null","","fixation","2021-04-01 15:52:24.636","","","","","",""
"card-selection-trial","153","431706","0.0-25.0-1.41","239","true","img/card_backs/set1/green.gif","img/card_backs/set1/red.gif","img/card_backs/set1/yellow.gif","img/card_backs/set1/purple.gif","img/card_backs/set2/blue.gif","img/card_backs/set2/gray.gif","img/card_backs/set2/orange.gif","img/card_backs/set2/pink.gif","""event"",""trial"",""time""
""fullscreenenter"",""1"",""3557""
","
","
","""event"",""trial"",""time""
""fullscreenenter"",""1"",""3557""
","
","","378.1349999771919","","","","real_trial","2021-04-01 15:52:27.018","img/card_backs/set1/red.gif","3","260","1","",""
"casino-fixation","154","432208","0.0-25.0-0.42","239","true","img/card_backs/set1/green.gif","img/card_backs/set1/red.gif","img/card_backs/set1/yellow.gif","img/card_backs/set1/purple.gif","img/card_backs/set2/blue.gif","img/card_backs/set2/gray.gif","img/card_backs/set2/orange.gif","img/card_backs/set2/pink.gif","""event"",""trial"",""time""
""fullscreenenter"",""1"",""3557""
","
","
","""event"",""trial"",""time""
""fullscreenenter"",""1"",""3557""
","
","","null","","null","","fixation","2021-04-01 15:52:27.519","","","","","",""
"card-selection-trial","155","434697","0.0-25.0-1.42","239","true","img/card_backs/set1/green.gif","img/card_backs/set1/red.gif","img/card_backs/set1/yellow.gif","img/card_backs/set1/purple.gif","img/card_backs/set2/blue.gif","img/card_backs/set2/gray.gif","img/card_backs/set2/orange.gif","img/card_backs/set2/pink.gif","""event"",""trial"",""time""
""fullscreenenter"",""1"",""3557""
","
","
","""event"",""trial"",""time""
""fullscreenenter"",""1"",""3557""
","
","","485.0350000197068","","","","real_trial","2021-04-01 15:52:30.008","img/card_backs/set1/red.gif","0","240","1","",""
"casino-fixation","156","435199","0.0-25.0-0.43","239","true","img/card_backs/set1/green.gif","img/card_backs/set1/red.gif","img/card_backs/set1/yellow.gif","img/card_backs/set1/purple.gif","img/card_backs/set2/blue.gif","img/card_backs/set2/gray.gif","img/card_backs/set2/orange.gif","img/card_backs/set2/pink.gif","""event"",""trial"",""time""
""fullscreenenter"",""1"",""3557""
","
","
","""event"",""trial"",""time""
""fullscreenenter"",""1"",""3557""
","
","","null","","null","","fixation","2021-04-01 15:52:30.510","","","","","",""
"card-selection-trial","157","437678","0.0-25.0-1.43","239","true","img/card_backs/set1/green.gif","img/card_backs/set1/red.gif","img/card_backs/set1/yellow.gif","img/card_backs/set1/purple.gif","img/card_backs/set2/blue.gif","img/card_backs/set2/gray.gif","img/card_backs/set2/orange.gif","img/card_backs/set2/pink.gif","""event"",""trial"",""time""
""fullscreenenter"",""1"",""3557""
","
","
","""event"",""trial"",""time""
""fullscreenenter"",""1"",""3557""
","
","","475.68000000319444","","","","real_trial","2021-04-01 15:52:32.989","img/card_backs/set1/red.gif","3","240","1","",""
"casino-fixation","158","438181","0.0-25.0-0.44","239","true","img/card_backs/set1/green.gif","img/card_backs/set1/red.gif","img/card_backs/set1/yellow.gif","img/card_backs/set1/purple.gif","img/card_backs/set2/blue.gif","img/card_backs/set2/gray.gif","img/card_backs/set2/orange.gif","img/card_backs/set2/pink.gif","""event"",""trial"",""time""
""fullscreenenter"",""1"",""3557""
","
","
","""event"",""trial"",""time""
""fullscreenenter"",""1"",""3557""
","
","","null","","null","","fixation","2021-04-01 15:52:33.492","","","","","",""
"card-selection-trial","159","440570","0.0-25.0-1.44","239","true","img/card_backs/set1/green.gif","img/card_backs/set1/red.gif","img/card_backs/set1/yellow.gif","img/card_backs/set1/purple.gif","img/card_backs/set2/blue.gif","img/card_backs/set2/gray.gif","img/card_backs/set2/orange.gif","img/card_backs/set2/pink.gif","""event"",""trial"",""time""
""fullscreenenter"",""1"",""3557""
","
","
","""event"",""trial"",""time""
""fullscreenenter"",""1"",""3557""
","
","","385.6099999975413","","","","real_trial","2021-04-01 15:52:35.881","img/card_backs/set1/red.gif","3","-210","1","",""
"casino-fixation","160","441072","0.0-25.0-0.45","239","true","img/card_backs/set1/green.gif","img/card_backs/set1/red.gif","img/card_backs/set1/yellow.gif","img/card_backs/set1/purple.gif","img/card_backs/set2/blue.gif","img/card_backs/set2/gray.gif","img/card_backs/set2/orange.gif","img/card_backs/set2/pink.gif","""event"",""trial"",""time""
""fullscreenenter"",""1"",""3557""
","
","
","""event"",""trial"",""time""
""fullscreenenter"",""1"",""3557""
","
","","null","","null","","fixation","2021-04-01 15:52:36.383","","","","","",""
"card-selection-trial","161","443533","0.0-25.0-1.45","239","true","img/card_backs/set1/green.gif","img/card_backs/set1/red.gif","img/card_backs/set1/yellow.gif","img/card_backs/set1/purple.gif","img/card_backs/set2/blue.gif","img/card_backs/set2/gray.gif","img/card_backs/set2/orange.gif","img/card_backs/set2/pink.gif","""event"",""trial"",""time""
""fullscreenenter"",""1"",""3557""
","
","
","""event"",""trial"",""time""
""fullscreenenter"",""1"",""3557""
","
","","458.19499998469837","","","","real_trial","2021-04-01 15:52:38.844","img/card_backs/set1/red.gif","1","260","1","",""
"casino-fixation","162","444035","0.0-25.0-0.46","239","true","img/card_backs/set1/green.gif","img/card_backs/set1/red.gif","img/card_backs/set1/yellow.gif","img/card_backs/set1/purple.gif","img/card_backs/set2/blue.gif","img/card_backs/set2/gray.gif","img/card_backs/set2/orange.gif","img/card_backs/set2/pink.gif","""event"",""trial"",""time""
""fullscreenenter"",""1"",""3557""
","
","
","""event"",""trial"",""time""
""fullscreenenter"",""1"",""3557""
","
","","null","","null","","fixation","2021-04-01 15:52:39.346","","","","","",""
"card-selection-trial","163","446556","0.0-25.0-1.46","239","true","img/card_backs/set1/green.gif","img/card_backs/set1/red.gif","img/card_backs/set1/yellow.gif","img/card_backs/set1/purple.gif","img/card_backs/set2/blue.gif","img/card_backs/set2/gray.gif","img/card_backs/set2/orange.gif","img/card_backs/set2/pink.gif","""event"",""trial"",""time""
""fullscreenenter"",""1"",""3557""
","
","
","""event"",""trial"",""time""
""fullscreenenter"",""1"",""3557""
","
","","518.1800000136718","","","","real_trial","2021-04-01 15:52:41.867","img/card_backs/set1/red.gif","0","-210","1","",""
"casino-fixation","164","447057","0.0-25.0-0.47","239","true","img/card_backs/set1/green.gif","img/card_backs/set1/red.gif","img/card_backs/set1/yellow.gif","img/card_backs/set1/purple.gif","img/card_backs/set2/blue.gif","img/card_backs/set2/gray.gif","img/card_backs/set2/orange.gif","img/card_backs/set2/pink.gif","""event"",""trial"",""time""
""fullscreenenter"",""1"",""3557""
","
","
","""event"",""trial"",""time""
""fullscreenenter"",""1"",""3557""
","
","","null","","null","","fixation","2021-04-01 15:52:42.369","","","","","",""
"card-selection-trial","165","449624","0.0-25.0-1.47","239","true","img/card_backs/set1/green.gif","img/card_backs/set1/red.gif","img/card_backs/set1/yellow.gif","img/card_backs/set1/purple.gif","img/card_backs/set2/blue.gif","img/card_backs/set2/gray.gif","img/card_backs/set2/orange.gif","img/card_backs/set2/pink.gif","""event"",""trial"",""time""
""fullscreenenter"",""1"",""3557""
","
","
","""event"",""trial"",""time""
""fullscreenenter"",""1"",""3557""
","
","","563.0549999768846","","","","real_trial","2021-04-01 15:52:44.935","img/card_backs/set1/red.gif","1","-200","1","",""
"casino-fixation","166","450126","0.0-25.0-0.48","239","true","img/card_backs/set1/green.gif","img/card_backs/set1/red.gif","img/card_backs/set1/yellow.gif","img/card_backs/set1/purple.gif","img/card_backs/set2/blue.gif","img/card_backs/set2/gray.gif","img/card_backs/set2/orange.gif","img/card_backs/set2/pink.gif","""event"",""trial"",""time""
""fullscreenenter"",""1"",""3557""
","
","
","""event"",""trial"",""time""
""fullscreenenter"",""1"",""3557""
","
","","null","","null","","fixation","2021-04-01 15:52:45.437","","","","","",""
"card-selection-trial","167","452552","0.0-25.0-1.48","239","true","img/card_backs/set1/green.gif","img/card_backs/set1/red.gif","img/card_backs/set1/yellow.gif","img/card_backs/set1/purple.gif","img/card_backs/set2/blue.gif","img/card_backs/set2/gray.gif","img/card_backs/set2/orange.gif","img/card_backs/set2/pink.gif","""event"",""trial"",""time""
""fullscreenenter"",""1"",""3557""
","
","
","""event"",""trial"",""time""
""fullscreenenter"",""1"",""3557""
","
