"trial_type","trial_index","time_elapsed","internal_node_id","sub_id","risk_good_first","block1_A","block1_B","block1_C","block1_D","block2_A","block2_B","block2_C","block2_D","interactions","blur_events","focus_events","fullscreenenter_events","fullscreenexit_events","success","rt","stimulus","key_press","button_pressed","task_part","timestamp","card_choice","choice_position","points_earned","block","correct","response"
"pavlovia","0","4","0.0-0.0","A896","true","img/card_backs/set1/purple.gif","img/card_backs/set1/red.gif","img/card_backs/set1/yellow.gif","img/card_backs/set1/green.gif","img/card_backs/set2/orange.gif","img/card_backs/set2/blue.gif","img/card_backs/set2/pink.gif","img/card_backs/set2/gray.gif","""event"",""trial"",""time""
""fullscreenenter"",""1"",""19393""
","
","
","""event"",""trial"",""time""
""fullscreenenter"",""1"",""19393""
","
","","","","","","","","","","","","",""
"fullscreen","1","20361","0.0-1.0","A896","true","img/card_backs/set1/purple.gif","img/card_backs/set1/red.gif","img/card_backs/set1/yellow.gif","img/card_backs/set1/green.gif","img/card_backs/set2/orange.gif","img/card_backs/set2/blue.gif","img/card_backs/set2/pink.gif","img/card_backs/set2/gray.gif","""event"",""trial"",""time""
""fullscreenenter"",""1"",""19393""
","
","
","""event"",""trial"",""time""
""fullscreenenter"",""1"",""19393""
","
","true","","","","","","","","","","","",""
"audio-keyboard-response","2","23266","0.0-2.0","A896","true","img/card_backs/set1/purple.gif","img/card_backs/set1/red.gif","img/card_backs/set1/yellow.gif","img/card_backs/set1/green.gif","img/card_backs/set2/orange.gif","img/card_backs/set2/blue.gif","img/card_backs/set2/pink.gif","img/card_backs/set2/gray.gif","""event"",""trial"",""time""
""fullscreenenter"",""1"",""19393""
","
","
","""event"",""trial"",""time""
""fullscreenenter"",""1"",""19393""
","
","","2769","audio/beep_loop.wav","32","","","","","","","","",""
"audio-button-response","3","24860","0.0-3.0","A896","true","img/card_backs/set1/purple.gif","img/card_backs/set1/red.gif","img/card_backs/set1/yellow.gif","img/card_backs/set1/green.gif","img/card_backs/set2/orange.gif","img/card_backs/set2/blue.gif","img/card_backs/set2/pink.gif","img/card_backs/set2/gray.gif","""event"",""trial"",""time""
""fullscreenenter"",""1"",""19393""
","
","
","""event"",""trial"",""time""
""fullscreenenter"",""1"",""19393""
","
","","NaN","audio/turtle.mp3","","3","","","","","","","",""
"audio-button-response","4","26924","0.0-4.0","A896","true","img/card_backs/set1/purple.gif","img/card_backs/set1/red.gif","img/card_backs/set1/yellow.gif","img/card_backs/set1/green.gif","img/card_backs/set2/orange.gif","img/card_backs/set2/blue.gif","img/card_backs/set2/pink.gif","img/card_backs/set2/gray.gif","""event"",""trial"",""time""
""fullscreenenter"",""1"",""19393""
","
","
","""event"",""trial"",""time""
""fullscreenenter"",""1"",""19393""
","
","","NaN","audio/shark.mp3","","2","","","","","","","",""
"fullscreen","5","29970","0.0-5.0","A896","true","img/card_backs/set1/purple.gif","img/card_backs/set1/red.gif","img/card_backs/set1/yellow.gif","img/card_backs/set1/green.gif","img/card_backs/set2/orange.gif","img/card_backs/set2/blue.gif","img/card_backs/set2/pink.gif","img/card_backs/set2/gray.gif","""event"",""trial"",""time""
""fullscreenenter"",""1"",""19393""
","
","
","""event"",""trial"",""time""
""fullscreenenter"",""1"",""19393""
","
","true","","","","","","","","","","","",""
"casino-keyboard-response","6","35928","0.0-6.0-0.0","A896","true","img/card_backs/set1/purple.gif","img/card_backs/set1/red.gif","img/card_backs/set1/yellow.gif","img/card_backs/set1/green.gif","img/card_backs/set2/orange.gif","img/card_backs/set2/blue.gif","img/card_backs/set2/pink.gif","img/card_backs/set2/gray.gif","""event"",""trial"",""time""
""fullscreenenter"",""1"",""19393""
","
","
","""event"",""trial"",""time""
""fullscreenenter"",""1"",""19393""
","
","","5954.525000008289","Welcome to the casino!","71","","instructions","2021-04-04 15:51:03.818","","","","","",""
"casino-keyboard-response","7","47191","0.0-6.0-0.1","A896","true","img/card_backs/set1/purple.gif","img/card_backs/set1/red.gif","img/card_backs/set1/yellow.gif","img/card_backs/set1/green.gif","img/card_backs/set2/orange.gif","img/card_backs/set2/blue.gif","img/card_backs/set2/pink.gif","img/card_backs/set2/gray.gif","""event"",""trial"",""time""
""fullscreenenter"",""1"",""19393""
","
","
","""event"",""trial"",""time""
""fullscreenenter"",""1"",""19393""
","
","","11261.31000003079","Today you will be playing a game to earn tokens. </br> At the end of the experiment, you will be paid a bonus based on how many tokens you win. ","69","","instructions","2021-04-04 15:51:15.081","","","","","",""
"casino-keyboard-response","8","55144","0.0-6.0-0.2","A896","true","img/card_backs/set1/purple.gif","img/card_backs/set1/red.gif","img/card_backs/set1/yellow.gif","img/card_backs/set1/green.gif","img/card_backs/set2/orange.gif","img/card_backs/set2/blue.gif","img/card_backs/set2/pink.gif","img/card_backs/set2/gray.gif","""event"",""trial"",""time""
""fullscreenenter"",""1"",""19393""
","
","
","""event"",""trial"",""time""
""fullscreenenter"",""1"",""19393""
","
","","7951.544999959879","On every turn, you will be shown four different decks of cards. </br> You need to select a card from one of the four decks.  ","75","","instructions","2021-04-04 15:51:23.034","","","","","",""
"casino-keyboard-response","9","61892","0.0-6.0-0.3","A896","true","img/card_backs/set1/purple.gif","img/card_backs/set1/red.gif","img/card_backs/set1/yellow.gif","img/card_backs/set1/green.gif","img/card_backs/set2/orange.gif","img/card_backs/set2/blue.gif","img/card_backs/set2/pink.gif","img/card_backs/set2/gray.gif","""event"",""trial"",""time""
""fullscreenenter"",""1"",""19393""
","
","
","""event"",""trial"",""time""
""fullscreenenter"",""1"",""19393""
","
","","6746.930000022985","On the next screen, you will see what the decks will look like. ","66","","instructions","2021-04-04 15:51:29.782","","","","","",""
"card-selection-trial","10","65900","0.0-7.0-0.0","A896","true","img/card_backs/set1/purple.gif","img/card_backs/set1/red.gif","img/card_backs/set1/yellow.gif","img/card_backs/set1/green.gif","img/card_backs/set2/orange.gif","img/card_backs/set2/blue.gif","img/card_backs/set2/pink.gif","img/card_backs/set2/gray.gif","""event"",""trial"",""time""
""fullscreenenter"",""1"",""19393""
","
","
","""event"",""trial"",""time""
""fullscreenenter"",""1"",""19393""
","
","","null","","","","practice","2021-04-04 15:51:33.790","null","null","null","0","",""
"casino-keyboard-response","11","73451","0.0-8.0-0.0","A896","true","img/card_backs/set1/purple.gif","img/card_backs/set1/red.gif","img/card_backs/set1/yellow.gif","img/card_backs/set1/green.gif","img/card_backs/set2/orange.gif","img/card_backs/set2/blue.gif","img/card_backs/set2/pink.gif","img/card_backs/set2/gray.gif","""event"",""trial"",""time""
""fullscreenenter"",""1"",""19393""
","
","
","""event"",""trial"",""time""
""fullscreenenter"",""1"",""19393""
","
","","7549.530000018422","You should pick a card from a deck using the '2', '4', '6', and '8' keys at the top of the keyboard.","85","","instructions","2021-04-04 15:51:41.341","","","","","",""
"casino-keyboard-response","12","79848","0.0-8.0-0.1","A896","true","img/card_backs/set1/purple.gif","img/card_backs/set1/red.gif","img/card_backs/set1/yellow.gif","img/card_backs/set1/green.gif","img/card_backs/set2/orange.gif","img/card_backs/set2/blue.gif","img/card_backs/set2/pink.gif","img/card_backs/set2/gray.gif","""event"",""trial"",""time""
""fullscreenenter"",""1"",""19393""
","
","
","""event"",""trial"",""time""
""fullscreenenter"",""1"",""19393""
","
","","6394.750000035856","Once you select a card, it will turn over and you will see how many tokens you earned.","83","","instructions","2021-04-04 15:51:47.738","","","","","",""
"casino-keyboard-response","13","94310","0.0-8.0-0.2","A896","true","img/card_backs/set1/purple.gif","img/card_backs/set1/red.gif","img/card_backs/set1/yellow.gif","img/card_backs/set1/green.gif","img/card_backs/set2/orange.gif","img/card_backs/set2/blue.gif","img/card_backs/set2/pink.gif","img/card_backs/set2/gray.gif","""event"",""trial"",""time""
""fullscreenenter"",""1"",""19393""
","
","
","""event"",""trial"",""time""
""fullscreenenter"",""1"",""19393""
","
","","14460.70499997586","Let's try practicing that! </br> First, try to put your fingers over the '2', '4', '6', and '8' keys. </br>  You can use whatever fingers are most comfortable for you. Try to find a comfortable position now. ","50","","instructions","2021-04-04 15:52:02.200","","","","","",""
"casino-keyboard-response","14","99535","0.0-8.0-0.3","A896","true","img/card_backs/set1/purple.gif","img/card_backs/set1/red.gif","img/card_backs/set1/yellow.gif","img/card_backs/set1/green.gif","img/card_backs/set2/orange.gif","img/card_backs/set2/blue.gif","img/card_backs/set2/pink.gif","img/card_backs/set2/gray.gif","""event"",""trial"",""time""
""fullscreenenter"",""1"",""19393""
","
","
","""event"",""trial"",""time""
""fullscreenenter"",""1"",""19393""
","
","","5222.560000023805","Okay ready? </br> On the next screen, press '2' to select the left deck. ","50","","instructions","2021-04-04 15:52:07.425","","","","","",""
"card-selection-trial","15","102511","0.0-9.0-0.0","A896","true","img/card_backs/set1/purple.gif","img/card_backs/set1/red.gif","img/card_backs/set1/yellow.gif","img/card_backs/set1/green.gif","img/card_backs/set2/orange.gif","img/card_backs/set2/blue.gif","img/card_backs/set2/pink.gif","img/card_backs/set2/gray.gif","""event"",""trial"",""time""
""fullscreenenter"",""1"",""19393""
","
","
","""event"",""trial"",""time""
""fullscreenenter"",""1"",""19393""
","
","","964.9199999985285","","","","practice_card_selection","2021-04-04 15:52:10.401","img/practice_cards/backs/brown.gif","0","100","","",""
"casino-keyboard-response","16","109857","0.0-10.0-0.0","A896","true","img/card_backs/set1/purple.gif","img/card_backs/set1/red.gif","img/card_backs/set1/yellow.gif","img/card_backs/set1/green.gif","img/card_backs/set2/orange.gif","img/card_backs/set2/blue.gif","img/card_backs/set2/pink.gif","img/card_backs/set2/gray.gif","""event"",""trial"",""time""
""fullscreenenter"",""1"",""19393""
","
","
","""event"",""trial"",""time""
""fullscreenenter"",""1"",""19393""
","
","","7344.439999957103","Great! Now on the next screen, try pressing '6' to select the third deck.","54","","instructions","2021-04-04 15:52:17.747","","","","","",""
"card-selection-trial","17","112908","0.0-11.0-0.0","A896","true","img/card_backs/set1/purple.gif","img/card_backs/set1/red.gif","img/card_backs/set1/yellow.gif","img/card_backs/set1/green.gif","img/card_backs/set2/orange.gif","img/card_backs/set2/blue.gif","img/card_backs/set2/pink.gif","img/card_backs/set2/gray.gif","""event"",""trial"",""time""
""fullscreenenter"",""1"",""19393""
","
","
","""event"",""trial"",""time""
""fullscreenenter"",""1"",""19393""
","
","","1040.5500000342727","","","","practice_card_selection","2021-04-04 15:52:20.798","img/practice_cards/backs/brown.gif","2","-100","","",""
"casino-keyboard-response","18","117763","0.0-12.0-0.0","A896","true","img/card_backs/set1/purple.gif","img/card_backs/set1/red.gif","img/card_backs/set1/yellow.gif","img/card_backs/set1/green.gif","img/card_backs/set2/orange.gif","img/card_backs/set2/blue.gif","img/card_backs/set2/pink.gif","img/card_backs/set2/gray.gif","""event"",""trial"",""time""
""fullscreenenter"",""1"",""19393""
","
","
","""event"",""trial"",""time""
""fullscreenenter"",""1"",""19393""
","
","","4853.460000013001","Now on the next screen, try pressing '4' to select the second deck.","52","","instructions","2021-04-04 15:52:25.653","","","","","",""
"card-selection-trial","19","120519","0.0-13.0-0.0","A896","true","img/card_backs/set1/purple.gif","img/card_backs/set1/red.gif","img/card_backs/set1/yellow.gif","img/card_backs/set1/green.gif","img/card_backs/set2/orange.gif","img/card_backs/set2/blue.gif","img/card_backs/set2/pink.gif","img/card_backs/set2/gray.gif","""event"",""trial"",""time""
""fullscreenenter"",""1"",""19393""
","
","
","""event"",""trial"",""time""
""fullscreenenter"",""1"",""19393""
","
","","748.2099999906495","","","","practice_card_selection","2021-04-04 15:52:28.409","img/practice_cards/backs/dark_blue.gif","1","200","","",""
"casino-keyboard-response","20","125676","0.0-14.0-0.0","A896","true","img/card_backs/set1/purple.gif","img/card_backs/set1/red.gif","img/card_backs/set1/yellow.gif","img/card_backs/set1/green.gif","img/card_backs/set2/orange.gif","img/card_backs/set2/blue.gif","img/card_backs/set2/pink.gif","img/card_backs/set2/gray.gif","""event"",""trial"",""time""
""fullscreenenter"",""1"",""19393""
","
","
","""event"",""trial"",""time""
""fullscreenenter"",""1"",""19393""
","
","","5155.845000001136","Finally, try pressing '8' to select the deck all the way on the right.","56","","instructions","2021-04-04 15:52:33.566","","","","","",""
"card-selection-trial","21","128344","0.0-15.0-0.0","A896","true","img/card_backs/set1/purple.gif","img/card_backs/set1/red.gif","img/card_backs/set1/yellow.gif","img/card_backs/set1/green.gif","img/card_backs/set2/orange.gif","img/card_backs/set2/blue.gif","img/card_backs/set2/pink.gif","img/card_backs/set2/gray.gif","""event"",""trial"",""time""
""fullscreenenter"",""1"",""19393""
","
","
","""event"",""trial"",""time""
""fullscreenenter"",""1"",""19393""
","
","","658.5849999682978","","","","practice_card_selection","2021-04-04 15:52:36.234","img/practice_cards/backs/dark_blue.gif","3","-200","","",""
"casino-keyboard-response","22","132683","0.0-16.0-0.0","A896","true","img/card_backs/set1/purple.gif","img/card_backs/set1/red.gif","img/card_backs/set1/yellow.gif","img/card_backs/set1/green.gif","img/card_backs/set2/orange.gif","img/card_backs/set2/blue.gif","img/card_backs/set2/pink.gif","img/card_backs/set2/gray.gif","""event"",""trial"",""time""
""fullscreenenter"",""1"",""19393""
","
","
","""event"",""trial"",""time""
""fullscreenenter"",""1"",""19393""
","
","","4337.549999996554","Great! It seems like you are getting the hang of this.","80","","instructions","2021-04-04 15:52:40.573","","","","","",""
"casino-keyboard-response","23","140280","0.0-16.0-0.1","A896","true","img/card_backs/set1/purple.gif","img/card_backs/set1/red.gif","img/card_backs/set1/yellow.gif","img/card_backs/set1/green.gif","img/card_backs/set2/orange.gif","img/card_backs/set2/blue.gif","img/card_backs/set2/pink.gif","img/card_backs/set2/gray.gif","""event"",""trial"",""time""
""fullscreenenter"",""1"",""19393""
","
","
","""event"",""trial"",""time""
""fullscreenenter"",""1"",""19393""
","
","","7595.11500003282","You may have noticed that some cards will cause you to <b> win </b> tokens while other cards will cause you to <b> lose </b>  tokens.","70","","instructions","2021-04-04 15:52:48.170","","","","","",""
"casino-keyboard-response","24","148473","0.0-16.0-0.2","A896","true","img/card_backs/set1/purple.gif","img/card_backs/set1/red.gif","img/card_backs/set1/yellow.gif","img/card_backs/set1/green.gif","img/card_backs/set2/orange.gif","img/card_backs/set2/blue.gif","img/card_backs/set2/pink.gif","img/card_backs/set2/gray.gif","""event"",""trial"",""time""
""fullscreenenter"",""1"",""19393""
","
","
","""event"",""trial"",""time""
""fullscreenenter"",""1"",""19393""
","
","","8191.884999978356","Each deck has a mix of cards that will cause you to win and lose tokens. </br> However, the cards in each colored deck are different.","73","","instructions","2021-04-04 15:52:56.363","","","","","",""
"casino-keyboard-response","25","157131","0.0-16.0-0.3","A896","true","img/card_backs/set1/purple.gif","img/card_backs/set1/red.gif","img/card_backs/set1/yellow.gif","img/card_backs/set1/green.gif","img/card_backs/set2/orange.gif","img/card_backs/set2/blue.gif","img/card_backs/set2/pink.gif","img/card_backs/set2/gray.gif","""event"",""trial"",""time""
""fullscreenenter"",""1"",""19393""
","
","
","""event"",""trial"",""time""
""fullscreenenter"",""1"",""19393""
","
","","8656.619999965187","Some colored decks are luckier than others. </br> If you choose the lucky decks, you will earn more tokens than if you choose the unlucky decks.","69","","instructions","2021-04-04 15:53:05.021","","","","","",""
"casino-keyboard-response","26","164474","0.0-16.0-0.4","A896","true","img/card_backs/set1/purple.gif","img/card_backs/set1/red.gif","img/card_backs/set1/yellow.gif","img/card_backs/set1/green.gif","img/card_backs/set2/orange.gif","img/card_backs/set2/blue.gif","img/card_backs/set2/pink.gif","img/card_backs/set2/gray.gif","""event"",""trial"",""time""
""fullscreenenter"",""1"",""19393""
","
","
","""event"",""trial"",""time""
""fullscreenenter"",""1"",""19393""
","
","","7341.13499999512","You should try to figure out which decks are lucky. </br> Then, try to choose the lucky decks so you can win the most tokens.","87","","instructions","2021-04-04 15:53:12.364","","","","","",""
"casino-keyboard-response","27","175877","0.0-16.0-0.5","A896","true","img/card_backs/set1/purple.gif","img/card_backs/set1/red.gif","img/card_backs/set1/yellow.gif","img/card_backs/set1/green.gif","img/card_backs/set2/orange.gif","img/card_backs/set2/blue.gif","img/card_backs/set2/pink.gif","img/card_backs/set2/gray.gif","""event"",""trial"",""time""
""fullscreenenter"",""1"",""19393""
","
","
","""event"",""trial"",""time""
""fullscreenenter"",""1"",""19393""
","
","","11401.29499998875","To make it trickier, the casino dealer will switch the locations of the decks on every turn. </br> The color of the deck determines how lucky it is. The location does not matter.","88","","instructions","2021-04-04 15:53:23.768","","","","","",""
"casino-keyboard-response","28","185818","0.0-16.0-0.6","A896","true","img/card_backs/set1/purple.gif","img/card_backs/set1/red.gif","img/card_backs/set1/yellow.gif","img/card_backs/set1/green.gif","img/card_backs/set2/orange.gif","img/card_backs/set2/blue.gif","img/card_backs/set2/pink.gif","img/card_backs/set2/gray.gif","""event"",""trial"",""time""
""fullscreenenter"",""1"",""19393""
","
","
","""event"",""trial"",""time""
""fullscreenenter"",""1"",""19393""
","
","","9938.39999998454","The mix of cards in each colored deck will stay the same throughout the game. </br> That means that a deck that is lucky early on will stay lucky.","79","","instructions","2021-04-04 15:53:33.708","","","","","",""
"casino-keyboard-response","29","194223","0.0-16.0-0.7","A896","true","img/card_backs/set1/purple.gif","img/card_backs/set1/red.gif","img/card_backs/set1/yellow.gif","img/card_backs/set1/green.gif","img/card_backs/set2/orange.gif","img/card_backs/set2/blue.gif","img/card_backs/set2/pink.gif","img/card_backs/set2/gray.gif","""event"",""trial"",""time""
""fullscreenenter"",""1"",""19393""
","
","
","""event"",""trial"",""time""
""fullscreenenter"",""1"",""19393""
","
","","8404.00000003865","Remember though, all the decks have a <b> mix </b> of both <b> good </b> and <b> bad </b> cards so it may take a couple of turns to figure out if a deck is lucky.","69","","instructions","2021-04-04 15:53:42.113","","","","","",""
"casino-keyboard-response","30","202367","0.0-16.0-0.8","A896","true","img/card_backs/set1/purple.gif","img/card_backs/set1/red.gif","img/card_backs/set1/yellow.gif","img/card_backs/set1/green.gif","img/card_backs/set2/orange.gif","img/card_backs/set2/blue.gif","img/card_backs/set2/pink.gif","img/card_backs/set2/gray.gif","""event"",""trial"",""time""
""fullscreenenter"",""1"",""19393""
","
","
","""event"",""trial"",""time""
""fullscreenenter"",""1"",""19393""
","
","","8141.884999989998","At the end of the game, you will be paid bonus money based on how many tokens you win. </br> If you win more tokens, you will earn more money!","72","","instructions","2021-04-04 15:53:50.257","","","","","",""
"casino-keyboard-response","31","212573","0.0-16.0-0.9","A896","true","img/card_backs/set1/purple.gif","img/card_backs/set1/red.gif","img/card_backs/set1/yellow.gif","img/card_backs/set1/green.gif","img/card_backs/set2/orange.gif","img/card_backs/set2/blue.gif","img/card_backs/set2/pink.gif","img/card_backs/set2/gray.gif","""event"",""trial"",""time""
""fullscreenenter"",""1"",""19393""
","
","
","""event"",""trial"",""time""
""fullscreenenter"",""1"",""19393""
","
","","10204.66500002658","You will never <b> lose </b> money. </br> If you end up with fewer than 0 tokens, you will earn $0 of bonus money, but you will still be paid for playing the game.","83","","instructions","2021-04-04 15:54:00.463","","","","","",""
"casino-keyboard-response","32","216535","0.0-16.0-0.10","A896","true","img/card_backs/set1/purple.gif","img/card_backs/set1/red.gif","img/card_backs/set1/yellow.gif","img/card_backs/set1/green.gif","img/card_backs/set2/orange.gif","img/card_backs/set2/blue.gif","img/card_backs/set2/pink.gif","img/card_backs/set2/gray.gif","""event"",""trial"",""time""
""fullscreenenter"",""1"",""19393""
","
","
","""event"",""trial"",""time""
""fullscreenenter"",""1"",""19393""
","
","","3960.4200000176206","You will have 10 seconds to make each choice.","82","","instructions","2021-04-04 15:54:04.425","","","","","",""
"casino-keyboard-response","33","224797","0.0-16.0-0.11","A896","true","img/card_backs/set1/purple.gif","img/card_backs/set1/red.gif","img/card_backs/set1/yellow.gif","img/card_backs/set1/green.gif","img/card_backs/set2/orange.gif","img/card_backs/set2/blue.gif","img/card_backs/set2/pink.gif","img/card_backs/set2/gray.gif","""event"",""trial"",""time""
""fullscreenenter"",""1"",""19393""
","
","
","""event"",""trial"",""time""
""fullscreenenter"",""1"",""19393""
","
","","8260.479999997187","Before you play the game for real, you will play with practice decks. </br> The tokens you earn during practice won't count toward your total.","86","","instructions","2021-04-04 15:54:12.687","","","","","",""
"casino-keyboard-response","34","230848","0.0-16.0-0.12","A896","true","img/card_backs/set1/purple.gif","img/card_backs/set1/red.gif","img/card_backs/set1/yellow.gif","img/card_backs/set1/green.gif","img/card_backs/set2/orange.gif","img/card_backs/set2/blue.gif","img/card_backs/set2/pink.gif","img/card_backs/set2/gray.gif","""event"",""trial"",""time""
""fullscreenenter"",""1"",""19393""
","
","
","""event"",""trial"",""time""
""fullscreenenter"",""1"",""19393""
","
","","6049.910000001546","Ready? Remember, use the '2', '4', '6', and '8' keys to select the decks. </br> Put your fingers on those keys now and then press '2' to begin.","50","","instructions","2021-04-04 15:54:18.738","","","","","",""
"casino-fixation","35","231351","0.0-17.0-0.0","A896","true","img/card_backs/set1/purple.gif","img/card_backs/set1/red.gif","img/card_backs/set1/yellow.gif","img/card_backs/set1/green.gif","img/card_backs/set2/orange.gif","img/card_backs/set2/blue.gif","img/card_backs/set2/pink.gif","img/card_backs/set2/gray.gif","""event"",""trial"",""time""
""fullscreenenter"",""1"",""19393""
","
","
","""event"",""trial"",""time""
""fullscreenenter"",""1"",""19393""
","
","","null","","null","","fixation","2021-04-04 15:54:19.241","","","","","",""
"card-selection-trial","36","236872","0.0-17.0-1.0","A896","true","img/card_backs/set1/purple.gif","img/card_backs/set1/red.gif","img/card_backs/set1/yellow.gif","img/card_backs/set1/green.gif","img/card_backs/set2/orange.gif","img/card_backs/set2/blue.gif","img/card_backs/set2/pink.gif","img/card_backs/set2/gray.gif","""event"",""trial"",""time""
""fullscreenenter"",""1"",""19393""
","
","
","""event"",""trial"",""time""
""fullscreenenter"",""1"",""19393""
","
","","3513.3400000049733","","","","practice","2021-04-04 15:54:24.762","img/practice_cards/backs/dark_green.gif","1","-200","0","",""
"casino-fixation","37","237376","0.0-17.0-0.1","A896","true","img/card_backs/set1/purple.gif","img/card_backs/set1/red.gif","img/card_backs/set1/yellow.gif","img/card_backs/set1/green.gif","img/card_backs/set2/orange.gif","img/card_backs/set2/blue.gif","img/card_backs/set2/pink.gif","img/card_backs/set2/gray.gif","""event"",""trial"",""time""
""fullscreenenter"",""1"",""19393""
","
","
","""event"",""trial"",""time""
""fullscreenenter"",""1"",""19393""
","
","","null","","null","","fixation","2021-04-04 15:54:25.267","","","","","",""
"card-selection-trial","38","241206","0.0-17.0-1.1","A896","true","img/card_backs/set1/purple.gif","img/card_backs/set1/red.gif","img/card_backs/set1/yellow.gif","img/card_backs/set1/green.gif","img/card_backs/set2/orange.gif","img/card_backs/set2/blue.gif","img/card_backs/set2/pink.gif","img/card_backs/set2/gray.gif","""event"",""trial"",""time""
""fullscreenenter"",""1"",""19393""
","
","
","""event"",""trial"",""time""
""fullscreenenter"",""1"",""19393""
","
","","1820.3099999809638","","","","practice","2021-04-04 15:54:29.096","img/practice_cards/backs/brown.gif","0","100","0","",""
"casino-fixation","39","241713","0.0-17.0-0.2","A896","true","img/card_backs/set1/purple.gif","img/card_backs/set1/red.gif","img/card_backs/set1/yellow.gif","img/card_backs/set1/green.gif","img/card_backs/set2/orange.gif","img/card_backs/set2/blue.gif","img/card_backs/set2/pink.gif","img/card_backs/set2/gray.gif","""event"",""trial"",""time""
""fullscreenenter"",""1"",""19393""
","
","
","""event"",""trial"",""time""
""fullscreenenter"",""1"",""19393""
","
","","null","","null","","fixation","2021-04-04 15:54:29.603","","","","","",""
"card-selection-trial","40","245608","0.0-17.0-1.2","A896","true","img/card_backs/set1/purple.gif","img/card_backs/set1/red.gif","img/card_backs/set1/yellow.gif","img/card_backs/set1/green.gif","img/card_backs/set2/orange.gif","img/card_backs/set2/blue.gif","img/card_backs/set2/pink.gif","img/card_backs/set2/gray.gif","""event"",""trial"",""time""
""fullscreenenter"",""1"",""19393""
","
","
","""event"",""trial"",""time""
""fullscreenenter"",""1"",""19393""
","
","","1890.9100000164472","","","","practice","2021-04-04 15:54:33.498","img/practice_cards/backs/brown.gif","2","-100","0","",""
"casino-fixation","41","246113","0.0-17.0-0.3","A896","true","img/card_backs/set1/purple.gif","img/card_backs/set1/red.gif","img/card_backs/set1/yellow.gif","img/card_backs/set1/green.gif","img/card_backs/set2/orange.gif","img/card_backs/set2/blue.gif","img/card_backs/set2/pink.gif","img/card_backs/set2/gray.gif","""event"",""trial"",""time""
""fullscreenenter"",""1"",""19393""
","
","
","""event"",""trial"",""time""
""fullscreenenter"",""1"",""19393""
","
","","null","","null","","fixation","2021-04-04 15:54:34.003","","","","","",""
"card-selection-trial","42","249318","0.0-17.0-1.3","A896","true","img/card_backs/set1/purple.gif","img/card_backs/set1/red.gif","img/card_backs/set1/yellow.gif","img/card_backs/set1/green.gif","img/card_backs/set2/orange.gif","img/card_backs/set2/blue.gif","img/card_backs/set2/pink.gif","img/card_backs/set2/gray.gif","""event"",""trial"",""time""
""fullscreenenter"",""1"",""19393""
","
","
","""event"",""trial"",""time""
""fullscreenenter"",""1"",""19393""
","
","","1195.964999962598","","","","practice","2021-04-04 15:54:37.208","img/practice_cards/backs/dark_blue.gif","2","200","0","",""
"casino-fixation","43","249823","0.0-17.0-0.4","A896","true","img/card_backs/set1/purple.gif","img/card_backs/set1/red.gif","img/card_backs/set1/yellow.gif","img/card_backs/set1/green.gif","img/card_backs/set2/orange.gif","img/card_backs/set2/blue.gif","img/card_backs/set2/pink.gif","img/card_backs/set2/gray.gif","""event"",""trial"",""time""
""fullscreenenter"",""1"",""19393""
","
","
","""event"",""trial"",""time""
""fullscreenenter"",""1"",""19393""
","
","","null","","null","","fixation","2021-04-04 15:54:37.713","","","","","",""
"card-selection-trial","44","253236","0.0-17.0-1.4","A896","true","img/card_backs/set1/purple.gif","img/card_backs/set1/red.gif","img/card_backs/set1/yellow.gif","img/card_backs/set1/green.gif","img/card_backs/set2/orange.gif","img/card_backs/set2/blue.gif","img/card_backs/set2/pink.gif","img/card_backs/set2/gray.gif","""event"",""trial"",""time""
""fullscreenenter"",""1"",""19393""
","
","
","""event"",""trial"",""time""
""fullscreenenter"",""1"",""19393""
","
","","1406.1649999930523","","","","practice","2021-04-04 15:54:41.126","img/practice_cards/backs/black.gif","3","100","0","",""
"casino-fixation","45","253741","0.0-17.0-0.5","A896","true","img/card_backs/set1/purple.gif","img/card_backs/set1/red.gif","img/card_backs/set1/yellow.gif","img/card_backs/set1/green.gif","img/card_backs/set2/orange.gif","img/card_backs/set2/blue.gif","img/card_backs/set2/pink.gif","img/card_backs/set2/gray.gif","""event"",""trial"",""time""
""fullscreenenter"",""1"",""19393""
","
","
","""event"",""trial"",""time""
""fullscreenenter"",""1"",""19393""
","
","","null","","null","","fixation","2021-04-04 15:54:41.631","","","","","",""
"card-selection-trial","46","259390","0.0-17.0-1.5","A896","true","img/card_backs/set1/purple.gif","img/card_backs/set1/red.gif","img/card_backs/set1/yellow.gif","img/card_backs/set1/green.gif","img/card_backs/set2/orange.gif","img/card_backs/set2/blue.gif","img/card_backs/set2/pink.gif","img/card_backs/set2/gray.gif","""event"",""trial"",""time""
""fullscreenenter"",""1"",""19393""
","
","
","""event"",""trial"",""time""
""fullscreenenter"",""1"",""19393""
","
","","3640.8900000387803","","","","practice","2021-04-04 15:54:47.280","img/practice_cards/backs/dark_green.gif","2","-200","0","",""
"casino-fixation","47","259895","0.0-17.0-0.6","A896","true","img/card_backs/set1/purple.gif","img/card_backs/set1/red.gif","img/card_backs/set1/yellow.gif","img/card_backs/set1/green.gif","img/card_backs/set2/orange.gif","img/card_backs/set2/blue.gif","img/card_backs/set2/pink.gif","img/card_backs/set2/gray.gif","""event"",""trial"",""time""
""fullscreenenter"",""1"",""19393""
","
","
","""event"",""trial"",""time""
""fullscreenenter"",""1"",""19393""
","
","","null","","null","","fixation","2021-04-04 15:54:47.785","","","","","",""
"card-selection-trial","48","262381","0.0-17.0-1.6","A896","true","img/card_backs/set1/purple.gif","img/card_backs/set1/red.gif","img/card_backs/set1/yellow.gif","img/card_backs/set1/green.gif","img/card_backs/set2/orange.gif","img/card_backs/set2/blue.gif","img/card_backs/set2/pink.gif","img/card_backs/set2/gray.gif","""event"",""trial"",""time""
""fullscreenenter"",""1"",""19393""
","
","
","""event"",""trial"",""time""
""fullscreenenter"",""1"",""19393""
","
","","478.7699999869801","","","","practice","2021-04-04 15:54:50.271","img/practice_cards/backs/dark_green.gif","3","200","0","",""
"casino-fixation","49","262885","0.0-17.0-0.7","A896","true","img/card_backs/set1/purple.gif","img/card_backs/set1/red.gif","img/card_backs/set1/yellow.gif","img/card_backs/set1/green.gif","img/card_backs/set2/orange.gif","img/card_backs/set2/blue.gif","img/card_backs/set2/pink.gif","img/card_backs/set2/gray.gif","""event"",""trial"",""time""
""fullscreenenter"",""1"",""19393""
","
","
","""event"",""trial"",""time""
""fullscreenenter"",""1"",""19393""
","
","","null","","null","","fixation","2021-04-04 15:54:50.776","","","","","",""
"card-selection-trial","50","266586","0.0-17.0-1.7","A896","true","img/card_backs/set1/purple.gif","img/card_backs/set1/red.gif","img/card_backs/set1/yellow.gif","img/card_backs/set1/green.gif","img/card_backs/set2/orange.gif","img/card_backs/set2/blue.gif","img/card_backs/set2/pink.gif","img/card_backs/set2/gray.gif","""event"",""trial"",""time""
""fullscreenenter"",""1"",""19393""
","
","
","""event"",""trial"",""time""
""fullscreenenter"",""1"",""19393""
","
","","1690.465000050608","","","","practice","2021-04-04 15:54:54.476","img/practice_cards/backs/brown.gif","0","100","0","",""
"casino-fixation","51","267091","0.0-17.0-0.8","A896","true","img/card_backs/set1/purple.gif","img/card_backs/set1/red.gif","img/card_backs/set1/yellow.gif","img/card_backs/set1/green.gif","img/card_backs/set2/orange.gif","img/card_backs/set2/blue.gif","img/card_backs/set2/pink.gif","img/card_backs/set2/gray.gif","""event"",""trial"",""time""
""fullscreenenter"",""1"",""19393""
","
","
","""event"",""trial"",""time""
""fullscreenenter"",""1"",""19393""
","
","","null","","null","","fixation","2021-04-04 15:54:54.981","","","","","",""
"card-selection-trial","52","270154","0.0-17.0-1.8","A896","true","img/card_backs/set1/purple.gif","img/card_backs/set1/red.gif","img/card_backs/set1/yellow.gif","img/card_backs/set1/green.gif","img/card_backs/set2/orange.gif","img/card_backs/set2/blue.gif","img/card_backs/set2/pink.gif","img/card_backs/set2/gray.gif","""event"",""trial"",""time""
""fullscreenenter"",""1"",""19393""
","
","
","""event"",""trial"",""time""
""fullscreenenter"",""1"",""19393""
","
","","1052.4299999815412","","","","practice","2021-04-04 15:54:58.044","img/practice_cards/backs/dark_blue.gif","0","200","0","",""
"casino-fixation","53","270659","0.0-17.0-0.9","A896","true","img/card_backs/set1/purple.gif","img/card_backs/set1/red.gif","img/card_backs/set1/yellow.gif","img/card_backs/set1/green.gif","img/card_backs/set2/orange.gif","img/card_backs/set2/blue.gif","img/card_backs/set2/pink.gif","img/card_backs/set2/gray.gif","""event"",""trial"",""time""
""fullscreenenter"",""1"",""19393""
","
","
","""event"",""trial"",""time""
""fullscreenenter"",""1"",""19393""
","
","","null","","null","","fixation","2021-04-04 15:54:58.549","","","","","",""
"card-selection-trial","54","275170","0.0-17.0-1.9","A896","true","img/card_backs/set1/purple.gif","img/card_backs/set1/red.gif","img/card_backs/set1/yellow.gif","img/card_backs/set1/green.gif","img/card_backs/set2/orange.gif","img/card_backs/set2/blue.gif","img/card_backs/set2/pink.gif","img/card_backs/set2/gray.gif","""event"",""trial"",""time""
""fullscreenenter"",""1"",""19393""
","
","
","""event"",""trial"",""time""
""fullscreenenter"",""1"",""19393""
","
","","2503.324999997858","","","","practice","2021-04-04 15:55:03.060","img/practice_cards/backs/black.gif","0","-100","0","",""
"casino-keyboard-response","55","278041","0.0-18.0","A896","true","img/card_backs/set1/purple.gif","img/card_backs/set1/red.gif","img/card_backs/set1/yellow.gif","img/card_backs/set1/green.gif","img/card_backs/set2/orange.gif","img/card_backs/set2/blue.gif","img/card_backs/set2/pink.gif","img/card_backs/set2/gray.gif","""event"",""trial"",""time""
""fullscreenenter"",""1"",""19393""
","
","
","""event"",""trial"",""time""
""fullscreenenter"",""1"",""19393""
","
","","2869.8999999905936","You earned 300 tokens during the practice round!","82","","","2021-04-04 15:55:05.932","","","","","",""
"casino-keyboard-response","56","283402","0.0-19.0-0.0","A896","true","img/card_backs/set1/purple.gif","img/card_backs/set1/red.gif","img/card_backs/set1/yellow.gif","img/card_backs/set1/green.gif","img/card_backs/set2/orange.gif","img/card_backs/set2/blue.gif","img/card_backs/set2/pink.gif","img/card_backs/set2/gray.gif","""event"",""trial"",""time""
""fullscreenenter"",""1"",""19393""
","
","
","""event"",""trial"",""time""
""fullscreenenter"",""1"",""19393""
","
","","5357.929999998305","Nice job! You are almost ready to play the real game.","86","","instructions","2021-04-04 15:55:11.292","","","","","",""
"casino-keyboard-response","57","290077","0.0-19.0-0.1","A896","true","img/card_backs/set1/purple.gif","img/card_backs/set1/red.gif","img/card_backs/set1/yellow.gif","img/card_backs/set1/green.gif","img/card_backs/set2/orange.gif","img/card_backs/set2/blue.gif","img/card_backs/set2/pink.gif","img/card_backs/set2/gray.gif","""event"",""trial"",""time""
""fullscreenenter"",""1"",""19393""
","
","
","""event"",""trial"",""time""
""fullscreenenter"",""1"",""19393""
","
","","6673.084999958519","You will play two rounds of the real game. In each round, you will pick 100 cards in total.","73","","instructions","2021-04-04 15:55:17.967","","","","","",""
"casino-keyboard-response","58","294274","0.0-19.0-0.2","A896","true","img/card_backs/set1/purple.gif","img/card_backs/set1/red.gif","img/card_backs/set1/yellow.gif","img/card_backs/set1/green.gif","img/card_backs/set2/orange.gif","img/card_backs/set2/blue.gif","img/card_backs/set2/pink.gif","img/card_backs/set2/gray.gif","""event"",""trial"",""time""
""fullscreenenter"",""1"",""19393""
","
","
","""event"",""trial"",""time""
""fullscreenenter"",""1"",""19393""
","
","","4196.419999992941","We are now going to ask you some questions about how the game works.","66","","instructions","2021-04-04 15:55:22.165","","","","","",""
"casino-keyboard-response","59","300339","0.0-19.0-0.3","A896","true","img/card_backs/set1/purple.gif","img/card_backs/set1/red.gif","img/card_backs/set1/yellow.gif","img/card_backs/set1/green.gif","img/card_backs/set2/orange.gif","img/card_backs/set2/blue.gif","img/card_backs/set2/pink.gif","img/card_backs/set2/gray.gif","""event"",""trial"",""time""
""fullscreenenter"",""1"",""19393""
","
","
","""event"",""trial"",""time""
""fullscreenenter"",""1"",""19393""
","
","","6062.734999984968","Answer carefully. You will not be able to begin the game until you answer them correctly.","67","","instructions","2021-04-04 15:55:28.229","","","","","",""
"casino-comp_q","60","307315","0.0-20.0-0.0","A896","true","img/card_backs/set1/purple.gif","img/card_backs/set1/red.gif","img/card_backs/set1/yellow.gif","img/card_backs/set1/green.gif","img/card_backs/set2/orange.gif","img/card_backs/set2/blue.gif","img/card_backs/set2/pink.gif","img/card_backs/set2/gray.gif","""event"",""trial"",""time""
""fullscreenenter"",""1"",""19393""
","
","
","""event"",""trial"",""time""
""fullscreenenter"",""1"",""19393""
","
","","6974.60499999579","True or False: All the decks have some cards that cause you to win tokens and some cards that cause you to lose tokens.","84","","","2021-04-04 15:55:35.206","","","","","",""
"casino-keyboard-response","61","310210","0.0-20.0-1.0","A896","true","img/card_backs/set1/purple.gif","img/card_backs/set1/red.gif","img/card_backs/set1/yellow.gif","img/card_backs/set1/green.gif","img/card_backs/set2/orange.gif","img/card_backs/set2/blue.gif","img/card_backs/set2/pink.gif","img/card_backs/set2/gray.gif","""event"",""trial"",""time""
""fullscreenenter"",""1"",""19393""
","
","
","""event"",""trial"",""time""
""fullscreenenter"",""1"",""19393""
","
","","2892.8100000484847","True is correct! All the decks have a mix of winning and losing cards.","77","","","2021-04-04 15:55:38.100","","","","","true",""
"casino-comp_q","62","313789","0.0-21.0-0.0","A896","true","img/card_backs/set1/purple.gif","img/card_backs/set1/red.gif","img/card_backs/set1/yellow.gif","img/card_backs/set1/green.gif","img/card_backs/set2/orange.gif","img/card_backs/set2/blue.gif","img/card_backs/set2/pink.gif","img/card_backs/set2/gray.gif","""event"",""trial"",""time""
""fullscreenenter"",""1"",""19393""
","
","
","""event"",""trial"",""time""
""fullscreenenter"",""1"",""19393""
","
","","3576.0149999987334","True or False: You will have as much time as you want to make your response.","70","","","2021-04-04 15:55:41.679","","","","","",""
"casino-keyboard-response","63","316487","0.0-21.0-1.0","A896","true","img/card_backs/set1/purple.gif","img/card_backs/set1/red.gif","img/card_backs/set1/yellow.gif","img/card_backs/set1/green.gif","img/card_backs/set2/orange.gif","img/card_backs/set2/blue.gif","img/card_backs/set2/pink.gif","img/card_backs/set2/gray.gif","""event"",""trial"",""time""
""fullscreenenter"",""1"",""19393""
","
","
","""event"",""trial"",""time""
""fullscreenenter"",""1"",""19393""
","
","","2696.319999988191","False is correct! You will only have 10 seconds to make each choice.","75","","","2021-04-04 15:55:44.377","","","","","true",""
"casino-comp_q","64","320839","0.0-22.0-0.0","A896","true","img/card_backs/set1/purple.gif","img/card_backs/set1/red.gif","img/card_backs/set1/yellow.gif","img/card_backs/set1/green.gif","img/card_backs/set2/orange.gif","img/card_backs/set2/blue.gif","img/card_backs/set2/pink.gif","img/card_backs/set2/gray.gif","""event"",""trial"",""time""
""fullscreenenter"",""1"",""19393""
","
","
","""event"",""trial"",""time""
""fullscreenenter"",""1"",""19393""
","
","","4350.900000019465","True or False: The location of the deck determines how lucky it is.","84","","","2021-04-04 15:55:48.729","","","","","",""
"casino-keyboard-response","65","331038","0.0-22.0-1.0","A896","true","img/card_backs/set1/purple.gif","img/card_backs/set1/red.gif","img/card_backs/set1/yellow.gif","img/card_backs/set1/green.gif","img/card_backs/set2/orange.gif","img/card_backs/set2/blue.gif","img/card_backs/set2/pink.gif","img/card_backs/set2/gray.gif","""event"",""trial"",""time""
""fullscreenenter"",""1"",""19393""
","
","
","""event"",""trial"",""time""
""fullscreenenter"",""1"",""19393""
","
","","10197.150000021793","True is incorrect. The <i>color</i> of the deck determines how lucky or unlucky it is.","68","","","2021-04-04 15:55:58.928","","","","","false",""
"casino-comp_q","66","336136","0.0-22.1-0.1","A896","true","img/card_backs/set1/purple.gif","img/card_backs/set1/red.gif","img/card_backs/set1/yellow.gif","img/card_backs/set1/green.gif","img/card_backs/set2/orange.gif","img/card_backs/set2/blue.gif","img/card_backs/set2/pink.gif","img/card_backs/set2/gray.gif","""event"",""trial"",""time""
""fullscreenenter"",""1"",""19393""
","
","
","""event"",""trial"",""time""
""fullscreenenter"",""1"",""19393""
","
","","5097.049999982119","True or False: The location of the deck determines how lucky it is.","70","","","2021-04-04 15:56:04.026","","","","","",""
"casino-keyboard-response","67","339517","0.0-22.1-1.1","A896","true","img/card_backs/set1/purple.gif","img/card_backs/set1/red.gif","img/card_backs/set1/yellow.gif","img/card_backs/set1/green.gif","img/card_backs/set2/orange.gif","img/card_backs/set2/blue.gif","img/card_backs/set2/pink.gif","img/card_backs/set2/gray.gif","""event"",""trial"",""time""
""fullscreenenter"",""1"",""19393""
","
","
","""event"",""trial"",""time""
""fullscreenenter"",""1"",""19393""
","
","","3379.2849999736063","False is correct! The <i>color</i>  of the deck determines how lucky or unlucky it is.","68","","","2021-04-04 15:56:07.407","","","","","true",""
"casino-keyboard-response","68","343987","0.0-23.0-0.0","A896","true","img/card_backs/set1/purple.gif","img/card_backs/set1/red.gif","img/card_backs/set1/yellow.gif","img/card_backs/set1/green.gif","img/card_backs/set2/orange.gif","img/card_backs/set2/blue.gif","img/card_backs/set2/pink.gif","img/card_backs/set2/gray.gif","""event"",""trial"",""time""
""fullscreenenter"",""1"",""19393""
","
","
","""event"",""trial"",""time""
""fullscreenenter"",""1"",""19393""
","
","","4469.02499999851","Great job! Now it's time to start the real game.","82","","instructions","2021-04-04 15:56:11.877","","","","","",""
"casino-keyboard-response","69","349900","0.0-23.0-0.1","A896","true","img/card_backs/set1/purple.gif","img/card_backs/set1/red.gif","img/card_backs/set1/yellow.gif","img/card_backs/set1/green.gif","img/card_backs/set2/orange.gif","img/card_backs/set2/blue.gif","img/card_backs/set2/pink.gif","img/card_backs/set2/gray.gif","""event"",""trial"",""time""
""fullscreenenter"",""1"",""19393""
","
","
","""event"",""trial"",""time""
""fullscreenenter"",""1"",""19393""
","
","","5910.675000050105","Before we start, we're going to head into a new room of the casino.","86","","instructions","2021-04-04 15:56:17.790","","","","","",""
"casino-keyboard-response","70","356245","0.0-24.0-0.0","A896","true","img/card_backs/set1/purple.gif","img/card_backs/set1/red.gif","img/card_backs/set1/yellow.gif","img/card_backs/set1/green.gif","img/card_backs/set2/orange.gif","img/card_backs/set2/blue.gif","img/card_backs/set2/pink.gif","img/card_backs/set2/gray.gif","""event"",""trial"",""time""
""fullscreenenter"",""1"",""19393""
","
","
","""event"",""trial"",""time""
""fullscreenenter"",""1"",""19393""
","
","","6344.184999994468","Here we are! The real game will use different cards, but the rules will be the same.","71","","instructions","2021-04-04 15:56:24.135","","","","","",""
"casino-keyboard-response","71","359787","0.0-24.0-0.1","A896","true","img/card_backs/set1/purple.gif","img/card_backs/set1/red.gif","img/card_backs/set1/yellow.gif","img/card_backs/set1/green.gif","img/card_backs/set2/orange.gif","img/card_backs/set2/blue.gif","img/card_backs/set2/pink.gif","img/card_backs/set2/gray.gif","""event"",""trial"",""time""
""fullscreenenter"",""1"",""19393""
","
","
","""event"",""trial"",""time""
""fullscreenenter"",""1"",""19393""
","
","","3539.9150000303052","Ready? Put your fingers over the '2', '4', 6', and '8' keys so you are ready to play the game. </br> Then press 2 to start.","50","","instructions","2021-04-04 15:56:27.677","","","","","",""
"casino-fixation","72","360289","0.0-25.0-0.0","A896","true","img/card_backs/set1/purple.gif","img/card_backs/set1/red.gif","img/card_backs/set1/yellow.gif","img/card_backs/set1/green.gif","img/card_backs/set2/orange.gif","img/card_backs/set2/blue.gif","img/card_backs/set2/pink.gif","img/card_backs/set2/gray.gif","""event"",""trial"",""time""
""fullscreenenter"",""1"",""19393""
","
","
","""event"",""trial"",""time""
""fullscreenenter"",""1"",""19393""
","
","","null","","null","","fixation","2021-04-04 15:56:28.180","","","","","",""
"card-selection-trial","73","363808","0.0-25.0-1.0","A896","true","img/card_backs/set1/purple.gif","img/card_backs/set1/red.gif","img/card_backs/set1/yellow.gif","img/card_backs/set1/green.gif","img/card_backs/set2/orange.gif","img/card_backs/set2/blue.gif","img/card_backs/set2/pink.gif","img/card_backs/set2/gray.gif","""event"",""trial"",""time""
""fullscreenenter"",""1"",""19393""
","
","
","""event"",""trial"",""time""
""fullscreenenter"",""1"",""19393""
","
","","1512.1649999637157","","","","real_trial","2021-04-04 15:56:31.698","img/card_backs/set1/purple.gif","2","-200","1","",""
"casino-fixation","74","364313","0.0-25.0-0.1","A896","true","img/card_backs/set1/purple.gif","img/card_backs/set1/red.gif","img/card_backs/set1/yellow.gif","img/card_backs/set1/green.gif","img/card_backs/set2/orange.gif","img/card_backs/set2/blue.gif","img/card_backs/set2/pink.gif","img/card_backs/set2/gray.gif","""event"",""trial"",""time""
""fullscreenenter"",""1"",""19393""
","
","
","""event"",""trial"",""time""
""fullscreenenter"",""1"",""19393""
","
","","null","","null","","fixation","2021-04-04 15:56:32.203","","","","","",""
"card-selection-trial","75","368016","0.0-25.0-1.1","A896","true","img/card_backs/set1/purple.gif","img/card_backs/set1/red.gif","img/card_backs/set1/yellow.gif","img/card_backs/set1/green.gif","img/card_backs/set2/orange.gif","img/card_backs/set2/blue.gif","img/card_backs/set2/pink.gif","img/card_backs/set2/gray.gif","""event"",""trial"",""time""
""fullscreenenter"",""1"",""19393""
","
","
","""event"",""trial"",""time""
""fullscreenenter"",""1"",""19393""
","
","","1692.990000010468","","","","real_trial","2021-04-04 15:56:35.906","img/card_backs/set1/red.gif","0","-210","1","",""
"casino-fixation","76","368521","0.0-25.0-0.2","A896","true","img/card_backs/set1/purple.gif","img/card_backs/set1/red.gif","img/card_backs/set1/yellow.gif","img/card_backs/set1/green.gif","img/card_backs/set2/orange.gif","img/card_backs/set2/blue.gif","img/card_backs/set2/pink.gif","img/card_backs/set2/gray.gif","""event"",""trial"",""time""
""fullscreenenter"",""1"",""19393""
","
","
","""event"",""trial"",""time""
""fullscreenenter"",""1"",""19393""
","
","","null","","null","","fixation","2021-04-04 15:56:36.411","","","","","",""
"card-selection-trial","77","371720","0.0-25.0-1.2","A896","true","img/card_backs/set1/purple.gif","img/card_backs/set1/red.gif","img/card_backs/set1/yellow.gif","img/card_backs/set1/green.gif","img/card_backs/set2/orange.gif","img/card_backs/set2/blue.gif","img/card_backs/set2/pink.gif","img/card_backs/set2/gray.gif","""event"",""trial"",""time""
""fullscreenenter"",""1"",""19393""
","
","
","""event"",""trial"",""time""
""fullscreenenter"",""1"",""19393""
","
","","1191.350000037346","","","","real_trial","2021-04-04 15:56:39.610","img/card_backs/set1/green.gif","3","40","1","",""
"casino-fixation","78","372225","0.0-25.0-0.3","A896","true","img/card_backs/set1/purple.gif","img/card_backs/set1/red.gif","img/card_backs/set1/yellow.gif","img/card_backs/set1/green.gif","img/card_backs/set2/orange.gif","img/card_backs/set2/blue.gif","img/card_backs/set2/pink.gif","img/card_backs/set2/gray.gif","""event"",""trial"",""time""
""fullscreenenter"",""1"",""19393""
","
","
","""event"",""trial"",""time""
""fullscreenenter"",""1"",""19393""
","
","","null","","null","","fixation","2021-04-04 15:56:40.115","","","","","",""
"card-selection-trial","79","375923","0.0-25.0-1.3","A896","true","img/card_backs/set1/purple.gif","img/card_backs/set1/red.gif","img/card_backs/set1/yellow.gif","img/card_backs/set1/green.gif","img/card_backs/set2/orange.gif","img/card_backs/set2/blue.gif","img/card_backs/set2/pink.gif","img/card_backs/set2/gray.gif","""event"",""trial"",""time""
""fullscreenenter"",""1"",""19393""
","
","
","""event"",""trial"",""time""
""fullscreenenter"",""1"",""19393""
","
","","1692.635000043083","","","","real_trial","2021-04-04 15:56:43.813","img/card_backs/set1/yellow.gif","1","60","1","",""
"casino-fixation","80","376428","0.0-25.0-0.4","A896","true","img/card_backs/set1/purple.gif","img/card_backs/set1/red.gif","img/card_backs/set1/yellow.gif","img/card_backs/set1/green.gif","img/card_backs/set2/orange.gif","img/card_backs/set2/blue.gif","img/card_backs/set2/pink.gif","img/card_backs/set2/gray.gif","""event"",""trial"",""time""
""fullscreenenter"",""1"",""19393""
","
","
","""event"",""trial"",""time""
""fullscreenenter"",""1"",""19393""
","
","","null","","null","","fixation","2021-04-04 15:56:44.318","","","","","",""
"card-selection-trial","81","380535","0.0-25.0-1.4","A896","true","img/card_backs/set1/purple.gif","img/card_backs/set1/red.gif","img/card_backs/set1/yellow.gif","img/card_backs/set1/green.gif","img/card_backs/set2/orange.gif","img/card_backs/set2/blue.gif","img/card_backs/set2/pink.gif","img/card_backs/set2/gray.gif","""event"",""trial"",""time""
""fullscreenenter"",""1"",""19393""
","
","
","""event"",""trial"",""time""
""fullscreenenter"",""1"",""19393""
","
","","2099.0350000211038","","","","real_trial","2021-04-04 15:56:48.425","img/card_backs/set1/red.gif","1","260","1","",""
"casino-fixation","82","381037","0.0-25.0-0.5","A896","true","img/card_backs/set1/purple.gif","img/card_backs/set1/red.gif","img/card_backs/set1/yellow.gif","img/card_backs/set1/green.gif","img/card_backs/set2/orange.gif","img/card_backs/set2/blue.gif","img/card_backs/set2/pink.gif","img/card_backs/set2/gray.gif","""event"",""trial"",""time""
""fullscreenenter"",""1"",""19393""
","
","
","""event"",""trial"",""time""
""fullscreenenter"",""1"",""19393""
","
","","null","","null","","fixation","2021-04-04 15:56:48.927","","","","","",""
"card-selection-trial","83","384660","0.0-25.0-1.5","A896","true","img/card_backs/set1/purple.gif","img/card_backs/set1/red.gif","img/card_backs/set1/yellow.gif","img/card_backs/set1/green.gif","img/card_backs/set2/orange.gif","img/card_backs/set2/blue.gif","img/card_backs/set2/pink.gif","img/card_backs/set2/gray.gif","""event"",""trial"",""time""
""fullscreenenter"",""1"",""19393""
","
","
","""event"",""trial"",""time""
""fullscreenenter"",""1"",""19393""
","
","","1611.5399999544024","","","","real_trial","2021-04-04 15:56:52.550","img/card_backs/set1/red.gif","1","260","1","",""
"casino-fixation","84","385165","0.0-25.0-0.6","A896","true","img/card_backs/set1/purple.gif","img/card_backs/set1/red.gif","img/card_backs/set1/yellow.gif","img/card_backs/set1/green.gif","img/card_backs/set2/orange.gif","img/card_backs/set2/blue.gif","img/card_backs/set2/pink.gif","img/card_backs/set2/gray.gif","""event"",""trial"",""time""
""fullscreenenter"",""1"",""19393""
","
","
","""event"",""trial"",""time""
""fullscreenenter"",""1"",""19393""
","
","","null","","null","","fixation","2021-04-04 15:56:53.055","","","","","",""
"card-selection-trial","85","387824","0.0-25.0-1.6","A896","true","img/card_backs/set1/purple.gif","img/card_backs/set1/red.gif","img/card_backs/set1/yellow.gif","img/card_backs/set1/green.gif","img/card_backs/set2/orange.gif","img/card_backs/set2/blue.gif","img/card_backs/set2/pink.gif","img/card_backs/set2/gray.gif","""event"",""trial"",""time""
""fullscreenenter"",""1"",""19393""
","
","
","""event"",""trial"",""time""
""fullscreenenter"",""1"",""19393""
","
","","651.8550000037067","","","","real_trial","2021-04-04 15:56:55.714","img/card_backs/set1/purple.gif","2","240","1","",""
"casino-fixation","86","388329","0.0-25.0-0.7","A896","true","img/card_backs/set1/purple.gif","img/card_backs/set1/red.gif","img/card_backs/set1/yellow.gif","img/card_backs/set1/green.gif","img/card_backs/set2/orange.gif","img/card_backs/set2/blue.gif","img/card_backs/set2/pink.gif","img/card_backs/set2/gray.gif","""event"",""trial"",""time""
""fullscreenenter"",""1"",""19393""
","
","
","""event"",""trial"",""time""
""fullscreenenter"",""1"",""19393""
","
","","null","","null","","fixation","2021-04-04 15:56:56.219","","","","","",""
"card-selection-trial","87","390977","0.0-25.0-1.7","A896","true","img/card_backs/set1/purple.gif","img/card_backs/set1/red.gif","img/card_backs/set1/yellow.gif","img/card_backs/set1/green.gif","img/card_backs/set2/orange.gif","img/card_backs/set2/blue.gif","img/card_backs/set2/pink.gif","img/card_backs/set2/gray.gif","""event"",""trial"",""time""
""fullscreenenter"",""1"",""19393""
","
","
","""event"",""trial"",""time""
""fullscreenenter"",""1"",""19393""
","
","","639.4899999722838","","","","real_trial","2021-04-04 15:56:58.867","img/card_backs/set1/purple.gif","3","250","1","",""
"casino-fixation","88","391482","0.0-25.0-0.8","A896","true","img/card_backs/set1/purple.gif","img/card_backs/set1/red.gif","img/card_backs/set1/yellow.gif","img/card_backs/set1/green.gif","img/card_backs/set2/orange.gif","img/card_backs/set2/blue.gif","img/card_backs/set2/pink.gif","img/card_backs/set2/gray.gif","""event"",""trial"",""time""
""fullscreenenter"",""1"",""19393""
","
","
","""event"",""trial"",""time""
""fullscreenenter"",""1"",""19393""
","
","","null","","null","","fixation","2021-04-04 15:56:59.372","","","","","",""
"card-selection-trial","89","397026","0.0-25.0-1.8","A896","true","img/card_backs/set1/purple.gif","img/card_backs/set1/red.gif","img/card_backs/set1/yellow.gif","img/card_backs/set1/green.gif","img/card_backs/set2/orange.gif","img/card_backs/set2/blue.gif","img/card_backs/set2/pink.gif","img/card_backs/set2/gray.gif","""event"",""trial"",""time""
""fullscreenenter"",""1"",""19393""
","
","
","""event"",""trial"",""time""
""fullscreenenter"",""1"",""19393""
","
","","3535.250000015367","","","","real_trial","2021-04-04 15:57:04.916","img/card_backs/set1/yellow.gif","3","-90","1","",""
"casino-fixation","90","397530","0.0-25.0-0.9","A896","true","img/card_backs/set1/purple.gif","img/card_backs/set1/red.gif","img/card_backs/set1/yellow.gif","img/card_backs/set1/green.gif","img/card_backs/set2/orange.gif","img/card_backs/set2/blue.gif","img/card_backs/set2/pink.gif","img/card_backs/set2/gray.gif","""event"",""trial"",""time""
""fullscreenenter"",""1"",""19393""
","
","
","""event"",""trial"",""time""
""fullscreenenter"",""1"",""19393""
","
","","null","","null","","fixation","2021-04-04 15:57:05.420","","","","","",""
"card-selection-trial","91","401380","0.0-25.0-1.9","A896","true","img/card_backs/set1/purple.gif","img/card_backs/set1/red.gif","img/card_backs/set1/yellow.gif","img/card_backs/set1/green.gif","img/card_backs/set2/orange.gif","img/card_backs/set2/blue.gif","img/card_backs/set2/pink.gif","img/card_backs/set2/gray.gif","""event"",""trial"",""time""
""fullscreenenter"",""1"",""19393""
","
","
","""event"",""trial"",""time""
""fullscreenenter"",""1"",""19393""
","
","","1838.2950000232086","","","","real_trial","2021-04-04 15:57:09.270","img/card_backs/set1/green.gif","0","-100","1","",""
"casino-fixation","92","401886","0.0-25.0-0.10","A896","true","img/card_backs/set1/purple.gif","img/card_backs/set1/red.gif","img/card_backs/set1/yellow.gif","img/card_backs/set1/green.gif","img/card_backs/set2/orange.gif","img/card_backs/set2/blue.gif","img/card_backs/set2/pink.gif","img/card_backs/set2/gray.gif","""event"",""trial"",""time""
""fullscreenenter"",""1"",""19393""
","
","
","""event"",""trial"",""time""
""fullscreenenter"",""1"",""19393""
","
","","null","","null","","fixation","2021-04-04 15:57:09.776","","","","","",""
"card-selection-trial","93","404857","0.0-25.0-1.10","A896","true","img/card_backs/set1/purple.gif","img/card_backs/set1/red.gif","img/card_backs/set1/yellow.gif","img/card_backs/set1/green.gif","img/card_backs/set2/orange.gif","img/card_backs/set2/blue.gif","img/card_backs/set2/pink.gif","img/card_backs/set2/gray.gif","""event"",""trial"",""time""
""fullscreenenter"",""1"",""19393""
","
","
","""event"",""trial"",""time""
""fullscreenenter"",""1"",""19393""
","
","","957.5199999962933","","","","real_trial","2021-04-04 15:57:12.747","img/card_backs/set1/green.gif","2","-110","1","",""
"casino-fixation","94","405362","0.0-25.0-0.11","A896","true","img/card_backs/set1/purple.gif","img/card_backs/set1/red.gif","img/card_backs/set1/yellow.gif","img/card_backs/set1/green.gif","img/card_backs/set2/orange.gif","img/card_backs/set2/blue.gif","img/card_backs/set2/pink.gif","img/card_backs/set2/gray.gif","""event"",""trial"",""time""
""fullscreenenter"",""1"",""19393""
","
","
","""event"",""trial"",""time""
""fullscreenenter"",""1"",""19393""
","
","","null","","null","","fixation","2021-04-04 15:57:13.252","","","","","",""
"card-selection-trial","95","407957","0.0-25.0-1.11","A896","true","img/card_backs/set1/purple.gif","img/card_backs/set1/red.gif","img/card_backs/set1/yellow.gif","img/card_backs/set1/green.gif","img/card_backs/set2/orange.gif","img/card_backs/set2/blue.gif","img/card_backs/set2/pink.gif","img/card_backs/set2/gray.gif","""event"",""trial"",""time""
""fullscreenenter"",""1"",""19393""
","
","
","""event"",""trial"",""time""
""fullscreenenter"",""1"",""19393""
","
","","582.7750000171363","","","","real_trial","2021-04-04 15:57:15.847","img/card_backs/set1/red.gif","0","-210","1","",""
"casino-fixation","96","408462","0.0-25.0-0.12","A896","true","img/card_backs/set1/purple.gif","img/card_backs/set1/red.gif","img/card_backs/set1/yellow.gif","img/card_backs/set1/green.gif","img/card_backs/set2/orange.gif","img/card_backs/set2/blue.gif","img/card_backs/set2/pink.gif","img/card_backs/set2/gray.gif","""event"",""trial"",""time""
""fullscreenenter"",""1"",""19393""
","
","
","""event"",""trial"",""time""
""fullscreenenter"",""1"",""19393""
","
","","null","","null","","fixation","2021-04-04 15:57:16.352","","","","","",""
"card-selection-trial","97","412491","0.0-25.0-1.12","A896","true","img/card_backs/set1/purple.gif","img/card_backs/set1/red.gif","img/card_backs/set1/yellow.gif","img/card_backs/set1/green.gif","img/card_backs/set2/orange.gif","img/card_backs/set2/blue.gif","img/card_backs/set2/pink.gif","img/card_backs/set2/gray.gif","""event"",""trial"",""time""
""fullscreenenter"",""1"",""19393""
","
","
","""event"",""trial"",""time""
""fullscreenenter"",""1"",""19393""
","
","","2018.2800000184216","","","","real_trial","2021-04-04 15:57:20.381","img/card_backs/set1/red.gif","1","-210","1","",""
"casino-fixation","98","412996","0.0-25.0-0.13","A896","true","img/card_backs/set1/purple.gif","img/card_backs/set1/red.gif","img/card_backs/set1/yellow.gif","img/card_backs/set1/green.gif","img/card_backs/set2/orange.gif","img/card_backs/set2/blue.gif","img/card_backs/set2/pink.gif","img/card_backs/set2/gray.gif","""event"",""trial"",""time""
""fullscreenenter"",""1"",""19393""
","
","
","""event"",""trial"",""time""
""fullscreenenter"",""1"",""19393""
","
","","null","","null","","fixation","2021-04-04 15:57:20.886","","","","","",""
"card-selection-trial","99","415597","0.0-25.0-1.13","A896","true","img/card_backs/set1/purple.gif","img/card_backs/set1/red.gif","img/card_backs/set1/yellow.gif","img/card_backs/set1/green.gif","img/card_backs/set2/orange.gif","img/card_backs/set2/blue.gif","img/card_backs/set2/pink.gif","img/card_backs/set2/gray.gif","""event"",""trial"",""time""
""fullscreenenter"",""1"",""19393""
","
","
","""event"",""trial"",""time""
""fullscreenenter"",""1"",""19393""
","
","","590.5100000090897","","","","real_trial","2021-04-04 15:57:23.487","img/card_backs/set1/purple.gif","0","240","1","",""
"casino-fixation","100","416102","0.0-25.0-0.14","A896","true","img/card_backs/set1/purple.gif","img/card_backs/set1/red.gif","img/card_backs/set1/yellow.gif","img/card_backs/set1/green.gif","img/card_backs/set2/orange.gif","img/card_backs/set2/blue.gif","img/card_backs/set2/pink.gif","img/card_backs/set2/gray.gif","""event"",""trial"",""time""
""fullscreenenter"",""1"",""19393""
","
","
","""event"",""trial"",""time""
""fullscreenenter"",""1"",""19393""
","
","","null","","null","","fixation","2021-04-04 15:57:23.992","","","","","",""
"card-selection-trial","101","418581","0.0-25.0-1.14","A896","true","img/card_backs/set1/purple.gif","img/card_backs/set1/red.gif","img/card_backs/set1/yellow.gif","img/card_backs/set1/green.gif","img/card_backs/set2/orange.gif","img/card_backs/set2/blue.gif","img/card_backs/set2/pink.gif","img/card_backs/set2/gray.gif","""event"",""trial"",""time""
""fullscreenenter"",""1"",""19393""
","
","
","""event"",""trial"",""time""
""fullscreenenter"",""1"",""19393""
","
","","468.2299999985844","","","","real_trial","2021-04-04 15:57:26.471","img/card_backs/set1/purple.gif","0","-210","1","",""
"casino-fixation","102","419085","0.0-25.0-0.15","A896","true","img/card_backs/set1/purple.gif","img/card_backs/set1/red.gif","img/card_backs/set1/yellow.gif","img/card_backs/set1/green.gif","img/card_backs/set2/orange.gif","img/card_backs/set2/blue.gif","img/card_backs/set2/pink.gif","img/card_backs/set2/gray.gif","""event"",""trial"",""time""
""fullscreenenter"",""1"",""19393""
","
","
","""event"",""trial"",""time""
""fullscreenenter"",""1"",""19393""
","
","","null","","null","","fixation","2021-04-04 15:57:26.975","","","","","",""
"card-selection-trial","103","422209","0.0-25.0-1.15","A896","true","img/card_backs/set1/purple.gif","img/card_backs/set1/red.gif","img/card_backs/set1/yellow.gif","img/card_backs/set1/green.gif","img/card_backs/set2/orange.gif","img/card_backs/set2/blue.gif","img/card_backs/set2/pink.gif","img/card_backs/set2/gray.gif","""event"",""trial"",""time""
""fullscreenenter"",""1"",""19393""
","
","
","""event"",""trial"",""time""
""fullscreenenter"",""1"",""19393""
","
","","1114.5150000229478","","","","real_trial","2021-04-04 15:57:30.099","img/card_backs/set1/green.gif","3","-110","1","",""
"casino-fixation","104","422714","0.0-25.0-0.16","A896","true","img/card_backs/set1/purple.gif","img/card_backs/set1/red.gif","img/card_backs/set1/yellow.gif","img/card_backs/set1/green.gif","img/card_backs/set2/orange.gif","img/card_backs/set2/blue.gif","img/card_backs/set2/pink.gif","img/card_backs/set2/gray.gif","""event"",""trial"",""time""
""fullscreenenter"",""1"",""19393""
","
","
","""event"",""trial"",""time""
""fullscreenenter"",""1"",""19393""
","
","","null","","null","","fixation","2021-04-04 15:57:30.604","","","","","",""
"card-selection-trial","105","425849","0.0-25.0-1.16","A896","true","img/card_backs/set1/purple.gif","img/card_backs/set1/red.gif","img/card_backs/set1/yellow.gif","img/card_backs/set1/green.gif","img/card_backs/set2/orange.gif","img/card_backs/set2/blue.gif","img/card_backs/set2/pink.gif","img/card_backs/set2/gray.gif","""event"",""trial"",""time""
""fullscreenenter"",""1"",""19393""
","
","
","""event"",""trial"",""time""
""fullscreenenter"",""1"",""19393""
","
","","1124.245000013616","","","","real_trial","2021-04-04 15:57:33.739","img/card_backs/set1/green.gif","1","-100","1","",""
"casino-fixation","106","426353","0.0-25.0-0.17","A896","true","img/card_backs/set1/purple.gif","img/card_backs/set1/red.gif","img/card_backs/set1/yellow.gif","img/card_backs/set1/green.gif","img/card_backs/set2/orange.gif","img/card_backs/set2/blue.gif","img/card_backs/set2/pink.gif","img/card_backs/set2/gray.gif","""event"",""trial"",""time""
""fullscreenenter"",""1"",""19393""
","
","
","""event"",""trial"",""time""
""fullscreenenter"",""1"",""19393""
","
","","null","","null","","fixation","2021-04-04 15:57:34.244","","","","","",""
"card-selection-trial","107","429347","0.0-25.0-1.17","A896","true","img/card_backs/set1/purple.gif","img/card_backs/set1/red.gif","img/card_backs/set1/yellow.gif","img/card_backs/set1/green.gif","img/card_backs/set2/orange.gif","img/card_backs/set2/blue.gif","img/card_backs/set2/pink.gif","img/card_backs/set2/gray.gif","""event"",""trial"",""time""
""fullscreenenter"",""1"",""19393""
","
","
","""event"",""trial"",""time""
""fullscreenenter"",""1"",""19393""
","
","","984.4349999912083","","","","real_trial","2021-04-04 15:57:37.237","img/card_backs/set1/yellow.gif","1","-100","1","",""
"casino-fixation","108","429854","0.0-25.0-0.18","A896","true","img/card_backs/set1/purple.gif","img/card_backs/set1/red.gif","img/card_backs/set1/yellow.gif","img/card_backs/set1/green.gif","img/card_backs/set2/orange.gif","img/card_backs/set2/blue.gif","img/card_backs/set2/pink.gif","img/card_backs/set2/gray.gif","""event"",""trial"",""time""
""fullscreenenter"",""1"",""19393""
","
","
","""event"",""trial"",""time""
""fullscreenenter"",""1"",""19393""
","
","","null","","null","","fixation","2021-04-04 15:57:37.744","","","","","",""
"card-selection-trial","109","433067","0.0-25.0-1.18","A896","true","img/card_backs/set1/purple.gif","img/card_backs/set1/red.gif","img/card_backs/set1/yellow.gif","img/card_backs/set1/green.gif","img/card_backs/set2/orange.gif","img/card_backs/set2/blue.gif","img/card_backs/set2/pink.gif","img/card_backs/set2/gray.gif","""event"",""trial"",""time""
""fullscreenenter"",""1"",""19393""
","
","
","""event"",""trial"",""time""
""fullscreenenter"",""1"",""19393""
","
","","1202.5349999894388","","","","real_trial","2021-04-04 15:57:40.957","img/card_backs/set1/purple.gif","0","-190","1","",""
"casino-fixation","110","433569","0.0-25.0-0.19","A896","true","img/card_backs/set1/purple.gif","img/card_backs/set1/red.gif","img/card_backs/set1/yellow.gif","img/card_backs/set1/green.gif","img/card_backs/set2/orange.gif","img/card_backs/set2/blue.gif","img/card_backs/set2/pink.gif","img/card_backs/set2/gray.gif","""event"",""trial"",""time""
""fullscreenenter"",""1"",""19393""
","
","
","""event"",""trial"",""time""
""fullscreenenter"",""1"",""19393""
","
","","null","","null","","fixation","2021-04-04 15:57:41.459","","","","","",""
"card-selection-trial","111","436025","0.0-25.0-1.19","A896","true","img/card_backs/set1/purple.gif","img/card_backs/set1/red.gif","img/card_backs/set1/yellow.gif","img/card_backs/set1/green.gif","img/card_backs/set2/orange.gif","img/card_backs/set2/blue.gif","img/card_backs/set2/pink.gif","img/card_backs/set2/gray.gif","""event"",""trial"",""time""
""fullscreenenter"",""1"",""19393""
","
","
","""event"",""trial"",""time""
""fullscreenenter"",""1"",""19393""
","
","","441.97499996516854","","","","real_trial","2021-04-04 15:57:43.915","img/card_backs/set1/purple.gif","0","250","1","",""
"casino-fixation","112","436530","0.0-25.0-0.20","A896","true","img/card_backs/set1/purple.gif","img/card_backs/set1/red.gif","img/card_backs/set1/yellow.gif","img/card_backs/set1/green.gif","img/card_backs/set2/orange.gif","img/card_backs/set2/blue.gif","img/card_backs/set2/pink.gif","img/card_backs/set2/gray.gif","""event"",""trial"",""time""
""fullscreenenter"",""1"",""19393""
","
","
","""event"",""trial"",""time""
""fullscreenenter"",""1"",""19393""
","
","","null","","null","","fixation","2021-04-04 15:57:44.420","","","","","",""
"card-selection-trial","113","440228","0.0-25.0-1.20","A896","true","img/card_backs/set1/purple.gif","img/card_backs/set1/red.gif","img/card_backs/set1/yellow.gif","img/card_backs/set1/green.gif","img/card_backs/set2/orange.gif","img/card_backs/set2/blue.gif","img/card_backs/set2/pink.gif","img/card_backs/set2/gray.gif","""event"",""trial"",""time""
""fullscreenenter"",""1"",""19393""
","
","
","""event"",""trial"",""time""
""fullscreenenter"",""1"",""19393""
","
","","1687.2500000172295","","","","real_trial","2021-04-04 15:57:48.118","img/card_backs/set1/red.gif","3","250","1","",""
"casino-fixation","114","440735","0.0-25.0-0.21","A896","true","img/card_backs/set1/purple.gif","img/card_backs/set1/red.gif","img/card_backs/set1/yellow.gif","img/card_backs/set1/green.gif","img/card_backs/set2/orange.gif","img/card_backs/set2/blue.gif","img/card_backs/set2/pink.gif","img/card_backs/set2/gray.gif","""event"",""trial"",""time""
""fullscreenenter"",""1"",""19393""
","
","
","""event"",""trial"",""time""
""fullscreenenter"",""1"",""19393""
","
","","null","","null","","fixation","2021-04-04 15:57:48.625","","","","","",""
"card-selection-trial","115","443851","0.0-25.0-1.21","A896","true","img/card_backs/set1/purple.gif","img/card_backs/set1/red.gif","img/card_backs/set1/yellow.gif","img/card_backs/set1/green.gif","img/card_backs/set2/orange.gif","img/card_backs/set2/blue.gif","img/card_backs/set2/pink.gif","img/card_backs/set2/gray.gif","""event"",""trial"",""time""
""fullscreenenter"",""1"",""19393""
","
","
","""event"",""trial"",""time""
""fullscreenenter"",""1"",""19393""
","
","","1102.599999983795","","","","real_trial","2021-04-04 15:57:51.741","img/card_backs/set1/purple.gif","1","250","1","",""
"casino-fixation","116","444355","0.0-25.0-0.22","A896","true","img/card_backs/set1/purple.gif","img/card_backs/set1/red.gif","img/card_backs/set1/yellow.gif","img/card_backs/set1/green.gif","img/card_backs/set2/orange.gif","img/card_backs/set2/blue.gif","img/card_backs/set2/pink.gif","img/card_backs/set2/gray.gif","""event"",""trial"",""time""
""fullscreenenter"",""1"",""19393""
","
","
","""event"",""trial"",""time""
""fullscreenenter"",""1"",""19393""
","
","","null","","null","","fixation","2021-04-04 15:57:52.245","","","","","",""
"card-selection-trial","117","448154","0.0-25.0-1.22","A896","true","img/card_backs/set1/purple.gif","img/card_backs/set1/red.gif","img/card_backs/set1/yellow.gif","img/card_backs/set1/green.gif","img/card_backs/set2/orange.gif","img/card_backs/set2/blue.gif","img/card_backs/set2/pink.gif","img/card_backs/set2/gray.gif","""event"",""trial"",""time""
""fullscreenenter"",""1"",""19393""
","
","
","""event"",""trial"",""time""
""fullscreenenter"",""1"",""19393""
","
","","1788.384999963455","","","","real_trial","2021-04-04 15:57:56.044","img/card_backs/set1/red.gif","0","-200","1","",""
"casino-fixation","118","448660","0.0-25.0-0.23","A896","true","img/card_backs/set1/purple.gif","img/card_backs/set1/red.gif","img/card_backs/set1/yellow.gif","img/card_backs/set1/green.gif","img/card_backs/set2/orange.gif","img/card_backs/set2/blue.gif","img/card_backs/set2/pink.gif","img/card_backs/set2/gray.gif","""event"",""trial"",""time""
""fullscreenenter"",""1"",""19393""
","
","
","""event"",""trial"",""time""
""fullscreenenter"",""1"",""19393""
","
","","null","","null","","fixation","2021-04-04 15:57:56.550","","","","","",""
"card-selection-trial","119","451142","0.0-25.0-1.23","A896","true","img/card_backs/set1/purple.gif","img/card_backs/set1/red.gif","img/card_backs/set1/yellow.gif","img/card_backs/set1/green.gif","img/card_backs/set2/orange.gif","img/card_backs/set2/blue.gif","img/card_backs/set2/pink.gif","img/card_backs/set2/gray.gif","""event"",""trial"",""time""
""fullscreenenter"",""1"",""19393""
","
","
","""event"",""trial"",""time""
""fullscreenenter"",""1"",""19393""
","
","","468.265000032261","","","","real_trial","2021-04-04 15:57:59.032","img/card_backs/set1/purple.gif","3","-210","1","",""
"casino-fixation","120","451643","0.0-25.0-0.24","A896","true","img/card_backs/set1/purple.gif","img/card_backs/set1/red.gif","img/card_backs/set1/yellow.gif","img/card_backs/set1/green.gif","img/card_backs/set2/orange.gif","img/card_backs/set2/blue.gif","img/card_backs/set2/pink.gif","img/card_backs/set2/gray.gif","""event"",""trial"",""time""
""fullscreenenter"",""1"",""19393""
","
","
","""event"",""trial"",""time""
""fullscreenenter"",""1"",""19393""
","
","","null","","null","","fixation","2021-04-04 15:57:59.533","","","","","",""
"card-selection-trial","121","454608","0.0-25.0-1.24","A896","true","img/card_backs/set1/purple.gif","img/card_backs/set1/red.gif","img/card_backs/set1/yellow.gif","img/card_backs/set1/green.gif","img/card_backs/set2/orange.gif","img/card_backs/set2/blue.gif","img/card_backs/set2/pink.gif","img/card_backs/set2/gray.gif","""event"",""trial"",""time""
""fullscreenenter"",""1"",""19393""
","
","
","""event"",""trial"",""time""
""fullscreenenter"",""1"",""19393""
","
","","959.5850000041537","","","","real_trial","2021-04-04 15:58:02.498","img/card_backs/set1/red.gif","3","240","1","",""
"casino-fixation","122","455112","0.0-25.0-0.25","A896","true","img/card_backs/set1/purple.gif","img/card_backs/set1/red.gif","img/card_backs/set1/yellow.gif","img/card_backs/set1/green.gif","img/card_backs/set2/orange.gif","img/card_backs/set2/blue.gif","img/card_backs/set2/pink.gif","img/card_backs/set2/gray.gif","""event"",""trial"",""time""
""fullscreenenter"",""1"",""19393""
","
","
","""event"",""trial"",""time""
""fullscreenenter"",""1"",""19393""
","
","","null","","null","","fixation","2021-04-04 15:58:03.002","","","","","",""
"card-selection-trial","123","458340","0.0-25.0-1.25","A896","true","img/card_backs/set1/purple.gif","img/card_backs/set1/red.gif","img/card_backs/set1/yellow.gif","img/card_backs/set1/green.gif","img/card_backs/set2/orange.gif","img/card_backs/set2/blue.gif","img/card_backs/set2/pink.gif","img/card_backs/set2/gray.gif","""event"",""trial"",""time""
""fullscreenenter"",""1"",""19393""
","
","
","""event"",""trial"",""time""
""fullscreenenter"",""1"",""19393""
","
","","1218.5450000106357","","","","real_trial","2021-04-04 15:58:06.230","img/card_backs/set1/yellow.gif","2","-110","1","",""
"casino-fixation","124","458845","0.0-25.0-0.26","A896","true","img/card_backs/set1/purple.gif","img/card_backs/set1/red.gif","img/card_backs/set1/yellow.gif","img/card_backs/set1/green.gif","img/card_backs/set2/orange.gif","img/card_backs/set2/blue.gif","img/card_backs/set2/pink.gif","img/card_backs/set2/gray.gif","""event"",""trial"",""time""
""fullscreenenter"",""1"",""19393""
","
","
","""event"",""trial"",""time""
""fullscreenenter"",""1"",""19393""
","
","","null","","null","","fixation","2021-04-04 15:58:06.735","","","","","",""
"card-selection-trial","125","462264","0.0-25.0-1.26","A896","true","img/card_backs/set1/purple.gif","img/card_backs/set1/red.gif","img/card_backs/set1/yellow.gif","img/card_backs/set1/green.gif","img/card_backs/set2/orange.gif","img/card_backs/set2/blue.gif","img/card_backs/set2/pink.gif","img/card_backs/set2/gray.gif","""event"",""trial"",""time""
""fullscreenenter"",""1"",""19393""
","
","
","""event"",""trial"",""time""
""fullscreenenter"",""1"",""19393""
","
","","1405.4800000158139","","","","real_trial","2021-04-04 15:58:10.154","img/card_backs/set1/purple.gif","0","-210","1","",""
"casino-fixation","126","462770","0.0-25.0-0.27","A896","true","img/card_backs/set1/purple.gif","img/card_backs/set1/red.gif","img/card_backs/set1/yellow.gif","img/card_backs/set1/green.gif","img/card_backs/set2/orange.gif","img/card_backs/set2/blue.gif","img/card_backs/set2/pink.gif","img/card_backs/set2/gray.gif","""event"",""trial"",""time""
""fullscreenenter"",""1"",""19393""
","
","
","""event"",""trial"",""time""
""fullscreenenter"",""1"",""19393""
","
","","null","","null","","fixation","2021-04-04 15:58:10.660","","","","","",""
"card-selection-trial","127","465654","0.0-25.0-1.27","A896","true","img/card_backs/set1/purple.gif","img/card_backs/set1/red.gif","img/card_backs/set1/yellow.gif","img/card_backs/set1/green.gif","img/card_backs/set2/orange.gif","img/card_backs/set2/blue.gif","img/card_backs/set2/pink.gif","img/card_backs/set2/gray.gif","""event"",""trial"",""time""
""fullscreenenter"",""1"",""19393""
","
","
","""event"",""trial"",""time""
""fullscreenenter"",""1"",""19393""
","
","","870.2049999847077","","","","real_trial","2021-04-04 15:58:13.544","img/card_backs/set1/purple.gif","2","260","1","",""
"casino-fixation","128","466159","0.0-25.0-0.28","A896","true","img/card_backs/set1/purple.gif","img/card_backs/set1/red.gif","img/card_backs/set1/yellow.gif","img/card_backs/set1/green.gif","img/card_backs/set2/orange.gif","img/card_backs/set2/blue.gif","img/card_backs/set2/pink.gif","img/card_backs/set2/gray.gif","""event"",""trial"",""time""
""fullscreenenter"",""1"",""19393""
","
","
","""event"",""trial"",""time""
""fullscreenenter"",""1"",""19393""
","
","","null","","null","","fixation","2021-04-04 15:58:14.050","","","","","",""
"card-selection-trial","129","469219","0.0-25.0-1.28","A896","true","img/card_backs/set1/purple.gif","img/card_backs/set1/red.gif","img/card_backs/set1/yellow.gif","img/card_backs/set1/green.gif","img/card_backs/set2/orange.gif","img/card_backs/set2/blue.gif","img/card_backs/set2/pink.gif","img/card_backs/set2/gray.gif","""event"",""trial"",""time""
""fullscreenenter"",""1"",""19393""
","
","
","""event"",""trial"",""time""
""fullscreenenter"",""1"",""19393""
","
","","1050.4199999850243","","","","real_trial","2021-04-04 15:58:17.109","img/card_backs/set1/yellow.gif","1","-110","1","",""
"casino-fixation","130","469723","0.0-25.0-0.29","A896","true","img/card_backs/set1/purple.gif","img/card_backs/set1/red.gif","img/card_backs/set1/yellow.gif","img/card_backs/set1/green.gif","img/card_backs/set2/orange.gif","img/card_backs/set2/blue.gif","img/card_backs/set2/pink.gif","img/card_backs/set2/gray.gif","""event"",""trial"",""time""
""fullscreenenter"",""1"",""19393""
","
","
","""event"",""trial"",""time""
""fullscreenenter"",""1"",""19393""
","
","","null","","null","","fixation","2021-04-04 15:58:17.613","","","","","",""
"card-selection-trial","131","472063","0.0-25.0-1.29","A896","true","img/card_backs/set1/purple.gif","img/card_backs/set1/red.gif","img/card_backs/set1/yellow.gif","img/card_backs/set1/green.gif","img/card_backs/set2/orange.gif","img/card_backs/set2/blue.gif","img/card_backs/set2/pink.gif","img/card_backs/set2/gray.gif","""event"",""trial"",""time""
""fullscreenenter"",""1"",""19393""
","
","
","""event"",""trial"",""time""
""fullscreenenter"",""1"",""19393""
","
","","326.8650000100024","","","","real_trial","2021-04-04 15:58:19.953","img/card_backs/set1/green.gif","0","-90","1","",""
"casino-fixation","132","472568","0.0-25.0-0.30","A896","true","img/card_backs/set1/purple.gif","img/card_backs/set1/red.gif","img/card_backs/set1/yellow.gif","img/card_backs/set1/green.gif","img/card_backs/set2/orange.gif","img/card_backs/set2/blue.gif","img/card_backs/set2/pink.gif","img/card_backs/set2/gray.gif","""event"",""trial"",""time""
""fullscreenenter"",""1"",""19393""
","
","
","""event"",""trial"",""time""
""fullscreenenter"",""1"",""19393""
","
","","null","","null","","fixation","2021-04-04 15:58:20.458","","","","","",""
"card-selection-trial","133","474984","0.0-25.0-1.30","A896","true","img/card_backs/set1/purple.gif","img/card_backs/set1/red.gif","img/card_backs/set1/yellow.gif","img/card_backs/set1/green.gif","img/card_backs/set2/orange.gif","img/card_backs/set2/blue.gif","img/card_backs/set2/pink.gif","img/card_backs/set2/gray.gif","""event"",""trial"",""time""
""fullscreenenter"",""1"",""19393""
","
","
","""event"",""trial"",""time""
""fullscreenenter"",""1"",""19393""
","
","","407.05500001786277","","","","real_trial","2021-04-04 15:58:22.874","img/card_backs/set1/green.gif","0","-110","1","",""
"casino-fixation","134","475488","0.0-25.0-0.31","A896","true","img/card_backs/set1/purple.gif","img/card_backs/set1/red.gif","img/card_backs/set1/yellow.gif","img/card_backs/set1/green.gif","img/card_backs/set2/orange.gif","img/card_backs/set2/blue.gif","img/card_backs/set2/pink.gif","img/card_backs/set2/gray.gif","""event"",""trial"",""time""
""fullscreenenter"",""1"",""19393""
","
","
","""event"",""trial"",""time""
""fullscreenenter"",""1"",""19393""
","
","","null","","null","","fixation","2021-04-04 15:58:23.378","","","","","",""
"card-selection-trial","135","477985","0.0-25.0-1.31","A896","true","img/card_backs/set1/purple.gif","img/card_backs/set1/red.gif","img/card_backs/set1/yellow.gif","img/card_backs/set1/green.gif","img/card_backs/set2/orange.gif","img/card_backs/set2/blue.gif","img/card_backs/set2/pink.gif","img/card_backs/set2/gray.gif","""event"",""trial"",""time""
""fullscreenenter"",""1"",""19393""
","
","
","""event"",""trial"",""time""
""fullscreenenter"",""1"",""19393""
","
","","483.3449999568984","","","","real_trial","2021-04-04 15:58:25.875","img/card_backs/set1/green.gif","3","-90","1","",""
"casino-fixation","136","478490","0.0-25.0-0.32","A896","true","img/card_backs/set1/purple.gif","img/card_backs/set1/red.gif","img/card_backs/set1/yellow.gif","img/card_backs/set1/green.gif","img/card_backs/set2/orange.gif","img/card_backs/set2/blue.gif","img/card_backs/set2/pink.gif","img/card_backs/set2/gray.gif","""event"",""trial"",""time""
""fullscreenenter"",""1"",""19393""
","
","
","""event"",""trial"",""time""
""fullscreenenter"",""1"",""19393""
","
","","null","","null","","fixation","2021-04-04 15:58:26.380","","","","","",""
"card-selection-trial","137","481892","0.0-25.0-1.32","A896","true","img/card_backs/set1/purple.gif","img/card_backs/set1/red.gif","img/card_backs/set1/yellow.gif","img/card_backs/set1/green.gif","img/card_backs/set2/orange.gif","img/card_backs/set2/blue.gif","img/card_backs/set2/pink.gif","img/card_backs/set2/gray.gif","""event"",""trial"",""time""
""fullscreenenter"",""1"",""19393""
","
","
","""event"",""trial"",""time""
""fullscreenenter"",""1"",""19393""
","
","","1393.309999955818","","","","real_trial","2021-04-04 15:58:29.782","img/card_backs/set1/purple.gif","3","250","1","",""
"casino-fixation","138","482396","0.0-25.0-0.33","A896","true","img/card_backs/set1/purple.gif","img/card_backs/set1/red.gif","img/card_backs/set1/yellow.gif","img/card_backs/set1/green.gif","img/card_backs/set2/orange.gif","img/card_backs/set2/blue.gif","img/card_backs/set2/pink.gif","img/card_backs/set2/gray.gif","""event"",""trial"",""time""
""fullscreenenter"",""1"",""19393""
","
","
","""event"",""trial"",""time""
""fullscreenenter"",""1"",""19393""
","
","","null","","null","","fixation","2021-04-04 15:58:30.287","","","","","",""
"card-selection-trial","139","485228","0.0-25.0-1.33","A896","true","img/card_backs/set1/purple.gif","img/card_backs/set1/red.gif","img/card_backs/set1/yellow.gif","img/card_backs/set1/green.gif","img/card_backs/set2/orange.gif","img/card_backs/set2/blue.gif","img/card_backs/set2/pink.gif","img/card_backs/set2/gray.gif","""event"",""trial"",""time""
""fullscreenenter"",""1"",""19393""
","
","
","""event"",""trial"",""time""
""fullscreenenter"",""1"",""19393""
","
","","820.8450000383891","","","","real_trial","2021-04-04 15:58:33.118","img/card_backs/set1/red.gif","1","260","1","",""
"casino-fixation","140","485734","0.0-25.0-0.34","A896","true","img/card_backs/set1/purple.gif","img/card_backs/set1/red.gif","img/card_backs/set1/yellow.gif","img/card_backs/set1/green.gif","img/card_backs/set2/orange.gif","img/card_backs/set2/blue.gif","img/card_backs/set2/pink.gif","img/card_backs/set2/gray.gif","""event"",""trial"",""time""
""fullscreenenter"",""1"",""19393""
","
","
","""event"",""trial"",""time""
""fullscreenenter"",""1"",""19393""
","
","","null","","null","","fixation","2021-04-04 15:58:33.625","","","","","",""
"card-selection-trial","141","488145","0.0-25.0-1.34","A896","true","img/card_backs/set1/purple.gif","img/card_backs/set1/red.gif","img/card_backs/set1/yellow.gif","img/card_backs/set1/green.gif","img/card_backs/set2/orange.gif","img/card_backs/set2/blue.gif","img/card_backs/set2/pink.gif","img/card_backs/set2/gray.gif","""event"",""trial"",""time""
""fullscreenenter"",""1"",""19393""
","
","
","""event"",""trial"",""time""
""fullscreenenter"",""1"",""19393""
","
","","400.74499999172986","","","","real_trial","2021-04-04 15:58:36.035","img/card_backs/set1/red.gif","0","-210","1","",""
"casino-fixation","142","488649","0.0-25.0-0.35","A896","true","img/card_backs/set1/purple.gif","img/card_backs/set1/red.gif","img/card_backs/set1/yellow.gif","img/card_backs/set1/green.gif","img/card_backs/set2/orange.gif","img/card_backs/set2/blue.gif","img/card_backs/set2/pink.gif","img/card_backs/set2/gray.gif","""event"",""trial"",""time""
""fullscreenenter"",""1"",""19393""
","
","
","""event"",""trial"",""time""
""fullscreenenter"",""1"",""19393""
","
","","null","","null","","fixation","2021-04-04 15:58:36.539","","","","","",""
"card-selection-trial","143","491877","0.0-25.0-1.35","A896","true","img/card_backs/set1/purple.gif","img/card_backs/set1/red.gif","img/card_backs/set1/yellow.gif","img/card_backs/set1/green.gif","img/card_backs/set2/orange.gif","img/card_backs/set2/blue.gif","img/card_backs/set2/pink.gif","img/card_backs/set2/gray.gif","""event"",""trial"",""time""
""fullscreenenter"",""1"",""19393""
","
","
","""event"",""trial"",""time""
""fullscreenenter"",""1"",""19393""
","
","","1218.4700000216253","","","","real_trial","2021-04-04 15:58:39.767","img/card_backs/set1/yellow.gif","3","60","1","",""
"casino-fixation","144","492381","0.0-25.0-0.36","A896","true","img/card_backs/set1/purple.gif","img/card_backs/set1/red.gif","img/card_backs/set1/yellow.gif","img/card_backs/set1/green.gif","img/card_backs/set2/orange.gif","img/card_backs/set2/blue.gif","img/card_backs/set2/pink.gif","img/card_backs/set2/gray.gif","""event"",""trial"",""time""
""fullscreenenter"",""1"",""19393""
","
","
","""event"",""trial"",""time""
""fullscreenenter"",""1"",""19393""
","
","","null","","null","","fixation","2021-04-04 15:58:40.271","","","","","",""
"card-selection-trial","145","495377","0.0-25.0-1.36","A896","true","img/card_backs/set1/purple.gif","img/card_backs/set1/red.gif","img/card_backs/set1/yellow.gif","img/card_backs/set1/green.gif","img/card_backs/set2/orange.gif","img/card_backs/set2/blue.gif","img/card_backs/set2/pink.gif","img/card_backs/set2/gray.gif","""event"",""trial"",""time""
""fullscreenenter"",""1"",""19393""
","
","
","""event"",""trial"",""time""
""fullscreenenter"",""1"",""19393""
","
","","982.4549999902956","","","","real_trial","2021-04-04 15:58:43.267","img/card_backs/set1/red.gif","0","250","1","",""
"casino-fixation","146","495885","0.0-25.0-0.37","A896","true","img/card_backs/set1/purple.gif","img/card_backs/set1/red.gif","img/card_backs/set1/yellow.gif","img/card_backs/set1/green.gif","img/card_backs/set2/orange.gif","img/card_backs/set2/blue.gif","img/card_backs/set2/pink.gif","img/card_backs/set2/gray.gif","""event"",""trial"",""time""
""fullscreenenter"",""1"",""19393""
","
","
","""event"",""trial"",""time""
""fullscreenenter"",""1"",""19393""
","
","","null","","null","","fixation","2021-04-04 15:58:43.775","","","","","",""
"card-selection-trial","147","498428","0.0-25.0-1.37","A896","true","img/card_backs/set1/purple.gif","img/card_backs/set1/red.gif","img/card_backs/set1/yellow.gif","img/card_backs/set1/green.gif","img/card_backs/set2/orange.gif","img/card_backs/set2/blue.gif","img/card_backs/set2/pink.gif","img/card_backs/set2/gray.gif","""event"",""trial"",""time""
""fullscreenenter"",""1"",""19393""
","
","
","""event"",""trial"",""time""
""fullscreenenter"",""1"",""19393""
","
","","529.62500002468","","","","real_trial","2021-04-04 15:58:46.318","img/card_backs/set1/purple.gif","1","-200","1","",""
"casino-fixation","148","498931","0.0-25.0-0.38","A896","true","img/card_backs/set1/purple.gif","img/card_backs/set1/red.gif","img/card_backs/set1/yellow.gif","img/card_backs/set1/green.gif","img/card_backs/set2/orange.gif","img/card_backs/set2/blue.gif","img/card_backs/set2/pink.gif","img/card_backs/set2/gray.gif","""event"",""trial"",""time""
""fullscreenenter"",""1"",""19393""
","
","
","""event"",""trial"",""time""
""fullscreenenter"",""1"",""19393""
","
","","null","","null","","fixation","2021-04-04 15:58:46.821","","","","","",""
"card-selection-trial","149","501832","0.0-25.0-1.38","A896","true","img/card_backs/set1/purple.gif","img/card_backs/set1/red.gif","img/card_backs/set1/yellow.gif","img/card_backs/set1/green.gif","img/card_backs/set2/orange.gif","img/card_backs/set2/blue.gif","img/card_backs/set2/pink.gif","img/card_backs/set2/gray.gif","""event"",""trial"",""time""
""fullscreenenter"",""1"",""19393""
","
","
","""event"",""trial"",""time""
""fullscreenenter"",""1"",""19393""
","
","","888.0849999841303","","","","real_trial","2021-04-04 15:58:49.722","img/card_backs/set1/purple.gif","2","-200","1","",""
"casino-fixation","150","502337","0.0-25.0-0.39","A896","true","img/card_backs/set1/purple.gif","img/card_backs/set1/red.gif","img/card_backs/set1/yellow.gif","img/card_backs/set1/green.gif","img/card_backs/set2/orange.gif","img/card_backs/set2/blue.gif","img/card_backs/set2/pink.gif","img/card_backs/set2/gray.gif","""event"",""trial"",""time""
""fullscreenenter"",""1"",""19393""
","
","
","""event"",""trial"",""time""
""fullscreenenter"",""1"",""19393""
","
","","null","","null","","fixation","2021-04-04 15:58:50.227","","","","","",""
"card-selection-trial","151","505466","0.0-25.0-1.39","A896","true","img/card_backs/set1/purple.gif","img/card_backs/set1/red.gif","img/card_backs/set1/yellow.gif","img/card_backs/set1/green.gif","img/card_backs/set2/orange.gif","img/card_backs/set2/blue.gif","img/card_backs/set2/pink.gif","img/card_backs/set2/gray.gif","""event"",""trial"",""time""
""fullscreenenter"",""1"",""19393""
","
","
","""event"",""trial"",""time""
""fullscreenenter"",""1"",""19393""
","
","","1115.685000026133","","","","real_trial","2021-04-04 15:58:53.356","img/card_backs/set1/purple.gif","1","260","1","",""
"casino-fixation","152","505971","0.0-25.0-0.40","A896","true","img/card_backs/set1/purple.gif","img/card_backs/set1/red.gif","img/card_backs/set1/yellow.gif","img/card_backs/set1/green.gif","img/card_backs/set2/orange.gif","img/card_backs/set2/blue.gif","img/card_backs/set2/pink.gif","img/card_backs/set2/gray.gif","""event"",""trial"",""time""
""fullscreenenter"",""1"",""19393""
","
","
","""event"",""trial"",""time""
""fullscreenenter"",""1"",""19393""
","
","","null","","null","","fixation","2021-04-04 15:58:53.861","","","","","",""
"card-selection-trial","153","509254","0.0-25.0-1.40","A896","true","img/card_backs/set1/purple.gif","img/card_backs/set1/red.gif","img/card_backs/set1/yellow.gif","img/card_backs/set1/green.gif","img/card_backs/set2/orange.gif","img/card_backs/set2/blue.gif","img/card_backs/set2/pink.gif","img/card_backs/set2/gray.gif","""event"",""trial"",""time""
""fullscreenenter"",""1"",""19393""
","
","
","""event"",""trial"",""time""
""fullscreenenter"",""1"",""19393""
","
","","1270.6699999980628","","","","real_trial","2021-04-04 15:58:57.144","img/card_backs/set1/red.gif","2","260","1","",""
"casino-fixation","154","509756","0.0-25.0-0.41","A896","true","img/card_backs/set1/purple.gif","img/card_backs/set1/red.gif","img/card_backs/set1/yellow.gif","img/card_backs/set1/green.gif","img/card_backs/set2/orange.gif","img/card_backs/set2/blue.gif","img/card_backs/set2/pink.gif","img/card_backs/set2/gray.gif","""event"",""trial"",""time""
""fullscreenenter"",""1"",""19393""
","
","
","""event"",""trial"",""time""
""fullscreenenter"",""1"",""19393""
","
","","null","","null","","fixation","2021-04-04 15:58:57.646","","","","","",""
"card-selection-trial","155","513942","0.0-25.0-1.41","A896","true","img/card_backs/set1/purple.gif","img/card_backs/set1/red.gif","img/card_backs/set1/yellow.gif","img/card_backs/set1/green.gif","img/card_backs/set2/orange.gif","img/card_backs/set2/blue.gif","img/card_backs/set2/pink.gif","img/card_backs/set2/gray.gif","""event"",""trial"",""time""
""fullscreenenter"",""1"",""19393""
","
","
","""event"",""trial"",""time""
""fullscreenenter"",""1"",""19393""
","
","","2172.5100000039674","","","","real_trial","2021-04-04 15:59:01.832","img/card_backs/set1/yellow.gif","2","40","1","",""
"casino-fixation","156","514447","0.0-25.0-0.42","A896","true","img/card_backs/set1/purple.gif","img/card_backs/set1/red.gif","img/card_backs/set1/yellow.gif","img/card_backs/set1/green.gif","img/card_backs/set2/orange.gif","img/card_backs/set2/blue.gif","img/card_backs/set2/pink.gif","img/card_backs/set2/gray.gif","""event"",""trial"",""time""
""fullscreenenter"",""1"",""19393""
","
","
","""event"",""trial"",""time""
""fullscreenenter"",""1"",""19393""
","
","","null","","null","","fixation","2021-04-04 15:59:02.337","","","","","",""
"card-selection-trial","157","517251","0.0-25.0-1.42","A896","true","img/card_backs/set1/purple.gif","img/card_backs/set1/red.gif","img/card_backs/set1/yellow.gif","img/card_backs/set1/green.gif","img/card_backs/set2/orange.gif","img/card_backs/set2/blue.gif","img/card_backs/set2/pink.gif","img/card_backs/set2/gray.gif","""event"",""trial"",""time""
""fullscreenenter"",""1"",""19393""
","
","
","""event"",""trial"",""time""
""fullscreenenter"",""1"",""19393""
","
","","791.4599999785423","","","","real_trial","2021-04-04 15:59:05.141","img/card_backs/set1/red.gif","1","-210","1","",""
"casino-fixation","158","517755","0.0-25.0-0.43","A896","true","img/card_backs/set1/purple.gif","img/card_backs/set1/red.gif","img/card_backs/set1/yellow.gif","img/card_backs/set1/green.gif","img/card_backs/set2/orange.gif","img/card_backs/set2/blue.gif","img/card_backs/set2/pink.gif","img/card_backs/set2/gray.gif","""event"",""trial"",""time""
""fullscreenenter"",""1"",""19393""
","
","
","""event"",""trial"",""time""
""fullscreenenter"",""1"",""19393""
","
","","null","","null","","fixation","2021-04-04 15:59:05.645","","","","","",""
"card-selection-trial","159","520542","0.0-25.0-1.43","A896","true","img/card_backs/set1/purple.gif","img/card_backs/set1/red.gif","img/card_backs/set1/yellow.gif","img/card_backs/set1/green.gif","img/card_backs/set2/orange.gif","img/card_backs/set2/blue.gif","img/card_backs/set2/pink.gif","img/card_backs/set2/gray.gif","""event"",""trial"",""time""
""fullscreenenter"",""1"",""19393""
","
","
","""event"",""trial"",""time""
""fullscreenenter"",""1"",""19393""
","
","","772.7550000417978","","","","real_trial","2021-04-04 15:59:08.432","img/card_backs/set1/red.gif","3","-190","1","",""
"casino-fixation","160","521047","0.0-25.0-0.44","A896","true","img/card_backs/set1/purple.gif","img/card_backs/set1/red.gif","img/card_backs/set1/yellow.gif","img/card_backs/set1/green.gif","img/card_backs/set2/orange.gif","img/card_backs/set2/blue.gif","img/card_backs/set2/pink.gif","img/card_backs/set2/gray.gif","""event"",""trial"",""time""
""fullscreenenter"",""1"",""19393""
","
","
","""event"",""trial"",""time""
""fullscreenenter"",""1"",""19393""
","
","","null","","null","","fixation","2021-04-04 15:59:08.937","","","","","",""
"card-selection-trial","161","524612","0.0-25.0-1.44","A896","true","img/card_backs/set1/purple.gif","img/card_backs/set1/red.gif","img/card_backs/set1/yellow.gif","img/card_backs/set1/green.gif","img/card_backs/set2/orange.gif","img/card_backs/set2/blue.gif","img/card_backs/set2/pink.gif","img/card_backs/set2/gray.gif","""event"",""trial"",""time""
""fullscreenenter"",""1"",""19393""
","
","
","""event"",""trial"",""time""
""fullscreenenter"",""1"",""19393""
","
","","1554.4600000139326","","","","real_trial","2021-04-04 15:59:12.502","img/card_backs/set1/purple.gif","3","240","1","",""
"casino-fixation","162","525117","0.0-25.0-0.45","A896","true","img/card_backs/set1/purple.gif","img/card_backs/set1/red.gif","img/card_backs/set1/yellow.gif","img/card_backs/set1/green.gif","img/card_backs/set2/orange.gif","img/card_backs/set2/blue.gif","img/card_backs/set2/pink.gif","img/card_backs/set2/gray.gif","""event"",""trial"",""time""
""fullscreenenter"",""1"",""19393""
","
","
","""event"",""trial"",""time""
""fullscreenenter"",""1"",""19393""
","
","","null","","null","","fixation","2021-04-04 15:59:13.007","","","","","",""
"card-selection-trial","163","527805","0.0-25.0-1.45","A896","true","img/card_backs/set1/purple.gif","img/card_backs/set1/red.gif","img/card_backs/set1/yellow.gif","img/card_backs/set1/green.gif","img/card_backs/set2/orange.gif","img/card_backs/set2/blue.gif","img/card_backs/set2/pink.gif","img/card_backs/set2/gray.gif","""event"",""trial"",""time""
""fullscreenenter"",""1"",""19393""
","
","
","""event"",""trial"",""time""
""fullscreenenter"",""1"",""19393""
","
","","671.7499999795109","","","","real_trial","2021-04-04 15:59:15.695","img/card_backs/set1/yellow.gif","0","-110","1","",""
"casino-fixation","164","528307","0.0-25.0-0.46","A896","true","img/card_backs/set1/purple.gif","img/card_backs/set1/red.gif","img/card_backs/set1/yellow.gif","img/card_backs/set1/green.gif","img/card_backs/set2/orange.gif","img/card_backs/set2/blue.gif","img/card_backs/set2/pink.gif","img/card_backs/set2/gray.gif","""event"",""trial"",""time""
""fullscreenenter"",""1"",""19393""
","
","
","""event"",""trial"",""time""
""fullscreenenter"",""1"",""19393""
","
","","null","","null","","fixation","2021-04-04 15:59:16.198","","","","","",""
"card-selection-trial","165","530962","0.0-25.0-1.46","A896","true","img/card_backs/set1/purple.gif","img/card_backs/set1/red.gif","img/card_backs/set1/yellow.gif","img/card_backs/set1/green.gif","img/card_backs/set2/orange.gif","img/card_backs/set2/blue.gif","img/card_backs/set2/pink.gif","img/card_backs/set2/gray.gif","""event"",""trial"",""time""
""fullscreenenter"",""1"",""19393""
","
","
","""event"",""trial"",""time""
""fullscreenenter"",""1"",""19393""
","
","","642.6249999785796","","","","real_trial","2021-04-04 15:59:18.853","img/card_backs/set1/yellow.gif","2","-110","1","",""
"casino-fixation","166","531468","0.0-25.0-0.47","A896","true","img/card_backs/set1/purple.gif","img/card_backs/set1/red.gif","img/card_backs/set1/yellow.gif","img/card_backs/set1/green.gif","img/card_backs/set2/orange.gif","img/card_backs/set2/blue.gif","img/card_backs/set2/pink.gif","img/card_backs/set2/gray.gif","""event"",""trial"",""time""
""fullscreenenter"",""1"",""19393""
","