"trial_type","trial_index","time_elapsed","internal_node_id","sub_id","risk_good_first","block1_A","block1_B","block1_C","block1_D","block2_A","block2_B","block2_C","block2_D","interactions","blur_events","focus_events","fullscreenenter_events","fullscreenexit_events","success","rt","stimulus","key_press","button_pressed","task_part","timestamp","card_choice","choice_position","points_earned","block","correct","response"
"pavlovia","0","4","0.0-0.0","870","false","img/card_backs/set1/purple.gif","img/card_backs/set1/green.gif","img/card_backs/set1/red.gif","img/card_backs/set1/yellow.gif","img/card_backs/set2/gray.gif","img/card_backs/set2/pink.gif","img/card_backs/set2/orange.gif","img/card_backs/set2/blue.gif","""event"",""trial"",""time""
""fullscreenenter"",""1"",""3517""
","
","
","""event"",""trial"",""time""
""fullscreenenter"",""1"",""3517""
","
","","","","","","","","","","","","",""
"fullscreen","1","4442","0.0-1.0","870","false","img/card_backs/set1/purple.gif","img/card_backs/set1/green.gif","img/card_backs/set1/red.gif","img/card_backs/set1/yellow.gif","img/card_backs/set2/gray.gif","img/card_backs/set2/pink.gif","img/card_backs/set2/orange.gif","img/card_backs/set2/blue.gif","""event"",""trial"",""time""
""fullscreenenter"",""1"",""3517""
","
","
","""event"",""trial"",""time""
""fullscreenenter"",""1"",""3517""
","
","true","","","","","","","","","","","",""
"audio-keyboard-response","2","6895","0.0-2.0","870","false","img/card_backs/set1/purple.gif","img/card_backs/set1/green.gif","img/card_backs/set1/red.gif","img/card_backs/set1/yellow.gif","img/card_backs/set2/gray.gif","img/card_backs/set2/pink.gif","img/card_backs/set2/orange.gif","img/card_backs/set2/blue.gif","""event"",""trial"",""time""
""fullscreenenter"",""1"",""3517""
","
","
","""event"",""trial"",""time""
""fullscreenenter"",""1"",""3517""
","
","","2450","audio/beep_loop.wav","32","","","","","","","","",""
"audio-button-response","3","10067","0.0-3.0","870","false","img/card_backs/set1/purple.gif","img/card_backs/set1/green.gif","img/card_backs/set1/red.gif","img/card_backs/set1/yellow.gif","img/card_backs/set2/gray.gif","img/card_backs/set2/pink.gif","img/card_backs/set2/orange.gif","img/card_backs/set2/blue.gif","""event"",""trial"",""time""
""fullscreenenter"",""1"",""3517""
","
","
","""event"",""trial"",""time""
""fullscreenenter"",""1"",""3517""
","
","","NaN","audio/turtle.mp3","","3","","","","","","","",""
"audio-button-response","4","12677","0.0-4.0","870","false","img/card_backs/set1/purple.gif","img/card_backs/set1/green.gif","img/card_backs/set1/red.gif","img/card_backs/set1/yellow.gif","img/card_backs/set2/gray.gif","img/card_backs/set2/pink.gif","img/card_backs/set2/orange.gif","img/card_backs/set2/blue.gif","""event"",""trial"",""time""
""fullscreenenter"",""1"",""3517""
","
","
","""event"",""trial"",""time""
""fullscreenenter"",""1"",""3517""
","
","","NaN","audio/shark.mp3","","2","","","","","","","",""
"fullscreen","5","15964","0.0-5.0","870","false","img/card_backs/set1/purple.gif","img/card_backs/set1/green.gif","img/card_backs/set1/red.gif","img/card_backs/set1/yellow.gif","img/card_backs/set2/gray.gif","img/card_backs/set2/pink.gif","img/card_backs/set2/orange.gif","img/card_backs/set2/blue.gif","""event"",""trial"",""time""
""fullscreenenter"",""1"",""3517""
","
","
","""event"",""trial"",""time""
""fullscreenenter"",""1"",""3517""
","
","true","","","","","","","","","","","",""
"casino-keyboard-response","6","19890","0.0-6.0-0.0","870","false","img/card_backs/set1/purple.gif","img/card_backs/set1/green.gif","img/card_backs/set1/red.gif","img/card_backs/set1/yellow.gif","img/card_backs/set2/gray.gif","img/card_backs/set2/pink.gif","img/card_backs/set2/orange.gif","img/card_backs/set2/blue.gif","""event"",""trial"",""time""
""fullscreenenter"",""1"",""3517""
","
","
","""event"",""trial"",""time""
""fullscreenenter"",""1"",""3517""
","
","","3924.2999999523163","Welcome to the casino!","71","","instructions","2021-06-25 22:21:01.336","","","","","",""
"casino-keyboard-response","7","29768","0.0-6.0-0.1","870","false","img/card_backs/set1/purple.gif","img/card_backs/set1/green.gif","img/card_backs/set1/red.gif","img/card_backs/set1/yellow.gif","img/card_backs/set2/gray.gif","img/card_backs/set2/pink.gif","img/card_backs/set2/orange.gif","img/card_backs/set2/blue.gif","""event"",""trial"",""time""
""fullscreenenter"",""1"",""3517""
","
","
","""event"",""trial"",""time""
""fullscreenenter"",""1"",""3517""
","
","","9876.699999928474","Today you will be playing a game to earn tokens. </br> At the end of the experiment, you will be paid a bonus based on how many tokens you win. ","69","","instructions","2021-06-25 22:21:11.214","","","","","",""
"casino-keyboard-response","8","37553","0.0-6.0-0.2","870","false","img/card_backs/set1/purple.gif","img/card_backs/set1/green.gif","img/card_backs/set1/red.gif","img/card_backs/set1/yellow.gif","img/card_backs/set2/gray.gif","img/card_backs/set2/pink.gif","img/card_backs/set2/orange.gif","img/card_backs/set2/blue.gif","""event"",""trial"",""time""
""fullscreenenter"",""1"",""3517""
","
","
","""event"",""trial"",""time""
""fullscreenenter"",""1"",""3517""
","
","","7784.199999928474","On every turn, you will be shown four different decks of cards. </br> You need to select a card from one of the four decks.  ","75","","instructions","2021-06-25 22:21:18.999","","","","","",""
"casino-keyboard-response","9","42346","0.0-6.0-0.3","870","false","img/card_backs/set1/purple.gif","img/card_backs/set1/green.gif","img/card_backs/set1/red.gif","img/card_backs/set1/yellow.gif","img/card_backs/set2/gray.gif","img/card_backs/set2/pink.gif","img/card_backs/set2/orange.gif","img/card_backs/set2/blue.gif","""event"",""trial"",""time""
""fullscreenenter"",""1"",""3517""
","
","
","""event"",""trial"",""time""
""fullscreenenter"",""1"",""3517""
","
","","4791.100000023842","On the next screen, you will see what the decks will look like. ","66","","instructions","2021-06-25 22:21:23.792","","","","","",""
"card-selection-trial","10","46352","0.0-7.0-0.0","870","false","img/card_backs/set1/purple.gif","img/card_backs/set1/green.gif","img/card_backs/set1/red.gif","img/card_backs/set1/yellow.gif","img/card_backs/set2/gray.gif","img/card_backs/set2/pink.gif","img/card_backs/set2/orange.gif","img/card_backs/set2/blue.gif","""event"",""trial"",""time""
""fullscreenenter"",""1"",""3517""
","
","
","""event"",""trial"",""time""
""fullscreenenter"",""1"",""3517""
","
","","null","","","","practice","2021-06-25 22:21:27.799","null","null","null","0","",""
"casino-keyboard-response","11","57928","0.0-8.0-0.0","870","false","img/card_backs/set1/purple.gif","img/card_backs/set1/green.gif","img/card_backs/set1/red.gif","img/card_backs/set1/yellow.gif","img/card_backs/set2/gray.gif","img/card_backs/set2/pink.gif","img/card_backs/set2/orange.gif","img/card_backs/set2/blue.gif","""event"",""trial"",""time""
""fullscreenenter"",""1"",""3517""
","
","
","""event"",""trial"",""time""
""fullscreenenter"",""1"",""3517""
","
","","11574.799999952316","You should pick a card from a deck using the '2', '4', '6', and '8' keys at the top of the keyboard.","85","","instructions","2021-06-25 22:21:39.374","","","","","",""
"casino-keyboard-response","12","64003","0.0-8.0-0.1","870","false","img/card_backs/set1/purple.gif","img/card_backs/set1/green.gif","img/card_backs/set1/red.gif","img/card_backs/set1/yellow.gif","img/card_backs/set2/gray.gif","img/card_backs/set2/pink.gif","img/card_backs/set2/orange.gif","img/card_backs/set2/blue.gif","""event"",""trial"",""time""
""fullscreenenter"",""1"",""3517""
","
","
","""event"",""trial"",""time""
""fullscreenenter"",""1"",""3517""
","
","","6073.399999976158","Once you select a card, it will turn over and you will see how many tokens you earned.","83","","instructions","2021-06-25 22:21:45.449","","","","","",""
"casino-keyboard-response","13","79641","0.0-8.0-0.2","870","false","img/card_backs/set1/purple.gif","img/card_backs/set1/green.gif","img/card_backs/set1/red.gif","img/card_backs/set1/yellow.gif","img/card_backs/set2/gray.gif","img/card_backs/set2/pink.gif","img/card_backs/set2/orange.gif","img/card_backs/set2/blue.gif","""event"",""trial"",""time""
""fullscreenenter"",""1"",""3517""
","
","
","""event"",""trial"",""time""
""fullscreenenter"",""1"",""3517""
","
","","15638","Let's try practicing that! </br> First, try to put your fingers over the '2', '4', '6', and '8' keys. </br>  You can use whatever fingers are most comfortable for you. Try to find a comfortable position now. ","50","","instructions","2021-06-25 22:22:01.087","","","","","",""
"casino-keyboard-response","14","85582","0.0-8.0-0.3","870","false","img/card_backs/set1/purple.gif","img/card_backs/set1/green.gif","img/card_backs/set1/red.gif","img/card_backs/set1/yellow.gif","img/card_backs/set2/gray.gif","img/card_backs/set2/pink.gif","img/card_backs/set2/orange.gif","img/card_backs/set2/blue.gif","""event"",""trial"",""time""
""fullscreenenter"",""1"",""3517""
","
","
","""event"",""trial"",""time""
""fullscreenenter"",""1"",""3517""
","
","","5939.400000095367","Okay ready? </br> On the next screen, press '2' to select the left deck. ","50","","instructions","2021-06-25 22:22:07.028","","","","","",""
"card-selection-trial","15","89836","0.0-9.0-0.0","870","false","img/card_backs/set1/purple.gif","img/card_backs/set1/green.gif","img/card_backs/set1/red.gif","img/card_backs/set1/yellow.gif","img/card_backs/set2/gray.gif","img/card_backs/set2/pink.gif","img/card_backs/set2/orange.gif","img/card_backs/set2/blue.gif","""event"",""trial"",""time""
""fullscreenenter"",""1"",""3517""
","
","
","""event"",""trial"",""time""
""fullscreenenter"",""1"",""3517""
","
","","2244.899999976158","","","","practice_card_selection","2021-06-25 22:22:11.282","img/practice_cards/backs/dark_green.gif","0","-200","","",""
"casino-keyboard-response","16","95944","0.0-10.0-0.0","870","false","img/card_backs/set1/purple.gif","img/card_backs/set1/green.gif","img/card_backs/set1/red.gif","img/card_backs/set1/yellow.gif","img/card_backs/set2/gray.gif","img/card_backs/set2/pink.gif","img/card_backs/set2/orange.gif","img/card_backs/set2/blue.gif","""event"",""trial"",""time""
""fullscreenenter"",""1"",""3517""
","
","
","""event"",""trial"",""time""
""fullscreenenter"",""1"",""3517""
","
","","6106.399999976158","Great! Now on the next screen, try pressing '6' to select the third deck.","54","","instructions","2021-06-25 22:22:17.390","","","","","",""
"card-selection-trial","17","98996","0.0-11.0-0.0","870","false","img/card_backs/set1/purple.gif","img/card_backs/set1/green.gif","img/card_backs/set1/red.gif","img/card_backs/set1/yellow.gif","img/card_backs/set2/gray.gif","img/card_backs/set2/pink.gif","img/card_backs/set2/orange.gif","img/card_backs/set2/blue.gif","""event"",""trial"",""time""
""fullscreenenter"",""1"",""3517""
","
","
","""event"",""trial"",""time""
""fullscreenenter"",""1"",""3517""
","
","","1045.0999999046326","","","","practice_card_selection","2021-06-25 22:22:20.442","img/practice_cards/backs/dark_blue.gif","2","-200","","",""
"casino-keyboard-response","18","103920","0.0-12.0-0.0","870","false","img/card_backs/set1/purple.gif","img/card_backs/set1/green.gif","img/card_backs/set1/red.gif","img/card_backs/set1/yellow.gif","img/card_backs/set2/gray.gif","img/card_backs/set2/pink.gif","img/card_backs/set2/orange.gif","img/card_backs/set2/blue.gif","""event"",""trial"",""time""
""fullscreenenter"",""1"",""3517""
","
","
","""event"",""trial"",""time""
""fullscreenenter"",""1"",""3517""
","
","","4923.199999928474","Now on the next screen, try pressing '4' to select the second deck.","52","","instructions","2021-06-25 22:22:25.366","","","","","",""
"card-selection-trial","19","107012","0.0-13.0-0.0","870","false","img/card_backs/set1/purple.gif","img/card_backs/set1/green.gif","img/card_backs/set1/red.gif","img/card_backs/set1/yellow.gif","img/card_backs/set2/gray.gif","img/card_backs/set2/pink.gif","img/card_backs/set2/orange.gif","img/card_backs/set2/blue.gif","""event"",""trial"",""time""
""fullscreenenter"",""1"",""3517""
","
","
","""event"",""trial"",""time""
""fullscreenenter"",""1"",""3517""
","
","","1087.1999999284744","","","","practice_card_selection","2021-06-25 22:22:28.458","img/practice_cards/backs/dark_green.gif","1","-200","","",""
"casino-keyboard-response","20","112043","0.0-14.0-0.0","870","false","img/card_backs/set1/purple.gif","img/card_backs/set1/green.gif","img/card_backs/set1/red.gif","img/card_backs/set1/yellow.gif","img/card_backs/set2/gray.gif","img/card_backs/set2/pink.gif","img/card_backs/set2/orange.gif","img/card_backs/set2/blue.gif","""event"",""trial"",""time""
""fullscreenenter"",""1"",""3517""
","
","
","""event"",""trial"",""time""
""fullscreenenter"",""1"",""3517""
","
","","5030.399999976158","Finally, try pressing '8' to select the deck all the way on the right.","56","","instructions","2021-06-25 22:22:33.489","","","","","",""
"card-selection-trial","21","115365","0.0-15.0-0.0","870","false","img/card_backs/set1/purple.gif","img/card_backs/set1/green.gif","img/card_backs/set1/red.gif","img/card_backs/set1/yellow.gif","img/card_backs/set2/gray.gif","img/card_backs/set2/pink.gif","img/card_backs/set2/orange.gif","img/card_backs/set2/blue.gif","""event"",""trial"",""time""
""fullscreenenter"",""1"",""3517""
","
","
","""event"",""trial"",""time""
""fullscreenenter"",""1"",""3517""
","
","","1314.1000000238419","","","","practice_card_selection","2021-06-25 22:22:36.811","img/practice_cards/backs/black.gif","3","100","","",""
"casino-keyboard-response","22","119413","0.0-16.0-0.0","870","false","img/card_backs/set1/purple.gif","img/card_backs/set1/green.gif","img/card_backs/set1/red.gif","img/card_backs/set1/yellow.gif","img/card_backs/set2/gray.gif","img/card_backs/set2/pink.gif","img/card_backs/set2/orange.gif","img/card_backs/set2/blue.gif","""event"",""trial"",""time""
""fullscreenenter"",""1"",""3517""
","
","
","""event"",""trial"",""time""
""fullscreenenter"",""1"",""3517""
","
","","4046.399999976158","Great! It seems like you are getting the hang of this.","80","","instructions","2021-06-25 22:22:40.859","","","","","",""
"casino-keyboard-response","23","126950","0.0-16.0-0.1","870","false","img/card_backs/set1/purple.gif","img/card_backs/set1/green.gif","img/card_backs/set1/red.gif","img/card_backs/set1/yellow.gif","img/card_backs/set2/gray.gif","img/card_backs/set2/pink.gif","img/card_backs/set2/orange.gif","img/card_backs/set2/blue.gif","""event"",""trial"",""time""
""fullscreenenter"",""1"",""3517""
","
","
","""event"",""trial"",""time""
""fullscreenenter"",""1"",""3517""
","
","","7537","You may have noticed that some cards will cause you to <b> win </b> tokens while other cards will cause you to <b> lose </b>  tokens.","70","","instructions","2021-06-25 22:22:48.396","","","","","",""
"casino-keyboard-response","24","135557","0.0-16.0-0.2","870","false","img/card_backs/set1/purple.gif","img/card_backs/set1/green.gif","img/card_backs/set1/red.gif","img/card_backs/set1/yellow.gif","img/card_backs/set2/gray.gif","img/card_backs/set2/pink.gif","img/card_backs/set2/orange.gif","img/card_backs/set2/blue.gif","""event"",""trial"",""time""
""fullscreenenter"",""1"",""3517""
","
","
","""event"",""trial"",""time""
""fullscreenenter"",""1"",""3517""
","
","","8605.600000023842","Each deck has a mix of cards that will cause you to win and lose tokens. </br> However, the cards in each colored deck are different.","73","","instructions","2021-06-25 22:22:57.003","","","","","",""
"casino-keyboard-response","25","144659","0.0-16.0-0.3","870","false","img/card_backs/set1/purple.gif","img/card_backs/set1/green.gif","img/card_backs/set1/red.gif","img/card_backs/set1/yellow.gif","img/card_backs/set2/gray.gif","img/card_backs/set2/pink.gif","img/card_backs/set2/orange.gif","img/card_backs/set2/blue.gif","""event"",""trial"",""time""
""fullscreenenter"",""1"",""3517""
","
","
","""event"",""trial"",""time""
""fullscreenenter"",""1"",""3517""
","
","","9101.699999928474","Some colored decks are luckier than others. </br> If you choose the lucky decks, you will earn more tokens than if you choose the unlucky decks.","69","","instructions","2021-06-25 22:23:06.105","","","","","",""
"casino-keyboard-response","26","152220","0.0-16.0-0.4","870","false","img/card_backs/set1/purple.gif","img/card_backs/set1/green.gif","img/card_backs/set1/red.gif","img/card_backs/set1/yellow.gif","img/card_backs/set2/gray.gif","img/card_backs/set2/pink.gif","img/card_backs/set2/orange.gif","img/card_backs/set2/blue.gif","""event"",""trial"",""time""
""fullscreenenter"",""1"",""3517""
","
","
","""event"",""trial"",""time""
""fullscreenenter"",""1"",""3517""
","
","","7559.899999976158","You should try to figure out which decks are lucky. </br> Then, try to choose the lucky decks so you can win the most tokens.","87","","instructions","2021-06-25 22:23:13.666","","","","","",""
"casino-keyboard-response","27","164427","0.0-16.0-0.5","870","false","img/card_backs/set1/purple.gif","img/card_backs/set1/green.gif","img/card_backs/set1/red.gif","img/card_backs/set1/yellow.gif","img/card_backs/set2/gray.gif","img/card_backs/set2/pink.gif","img/card_backs/set2/orange.gif","img/card_backs/set2/blue.gif","""event"",""trial"",""time""
""fullscreenenter"",""1"",""3517""
","
","
","""event"",""trial"",""time""
""fullscreenenter"",""1"",""3517""
","
","","12206","To make it trickier, the casino dealer will switch the locations of the decks on every turn. </br> The color of the deck determines how lucky it is. The location does not matter.","88","","instructions","2021-06-25 22:23:25.873","","","","","",""
"casino-keyboard-response","28","174091","0.0-16.0-0.6","870","false","img/card_backs/set1/purple.gif","img/card_backs/set1/green.gif","img/card_backs/set1/red.gif","img/card_backs/set1/yellow.gif","img/card_backs/set2/gray.gif","img/card_backs/set2/pink.gif","img/card_backs/set2/orange.gif","img/card_backs/set2/blue.gif","""event"",""trial"",""time""
""fullscreenenter"",""1"",""3517""
","
","
","""event"",""trial"",""time""
""fullscreenenter"",""1"",""3517""
","
","","9663.199999928474","The mix of cards in each colored deck will stay the same throughout the game. </br> That means that a deck that is lucky early on will stay lucky.","79","","instructions","2021-06-25 22:23:35.537","","","","","",""
"casino-keyboard-response","29","182439","0.0-16.0-0.7","870","false","img/card_backs/set1/purple.gif","img/card_backs/set1/green.gif","img/card_backs/set1/red.gif","img/card_backs/set1/yellow.gif","img/card_backs/set2/gray.gif","img/card_backs/set2/pink.gif","img/card_backs/set2/orange.gif","img/card_backs/set2/blue.gif","""event"",""trial"",""time""
""fullscreenenter"",""1"",""3517""
","
","
","""event"",""trial"",""time""
""fullscreenenter"",""1"",""3517""
","
","","8346.5","Remember though, all the decks have a <b> mix </b> of both <b> good </b> and <b> bad </b> cards so it may take a couple of turns to figure out if a deck is lucky.","69","","instructions","2021-06-25 22:23:43.885","","","","","",""
"casino-keyboard-response","30","190730","0.0-16.0-0.8","870","false","img/card_backs/set1/purple.gif","img/card_backs/set1/green.gif","img/card_backs/set1/red.gif","img/card_backs/set1/yellow.gif","img/card_backs/set2/gray.gif","img/card_backs/set2/pink.gif","img/card_backs/set2/orange.gif","img/card_backs/set2/blue.gif","""event"",""trial"",""time""
""fullscreenenter"",""1"",""3517""
","
","
","""event"",""trial"",""time""
""fullscreenenter"",""1"",""3517""
","
","","8289.899999976158","At the end of the game, you will be paid bonus money based on how many tokens you win. </br> If you win more tokens, you will earn more money!","72","","instructions","2021-06-25 22:23:52.176","","","","","",""
"casino-keyboard-response","31","201115","0.0-16.0-0.9","870","false","img/card_backs/set1/purple.gif","img/card_backs/set1/green.gif","img/card_backs/set1/red.gif","img/card_backs/set1/yellow.gif","img/card_backs/set2/gray.gif","img/card_backs/set2/pink.gif","img/card_backs/set2/orange.gif","img/card_backs/set2/blue.gif","""event"",""trial"",""time""
""fullscreenenter"",""1"",""3517""
","
","
","""event"",""trial"",""time""
""fullscreenenter"",""1"",""3517""
","
","","10384.899999976158","You will never <b> lose </b> money. </br> If you end up with fewer than 0 tokens, you will earn $0 of bonus money, but you will still be paid for playing the game.","83","","instructions","2021-06-25 22:24:02.561","","","","","",""
"casino-keyboard-response","32","206537","0.0-16.0-0.10","870","false","img/card_backs/set1/purple.gif","img/card_backs/set1/green.gif","img/card_backs/set1/red.gif","img/card_backs/set1/yellow.gif","img/card_backs/set2/gray.gif","img/card_backs/set2/pink.gif","img/card_backs/set2/orange.gif","img/card_backs/set2/blue.gif","""event"",""trial"",""time""
""fullscreenenter"",""1"",""3517""
","
","
","""event"",""trial"",""time""
""fullscreenenter"",""1"",""3517""
","
","","5420.5","You will have 10 seconds to make each choice.","82","","instructions","2021-06-25 22:24:07.983","","","","","",""
"casino-keyboard-response","33","215078","0.0-16.0-0.11","870","false","img/card_backs/set1/purple.gif","img/card_backs/set1/green.gif","img/card_backs/set1/red.gif","img/card_backs/set1/yellow.gif","img/card_backs/set2/gray.gif","img/card_backs/set2/pink.gif","img/card_backs/set2/orange.gif","img/card_backs/set2/blue.gif","""event"",""trial"",""time""
""fullscreenenter"",""1"",""3517""
","
","
","""event"",""trial"",""time""
""fullscreenenter"",""1"",""3517""
","
","","8539.199999928474","Before you play the game for real, you will play with practice decks. </br> The tokens you earn during practice won't count toward your total.","86","","instructions","2021-06-25 22:24:16.524","","","","","",""
"casino-keyboard-response","34","226631","0.0-16.0-0.12","870","false","img/card_backs/set1/purple.gif","img/card_backs/set1/green.gif","img/card_backs/set1/red.gif","img/card_backs/set1/yellow.gif","img/card_backs/set2/gray.gif","img/card_backs/set2/pink.gif","img/card_backs/set2/orange.gif","img/card_backs/set2/blue.gif","""event"",""trial"",""time""
""fullscreenenter"",""1"",""3517""
","
","
","""event"",""trial"",""time""
""fullscreenenter"",""1"",""3517""
","
","","11551.899999976158","Ready? Remember, use the '2', '4', '6', and '8' keys to select the decks. </br> Put your fingers on those keys now and then press '2' to begin.","50","","instructions","2021-06-25 22:24:28.077","","","","","",""
"casino-fixation","35","227136","0.0-17.0-0.0","870","false","img/card_backs/set1/purple.gif","img/card_backs/set1/green.gif","img/card_backs/set1/red.gif","img/card_backs/set1/yellow.gif","img/card_backs/set2/gray.gif","img/card_backs/set2/pink.gif","img/card_backs/set2/orange.gif","img/card_backs/set2/blue.gif","""event"",""trial"",""time""
""fullscreenenter"",""1"",""3517""
","
","
","""event"",""trial"",""time""
""fullscreenenter"",""1"",""3517""
","
","","null","","null","","fixation","2021-06-25 22:24:28.582","","","","","",""
"card-selection-trial","36","231106","0.0-17.0-1.0","870","false","img/card_backs/set1/purple.gif","img/card_backs/set1/green.gif","img/card_backs/set1/red.gif","img/card_backs/set1/yellow.gif","img/card_backs/set2/gray.gif","img/card_backs/set2/pink.gif","img/card_backs/set2/orange.gif","img/card_backs/set2/blue.gif","""event"",""trial"",""time""
""fullscreenenter"",""1"",""3517""
","
","
","""event"",""trial"",""time""
""fullscreenenter"",""1"",""3517""
","
","","1966.4000000953674","","","","practice","2021-06-25 22:24:32.552","img/practice_cards/backs/black.gif","0","-100","0","",""
"casino-fixation","37","231611","0.0-17.0-0.1","870","false","img/card_backs/set1/purple.gif","img/card_backs/set1/green.gif","img/card_backs/set1/red.gif","img/card_backs/set1/yellow.gif","img/card_backs/set2/gray.gif","img/card_backs/set2/pink.gif","img/card_backs/set2/orange.gif","img/card_backs/set2/blue.gif","""event"",""trial"",""time""
""fullscreenenter"",""1"",""3517""
","
","
","""event"",""trial"",""time""
""fullscreenenter"",""1"",""3517""
","
","","null","","null","","fixation","2021-06-25 22:24:33.057","","","","","",""
"card-selection-trial","38","235263","0.0-17.0-1.1","870","false","img/card_backs/set1/purple.gif","img/card_backs/set1/green.gif","img/card_backs/set1/red.gif","img/card_backs/set1/yellow.gif","img/card_backs/set2/gray.gif","img/card_backs/set2/pink.gif","img/card_backs/set2/orange.gif","img/card_backs/set2/blue.gif","""event"",""trial"",""time""
""fullscreenenter"",""1"",""3517""
","
","
","""event"",""trial"",""time""
""fullscreenenter"",""1"",""3517""
","
","","1643.2000000476837","","","","practice","2021-06-25 22:24:36.709","img/practice_cards/backs/black.gif","1","-100","0","",""
"casino-fixation","39","235765","0.0-17.0-0.2","870","false","img/card_backs/set1/purple.gif","img/card_backs/set1/green.gif","img/card_backs/set1/red.gif","img/card_backs/set1/yellow.gif","img/card_backs/set2/gray.gif","img/card_backs/set2/pink.gif","img/card_backs/set2/orange.gif","img/card_backs/set2/blue.gif","""event"",""trial"",""time""
""fullscreenenter"",""1"",""3517""
","
","
","""event"",""trial"",""time""
""fullscreenenter"",""1"",""3517""
","
","","null","","null","","fixation","2021-06-25 22:24:37.211","","","","","",""
"card-selection-trial","40","238637","0.0-17.0-1.2","870","false","img/card_backs/set1/purple.gif","img/card_backs/set1/green.gif","img/card_backs/set1/red.gif","img/card_backs/set1/yellow.gif","img/card_backs/set2/gray.gif","img/card_backs/set2/pink.gif","img/card_backs/set2/orange.gif","img/card_backs/set2/blue.gif","""event"",""trial"",""time""
""fullscreenenter"",""1"",""3517""
","
","
","""event"",""trial"",""time""
""fullscreenenter"",""1"",""3517""
","
","","864.7999999523163","","","","practice","2021-06-25 22:24:40.083","img/practice_cards/backs/dark_green.gif","2","-200","0","",""
"casino-fixation","41","239140","0.0-17.0-0.3","870","false","img/card_backs/set1/purple.gif","img/card_backs/set1/green.gif","img/card_backs/set1/red.gif","img/card_backs/set1/yellow.gif","img/card_backs/set2/gray.gif","img/card_backs/set2/pink.gif","img/card_backs/set2/orange.gif","img/card_backs/set2/blue.gif","""event"",""trial"",""time""
""fullscreenenter"",""1"",""3517""
","
","
","""event"",""trial"",""time""
""fullscreenenter"",""1"",""3517""
","
","","null","","null","","fixation","2021-06-25 22:24:40.586","","","","","",""
"card-selection-trial","42","242710","0.0-17.0-1.3","870","false","img/card_backs/set1/purple.gif","img/card_backs/set1/green.gif","img/card_backs/set1/red.gif","img/card_backs/set1/yellow.gif","img/card_backs/set2/gray.gif","img/card_backs/set2/pink.gif","img/card_backs/set2/orange.gif","img/card_backs/set2/blue.gif","""event"",""trial"",""time""
""fullscreenenter"",""1"",""3517""
","
","
","""event"",""trial"",""time""
""fullscreenenter"",""1"",""3517""
","
","","1562.5999999046326","","","","practice","2021-06-25 22:24:44.156","img/practice_cards/backs/dark_blue.gif","3","200","0","",""
"casino-fixation","43","243215","0.0-17.0-0.4","870","false","img/card_backs/set1/purple.gif","img/card_backs/set1/green.gif","img/card_backs/set1/red.gif","img/card_backs/set1/yellow.gif","img/card_backs/set2/gray.gif","img/card_backs/set2/pink.gif","img/card_backs/set2/orange.gif","img/card_backs/set2/blue.gif","""event"",""trial"",""time""
""fullscreenenter"",""1"",""3517""
","
","
","""event"",""trial"",""time""
""fullscreenenter"",""1"",""3517""
","
","","null","","null","","fixation","2021-06-25 22:24:44.661","","","","","",""
"card-selection-trial","44","245957","0.0-17.0-1.4","870","false","img/card_backs/set1/purple.gif","img/card_backs/set1/green.gif","img/card_backs/set1/red.gif","img/card_backs/set1/yellow.gif","img/card_backs/set2/gray.gif","img/card_backs/set2/pink.gif","img/card_backs/set2/orange.gif","img/card_backs/set2/blue.gif","""event"",""trial"",""time""
""fullscreenenter"",""1"",""3517""
","
","
","""event"",""trial"",""time""
""fullscreenenter"",""1"",""3517""
","
","","738.2000000476837","","","","practice","2021-06-25 22:24:47.403","img/practice_cards/backs/dark_blue.gif","3","-200","0","",""
"casino-fixation","45","246460","0.0-17.0-0.5","870","false","img/card_backs/set1/purple.gif","img/card_backs/set1/green.gif","img/card_backs/set1/red.gif","img/card_backs/set1/yellow.gif","img/card_backs/set2/gray.gif","img/card_backs/set2/pink.gif","img/card_backs/set2/orange.gif","img/card_backs/set2/blue.gif","""event"",""trial"",""time""
""fullscreenenter"",""1"",""3517""
","
","
","""event"",""trial"",""time""
""fullscreenenter"",""1"",""3517""
","
","","null","","null","","fixation","2021-06-25 22:24:47.906","","","","","",""
"card-selection-trial","46","251607","0.0-17.0-1.5","870","false","img/card_backs/set1/purple.gif","img/card_backs/set1/green.gif","img/card_backs/set1/red.gif","img/card_backs/set1/yellow.gif","img/card_backs/set2/gray.gif","img/card_backs/set2/pink.gif","img/card_backs/set2/orange.gif","img/card_backs/set2/blue.gif","""event"",""trial"",""time""
""fullscreenenter"",""1"",""3517""
","
","
","""event"",""trial"",""time""
""fullscreenenter"",""1"",""3517""
","
","","3141.600000023842","","","","practice","2021-06-25 22:24:53.053","img/practice_cards/backs/dark_blue.gif","2","-200","0","",""
"casino-fixation","47","252111","0.0-17.0-0.6","870","false","img/card_backs/set1/purple.gif","img/card_backs/set1/green.gif","img/card_backs/set1/red.gif","img/card_backs/set1/yellow.gif","img/card_backs/set2/gray.gif","img/card_backs/set2/pink.gif","img/card_backs/set2/orange.gif","img/card_backs/set2/blue.gif","""event"",""trial"",""time""
""fullscreenenter"",""1"",""3517""
","
","
","""event"",""trial"",""time""
""fullscreenenter"",""1"",""3517""
","
","","null","","null","","fixation","2021-06-25 22:24:53.557","","","","","",""
"card-selection-trial","48","255297","0.0-17.0-1.6","870","false","img/card_backs/set1/purple.gif","img/card_backs/set1/green.gif","img/card_backs/set1/red.gif","img/card_backs/set1/yellow.gif","img/card_backs/set2/gray.gif","img/card_backs/set2/pink.gif","img/card_backs/set2/orange.gif","img/card_backs/set2/blue.gif","""event"",""trial"",""time""
""fullscreenenter"",""1"",""3517""
","
","
","""event"",""trial"",""time""
""fullscreenenter"",""1"",""3517""
","
","","1180.5","","","","practice","2021-06-25 22:24:56.743","img/practice_cards/backs/black.gif","0","100","0","",""
"casino-fixation","49","255800","0.0-17.0-0.7","870","false","img/card_backs/set1/purple.gif","img/card_backs/set1/green.gif","img/card_backs/set1/red.gif","img/card_backs/set1/yellow.gif","img/card_backs/set2/gray.gif","img/card_backs/set2/pink.gif","img/card_backs/set2/orange.gif","img/card_backs/set2/blue.gif","""event"",""trial"",""time""
""fullscreenenter"",""1"",""3517""
","
","
","""event"",""trial"",""time""
""fullscreenenter"",""1"",""3517""
","
","","null","","null","","fixation","2021-06-25 22:24:57.246","","","","","",""
"card-selection-trial","50","258941","0.0-17.0-1.7","870","false","img/card_backs/set1/purple.gif","img/card_backs/set1/green.gif","img/card_backs/set1/red.gif","img/card_backs/set1/yellow.gif","img/card_backs/set2/gray.gif","img/card_backs/set2/pink.gif","img/card_backs/set2/orange.gif","img/card_backs/set2/blue.gif","""event"",""trial"",""time""
""fullscreenenter"",""1"",""3517""
","
","
","""event"",""trial"",""time""
""fullscreenenter"",""1"",""3517""
","
","","1136.3999999761581","","","","practice","2021-06-25 22:25:00.387","img/practice_cards/backs/black.gif","3","100","0","",""
"casino-fixation","51","259446","0.0-17.0-0.8","870","false","img/card_backs/set1/purple.gif","img/card_backs/set1/green.gif","img/card_backs/set1/red.gif","img/card_backs/set1/yellow.gif","img/card_backs/set2/gray.gif","img/card_backs/set2/pink.gif","img/card_backs/set2/orange.gif","img/card_backs/set2/blue.gif","""event"",""trial"",""time""
""fullscreenenter"",""1"",""3517""
","
","
","""event"",""trial"",""time""
""fullscreenenter"",""1"",""3517""
","
","","null","","null","","fixation","2021-06-25 22:25:00.892","","","","","",""
"card-selection-trial","52","262383","0.0-17.0-1.8","870","false","img/card_backs/set1/purple.gif","img/card_backs/set1/green.gif","img/card_backs/set1/red.gif","img/card_backs/set1/yellow.gif","img/card_backs/set2/gray.gif","img/card_backs/set2/pink.gif","img/card_backs/set2/orange.gif","img/card_backs/set2/blue.gif","""event"",""trial"",""time""
""fullscreenenter"",""1"",""3517""
","
","
","""event"",""trial"",""time""
""fullscreenenter"",""1"",""3517""
","
","","933.3999999761581","","","","practice","2021-06-25 22:25:03.829","img/practice_cards/backs/black.gif","0","-100","0","",""
"casino-fixation","53","262888","0.0-17.0-0.9","870","false","img/card_backs/set1/purple.gif","img/card_backs/set1/green.gif","img/card_backs/set1/red.gif","img/card_backs/set1/yellow.gif","img/card_backs/set2/gray.gif","img/card_backs/set2/pink.gif","img/card_backs/set2/orange.gif","img/card_backs/set2/blue.gif","""event"",""trial"",""time""
""fullscreenenter"",""1"",""3517""
","
","
","""event"",""trial"",""time""
""fullscreenenter"",""1"",""3517""
","
","","null","","null","","fixation","2021-06-25 22:25:04.334","","","","","",""
"card-selection-trial","54","265512","0.0-17.0-1.9","870","false","img/card_backs/set1/purple.gif","img/card_backs/set1/green.gif","img/card_backs/set1/red.gif","img/card_backs/set1/yellow.gif","img/card_backs/set2/gray.gif","img/card_backs/set2/pink.gif","img/card_backs/set2/orange.gif","img/card_backs/set2/blue.gif","""event"",""trial"",""time""
""fullscreenenter"",""1"",""3517""
","
","
","""event"",""trial"",""time""
""fullscreenenter"",""1"",""3517""
","
","","618.5999999046326","","","","practice","2021-06-25 22:25:06.958","img/practice_cards/backs/black.gif","3","-100","0","",""
"casino-keyboard-response","55","269574","0.0-18.0","870","false","img/card_backs/set1/purple.gif","img/card_backs/set1/green.gif","img/card_backs/set1/red.gif","img/card_backs/set1/yellow.gif","img/card_backs/set2/gray.gif","img/card_backs/set2/pink.gif","img/card_backs/set2/orange.gif","img/card_backs/set2/blue.gif","""event"",""trial"",""time""
""fullscreenenter"",""1"",""3517""
","
","
","""event"",""trial"",""time""
""fullscreenenter"",""1"",""3517""
","
","","4061.5","You earned -600 tokens during the practice round!","82","","","2021-06-25 22:25:11.020","","","","","",""
"casino-keyboard-response","56","273917","0.0-19.0-0.0","870","false","img/card_backs/set1/purple.gif","img/card_backs/set1/green.gif","img/card_backs/set1/red.gif","img/card_backs/set1/yellow.gif","img/card_backs/set2/gray.gif","img/card_backs/set2/pink.gif","img/card_backs/set2/orange.gif","img/card_backs/set2/blue.gif","""event"",""trial"",""time""
""fullscreenenter"",""1"",""3517""
","
","
","""event"",""trial"",""time""
""fullscreenenter"",""1"",""3517""
","
","","4341.800000071526","Nice job! You are almost ready to play the real game.","86","","instructions","2021-06-25 22:25:15.363","","","","","",""
"casino-keyboard-response","57","280307","0.0-19.0-0.1","870","false","img/card_backs/set1/purple.gif","img/card_backs/set1/green.gif","img/card_backs/set1/red.gif","img/card_backs/set1/yellow.gif","img/card_backs/set2/gray.gif","img/card_backs/set2/pink.gif","img/card_backs/set2/orange.gif","img/card_backs/set2/blue.gif","""event"",""trial"",""time""
""fullscreenenter"",""1"",""3517""
","
","
","""event"",""trial"",""time""
""fullscreenenter"",""1"",""3517""
","
","","6389.199999928474","You will play two rounds of the real game. In each round, you will pick 100 cards in total.","73","","instructions","2021-06-25 22:25:21.753","","","","","",""
"casino-keyboard-response","58","284639","0.0-19.0-0.2","870","false","img/card_backs/set1/purple.gif","img/card_backs/set1/green.gif","img/card_backs/set1/red.gif","img/card_backs/set1/yellow.gif","img/card_backs/set2/gray.gif","img/card_backs/set2/pink.gif","img/card_backs/set2/orange.gif","img/card_backs/set2/blue.gif","""event"",""trial"",""time""
""fullscreenenter"",""1"",""3517""
","
","
","""event"",""trial"",""time""
""fullscreenenter"",""1"",""3517""
","
","","4330.5","We are now going to ask you some questions about how the game works.","66","","instructions","2021-06-25 22:25:26.085","","","","","",""
"casino-keyboard-response","59","291017","0.0-19.0-0.3","870","false","img/card_backs/set1/purple.gif","img/card_backs/set1/green.gif","img/card_backs/set1/red.gif","img/card_backs/set1/yellow.gif","img/card_backs/set2/gray.gif","img/card_backs/set2/pink.gif","img/card_backs/set2/orange.gif","img/card_backs/set2/blue.gif","""event"",""trial"",""time""
""fullscreenenter"",""1"",""3517""
","
","
","""event"",""trial"",""time""
""fullscreenenter"",""1"",""3517""
","
","","6377.800000071526","Answer carefully. You will not be able to begin the game until you answer them correctly.","67","","instructions","2021-06-25 22:25:32.463","","","","","",""
"casino-comp_q","60","297735","0.0-20.0-0.0","870","false","img/card_backs/set1/purple.gif","img/card_backs/set1/green.gif","img/card_backs/set1/red.gif","img/card_backs/set1/yellow.gif","img/card_backs/set2/gray.gif","img/card_backs/set2/pink.gif","img/card_backs/set2/orange.gif","img/card_backs/set2/blue.gif","""event"",""trial"",""time""
""fullscreenenter"",""1"",""3517""
","
","
","""event"",""trial"",""time""
""fullscreenenter"",""1"",""3517""
","
","","6716","True or False: All the decks have some cards that cause you to win tokens and some cards that cause you to lose tokens.","84","","","2021-06-25 22:25:39.181","","","","","",""
"casino-keyboard-response","61","300839","0.0-20.0-1.0","870","false","img/card_backs/set1/purple.gif","img/card_backs/set1/green.gif","img/card_backs/set1/red.gif","img/card_backs/set1/yellow.gif","img/card_backs/set2/gray.gif","img/card_backs/set2/pink.gif","img/card_backs/set2/orange.gif","img/card_backs/set2/blue.gif","""event"",""trial"",""time""
""fullscreenenter"",""1"",""3517""
","
","
","""event"",""trial"",""time""
""fullscreenenter"",""1"",""3517""
","
","","3103.5","True is correct! All the decks have a mix of winning and losing cards.","77","","","2021-06-25 22:25:42.286","","","","","true",""
"casino-comp_q","62","305396","0.0-21.0-0.0","870","false","img/card_backs/set1/purple.gif","img/card_backs/set1/green.gif","img/card_backs/set1/red.gif","img/card_backs/set1/yellow.gif","img/card_backs/set2/gray.gif","img/card_backs/set2/pink.gif","img/card_backs/set2/orange.gif","img/card_backs/set2/blue.gif","""event"",""trial"",""time""
""fullscreenenter"",""1"",""3517""
","
","
","""event"",""trial"",""time""
""fullscreenenter"",""1"",""3517""
","
","","4555.300000071526","True or False: You will have as much time as you want to make your response.","70","","","2021-06-25 22:25:46.842","","","","","",""
"casino-keyboard-response","63","308220","0.0-21.0-1.0","870","false","img/card_backs/set1/purple.gif","img/card_backs/set1/green.gif","img/card_backs/set1/red.gif","img/card_backs/set1/yellow.gif","img/card_backs/set2/gray.gif","img/card_backs/set2/pink.gif","img/card_backs/set2/orange.gif","img/card_backs/set2/blue.gif","""event"",""trial"",""time""
""fullscreenenter"",""1"",""3517""
","
","
","""event"",""trial"",""time""
""fullscreenenter"",""1"",""3517""
","
","","2822.2000000476837","False is correct! You will only have 10 seconds to make each choice.","75","","","2021-06-25 22:25:49.667","","","","","true",""
"casino-comp_q","64","315590","0.0-22.0-0.0","870","false","img/card_backs/set1/purple.gif","img/card_backs/set1/green.gif","img/card_backs/set1/red.gif","img/card_backs/set1/yellow.gif","img/card_backs/set2/gray.gif","img/card_backs/set2/pink.gif","img/card_backs/set2/orange.gif","img/card_backs/set2/blue.gif","""event"",""trial"",""time""
""fullscreenenter"",""1"",""3517""
","
","
","""event"",""trial"",""time""
""fullscreenenter"",""1"",""3517""
","
","","7368.399999976158","True or False: The location of the deck determines how lucky it is.","84","","","2021-06-25 22:25:57.036","","","","","",""
"casino-keyboard-response","65","320033","0.0-22.0-1.0","870","false","img/card_backs/set1/purple.gif","img/card_backs/set1/green.gif","img/card_backs/set1/red.gif","img/card_backs/set1/yellow.gif","img/card_backs/set2/gray.gif","img/card_backs/set2/pink.gif","img/card_backs/set2/orange.gif","img/card_backs/set2/blue.gif","""event"",""trial"",""time""
""fullscreenenter"",""1"",""3517""
","
","
","""event"",""trial"",""time""
""fullscreenenter"",""1"",""3517""
","
","","4442.5","True is incorrect. The <i>color</i> of the deck determines how lucky or unlucky it is.","68","","","2021-06-25 22:26:01.480","","","","","false",""
"casino-comp_q","66","323251","0.0-22.1-0.1","870","false","img/card_backs/set1/purple.gif","img/card_backs/set1/green.gif","img/card_backs/set1/red.gif","img/card_backs/set1/yellow.gif","img/card_backs/set2/gray.gif","img/card_backs/set2/pink.gif","img/card_backs/set2/orange.gif","img/card_backs/set2/blue.gif","""event"",""trial"",""time""
""fullscreenenter"",""1"",""3517""
","
","
","""event"",""trial"",""time""
""fullscreenenter"",""1"",""3517""
","
","","3215.600000023842","True or False: The location of the deck determines how lucky it is.","70","","","2021-06-25 22:26:04.697","","","","","",""
"casino-keyboard-response","67","327222","0.0-22.1-1.1","870","false","img/card_backs/set1/purple.gif","img/card_backs/set1/green.gif","img/card_backs/set1/red.gif","img/card_backs/set1/yellow.gif","img/card_backs/set2/gray.gif","img/card_backs/set2/pink.gif","img/card_backs/set2/orange.gif","img/card_backs/set2/blue.gif","""event"",""trial"",""time""
""fullscreenenter"",""1"",""3517""
","
","
","""event"",""trial"",""time""
""fullscreenenter"",""1"",""3517""
","
","","3970.2999999523163","False is correct! The <i>color</i>  of the deck determines how lucky or unlucky it is.","68","","","2021-06-25 22:26:08.668","","","","","true",""
"casino-keyboard-response","68","333669","0.0-23.0-0.0","870","false","img/card_backs/set1/purple.gif","img/card_backs/set1/green.gif","img/card_backs/set1/red.gif","img/card_backs/set1/yellow.gif","img/card_backs/set2/gray.gif","img/card_backs/set2/pink.gif","img/card_backs/set2/orange.gif","img/card_backs/set2/blue.gif","""event"",""trial"",""time""
""fullscreenenter"",""1"",""3517""
","
","
","""event"",""trial"",""time""
""fullscreenenter"",""1"",""3517""
","
","","6446.199999928474","Great job! Now it's time to start the real game.","82","","instructions","2021-06-25 22:26:15.115","","","","","",""
"casino-keyboard-response","69","339721","0.0-23.0-0.1","870","false","img/card_backs/set1/purple.gif","img/card_backs/set1/green.gif","img/card_backs/set1/red.gif","img/card_backs/set1/yellow.gif","img/card_backs/set2/gray.gif","img/card_backs/set2/pink.gif","img/card_backs/set2/orange.gif","img/card_backs/set2/blue.gif","""event"",""trial"",""time""
""fullscreenenter"",""1"",""3517""
","
","
","""event"",""trial"",""time""
""fullscreenenter"",""1"",""3517""
","
","","6051.5","Before we start, we're going to head into a new room of the casino.","86","","instructions","2021-06-25 22:26:21.167","","","","","",""
"casino-keyboard-response","70","345944","0.0-24.0-0.0","870","false","img/card_backs/set1/purple.gif","img/card_backs/set1/green.gif","img/card_backs/set1/red.gif","img/card_backs/set1/yellow.gif","img/card_backs/set2/gray.gif","img/card_backs/set2/pink.gif","img/card_backs/set2/orange.gif","img/card_backs/set2/blue.gif","""event"",""trial"",""time""
""fullscreenenter"",""1"",""3517""
","
","
","""event"",""trial"",""time""
""fullscreenenter"",""1"",""3517""
","
","","6221.699999928474","Here we are! The real game will use different cards, but the rules will be the same.","71","","instructions","2021-06-25 22:26:27.390","","","","","",""
"casino-keyboard-response","71","355506","0.0-24.0-0.1","870","false","img/card_backs/set1/purple.gif","img/card_backs/set1/green.gif","img/card_backs/set1/red.gif","img/card_backs/set1/yellow.gif","img/card_backs/set2/gray.gif","img/card_backs/set2/pink.gif","img/card_backs/set2/orange.gif","img/card_backs/set2/blue.gif","""event"",""trial"",""time""
""fullscreenenter"",""1"",""3517""
","
","
","""event"",""trial"",""time""
""fullscreenenter"",""1"",""3517""
","
","","9561.399999976158","Ready? Put your fingers over the '2', '4', 6', and '8' keys so you are ready to play the game. </br> Then press 2 to start.","50","","instructions","2021-06-25 22:26:36.952","","","","","",""
"casino-fixation","72","356008","0.0-25.0-0.0","870","false","img/card_backs/set1/purple.gif","img/card_backs/set1/green.gif","img/card_backs/set1/red.gif","img/card_backs/set1/yellow.gif","img/card_backs/set2/gray.gif","img/card_backs/set2/pink.gif","img/card_backs/set2/orange.gif","img/card_backs/set2/blue.gif","""event"",""trial"",""time""
""fullscreenenter"",""1"",""3517""
","
","
","""event"",""trial"",""time""
""fullscreenenter"",""1"",""3517""
","
","","null","","null","","fixation","2021-06-25 22:26:37.454","","","","","",""
"card-selection-trial","73","359240","0.0-25.0-1.0","870","false","img/card_backs/set1/purple.gif","img/card_backs/set1/green.gif","img/card_backs/set1/red.gif","img/card_backs/set1/yellow.gif","img/card_backs/set2/gray.gif","img/card_backs/set2/pink.gif","img/card_backs/set2/orange.gif","img/card_backs/set2/blue.gif","""event"",""trial"",""time""
""fullscreenenter"",""1"",""3517""
","
","
","""event"",""trial"",""time""
""fullscreenenter"",""1"",""3517""
","
","","1227.3000000715256","","","","real_trial","2021-06-25 22:26:40.686","img/card_backs/set1/green.gif","0","-240","1","",""
"casino-fixation","74","359745","0.0-25.0-0.1","870","false","img/card_backs/set1/purple.gif","img/card_backs/set1/green.gif","img/card_backs/set1/red.gif","img/card_backs/set1/yellow.gif","img/card_backs/set2/gray.gif","img/card_backs/set2/pink.gif","img/card_backs/set2/orange.gif","img/card_backs/set2/blue.gif","""event"",""trial"",""time""
""fullscreenenter"",""1"",""3517""
","
","
","""event"",""trial"",""time""
""fullscreenenter"",""1"",""3517""
","
","","null","","null","","fixation","2021-06-25 22:26:41.191","","","","","",""
"card-selection-trial","75","362977","0.0-25.0-1.1","870","false","img/card_backs/set1/purple.gif","img/card_backs/set1/green.gif","img/card_backs/set1/red.gif","img/card_backs/set1/yellow.gif","img/card_backs/set2/gray.gif","img/card_backs/set2/pink.gif","img/card_backs/set2/orange.gif","img/card_backs/set2/blue.gif","""event"",""trial"",""time""
""fullscreenenter"",""1"",""3517""
","
","
","""event"",""trial"",""time""
""fullscreenenter"",""1"",""3517""
","
","","1225.3000000715256","","","","real_trial","2021-06-25 22:26:44.423","img/card_backs/set1/red.gif","1","120","1","",""
"casino-fixation","76","363483","0.0-25.0-0.2","870","false","img/card_backs/set1/purple.gif","img/card_backs/set1/green.gif","img/card_backs/set1/red.gif","img/card_backs/set1/yellow.gif","img/card_backs/set2/gray.gif","img/card_backs/set2/pink.gif","img/card_backs/set2/orange.gif","img/card_backs/set2/blue.gif","""event"",""trial"",""time""
""fullscreenenter"",""1"",""3517""
","
","
","""event"",""trial"",""time""
""fullscreenenter"",""1"",""3517""
","
","","null","","null","","fixation","2021-06-25 22:26:44.929","","","","","",""
"card-selection-trial","77","366564","0.0-25.0-1.2","870","false","img/card_backs/set1/purple.gif","img/card_backs/set1/green.gif","img/card_backs/set1/red.gif","img/card_backs/set1/yellow.gif","img/card_backs/set2/gray.gif","img/card_backs/set2/pink.gif","img/card_backs/set2/orange.gif","img/card_backs/set2/blue.gif","""event"",""trial"",""time""
""fullscreenenter"",""1"",""3517""
","
","
","""event"",""trial"",""time""
""fullscreenenter"",""1"",""3517""
","
","","1077","","","","real_trial","2021-06-25 22:26:48.010","img/card_backs/set1/red.gif","0","-70","1","",""
"casino-fixation","78","367067","0.0-25.0-0.3","870","false","img/card_backs/set1/purple.gif","img/card_backs/set1/green.gif","img/card_backs/set1/red.gif","img/card_backs/set1/yellow.gif","img/card_backs/set2/gray.gif","img/card_backs/set2/pink.gif","img/card_backs/set2/orange.gif","img/card_backs/set2/blue.gif","""event"",""trial"",""time""
""fullscreenenter"",""1"",""3517""
","
","
","""event"",""trial"",""time""
""fullscreenenter"",""1"",""3517""
","
","","null","","null","","fixation","2021-06-25 22:26:48.513","","","","","",""
"card-selection-trial","79","369637","0.0-25.0-1.3","870","false","img/card_backs/set1/purple.gif","img/card_backs/set1/green.gif","img/card_backs/set1/red.gif","img/card_backs/set1/yellow.gif","img/card_backs/set2/gray.gif","img/card_backs/set2/pink.gif","img/card_backs/set2/orange.gif","img/card_backs/set2/blue.gif","""event"",""trial"",""time""
""fullscreenenter"",""1"",""3517""
","
","
","""event"",""trial"",""time""
""fullscreenenter"",""1"",""3517""
","
","","564.7999999523163","","","","real_trial","2021-06-25 22:26:51.083","img/card_backs/set1/green.gif","0","-250","1","",""
"casino-fixation","80","370142","0.0-25.0-0.4","870","false","img/card_backs/set1/purple.gif","img/card_backs/set1/green.gif","img/card_backs/set1/red.gif","img/card_backs/set1/yellow.gif","img/card_backs/set2/gray.gif","img/card_backs/set2/pink.gif","img/card_backs/set2/orange.gif","img/card_backs/set2/blue.gif","""event"",""trial"",""time""
""fullscreenenter"",""1"",""3517""
","
","
","""event"",""trial"",""time""
""fullscreenenter"",""1"",""3517""
","
","","null","","null","","fixation","2021-06-25 22:26:51.588","","","","","",""
"card-selection-trial","81","372824","0.0-25.0-1.4","870","false","img/card_backs/set1/purple.gif","img/card_backs/set1/green.gif","img/card_backs/set1/red.gif","img/card_backs/set1/yellow.gif","img/card_backs/set2/gray.gif","img/card_backs/set2/pink.gif","img/card_backs/set2/orange.gif","img/card_backs/set2/blue.gif","""event"",""trial"",""time""
""fullscreenenter"",""1"",""3517""
","
","
","""event"",""trial"",""time""
""fullscreenenter"",""1"",""3517""
","
","","673.6000000238419","","","","real_trial","2021-06-25 22:26:54.270","img/card_backs/set1/purple.gif","1","-230","1","",""
"casino-fixation","82","373328","0.0-25.0-0.5","870","false","img/card_backs/set1/purple.gif","img/card_backs/set1/green.gif","img/card_backs/set1/red.gif","img/card_backs/set1/yellow.gif","img/card_backs/set2/gray.gif","img/card_backs/set2/pink.gif","img/card_backs/set2/orange.gif","img/card_backs/set2/blue.gif","""event"",""trial"",""time""
""fullscreenenter"",""1"",""3517""
","
","
","""event"",""trial"",""time""
""fullscreenenter"",""1"",""3517""
","
","","null","","null","","fixation","2021-06-25 22:26:54.774","","","","","",""
"card-selection-trial","83","376701","0.0-25.0-1.5","870","false","img/card_backs/set1/purple.gif","img/card_backs/set1/green.gif","img/card_backs/set1/red.gif","img/card_backs/set1/yellow.gif","img/card_backs/set2/gray.gif","img/card_backs/set2/pink.gif","img/card_backs/set2/orange.gif","img/card_backs/set2/blue.gif","""event"",""trial"",""time""
""fullscreenenter"",""1"",""3517""
","
","
","""event"",""trial"",""time""
""fullscreenenter"",""1"",""3517""
","
","","1368.3999999761581","","","","real_trial","2021-06-25 22:26:58.147","img/card_backs/set1/yellow.gif","0","-70","1","",""
"casino-fixation","84","377206","0.0-25.0-0.6","870","false","img/card_backs/set1/purple.gif","img/card_backs/set1/green.gif","img/card_backs/set1/red.gif","img/card_backs/set1/yellow.gif","img/card_backs/set2/gray.gif","img/card_backs/set2/pink.gif","img/card_backs/set2/orange.gif","img/card_backs/set2/blue.gif","""event"",""trial"",""time""
""fullscreenenter"",""1"",""3517""
","
","
","""event"",""trial"",""time""
""fullscreenenter"",""1"",""3517""
","
","","null","","null","","fixation","2021-06-25 22:26:58.652","","","","","",""
"card-selection-trial","85","379807","0.0-25.0-1.6","870","false","img/card_backs/set1/purple.gif","img/card_backs/set1/green.gif","img/card_backs/set1/red.gif","img/card_backs/set1/yellow.gif","img/card_backs/set2/gray.gif","img/card_backs/set2/pink.gif","img/card_backs/set2/orange.gif","img/card_backs/set2/blue.gif","""event"",""trial"",""time""
""fullscreenenter"",""1"",""3517""
","
","
","""event"",""trial"",""time""
""fullscreenenter"",""1"",""3517""
","
","","595.8999999761581","","","","real_trial","2021-06-25 22:27:01.253","img/card_backs/set1/red.gif","1","-50","1","",""
"casino-fixation","86","380311","0.0-25.0-0.7","870","false","img/card_backs/set1/purple.gif","img/card_backs/set1/green.gif","img/card_backs/set1/red.gif","img/card_backs/set1/yellow.gif","img/card_backs/set2/gray.gif","img/card_backs/set2/pink.gif","img/card_backs/set2/orange.gif","img/card_backs/set2/blue.gif","""event"",""trial"",""time""
""fullscreenenter"",""1"",""3517""
","
","
","""event"",""trial"",""time""
""fullscreenenter"",""1"",""3517""
","
","","null","","null","","fixation","2021-06-25 22:27:01.757","","","","","",""
"card-selection-trial","87","383117","0.0-25.0-1.7","870","false","img/card_backs/set1/purple.gif","img/card_backs/set1/green.gif","img/card_backs/set1/red.gif","img/card_backs/set1/yellow.gif","img/card_backs/set2/gray.gif","img/card_backs/set2/pink.gif","img/card_backs/set2/orange.gif","img/card_backs/set2/blue.gif","""event"",""trial"",""time""
""fullscreenenter"",""1"",""3517""
","
","
","""event"",""trial"",""time""
""fullscreenenter"",""1"",""3517""
","
","","798.7000000476837","","","","real_trial","2021-06-25 22:27:04.563","img/card_backs/set1/red.gif","2","-60","1","",""
"casino-fixation","88","383618","0.0-25.0-0.8","870","false","img/card_backs/set1/purple.gif","img/card_backs/set1/green.gif","img/card_backs/set1/red.gif","img/card_backs/set1/yellow.gif","img/card_backs/set2/gray.gif","img/card_backs/set2/pink.gif","img/card_backs/set2/orange.gif","img/card_backs/set2/blue.gif","""event"",""trial"",""time""
""fullscreenenter"",""1"",""3517""
","
","
","""event"",""trial"",""time""
""fullscreenenter"",""1"",""3517""
","
","","null","","null","","fixation","2021-06-25 22:27:05.064","","","","","",""
"card-selection-trial","89","386257","0.0-25.0-1.8","870","false","img/card_backs/set1/purple.gif","img/card_backs/set1/green.gif","img/card_backs/set1/red.gif","img/card_backs/set1/yellow.gif","img/card_backs/set2/gray.gif","img/card_backs/set2/pink.gif","img/card_backs/set2/orange.gif","img/card_backs/set2/blue.gif","""event"",""trial"",""time""
""fullscreenenter"",""1"",""3517""
","
","
","""event"",""trial"",""time""
""fullscreenenter"",""1"",""3517""
","
","","630.7000000476837","","","","real_trial","2021-06-25 22:27:07.703","img/card_backs/set1/yellow.gif","0","-60","1","",""
"casino-fixation","90","386758","0.0-25.0-0.9","870","false","img/card_backs/set1/purple.gif","img/card_backs/set1/green.gif","img/card_backs/set1/red.gif","img/card_backs/set1/yellow.gif","img/card_backs/set2/gray.gif","img/card_backs/set2/pink.gif","img/card_backs/set2/orange.gif","img/card_backs/set2/blue.gif","""event"",""trial"",""time""
""fullscreenenter"",""1"",""3517""
","
","
","""event"",""trial"",""time""
""fullscreenenter"",""1"",""3517""
","
","","null","","null","","fixation","2021-06-25 22:27:08.204","","","","","",""
"card-selection-trial","91","389740","0.0-25.0-1.9","870","false","img/card_backs/set1/purple.gif","img/card_backs/set1/green.gif","img/card_backs/set1/red.gif","img/card_backs/set1/yellow.gif","img/card_backs/set2/gray.gif","img/card_backs/set2/pink.gif","img/card_backs/set2/orange.gif","img/card_backs/set2/blue.gif","""event"",""trial"",""time""
""fullscreenenter"",""1"",""3517""
","
","
","""event"",""trial"",""time""
""fullscreenenter"",""1"",""3517""
","
","","978.1999999284744","","","","real_trial","2021-06-25 22:27:11.186","img/card_backs/set1/red.gif","0","110","1","",""
"casino-fixation","92","390245","0.0-25.0-0.10","870","false","img/card_backs/set1/purple.gif","img/card_backs/set1/green.gif","img/card_backs/set1/red.gif","img/card_backs/set1/yellow.gif","img/card_backs/set2/gray.gif","img/card_backs/set2/pink.gif","img/card_backs/set2/orange.gif","img/card_backs/set2/blue.gif","""event"",""trial"",""time""
""fullscreenenter"",""1"",""3517""
","
","
","""event"",""trial"",""time""
""fullscreenenter"",""1"",""3517""
","
","","null","","null","","fixation","2021-06-25 22:27:11.691","","","","","",""
"card-selection-trial","93","393199","0.0-25.0-1.10","870","false","img/card_backs/set1/purple.gif","img/card_backs/set1/green.gif","img/card_backs/set1/red.gif","img/card_backs/set1/yellow.gif","img/card_backs/set2/gray.gif","img/card_backs/set2/pink.gif","img/card_backs/set2/orange.gif","img/card_backs/set2/blue.gif","""event"",""trial"",""time""
""fullscreenenter"",""1"",""3517""
","
","
","""event"",""trial"",""time""
""fullscreenenter"",""1"",""3517""
","
","","948.7999999523163","","","","real_trial","2021-06-25 22:27:14.645","img/card_backs/set1/red.gif","1","-50","1","",""
"casino-fixation","94","393704","0.0-25.0-0.11","870","false","img/card_backs/set1/purple.gif","img/card_backs/set1/green.gif","img/card_backs/set1/red.gif","img/card_backs/set1/yellow.gif","img/card_backs/set2/gray.gif","img/card_backs/set2/pink.gif","img/card_backs/set2/orange.gif","img/card_backs/set2/blue.gif","""event"",""trial"",""time""
""fullscreenenter"",""1"",""3517""
","
","
","""event"",""trial"",""time""
""fullscreenenter"",""1"",""3517""
","
","","null","","null","","fixation","2021-06-25 22:27:15.150","","","","","",""
"card-selection-trial","95","396322","0.0-25.0-1.11","870","false","img/card_backs/set1/purple.gif","img/card_backs/set1/green.gif","img/card_backs/set1/red.gif","img/card_backs/set1/yellow.gif","img/card_backs/set2/gray.gif","img/card_backs/set2/pink.gif","img/card_backs/set2/orange.gif","img/card_backs/set2/blue.gif","""event"",""trial"",""time""
""fullscreenenter"",""1"",""3517""
","
","
","""event"",""trial"",""time""
""fullscreenenter"",""1"",""3517""
","
","","613.2999999523163","","","","real_trial","2021-06-25 22:27:17.768","img/card_backs/set1/red.gif","1","120","1","",""
"casino-fixation","96","396827","0.0-25.0-0.12","870","false","img/card_backs/set1/purple.gif","img/card_backs/set1/green.gif","img/card_backs/set1/red.gif","img/card_backs/set1/yellow.gif","img/card_backs/set2/gray.gif","img/card_backs/set2/pink.gif","img/card_backs/set2/orange.gif","img/card_backs/set2/blue.gif","""event"",""trial"",""time""
""fullscreenenter"",""1"",""3517""
","
","
","""event"",""trial"",""time""
""fullscreenenter"",""1"",""3517""
","
","","null","","null","","fixation","2021-06-25 22:27:18.273","","","","","",""
"card-selection-trial","97","399956","0.0-25.0-1.12","870","false","img/card_backs/set1/purple.gif","img/card_backs/set1/green.gif","img/card_backs/set1/red.gif","img/card_backs/set1/yellow.gif","img/card_backs/set2/gray.gif","img/card_backs/set2/pink.gif","img/card_backs/set2/orange.gif","img/card_backs/set2/blue.gif","""event"",""trial"",""time""
""fullscreenenter"",""1"",""3517""
","
","
","""event"",""trial"",""time""
""fullscreenenter"",""1"",""3517""
","
","","1124.4000000953674","","","","real_trial","2021-06-25 22:27:21.402","img/card_backs/set1/red.gif","2","120","1","",""
"casino-fixation","98","400458","0.0-25.0-0.13","870","false","img/card_backs/set1/purple.gif","img/card_backs/set1/green.gif","img/card_backs/set1/red.gif","img/card_backs/set1/yellow.gif","img/card_backs/set2/gray.gif","img/card_backs/set2/pink.gif","img/card_backs/set2/orange.gif","img/card_backs/set2/blue.gif","""event"",""trial"",""time""
""fullscreenenter"",""1"",""3517""
","
","
","""event"",""trial"",""time""
""fullscreenenter"",""1"",""3517""
","
","","null","","null","","fixation","2021-06-25 22:27:21.904","","","","","",""
"card-selection-trial","99","403174","0.0-25.0-1.13","870","false","img/card_backs/set1/purple.gif","img/card_backs/set1/green.gif","img/card_backs/set1/red.gif","img/card_backs/set1/yellow.gif","img/card_backs/set2/gray.gif","img/card_backs/set2/pink.gif","img/card_backs/set2/orange.gif","img/card_backs/set2/blue.gif","""event"",""trial"",""time""
""fullscreenenter"",""1"",""3517""
","
","
","""event"",""trial"",""time""
""fullscreenenter"",""1"",""3517""
","
","","711.5","","","","real_trial","2021-06-25 22:27:24.620","img/card_backs/set1/red.gif","1","-50","1","",""
"casino-fixation","100","403677","0.0-25.0-0.14","870","false","img/card_backs/set1/purple.gif","img/card_backs/set1/green.gif","img/card_backs/set1/red.gif","img/card_backs/set1/yellow.gif","img/card_backs/set2/gray.gif","img/card_backs/set2/pink.gif","img/card_backs/set2/orange.gif","img/card_backs/set2/blue.gif","""event"",""trial"",""time""
""fullscreenenter"",""1"",""3517""
","
","
","""event"",""trial"",""time""
""fullscreenenter"",""1"",""3517""
","
","","null","","null","","fixation","2021-06-25 22:27:25.123","","","","","",""
"card-selection-trial","101","406683","0.0-25.0-1.14","870","false","img/card_backs/set1/purple.gif","img/card_backs/set1/green.gif","img/card_backs/set1/red.gif","img/card_backs/set1/yellow.gif","img/card_backs/set2/gray.gif","img/card_backs/set2/pink.gif","img/card_backs/set2/orange.gif","img/card_backs/set2/blue.gif","""event"",""trial"",""time""
""fullscreenenter"",""1"",""3517""
","
","
","""event"",""trial"",""time""
""fullscreenenter"",""1"",""3517""
","
","","1003.2999999523163","","","","real_trial","2021-06-25 22:27:28.129","img/card_backs/set1/red.gif","3","110","1","",""
"casino-fixation","102","407189","0.0-25.0-0.15","870","false","img/card_backs/set1/purple.gif","img/card_backs/set1/green.gif","img/card_backs/set1/red.gif","img/card_backs/set1/yellow.gif","img/card_backs/set2/gray.gif","img/card_backs/set2/pink.gif","img/card_backs/set2/orange.gif","img/card_backs/set2/blue.gif","""event"",""trial"",""time""
""fullscreenenter"",""1"",""3517""
","
","
","""event"",""trial"",""time""
""fullscreenenter"",""1"",""3517""
","
","","null","","null","","fixation","2021-06-25 22:27:28.635","","","","","",""
"card-selection-trial","103","409958","0.0-25.0-1.15","870","false","img/card_backs/set1/purple.gif","img/card_backs/set1/green.gif","img/card_backs/set1/red.gif","img/card_backs/set1/yellow.gif","img/card_backs/set2/gray.gif","img/card_backs/set2/pink.gif","img/card_backs/set2/orange.gif","img/card_backs/set2/blue.gif","""event"",""trial"",""time""
""fullscreenenter"",""1"",""3517""
","
","
","""event"",""trial"",""time""
""fullscreenenter"",""1"",""3517""
","
","","764.6000000238419","","","","real_trial","2021-06-25 22:27:31.404","img/card_backs/set1/red.gif","0","120","1","",""
"casino-fixation","104","410459","0.0-25.0-0.16","870","false","img/card_backs/set1/purple.gif","img/card_backs/set1/green.gif","img/card_backs/set1/red.gif","img/card_backs/set1/yellow.gif","img/card_backs/set2/gray.gif","img/card_backs/set2/pink.gif","img/card_backs/set2/orange.gif","img/card_backs/set2/blue.gif","""event"",""trial"",""time""
""fullscreenenter"",""1"",""3517""
","
","
","""event"",""trial"",""time""
""fullscreenenter"",""1"",""3517""
","
","","null","","null","","fixation","2021-06-25 22:27:31.905","","","","","",""
"card-selection-trial","105","413220","0.0-25.0-1.16","870","false","img/card_backs/set1/purple.gif","img/card_backs/set1/green.gif","img/card_backs/set1/red.gif","img/card_backs/set1/yellow.gif","img/card_backs/set2/gray.gif","img/card_backs/set2/pink.gif","img/card_backs/set2/orange.gif","img/card_backs/set2/blue.gif","""event"",""trial"",""time""
""fullscreenenter"",""1"",""3517""
","
","
","""event"",""trial"",""time""
""fullscreenenter"",""1"",""3517""
","
","","756.7999999523163","","","","real_trial","2021-06-25 22:27:34.666","img/card_backs/set1/red.gif","3","120","1","",""
"casino-fixation","106","413725","0.0-25.0-0.17","870","false","img/card_backs/set1/purple.gif","img/card_backs/set1/green.gif","img/card_backs/set1/red.gif","img/card_backs/set1/yellow.gif","img/card_backs/set2/gray.gif","img/card_backs/set2/pink.gif","img/card_backs/set2/orange.gif","img/card_backs/set2/blue.gif","""event"",""trial"",""time""
""fullscreenenter"",""1"",""3517""
","
","
","""event"",""trial"",""time""
""fullscreenenter"",""1"",""3517""
","
","","null","","null","","fixation","2021-06-25 22:27:35.171","","","","","",""
"card-selection-trial","107","416407","0.0-25.0-1.17","870","false","img/card_backs/set1/purple.gif","img/card_backs/set1/green.gif","img/card_backs/set1/red.gif","img/card_backs/set1/yellow.gif","img/card_backs/set2/gray.gif","img/card_backs/set2/pink.gif","img/card_backs/set2/orange.gif","img/card_backs/set2/blue.gif","""event"",""trial"",""time""
""fullscreenenter"",""1"",""3517""
","
","
","""event"",""trial"",""time""
""fullscreenenter"",""1"",""3517""
","
","","675.6000000238419","","","","real_trial","2021-06-25 22:27:37.853","img/card_backs/set1/red.gif","3","120","1","",""
"casino-fixation","108","416912","0.0-25.0-0.18","870","false","img/card_backs/set1/purple.gif","img/card_backs/set1/green.gif","img/card_backs/set1/red.gif","img/card_backs/set1/yellow.gif","img/card_backs/set2/gray.gif","img/card_backs/set2/pink.gif","img/card_backs/set2/orange.gif","img/card_backs/set2/blue.gif","""event"",""trial"",""time""
""fullscreenenter"",""1"",""3517""
","
","
","""event"",""trial"",""time""
""fullscreenenter"",""1"",""3517""
","
","","null","","null","","fixation","2021-06-25 22:27:38.358","","","","","",""
"card-selection-trial","109","419535","0.0-25.0-1.18","870","false","img/card_backs/set1/purple.gif","img/card_backs/set1/green.gif","img/card_backs/set1/red.gif","img/card_backs/set1/yellow.gif","img/card_backs/set2/gray.gif","img/card_backs/set2/pink.gif","img/card_backs/set2/orange.gif","img/card_backs/set2/blue.gif","""event"",""trial"",""time""
""fullscreenenter"",""1"",""3517""
","
","
","""event"",""trial"",""time""
""fullscreenenter"",""1"",""3517""
","
","","616.2000000476837","","","","real_trial","2021-06-25 22:27:40.981","img/card_backs/set1/red.gif","3","-70","1","",""
"casino-fixation","110","420040","0.0-25.0-0.19","870","false","img/card_backs/set1/purple.gif","img/card_backs/set1/green.gif","img/card_backs/set1/red.gif","img/card_backs/set1/yellow.gif","img/card_backs/set2/gray.gif","img/card_backs/set2/pink.gif","img/card_backs/set2/orange.gif","img/card_backs/set2/blue.gif","""event"",""trial"",""time""
""fullscreenenter"",""1"",""3517""
","
","
","""event"",""trial"",""time""
""fullscreenenter"",""1"",""3517""
","
","","null","","null","","fixation","2021-06-25 22:27:41.486","","","","","",""
"card-selection-trial","111","423030","0.0-25.0-1.19","870","false","img/card_backs/set1/purple.gif","img/card_backs/set1/green.gif","img/card_backs/set1/red.gif","img/card_backs/set1/yellow.gif","img/card_backs/set2/gray.gif","img/card_backs/set2/pink.gif","img/card_backs/set2/orange.gif","img/card_backs/set2/blue.gif","""event"",""trial"",""time""
""fullscreenenter"",""1"",""3517""
","
","
","""event"",""trial"",""time""
""fullscreenenter"",""1"",""3517""
","
","","986.1999999284744","","","","real_trial","2021-06-25 22:27:44.476","img/card_backs/set1/red.gif","1","-50","1","",""
"casino-fixation","112","423535","0.0-25.0-0.20","870","false","img/card_backs/set1/purple.gif","img/card_backs/set1/green.gif","img/card_backs/set1/red.gif","img/card_backs/set1/yellow.gif","img/card_backs/set2/gray.gif","img/card_backs/set2/pink.gif","img/card_backs/set2/orange.gif","img/card_backs/set2/blue.gif","""event"",""trial"",""time""
""fullscreenenter"",""1"",""3517""
","
","
","""event"",""trial"",""time""
""fullscreenenter"",""1"",""3517""
","
","","null","","null","","fixation","2021-06-25 22:27:44.981","","","","","",""
"card-selection-trial","113","426577","0.0-25.0-1.20","870","false","img/card_backs/set1/purple.gif","img/card_backs/set1/green.gif","img/card_backs/set1/red.gif","img/card_backs/set1/yellow.gif","img/card_backs/set2/gray.gif","img/card_backs/set2/pink.gif","img/card_backs/set2/orange.gif","img/card_backs/set2/blue.gif","""event"",""trial"",""time""
""fullscreenenter"",""1"",""3517""
","
","
","""event"",""trial"",""time""
""fullscreenenter"",""1"",""3517""
","
","","1035.6999999284744","","","","real_trial","2021-06-25 22:27:48.023","img/card_backs/set1/red.gif","2","110","1","",""
"casino-fixation","114","427081","0.0-25.0-0.21","870","false","img/card_backs/set1/purple.gif","img/card_backs/set1/green.gif","img/card_backs/set1/red.gif","img/card_backs/set1/yellow.gif","img/card_backs/set2/gray.gif","img/card_backs/set2/pink.gif","img/card_backs/set2/orange.gif","img/card_backs/set2/blue.gif","""event"",""trial"",""time""
""fullscreenenter"",""1"",""3517""
","
","
","""event"",""trial"",""time""
""fullscreenenter"",""1"",""3517""
","
","","null","","null","","fixation","2021-06-25 22:27:48.528","","","","","",""
"card-selection-trial","115","430042","0.0-25.0-1.21","870","false","img/card_backs/set1/purple.gif","img/card_backs/set1/green.gif","img/card_backs/set1/red.gif","img/card_backs/set1/yellow.gif","img/card_backs/set2/gray.gif","img/card_backs/set2/pink.gif","img/card_backs/set2/orange.gif","img/card_backs/set2/blue.gif","""event"",""trial"",""time""
""fullscreenenter"",""1"",""3517""
","
","
","""event"",""trial"",""time""
""fullscreenenter"",""1"",""3517""
","
","","953.2000000476837","","","","real_trial","2021-06-25 22:27:51.488","img/card_backs/set1/red.gif","2","-70","1","",""
"casino-fixation","116","430547","0.0-25.0-0.22","870","false","img/card_backs/set1/purple.gif","img/card_backs/set1/green.gif","img/card_backs/set1/red.gif","img/card_backs/set1/yellow.gif","img/card_backs/set2/gray.gif","img/card_backs/set2/pink.gif","img/card_backs/set2/orange.gif","img/card_backs/set2/blue.gif","""event"",""trial"",""time""
""fullscreenenter"",""1"",""3517""
","
","
","""event"",""trial"",""time""
""fullscreenenter"",""1"",""3517""
","
","","null","","null","","fixation","2021-06-25 22:27:51.993","","","","","",""
"card-selection-trial","117","433351","0.0-25.0-1.22","870","false","img/card_backs/set1/purple.gif","img/card_backs/set1/green.gif","img/card_backs/set1/red.gif","img/card_backs/set1/yellow.gif","img/card_backs/set2/gray.gif","img/card_backs/set2/pink.gif","img/card_backs/set2/orange.gif","img/card_backs/set2/blue.gif","""event"",""trial"",""time""
""fullscreenenter"",""1"",""3517""
","
","
","""event"",""trial"",""time""
""fullscreenenter"",""1"",""3517""
","
","","796.1999999284744","","","","real_trial","2021-06-25 22:27:54.797","img/card_backs/set1/red.gif","1","100","1","",""
"casino-fixation","118","433856","0.0-25.0-0.23","870","false","img/card_backs/set1/purple.gif","img/card_backs/set1/green.gif","img/card_backs/set1/red.gif","img/card_backs/set1/yellow.gif","img/card_backs/set2/gray.gif","img/card_backs/set2/pink.gif","img/card_backs/set2/orange.gif","img/card_backs/set2/blue.gif","""event"",""trial"",""time""
""fullscreenenter"",""1"",""3517""
","
","
","""event"",""trial"",""time""
""fullscreenenter"",""1"",""3517""
","
","","null","","null","","fixation","2021-06-25 22:27:55.302","","","","","",""
"card-selection-trial","119","436567","0.0-25.0-1.23","870","false","img/card_backs/set1/purple.gif","img/card_backs/set1/green.gif","img/card_backs/set1/red.gif","img/card_backs/set1/yellow.gif","img/card_backs/set2/gray.gif","img/card_backs/set2/pink.gif","img/card_backs/set2/orange.gif","img/card_backs/set2/blue.gif","""event"",""trial"",""time""
""fullscreenenter"",""1"",""3517""
","
","
","""event"",""trial"",""time""
""fullscreenenter"",""1"",""3517""
","
","","705.2999999523163","","","","real_trial","2021-06-25 22:27:58.013","img/card_backs/set1/red.gif","1","110","1","",""
"casino-fixation","120","437068","0.0-25.0-0.24","870","false","img/card_backs/set1/purple.gif","img/card_backs/set1/green.gif","img/card_backs/set1/red.gif","img/card_backs/set1/yellow.gif","img/card_backs/set2/gray.gif","img/card_backs/set2/pink.gif","img/card_backs/set2/orange.gif","img/card_backs/set2/blue.gif","""event"",""trial"",""time""
""fullscreenenter"",""1"",""3517""
","
","
","""event"",""trial"",""time""
""fullscreenenter"",""1"",""3517""
","
","","null","","null","","fixation","2021-06-25 22:27:58.514","","","","","",""
"card-selection-trial","121","440427","0.0-25.0-1.24","870","false","img/card_backs/set1/purple.gif","img/card_backs/set1/green.gif","img/card_backs/set1/red.gif","img/card_backs/set1/yellow.gif","img/card_backs/set2/gray.gif","img/card_backs/set2/pink.gif","img/card_backs/set2/orange.gif","img/card_backs/set2/blue.gif","""event"",""trial"",""time""
""fullscreenenter"",""1"",""3517""
","
","
","""event"",""trial"",""time""
""fullscreenenter"",""1"",""3517""
","
","","1352.1000000238419","","","","real_trial","2021-06-25 22:28:01.873","img/card_backs/set1/red.gif","0","-70","1","",""
"casino-fixation","122","440932","0.0-25.0-0.25","870","false","img/card_backs/set1/purple.gif","img/card_backs/set1/green.gif","img/card_backs/set1/red.gif","img/card_backs/set1/yellow.gif","img/card_backs/set2/gray.gif","img/card_backs/set2/pink.gif","img/card_backs/set2/orange.gif","img/card_backs/set2/blue.gif","""event"",""trial"",""time""
""fullscreenenter"",""1"",""3517""
","
","
","""event"",""trial"",""time""
""fullscreenenter"",""1"",""3517""
","
","","null","","null","","fixation","2021-06-25 22:28:02.378","","","","","",""
"card-selection-trial","123","443881","0.0-25.0-1.25","870","false","img/card_backs/set1/purple.gif","img/card_backs/set1/green.gif","img/card_backs/set1/red.gif","img/card_backs/set1/yellow.gif","img/card_backs/set2/gray.gif","img/card_backs/set2/pink.gif","img/card_backs/set2/orange.gif","img/card_backs/set2/blue.gif","""event"",""trial"",""time""
""fullscreenenter"",""1"",""3517""
","
","
","""event"",""trial"",""time""
""fullscreenenter"",""1"",""3517""
","
","","942","","","","real_trial","2021-06-25 22:28:05.327","img/card_backs/set1/red.gif","2","100","1","",""
"casino-fixation","124","444386","0.0-25.0-0.26","870","false","img/card_backs/set1/purple.gif","img/card_backs/set1/green.gif","img/card_backs/set1/red.gif","img/card_backs/set1/yellow.gif","img/card_backs/set2/gray.gif","img/card_backs/set2/pink.gif","img/card_backs/set2/orange.gif","img/card_backs/set2/blue.gif","""event"",""trial"",""time""
""fullscreenenter"",""1"",""3517""
","
","
","""event"",""trial"",""time""
""fullscreenenter"",""1"",""3517""
","
","","null","","null","","fixation","2021-06-25 22:28:05.832","","","","","",""
"card-selection-trial","125","447200","0.0-25.0-1.26","870","false","img/card_backs/set1/purple.gif","img/card_backs/set1/green.gif","img/card_backs/set1/red.gif","img/card_backs/set1/yellow.gif","img/card_backs/set2/gray.gif","img/card_backs/set2/pink.gif","img/card_backs/set2/orange.gif","img/card_backs/set2/blue.gif","""event"",""trial"",""time""
""fullscreenenter"",""1"",""3517""
","
","
","""event"",""trial"",""time""
""fullscreenenter"",""1"",""3517""
","
","","807.3000000715256","","","","real_trial","2021-06-25 22:28:08.647","img/card_backs/set1/red.gif","1","-60","1","",""
"casino-fixation","126","447706","0.0-25.0-0.27","870","false","img/card_backs/set1/purple.gif","img/card_backs/set1/green.gif","img/card_backs/set1/red.gif","img/card_backs/set1/yellow.gif","img/card_backs/set2/gray.gif","img/card_backs/set2/pink.gif","img/card_backs/set2/orange.gif","img/card_backs/set2/blue.gif","""event"",""trial"",""time""
""fullscreenenter"",""1"",""3517""
","
","
","""event"",""trial"",""time""
""fullscreenenter"",""1"",""3517""
","
","","null","","null","","fixation","2021-06-25 22:28:09.152","","","","","",""
"card-selection-trial","127","450295","0.0-25.0-1.27","870","false","img/card_backs/set1/purple.gif","img/card_backs/set1/green.gif","img/card_backs/set1/red.gif","img/card_backs/set1/yellow.gif","img/card_backs/set2/gray.gif","img/card_backs/set2/pink.gif","img/card_backs/set2/orange.gif","img/card_backs/set2/blue.gif","""event"",""trial"",""time""
""fullscreenenter"",""1"",""3517""
","
","
","""event"",""trial"",""time""
""fullscreenenter"",""1"",""3517""
","
","","581.0999999046326","","","","real_trial","2021-06-25 22:28:11.741","img/card_backs/set1/red.gif","2","-70","1","",""
"casino-fixation","128","450800","0.0-25.0-0.28","870","false","img/card_backs/set1/purple.gif","img/card_backs/set1/green.gif","img/card_backs/set1/red.gif","img/card_backs/set1/yellow.gif","img/card_backs/set2/gray.gif","img/card_backs/set2/pink.gif","img/card_backs/set2/orange.gif","img/card_backs/set2/blue.gif","""event"",""trial"",""time""
""fullscreenenter"",""1"",""3517""
","
","
","""event"",""trial"",""time""
""fullscreenenter"",""1"",""3517""
","
","","null","","null","","fixation","2021-06-25 22:28:12.246","","","","","",""
"card-selection-trial","129","453824","0.0-25.0-1.28","870","false","img/card_backs/set1/purple.gif","img/card_backs/set1/green.gif","img/card_backs/set1/red.gif","img/card_backs/set1/yellow.gif","img/card_backs/set2/gray.gif","img/card_backs/set2/pink.gif","img/card_backs/set2/orange.gif","img/card_backs/set2/blue.gif","""event"",""trial"",""time""
""fullscreenenter"",""1"",""3517""
","
","
","""event"",""trial"",""time""
""fullscreenenter"",""1"",""3517""
","
","","1019.8000000715256","","","","real_trial","2021-06-25 22:28:15.270","img/card_backs/set1/red.gif","0","-60","1","",""
"casino-fixation","130","454329","0.0-25.0-0.29","870","false","img/card_backs/set1/purple.gif","img/card_backs/set1/green.gif","img/card_backs/set1/red.gif","img/card_backs/set1/yellow.gif","img/card_backs/set2/gray.gif","img/card_backs/set2/pink.gif","img/card_backs/set2/orange.gif","img/card_backs/set2/blue.gif","""event"",""trial"",""time""
""fullscreenenter"",""1"",""3517""
","
","
","""event"",""trial"",""time""
""fullscreenenter"",""1"",""3517""
","
","","null","","null","","fixation","2021-06-25 22:28:15.775","","","","","",""
"card-selection-trial","131","457280","0.0-25.0-1.29","870","false","img/card_backs/set1/purple.gif","img/card_backs/set1/green.gif","img/card_backs/set1/red.gif","img/card_backs/set1/yellow.gif","img/card_backs/set2/gray.gif","img/card_backs/set2/pink.gif","img/card_backs/set2/orange.gif","img/card_backs/set2/blue.gif","""event"",""trial"",""time""
""fullscreenenter"",""1"",""3517""
","
","
","""event"",""trial"",""time""
""fullscreenenter"",""1"",""3517""
","
","","944","","","","real_trial","2021-06-25 22:28:18.726","img/card_backs/set1/red.gif","3","120","1","",""
"casino-fixation","132","457783","0.0-25.0-0.30","870","false","img/card_backs/set1/purple.gif","img/card_backs/set1/green.gif","img/card_backs/set1/red.gif","img/card_backs/set1/yellow.gif","img/card_backs/set2/gray.gif","img/card_backs/set2/pink.gif","img/card_backs/set2/orange.gif","img/card_backs/set2/blue.gif","""event"",""trial"",""time""
""fullscreenenter"",""1"",""3517""
","
","
","""event"",""trial"",""time""
""fullscreenenter"",""1"",""3517""
","
","","null","","null","","fixation","2021-06-25 22:28:19.229","","","","","",""
"card-selection-trial","133","460418","0.0-25.0-1.30","870","false","img/card_backs/set1/purple.gif","img/card_backs/set1/green.gif","img/card_backs/set1/red.gif","img/card_backs/set1/yellow.gif","img/card_backs/set2/gray.gif","img/card_backs/set2/pink.gif","img/card_backs/set2/orange.gif","img/card_backs/set2/blue.gif","""event"",""trial"",""time""
""fullscreenenter"",""1"",""3517""
","
","
","""event"",""trial"",""time""
""fullscreenenter"",""1"",""3517""
","
","","629.5","","","","real_trial","2021-06-25 22:28:21.864","img/card_backs/set1/red.gif","3","100","1","",""
"casino-fixation","134","460923","0.0-25.0-0.31","870","false","img/card_backs/set1/purple.gif","img/card_backs/set1/green.gif","img/card_backs/set1/red.gif","img/card_backs/set1/yellow.gif","img/card_backs/set2/gray.gif","img/card_backs/set2/pink.gif","img/card_backs/set2/orange.gif","img/card_backs/set2/blue.gif","""event"",""trial"",""time""
""fullscreenenter"",""1"",""3517""
","
","
","""event"",""trial"",""time""
""fullscreenenter"",""1"",""3517""
","
","","null","","null","","fixation","2021-06-25 22:28:22.369","","","","","",""
"card-selection-trial","135","463750","0.0-25.0-1.31","870","false","img/card_backs/set1/purple.gif","img/card_backs/set1/green.gif","img/card_backs/set1/red.gif","img/card_backs/set1/yellow.gif","img/card_backs/set2/gray.gif","img/card_backs/set2/pink.gif","img/card_backs/set2/orange.gif","img/card_backs/set2/blue.gif","""event"",""trial"",""time""
""fullscreenenter"",""1"",""3517""
","
","
","""event"",""trial"",""time""
""fullscreenenter"",""1"",""3517""
","
","","819","","","","real_trial","2021-06-25 22:28:25.196","img/card_backs/set1/red.gif","3","-60","1","",""
"casino-fixation","136","464255","0.0-25.0-0.32","870","false","img/card_backs/set1/purple.gif","img/card_backs/set1/green.gif","img/card_backs/set1/red.gif","img/card_backs/set1/yellow.gif","img/card_backs/set2/gray.gif","img/card_backs/set2/pink.gif","img/card_backs/set2/orange.gif","img/card_backs/set2/blue.gif","""event"",""trial"",""time""
""fullscreenenter"",""1"",""3517""
","
","
","""event"",""trial"",""time""
""fullscreenenter"",""1"",""3517""
","
","","null","","null","","fixation","2021-06-25 22:28:25.701","","","","","",""
"card-selection-trial","137","466786","0.0-25.0-1.32","870","false","img/card_backs/set1/purple.gif","img/card_backs/set1/green.gif","img/card_backs/set1/red.gif","img/card_backs/set1/yellow.gif","img/card_backs/set2/gray.gif","img/card_backs/set2/pink.gif","img/card_backs/set2/orange.gif","img/card_backs/set2/blue.gif","""event"",""trial"",""time""
""fullscreenenter"",""1"",""3517""
","
","
","""event"",""trial"",""time""
""fullscreenenter"",""1"",""3517""
","
","","525.2000000476837","","","","real_trial","2021-06-25 22:28:28.232","img/card_backs/set1/red.gif","3","110","1","",""
"casino-fixation","138","467291","0.0-25.0-0.33","870","false","img/card_backs/set1/purple.gif","img/card_backs/set1/green.gif","img/card_backs/set1/red.gif","img/card_backs/set1/yellow.gif","img/card_backs/set2/gray.gif","img/card_backs/set2/pink.gif","img/card_backs/set2/orange.gif","img/card_backs/set2/blue.gif","""event"",""trial"",""time""
""fullscreenenter"",""1"",""3517""
","
","
","""event"",""trial"",""time""
""fullscreenenter"",""1"",""3517""
","
","","null","","null","","fixation","2021-06-25 22:28:28.737","","","","","",""
"card-selection-trial","139","470588","0.0-25.0-1.33","870","false","img/card_backs/set1/purple.gif","img/card_backs/set1/green.gif","img/card_backs/set1/red.gif","img/card_backs/set1/yellow.gif","img/card_backs/set2/gray.gif","img/card_backs/set2/pink.gif","img/card_backs/set2/orange.gif","img/card_backs/set2/blue.gif","""event"",""trial"",""time""
""fullscreenenter"",""1"",""3517""
","
","
","""event"",""trial"",""time""
""fullscreenenter"",""1"",""3517""
","
","","1291.7000000476837","","","","real_trial","2021-06-25 22:28:32.035","img/card_backs/set1/red.gif","2","-60","1","",""
"casino-fixation","140","471093","0.0-25.0-0.34","870","false","img/card_backs/set1/purple.gif","img/card_backs/set1/green.gif","img/card_backs/set1/red.gif","img/card_backs/set1/yellow.gif","img/card_backs/set2/gray.gif","img/card_backs/set2/pink.gif","img/card_backs/set2/orange.gif","img/card_backs/set2/blue.gif","""event"",""trial"",""time""
""fullscreenenter"",""1"",""3517""
","
","
","""event"",""trial"",""time""
""fullscreenenter"",""1"",""3517""
","
","","null","","null","","fixation","2021-06-25 22:28:32.539","","","","","",""
"card-selection-trial","141","476689","0.0-25.0-1.34","870","false","img/card_backs/set1/purple.gif","img/card_backs/set1/green.gif","img/card_backs/set1/red.gif","img/card_backs/set1/yellow.gif","img/card_backs/set2/gray.gif","img/card_backs/set2/pink.gif","img/card_backs/set2/orange.gif","img/card_backs/set2/blue.gif","""event"",""trial"",""time""
""fullscreenenter"",""1"",""3517""
","
","
","""event"",""trial"",""time""
""fullscreenenter"",""1"",""3517""
","
","","3587.5","","","","real_trial","2021-06-25 22:28:38.135","img/card_backs/set1/red.gif","0","100","1","",""
"casino-fixation","142","477194","0.0-25.0-0.35","870","false","img/card_backs/set1/purple.gif","img/card_backs/set1/green.gif","img/card_backs/set1/red.gif","img/card_backs/set1/yellow.gif","img/card_backs/set2/gray.gif","img/card_backs/set2/pink.gif","img/card_backs/set2/orange.gif","img/card_backs/set2/blue.gif","""event"",""trial"",""time""
""fullscreenenter"",""1"",""3517""
","
","
","""event"",""trial"",""time""
""fullscreenenter"",""1"",""3517""
","
","","null","","null","","fixation","2021-06-25 22:28:38.640","","","","","",""
"card-selection-trial","143","480375","0.0-25.0-1.35","870","false","img/card_backs/set1/purple.gif","img/card_backs/set1/green.gif","img/card_backs/set1/red.gif","img/card_backs/set1/yellow.gif","img/card_backs/set2/gray.gif","img/card_backs/set2/pink.gif","img/card_backs/set2/orange.gif","img/card_backs/set2/blue.gif","""event"",""trial"",""time""
""fullscreenenter"",""1"",""3517""
","
","
","""event"",""trial"",""time""
""fullscreenenter"",""1"",""3517""
","
","","1177.1000000238419","","","","real_trial","2021-06-25 22:28:41.821","img/card_backs/set1/green.gif","0","-240","1","",""
"casino-fixation","144","480880","0.0-25.0-0.36","870","false","img/card_backs/set1/purple.gif","img/card_backs/set1/green.gif","img/card_backs/set1/red.gif","img/card_backs/set1/yellow.gif","img/card_backs/set2/gray.gif","img/card_backs/set2/pink.gif","img/card_backs/set2/orange.gif","img/card_backs/set2/blue.gif","""event"",""trial"",""time""
""fullscreenenter"",""1"",""3517""
","
","
","""event"",""trial"",""time""
""fullscreenenter"",""1"",""3517""
","
","","null","","null","","fixation","2021-06-25 22:28:42.326","","","","","",""
"card-selection-trial","145","483469","0.0-25.0-1.36","870","false","img/card_backs/set1/purple.gif","img/card_backs/set1/green.gif","img/card_backs/set1/red.gif","img/card_backs/set1/yellow.gif","img/card_backs/set2/gray.gif","img/card_backs/set2/pink.gif","img/card_backs/set2/orange.gif","img/card_backs/set2/blue.gif","""event"",""trial"",""time""
""fullscreenenter"",""1"",""3517""
","
","
","""event"",""trial"",""time""
""fullscreenenter"",""1"",""3517""
","
","","584.6000000238419","","","","real_trial","2021-06-25 22:28:44.915","img/card_backs/set1/red.gif","3","100","1","",""
"casino-fixation","146","483974","0.0-25.0-0.37","870","false","img/card_backs/set1/purple.gif","img/card_backs/set1/green.gif","img/card_backs/set1/red.gif","img/card_backs/set1/yellow.gif","img/card_backs/set2/gray.gif","img/card_backs/set2/pink.gif","img/card_backs/set2/orange.gif","img/card_backs/set2/blue.gif","""event"",""trial"",""time""
""fullscreenenter"",""1"",""3517""
","
","
","""event"",""trial"",""time""
""fullscreenenter"",""1"",""3517""
","
","","null","","null","","fixation","2021-06-25 22:28:45.420","","","","","",""
"card-selection-trial","147","486586","0.0-25.0-1.37","870","false","img/card_backs/set1/purple.gif","img/card_backs/set1/green.gif","img/card_backs/set1/red.gif","img/card_backs/set1/yellow.gif","img/card_backs/set2/gray.gif","img/card_backs/set2/pink.gif","img/card_backs/set2/orange.gif","img/card_backs/set2/blue.gif","""event"",""trial"",""time""
""fullscreenenter"",""1"",""3517""
","
","
","""event"",""trial"",""time""
""fullscreenenter"",""1"",""3517""
","
","","607.5","","","","real_trial","2021-06-25 22:28:48.032","img/card_backs/set1/red.gif","0","120","1","",""
"casino-fixation","148","487091","0.0-25.0-0.38","870","false","img/card_backs/set1/purple.gif","img/card_backs/set1/green.gif","img/card_backs/set1/red.gif","img/card_backs/set1/yellow.gif","img/card_backs/set2/gray.gif","img/card_backs/set2/pink.gif","img/card_backs/set2/orange.gif","img/card_backs/set2/blue.gif","""event"",""trial"",""time""
""fullscreenenter"",""1"",""3517""
","
","
","""event"",""trial"",""time""
""fullscreenenter"",""1"",""3517""
","
","","null","","null","","fixation","2021-06-25 22:28:48.537","","","","","",""
"card-selection-trial","149","489796","0.0-25.0-1.38","870","false","img/card_backs/set1/purple.gif","img/card_backs/set1/green.gif","img/card_backs/set1/red.gif","img/card_backs/set1/yellow.gif","img/card_backs/set2/gray.gif","img/card_backs/set2/pink.gif","img/card_backs/set2/orange.gif","img/card_backs/set2/blue.gif","""event"",""trial"",""time""
""fullscreenenter"",""1"",""3517""
","
","
","""event"",""trial"",""time""
""fullscreenenter"",""1"",""3517""
","
","","696.2999999523163","","","","real_trial","2021-06-25 22:28:51.242","img/card_backs/set1/red.gif","0","-70","1","",""
"casino-fixation","150","490301","0.0-25.0-0.39","870","false","img/card_backs/set1/purple.gif","img/card_backs/set1/green.gif","img/card_backs/set1/red.gif","img/card_backs/set1/yellow.gif","img/card_backs/set2/gray.gif","img/card_backs/set2/pink.gif","img/card_backs/set2/orange.gif","img/card_backs/set2/blue.gif","""event"",""trial"",""time""
""fullscreenenter"",""1"",""3517""
","
","
","""event"",""trial"",""time""
""fullscreenenter"",""1"",""3517""
","
","","null","","null","","fixation","2021-06-25 22:28:51.747","","","","","",""
"card-selection-trial","151","493157","0.0-25.0-1.39","870","false","img/card_backs/set1/purple.gif","img/card_backs/set1/green.gif","img/card_backs/set1/red.gif","img/card_backs/set1/yellow.gif","img/card_backs/set2/gray.gif","img/card_backs/set2/pink.gif","img/card_backs/set2/orange.gif","img/card_backs/set2/blue.gif","""event"",""trial"",""time""
""fullscreenenter"",""1"",""3517""
","
","
","""event"",""trial"",""time""
""fullscreenenter"",""1"",""3517""
","
","","851","","","","real_trial","2021-06-25 22:28:54.603","img/card_backs/set1/red.gif","3","-70","1","",""
"casino-fixation","152","493658","0.0-25.0-0.40","870","false","img/card_backs/set1/purple.gif","img/card_backs/set1/green.gif","img/card_backs/set1/red.gif","img/card_backs/set1/yellow.gif","img/card_backs/set2/gray.gif","img/card_backs/set2/pink.gif","img/card_backs/set2/orange.gif","img/card_backs/set2/blue.gif","""event"",""trial"",""time""
""fullscreenenter"",""1"",""3517""
","
","
","""event"",""trial"",""time""
""fullscreenenter"",""1"",""3517""
","
","","null","","null","","fixation","2021-06-25 22:28:55.104","","","","","",""
"card-selection-trial","153","496040","0.0-25.0-1.40","870","false","img/card_backs/set1/purple.gif","img/card_backs/set1/green.gif","img/card_backs/set1/red.gif","img/card_backs/set1/yellow.gif","img/card_backs/set2/gray.gif","img/card_backs/set2/pink.gif","img/card_backs/set2/orange.gif","img/card_backs/set2/blue.gif","""event"",""trial"",""time""
""fullscreenenter"",""1"",""3517""
","
","
","""event"",""trial"",""time""
""fullscreenenter"",""1"",""3517""
","
","","373.2000000476837","","","","real_trial","2021-06-25 22:28:57.486","img/card_backs/set1/red.gif","2","-60","1","",""
"casino-fixation","154","496544","0.0-25.0-0.41","870","false","img/card_backs/set1/purple.gif","img/card_backs/set1/green.gif","img/card_backs/set1/red.gif","img/card_backs/set1/yellow.gif","img/card_backs/set2/gray.gif","img/card_backs/set2/pink.gif","img/card_backs/set2/orange.gif","img/card_backs/set2/blue.gif","""event"",""trial"",""time""
""fullscreenenter"",""1"",""3517""
","
","
","""event"",""trial"",""time""
""fullscreenenter"",""1"",""3517""
","
","","null","","null","","fixation","2021-06-25 22:28:57.990","","","","","",""
"card-selection-trial","155","499963","0.0-25.0-1.41","870","false","img/card_backs/set1/purple.gif","img/card_backs/set1/green.gif","img/card_backs/set1/red.gif","img/card_backs/set1/yellow.gif","img/card_backs/set2/gray.gif","img/card_backs/set2/pink.gif","img/card_backs/set2/orange.gif","img/card_backs/set2/blue.gif","""event"",""trial"",""time""
""fullscreenenter"",""1"",""3517""
","
","
","""event"",""trial"",""time""
""fullscreenenter"",""1"",""3517""
","
","","1414.1999999284744","","","","real_trial","2021-06-25 22:29:01.409","img/card_backs/set1/purple.gif","0","-250","1","",""
"casino-fixation","156","500465","0.0-25.0-0.42","870","false","img/card_backs/set1/purple.gif","img/card_backs/set1/green.gif","img/card_backs/set1/red.gif","img/card_backs/set1/yellow.gif","img/card_backs/set2/gray.gif","img/card_backs/set2/pink.gif","img/card_backs/set2/orange.gif","img/card_backs/set2/blue.gif","""event"",""trial"",""time""
""fullscreenenter"",""1"",""3517""
","
","
","""event"",""trial"",""time""
""fullscreenenter"",""1"",""3517""
","
","","null","","null","","fixation","2021-06-25 22:29:01.911","","","","","",""
"card-selection-trial","157","503838","0.0-25.0-1.42","870","false","img/card_backs/set1/purple.gif","img/card_backs/set1/green.gif","img/card_backs/set1/red.gif","img/card_backs/set1/yellow.gif","img/card_backs/set2/gray.gif","img/card_backs/set2/pink.gif","img/card_backs/set2/orange.gif","img/card_backs/set2/blue.gif","""event"",""trial"",""time""
""fullscreenenter"",""1"",""3517""
","
","
","""event"",""trial"",""time""
""fullscreenenter"",""1"",""3517""
","
","","1364","","","","real_trial","2021-06-25 22:29:05.284","img/card_backs/set1/green.gif","1","200","1","",""
"casino-fixation","158","504343","0.0-25.0-0.43","870","false","img/card_backs/set1/purple.gif","img/card_backs/set1/green.gif","img/card_backs/set1/red.gif","img/card_backs/set1/yellow.gif","img/card_backs/set2/gray.gif","img/card_backs/set2/pink.gif","img/card_backs/set2/orange.gif","img/card_backs/set2/blue.gif","""event"",""trial"",""time""
""fullscreenenter"",""1"",""3517""
","
","
","""event"",""trial"",""time""
""fullscreenenter"",""1"",""3517""
","
","","null","","null","","fixation","2021-06-25 22:29:05.789","","","","","",""
"card-selection-trial","159","507582","0.0-25.0-1.43","870","false","img/card_backs/set1/purple.gif","img/card_backs/set1/green.gif","img/card_backs/set1/red.gif","img/card_backs/set1/yellow.gif","img/card_backs/set2/gray.gif","img/card_backs/set2/pink.gif","img/card_backs/set2/orange.gif","img/card_backs/set2/blue.gif","""event"",""trial"",""time""
""fullscreenenter"",""1"",""3517""
","
","
","""event"",""trial"",""time""
""fullscreenenter"",""1"",""3517""
","
","","1230.8999999761581","","","","real_trial","2021-06-25 22:29:09.028","img/card_backs/set1/green.gif","2","200","1","",""
"casino-fixation","160","508087","0.0-25.0-0.44","870","false","img/card_backs/set1/purple.gif","img/card_backs/set1/green.gif","img/card_backs/set1/red.gif","img/card_backs/set1/yellow.gif","img/card_backs/set2/gray.gif","img/card_backs/set2/pink.gif","img/card_backs/set2/orange.gif","img/card_backs/set2/blue.gif","""event"",""trial"",""time""
""fullscreenenter"",""1"",""3517""
","
","
","""event"",""trial"",""time""
""fullscreenenter"",""1"",""3517""
","
","","null","","null","","fixation","2021-06-25 22:29:09.533","","","","","",""
"card-selection-trial","161","510775","0.0-25.0-1.44","870","false","img/card_backs/set1/purple.gif","img/card_backs/set1/green.gif","img/card_backs/set1/red.gif","img/card_backs/set1/yellow.gif","img/card_backs/set2/gray.gif","img/card_backs/set2/pink.gif","img/card_backs/set2/orange.gif","img/card_backs/set2/blue.gif","""event"",""trial"",""time""
""fullscreenenter"",""1"",""3517""
","
","
","""event"",""trial"",""time""
""fullscreenenter"",""1"",""3517""
","
","","682.3000000715256","","","","real_trial","2021-06-25 22:29:12.221","img/card_backs/set1/green.gif","1","200","1","",""
"casino-fixation","162","511280","0.0-25.0-0.45","870","false","img/card_backs/set1/purple.gif","img/card_backs/set1/green.gif","img/card_backs/set1/red.gif","img/card_backs/set1/yellow.gif","img/card_backs/set2/gray.gif","img/card_backs/set2/pink.gif","img/card_backs/set2/orange.gif","img/card_backs/set2/blue.gif","""event"",""trial"",""time""
""fullscreenenter"",""1"",""3517""
","
","
","""event"",""trial"",""time""
""fullscreenenter"",""1"",""3517""
","
","","null","","null","","fixation","2021-06-25 22:29:12.726","","","","","",""
"card-selection-trial","163","514240","0.0-25.0-1.45","870","false","img/card_backs/set1/purple.gif","img/card_backs/set1/green.gif","img/card_backs/set1/red.gif","img/card_backs/set1/yellow.gif","img/card_backs/set2/gray.gif","img/card_backs/set2/pink.gif","img/card_backs/set2/orange.gif","img/card_backs/set2/blue.gif","""event"",""trial"",""time""
""fullscreenenter"",""1"",""3517""
","
","
","""event"",""trial"",""time""
""fullscreenenter"",""1"",""3517""
","
","","955.8999999761581","","","","real_trial","2021-06-25 22:29:15.686","img/card_backs/set1/green.gif","3","-240","1","",""
"casino-fixation","164","514745","0.0-25.0-0.46","870","false","img/card_backs/set1/purple.gif","img/card_backs/set1/green.gif","img/card_backs/set1/red.gif","img/card_backs/set1/yellow.gif","img/card_backs/set2/gray.gif","img/card_backs/set2/pink.gif","img/card_backs/set2/orange.gif","img/card_backs/set2/blue.gif","""event"",""trial"",""time""
""fullscreenenter"",""1"",""3517""
","
","
","""event"",""trial"",""time""
""fullscreenenter"",""1"",""3517""
","
","","null","","null","","fixation","2021-06-25 22:29:16.191","","","","","",""
"card-selection-trial","165","517775","0.0-25.0-1.46","870","false","img/card_backs/set1/purple.gif","img/card_backs/set1/green.gif","img/card_backs/set1/red.gif","img/card_backs/set1/yellow.gif","img/card_backs/set2/gray.gif","img/card_backs/set2/pink.gif","img/card_backs/set2/orange.gif","img/card_backs/set2/blue.gif","""event"",""trial"",""time""
""fullscreenenter"",""1"",""3517""
","
","
","""event"",""trial"",""time""
""fullscreenenter"",""1"",""3517""
","
","","1022.3999999761581","","","","real_trial","2021-06-25 22:29:19.221","img/card_backs/set1/red.gif","1","-50","1","",""
"casino-fixation","166","518280","0.0-25.0-0.47","870","false","img/card_backs/set1/purple.gif","img/card_backs/set1/green.gif","img/card_backs/set1/red.gif","img/card_backs/set1/yellow.gif","img/card_backs/set2/gray.gif","img/card_backs/set2/pink.gif","img/card_backs/set2/orange.gif","img/card_backs/set2/blue.gif","""event"",""trial"",""time""
""fullscreenenter"",""1"",""3517""
","
","
","""event"",""trial"",""time""
""fullscreenenter"",""1"",""3517""
","
","","null","","null","","fixation","2021-06-25 22:29:19.726","","","","","",""
"card-selection-trial","167","521328","0.0-25.0-1.47","870","false","img/card_backs/set1/purple.gif","img/card_backs/set1/green.gif","img/card_backs/set1/red.gif","img/card_backs/set1/yellow.gif","img/card_backs/set2/gray.gif","img/card_backs/set2/pink.gif","img/card_backs/set2/orange.gif","img/card_backs/set2/blue.gif","""event"",""trial"",""time""
""fullscreenenter"",""1"",""3517""
","
","
","""event"",""trial"",""time""
""fullscreenenter"",""1"",""3517""
","
