"trial_type","trial_index","time_elapsed","internal_node_id","sub_id","risk_good_first","block1_A","block1_B","block1_C","block1_D","block2_A","block2_B","block2_C","block2_D","interactions","blur_events","focus_events","fullscreenenter_events","fullscreenexit_events","success","rt","stimulus","key_press","button_pressed","task_part","timestamp","card_choice","choice_position","points_earned","block","correct","response"
"pavlovia","0","4","0.0-0.0","407","false","img/card_backs/set1/yellow.gif","img/card_backs/set1/purple.gif","img/card_backs/set1/green.gif","img/card_backs/set1/red.gif","img/card_backs/set2/pink.gif","img/card_backs/set2/blue.gif","img/card_backs/set2/orange.gif","img/card_backs/set2/gray.gif","""event"",""trial"",""time""
""fullscreenenter"",""1"",""5223""
","
","
","""event"",""trial"",""time""
""fullscreenenter"",""1"",""5223""
","
","","","","","","","","","","","","",""
"fullscreen","1","6188","0.0-1.0","407","false","img/card_backs/set1/yellow.gif","img/card_backs/set1/purple.gif","img/card_backs/set1/green.gif","img/card_backs/set1/red.gif","img/card_backs/set2/pink.gif","img/card_backs/set2/blue.gif","img/card_backs/set2/orange.gif","img/card_backs/set2/gray.gif","""event"",""trial"",""time""
""fullscreenenter"",""1"",""5223""
","
","
","""event"",""trial"",""time""
""fullscreenenter"",""1"",""5223""
","
","true","","","","","","","","","","","",""
"audio-keyboard-response","2","9119","0.0-2.0","407","false","img/card_backs/set1/yellow.gif","img/card_backs/set1/purple.gif","img/card_backs/set1/green.gif","img/card_backs/set1/red.gif","img/card_backs/set2/pink.gif","img/card_backs/set2/blue.gif","img/card_backs/set2/orange.gif","img/card_backs/set2/gray.gif","""event"",""trial"",""time""
""fullscreenenter"",""1"",""5223""
","
","
","""event"",""trial"",""time""
""fullscreenenter"",""1"",""5223""
","
","","2821","audio/beep_loop.wav","174","","","","","","","","",""
"audio-button-response","3","48083","0.0-3.0","407","false","img/card_backs/set1/yellow.gif","img/card_backs/set1/purple.gif","img/card_backs/set1/green.gif","img/card_backs/set1/red.gif","img/card_backs/set2/pink.gif","img/card_backs/set2/blue.gif","img/card_backs/set2/orange.gif","img/card_backs/set2/gray.gif","""event"",""trial"",""time""
""fullscreenenter"",""1"",""5223""
","
","
","""event"",""trial"",""time""
""fullscreenenter"",""1"",""5223""
","
","","NaN","audio/turtle.mp3","","3","","","","","","","",""
"audio-button-response","4","51588","0.0-4.0","407","false","img/card_backs/set1/yellow.gif","img/card_backs/set1/purple.gif","img/card_backs/set1/green.gif","img/card_backs/set1/red.gif","img/card_backs/set2/pink.gif","img/card_backs/set2/blue.gif","img/card_backs/set2/orange.gif","img/card_backs/set2/gray.gif","""event"",""trial"",""time""
""fullscreenenter"",""1"",""5223""
","
","
","""event"",""trial"",""time""
""fullscreenenter"",""1"",""5223""
","
","","NaN","audio/shark.mp3","","2","","","","","","","",""
"fullscreen","5","55117","0.0-5.0","407","false","img/card_backs/set1/yellow.gif","img/card_backs/set1/purple.gif","img/card_backs/set1/green.gif","img/card_backs/set1/red.gif","img/card_backs/set2/pink.gif","img/card_backs/set2/blue.gif","img/card_backs/set2/orange.gif","img/card_backs/set2/gray.gif","""event"",""trial"",""time""
""fullscreenenter"",""1"",""5223""
","
","
","""event"",""trial"",""time""
""fullscreenenter"",""1"",""5223""
","
","true","","","","","","","","","","","",""
"casino-keyboard-response","6","63684","0.0-6.0-0.0","407","false","img/card_backs/set1/yellow.gif","img/card_backs/set1/purple.gif","img/card_backs/set1/green.gif","img/card_backs/set1/red.gif","img/card_backs/set2/pink.gif","img/card_backs/set2/blue.gif","img/card_backs/set2/orange.gif","img/card_backs/set2/gray.gif","""event"",""trial"",""time""
""fullscreenenter"",""1"",""5223""
","
","
","""event"",""trial"",""time""
""fullscreenenter"",""1"",""5223""
","
","","8558.179999701679","Welcome to the casino!","71","","instructions","2021-06-09 22:13:23.262","","","","","",""
"casino-keyboard-response","7","83095","0.0-6.0-0.1","407","false","img/card_backs/set1/yellow.gif","img/card_backs/set1/purple.gif","img/card_backs/set1/green.gif","img/card_backs/set1/red.gif","img/card_backs/set2/pink.gif","img/card_backs/set2/blue.gif","img/card_backs/set2/orange.gif","img/card_backs/set2/gray.gif","""event"",""trial"",""time""
""fullscreenenter"",""1"",""5223""
","
","
","""event"",""trial"",""time""
""fullscreenenter"",""1"",""5223""
","
","","19407.345000188798","Today you will be playing a game to earn tokens. </br> At the end of the experiment, you will be paid a bonus based on how many tokens you win. ","69","","instructions","2021-06-09 22:13:42.673","","","","","",""
"casino-keyboard-response","8","91617","0.0-6.0-0.2","407","false","img/card_backs/set1/yellow.gif","img/card_backs/set1/purple.gif","img/card_backs/set1/green.gif","img/card_backs/set1/red.gif","img/card_backs/set2/pink.gif","img/card_backs/set2/blue.gif","img/card_backs/set2/orange.gif","img/card_backs/set2/gray.gif","""event"",""trial"",""time""
""fullscreenenter"",""1"",""5223""
","
","
","""event"",""trial"",""time""
""fullscreenenter"",""1"",""5223""
","
","","8517.705000005662","On every turn, you will be shown four different decks of cards. </br> You need to select a card from one of the four decks.  ","75","","instructions","2021-06-09 22:13:51.195","","","","","",""
"casino-keyboard-response","9","96602","0.0-6.0-0.3","407","false","img/card_backs/set1/yellow.gif","img/card_backs/set1/purple.gif","img/card_backs/set1/green.gif","img/card_backs/set1/red.gif","img/card_backs/set2/pink.gif","img/card_backs/set2/blue.gif","img/card_backs/set2/orange.gif","img/card_backs/set2/gray.gif","""event"",""trial"",""time""
""fullscreenenter"",""1"",""5223""
","
","
","""event"",""trial"",""time""
""fullscreenenter"",""1"",""5223""
","
","","4979.4749999418855","On the next screen, you will see what the decks will look like. ","66","","instructions","2021-06-09 22:13:56.181","","","","","",""
"card-selection-trial","10","100619","0.0-7.0-0.0","407","false","img/card_backs/set1/yellow.gif","img/card_backs/set1/purple.gif","img/card_backs/set1/green.gif","img/card_backs/set1/red.gif","img/card_backs/set2/pink.gif","img/card_backs/set2/blue.gif","img/card_backs/set2/orange.gif","img/card_backs/set2/gray.gif","""event"",""trial"",""time""
""fullscreenenter"",""1"",""5223""
","
","
","""event"",""trial"",""time""
""fullscreenenter"",""1"",""5223""
","
","","null","","","","practice","2021-06-09 22:14:00.198","null","null","null","0","",""
"casino-keyboard-response","11","109938","0.0-8.0-0.0","407","false","img/card_backs/set1/yellow.gif","img/card_backs/set1/purple.gif","img/card_backs/set1/green.gif","img/card_backs/set1/red.gif","img/card_backs/set2/pink.gif","img/card_backs/set2/blue.gif","img/card_backs/set2/orange.gif","img/card_backs/set2/gray.gif","""event"",""trial"",""time""
""fullscreenenter"",""1"",""5223""
","
","
","""event"",""trial"",""time""
""fullscreenenter"",""1"",""5223""
","
","","9314.705000258982","You should pick a card from a deck using the '2', '4', '6', and '8' keys at the top of the keyboard.","85","","instructions","2021-06-09 22:14:09.516","","","","","",""
"casino-keyboard-response","12","115784","0.0-8.0-0.1","407","false","img/card_backs/set1/yellow.gif","img/card_backs/set1/purple.gif","img/card_backs/set1/green.gif","img/card_backs/set1/red.gif","img/card_backs/set2/pink.gif","img/card_backs/set2/blue.gif","img/card_backs/set2/orange.gif","img/card_backs/set2/gray.gif","""event"",""trial"",""time""
""fullscreenenter"",""1"",""5223""
","
","
","""event"",""trial"",""time""
""fullscreenenter"",""1"",""5223""
","
","","5842.609999701381","Once you select a card, it will turn over and you will see how many tokens you earned.","83","","instructions","2021-06-09 22:14:15.362","","","","","",""
"casino-keyboard-response","13","137403","0.0-8.0-0.2","407","false","img/card_backs/set1/yellow.gif","img/card_backs/set1/purple.gif","img/card_backs/set1/green.gif","img/card_backs/set1/red.gif","img/card_backs/set2/pink.gif","img/card_backs/set2/blue.gif","img/card_backs/set2/orange.gif","img/card_backs/set2/gray.gif","""event"",""trial"",""time""
""fullscreenenter"",""1"",""5223""
","
","
","""event"",""trial"",""time""
""fullscreenenter"",""1"",""5223""
","
","","21615.1750003919","Let's try practicing that! </br> First, try to put your fingers over the '2', '4', '6', and '8' keys. </br>  You can use whatever fingers are most comfortable for you. Try to find a comfortable position now. ","50","","instructions","2021-06-09 22:14:36.981","","","","","",""
"casino-keyboard-response","14","143532","0.0-8.0-0.3","407","false","img/card_backs/set1/yellow.gif","img/card_backs/set1/purple.gif","img/card_backs/set1/green.gif","img/card_backs/set1/red.gif","img/card_backs/set2/pink.gif","img/card_backs/set2/blue.gif","img/card_backs/set2/orange.gif","img/card_backs/set2/gray.gif","""event"",""trial"",""time""
""fullscreenenter"",""1"",""5223""
","
","
","""event"",""trial"",""time""
""fullscreenenter"",""1"",""5223""
","
","","6125.705000013113","Okay ready? </br> On the next screen, press '2' to select the left deck. ","50","","instructions","2021-06-09 22:14:43.110","","","","","",""
"card-selection-trial","15","146178","0.0-9.0-0.0","407","false","img/card_backs/set1/yellow.gif","img/card_backs/set1/purple.gif","img/card_backs/set1/green.gif","img/card_backs/set1/red.gif","img/card_backs/set2/pink.gif","img/card_backs/set2/blue.gif","img/card_backs/set2/orange.gif","img/card_backs/set2/gray.gif","""event"",""trial"",""time""
""fullscreenenter"",""1"",""5223""
","
","
","""event"",""trial"",""time""
""fullscreenenter"",""1"",""5223""
","
","","586.2549999728799","","","","practice_card_selection","2021-06-09 22:14:45.757","img/practice_cards/backs/black.gif","0","100","","",""
"casino-keyboard-response","16","152103","0.0-10.0-0.0","407","false","img/card_backs/set1/yellow.gif","img/card_backs/set1/purple.gif","img/card_backs/set1/green.gif","img/card_backs/set1/red.gif","img/card_backs/set2/pink.gif","img/card_backs/set2/blue.gif","img/card_backs/set2/orange.gif","img/card_backs/set2/gray.gif","""event"",""trial"",""time""
""fullscreenenter"",""1"",""5223""
","
","
","""event"",""trial"",""time""
""fullscreenenter"",""1"",""5223""
","
","","5922.474999912083","Great! Now on the next screen, try pressing '6' to select the third deck.","54","","instructions","2021-06-09 22:14:51.681","","","","","",""
"card-selection-trial","17","154798","0.0-11.0-0.0","407","false","img/card_backs/set1/yellow.gif","img/card_backs/set1/purple.gif","img/card_backs/set1/green.gif","img/card_backs/set1/red.gif","img/card_backs/set2/pink.gif","img/card_backs/set2/blue.gif","img/card_backs/set2/orange.gif","img/card_backs/set2/gray.gif","""event"",""trial"",""time""
""fullscreenenter"",""1"",""5223""
","
","
","""event"",""trial"",""time""
""fullscreenenter"",""1"",""5223""
","
","","675.3699998371303","","","","practice_card_selection","2021-06-09 22:14:54.376","img/practice_cards/backs/black.gif","2","-100","","",""
"casino-keyboard-response","18","159443","0.0-12.0-0.0","407","false","img/card_backs/set1/yellow.gif","img/card_backs/set1/purple.gif","img/card_backs/set1/green.gif","img/card_backs/set1/red.gif","img/card_backs/set2/pink.gif","img/card_backs/set2/blue.gif","img/card_backs/set2/orange.gif","img/card_backs/set2/gray.gif","""event"",""trial"",""time""
""fullscreenenter"",""1"",""5223""
","
","
","""event"",""trial"",""time""
""fullscreenenter"",""1"",""5223""
","
","","4643.120000138879","Now on the next screen, try pressing '4' to select the second deck.","52","","instructions","2021-06-09 22:14:59.021","","","","","",""
"card-selection-trial","19","161884","0.0-13.0-0.0","407","false","img/card_backs/set1/yellow.gif","img/card_backs/set1/purple.gif","img/card_backs/set1/green.gif","img/card_backs/set1/red.gif","img/card_backs/set2/pink.gif","img/card_backs/set2/blue.gif","img/card_backs/set2/orange.gif","img/card_backs/set2/gray.gif","""event"",""trial"",""time""
""fullscreenenter"",""1"",""5223""
","
","
","""event"",""trial"",""time""
""fullscreenenter"",""1"",""5223""
","
","","418.8549998216331","","","","practice_card_selection","2021-06-09 22:15:01.462","img/practice_cards/backs/black.gif","1","-100","","",""
"casino-keyboard-response","20","166403","0.0-14.0-0.0","407","false","img/card_backs/set1/yellow.gif","img/card_backs/set1/purple.gif","img/card_backs/set1/green.gif","img/card_backs/set1/red.gif","img/card_backs/set2/pink.gif","img/card_backs/set2/blue.gif","img/card_backs/set2/orange.gif","img/card_backs/set2/gray.gif","""event"",""trial"",""time""
""fullscreenenter"",""1"",""5223""
","
","
","""event"",""trial"",""time""
""fullscreenenter"",""1"",""5223""
","
","","4515.94000030309","Finally, try pressing '8' to select the deck all the way on the right.","56","","instructions","2021-06-09 22:15:05.982","","","","","",""
"card-selection-trial","21","168851","0.0-15.0-0.0","407","false","img/card_backs/set1/yellow.gif","img/card_backs/set1/purple.gif","img/card_backs/set1/green.gif","img/card_backs/set1/red.gif","img/card_backs/set2/pink.gif","img/card_backs/set2/blue.gif","img/card_backs/set2/orange.gif","img/card_backs/set2/gray.gif","""event"",""trial"",""time""
""fullscreenenter"",""1"",""5223""
","
","
","""event"",""trial"",""time""
""fullscreenenter"",""1"",""5223""
","
","","426.5749999321997","","","","practice_card_selection","2021-06-09 22:15:08.429","img/practice_cards/backs/dark_green.gif","3","200","","",""
"casino-keyboard-response","22","172334","0.0-16.0-0.0","407","false","img/card_backs/set1/yellow.gif","img/card_backs/set1/purple.gif","img/card_backs/set1/green.gif","img/card_backs/set1/red.gif","img/card_backs/set2/pink.gif","img/card_backs/set2/blue.gif","img/card_backs/set2/orange.gif","img/card_backs/set2/gray.gif","""event"",""trial"",""time""
""fullscreenenter"",""1"",""5223""
","
","
","""event"",""trial"",""time""
""fullscreenenter"",""1"",""5223""
","
","","3480.655000079423","Great! It seems like you are getting the hang of this.","80","","instructions","2021-06-09 22:15:11.912","","","","","",""
"casino-keyboard-response","23","180603","0.0-16.0-0.1","407","false","img/card_backs/set1/yellow.gif","img/card_backs/set1/purple.gif","img/card_backs/set1/green.gif","img/card_backs/set1/red.gif","img/card_backs/set2/pink.gif","img/card_backs/set2/blue.gif","img/card_backs/set2/orange.gif","img/card_backs/set2/gray.gif","""event"",""trial"",""time""
""fullscreenenter"",""1"",""5223""
","
","
","""event"",""trial"",""time""
""fullscreenenter"",""1"",""5223""
","
","","8265.79499989748","You may have noticed that some cards will cause you to <b> win </b> tokens while other cards will cause you to <b> lose </b>  tokens.","70","","instructions","2021-06-09 22:15:20.181","","","","","",""
"casino-keyboard-response","24","189726","0.0-16.0-0.2","407","false","img/card_backs/set1/yellow.gif","img/card_backs/set1/purple.gif","img/card_backs/set1/green.gif","img/card_backs/set1/red.gif","img/card_backs/set2/pink.gif","img/card_backs/set2/blue.gif","img/card_backs/set2/orange.gif","img/card_backs/set2/gray.gif","""event"",""trial"",""time""
""fullscreenenter"",""1"",""5223""
","
","
","""event"",""trial"",""time""
""fullscreenenter"",""1"",""5223""
","
","","9118.445000145584","Each deck has a mix of cards that will cause you to win and lose tokens. </br> However, the cards in each colored deck are different.","73","","instructions","2021-06-09 22:15:29.304","","","","","",""
"casino-keyboard-response","25","198905","0.0-16.0-0.3","407","false","img/card_backs/set1/yellow.gif","img/card_backs/set1/purple.gif","img/card_backs/set1/green.gif","img/card_backs/set1/red.gif","img/card_backs/set2/pink.gif","img/card_backs/set2/blue.gif","img/card_backs/set2/orange.gif","img/card_backs/set2/gray.gif","""event"",""trial"",""time""
""fullscreenenter"",""1"",""5223""
","
","
","""event"",""trial"",""time""
""fullscreenenter"",""1"",""5223""
","
","","9175.77000008896","Some colored decks are luckier than others. </br> If you choose the lucky decks, you will earn more tokens than if you choose the unlucky decks.","69","","instructions","2021-06-09 22:15:38.483","","","","","",""
"casino-keyboard-response","26","207853","0.0-16.0-0.4","407","false","img/card_backs/set1/yellow.gif","img/card_backs/set1/purple.gif","img/card_backs/set1/green.gif","img/card_backs/set1/red.gif","img/card_backs/set2/pink.gif","img/card_backs/set2/blue.gif","img/card_backs/set2/orange.gif","img/card_backs/set2/gray.gif","""event"",""trial"",""time""
""fullscreenenter"",""1"",""5223""
","
","
","""event"",""trial"",""time""
""fullscreenenter"",""1"",""5223""
","
","","8943.940000142902","You should try to figure out which decks are lucky. </br> Then, try to choose the lucky decks so you can win the most tokens.","87","","instructions","2021-06-09 22:15:47.432","","","","","",""
"casino-keyboard-response","27","220737","0.0-16.0-0.5","407","false","img/card_backs/set1/yellow.gif","img/card_backs/set1/purple.gif","img/card_backs/set1/green.gif","img/card_backs/set1/red.gif","img/card_backs/set2/pink.gif","img/card_backs/set2/blue.gif","img/card_backs/set2/orange.gif","img/card_backs/set2/gray.gif","""event"",""trial"",""time""
""fullscreenenter"",""1"",""5223""
","
","
","""event"",""trial"",""time""
""fullscreenenter"",""1"",""5223""
","
","","12880.05999987945","To make it trickier, the casino dealer will switch the locations of the decks on every turn. </br> The color of the deck determines how lucky it is. The location does not matter.","88","","instructions","2021-06-09 22:16:00.315","","","","","",""
"casino-keyboard-response","28","231606","0.0-16.0-0.6","407","false","img/card_backs/set1/yellow.gif","img/card_backs/set1/purple.gif","img/card_backs/set1/green.gif","img/card_backs/set1/red.gif","img/card_backs/set2/pink.gif","img/card_backs/set2/blue.gif","img/card_backs/set2/orange.gif","img/card_backs/set2/gray.gif","""event"",""trial"",""time""
""fullscreenenter"",""1"",""5223""
","
","
","""event"",""trial"",""time""
""fullscreenenter"",""1"",""5223""
","
","","10866.064999718219","The mix of cards in each colored deck will stay the same throughout the game. </br> That means that a deck that is lucky early on will stay lucky.","79","","instructions","2021-06-09 22:16:11.184","","","","","",""
"casino-keyboard-response","29","240520","0.0-16.0-0.7","407","false","img/card_backs/set1/yellow.gif","img/card_backs/set1/purple.gif","img/card_backs/set1/green.gif","img/card_backs/set1/red.gif","img/card_backs/set2/pink.gif","img/card_backs/set2/blue.gif","img/card_backs/set2/orange.gif","img/card_backs/set2/gray.gif","""event"",""trial"",""time""
""fullscreenenter"",""1"",""5223""
","
","
","""event"",""trial"",""time""
""fullscreenenter"",""1"",""5223""
","
","","8909.480000380427","Remember though, all the decks have a <b> mix </b> of both <b> good </b> and <b> bad </b> cards so it may take a couple of turns to figure out if a deck is lucky.","69","","instructions","2021-06-09 22:16:20.098","","","","","",""
"casino-keyboard-response","30","250677","0.0-16.0-0.8","407","false","img/card_backs/set1/yellow.gif","img/card_backs/set1/purple.gif","img/card_backs/set1/green.gif","img/card_backs/set1/red.gif","img/card_backs/set2/pink.gif","img/card_backs/set2/blue.gif","img/card_backs/set2/orange.gif","img/card_backs/set2/gray.gif","""event"",""trial"",""time""
""fullscreenenter"",""1"",""5223""
","
","
","""event"",""trial"",""time""
""fullscreenenter"",""1"",""5223""
","
","","10152.980000246316","At the end of the game, you will be paid bonus money based on how many tokens you win. </br> If you win more tokens, you will earn more money!","72","","instructions","2021-06-09 22:16:30.255","","","","","",""
"casino-keyboard-response","31","279761","0.0-16.0-0.9","407","false","img/card_backs/set1/yellow.gif","img/card_backs/set1/purple.gif","img/card_backs/set1/green.gif","img/card_backs/set1/red.gif","img/card_backs/set2/pink.gif","img/card_backs/set2/blue.gif","img/card_backs/set2/orange.gif","img/card_backs/set2/gray.gif","""event"",""trial"",""time""
""fullscreenenter"",""1"",""5223""
","
","
","""event"",""trial"",""time""
""fullscreenenter"",""1"",""5223""
","
","","29079.980000387877","You will never <b> lose </b> money. </br> If you end up with fewer than 0 tokens, you will earn $0 of bonus money, but you will still be paid for playing the game.","83","","instructions","2021-06-09 22:16:59.339","","","","","",""
"casino-keyboard-response","32","284231","0.0-16.0-0.10","407","false","img/card_backs/set1/yellow.gif","img/card_backs/set1/purple.gif","img/card_backs/set1/green.gif","img/card_backs/set1/red.gif","img/card_backs/set2/pink.gif","img/card_backs/set2/blue.gif","img/card_backs/set2/orange.gif","img/card_backs/set2/gray.gif","""event"",""trial"",""time""
""fullscreenenter"",""1"",""5223""
","
","
","""event"",""trial"",""time""
""fullscreenenter"",""1"",""5223""
","
","","4466.110000386834","You will have 10 seconds to make each choice.","82","","instructions","2021-06-09 22:17:03.809","","","","","",""
"casino-keyboard-response","33","292544","0.0-16.0-0.11","407","false","img/card_backs/set1/yellow.gif","img/card_backs/set1/purple.gif","img/card_backs/set1/green.gif","img/card_backs/set1/red.gif","img/card_backs/set2/pink.gif","img/card_backs/set2/blue.gif","img/card_backs/set2/orange.gif","img/card_backs/set2/gray.gif","""event"",""trial"",""time""
""fullscreenenter"",""1"",""5223""
","
","
","""event"",""trial"",""time""
""fullscreenenter"",""1"",""5223""
","
","","8306.194999720901","Before you play the game for real, you will play with practice decks. </br> The tokens you earn during practice won't count toward your total.","86","","instructions","2021-06-09 22:17:12.122","","","","","",""
"casino-keyboard-response","34","304760","0.0-16.0-0.12","407","false","img/card_backs/set1/yellow.gif","img/card_backs/set1/purple.gif","img/card_backs/set1/green.gif","img/card_backs/set1/red.gif","img/card_backs/set2/pink.gif","img/card_backs/set2/blue.gif","img/card_backs/set2/orange.gif","img/card_backs/set2/gray.gif","""event"",""trial"",""time""
""fullscreenenter"",""1"",""5223""
","
","
","""event"",""trial"",""time""
""fullscreenenter"",""1"",""5223""
","
","","12212.465000338852","Ready? Remember, use the '2', '4', '6', and '8' keys to select the decks. </br> Put your fingers on those keys now and then press '2' to begin.","50","","instructions","2021-06-09 22:17:24.339","","","","","",""
"casino-fixation","35","305278","0.0-17.0-0.0","407","false","img/card_backs/set1/yellow.gif","img/card_backs/set1/purple.gif","img/card_backs/set1/green.gif","img/card_backs/set1/red.gif","img/card_backs/set2/pink.gif","img/card_backs/set2/blue.gif","img/card_backs/set2/orange.gif","img/card_backs/set2/gray.gif","""event"",""trial"",""time""
""fullscreenenter"",""1"",""5223""
","
","
","""event"",""trial"",""time""
""fullscreenenter"",""1"",""5223""
","
","","null","","null","","fixation","2021-06-09 22:17:24.856","","","","","",""
"card-selection-trial","36","309168","0.0-17.0-1.0","407","false","img/card_backs/set1/yellow.gif","img/card_backs/set1/purple.gif","img/card_backs/set1/green.gif","img/card_backs/set1/red.gif","img/card_backs/set2/pink.gif","img/card_backs/set2/blue.gif","img/card_backs/set2/orange.gif","img/card_backs/set2/gray.gif","""event"",""trial"",""time""
""fullscreenenter"",""1"",""5223""
","
","
","""event"",""trial"",""time""
""fullscreenenter"",""1"",""5223""
","
","","1861.855000257492","","","","practice","2021-06-09 22:17:28.746","img/practice_cards/backs/dark_blue.gif","3","200","0","",""
"casino-fixation","37","309678","0.0-17.0-0.1","407","false","img/card_backs/set1/yellow.gif","img/card_backs/set1/purple.gif","img/card_backs/set1/green.gif","img/card_backs/set1/red.gif","img/card_backs/set2/pink.gif","img/card_backs/set2/blue.gif","img/card_backs/set2/orange.gif","img/card_backs/set2/gray.gif","""event"",""trial"",""time""
""fullscreenenter"",""1"",""5223""
","
","
","""event"",""trial"",""time""
""fullscreenenter"",""1"",""5223""
","
","","null","","null","","fixation","2021-06-09 22:17:29.257","","","","","",""
"card-selection-trial","38","312878","0.0-17.0-1.1","407","false","img/card_backs/set1/yellow.gif","img/card_backs/set1/purple.gif","img/card_backs/set1/green.gif","img/card_backs/set1/red.gif","img/card_backs/set2/pink.gif","img/card_backs/set2/blue.gif","img/card_backs/set2/orange.gif","img/card_backs/set2/gray.gif","""event"",""trial"",""time""
""fullscreenenter"",""1"",""5223""
","
","
","""event"",""trial"",""time""
""fullscreenenter"",""1"",""5223""
","
","","1188.7800004333258","","","","practice","2021-06-09 22:17:32.456","img/practice_cards/backs/dark_blue.gif","1","-200","0","",""
"casino-fixation","39","313388","0.0-17.0-0.2","407","false","img/card_backs/set1/yellow.gif","img/card_backs/set1/purple.gif","img/card_backs/set1/green.gif","img/card_backs/set1/red.gif","img/card_backs/set2/pink.gif","img/card_backs/set2/blue.gif","img/card_backs/set2/orange.gif","img/card_backs/set2/gray.gif","""event"",""trial"",""time""
""fullscreenenter"",""1"",""5223""
","
","
","""event"",""trial"",""time""
""fullscreenenter"",""1"",""5223""
","
","","null","","null","","fixation","2021-06-09 22:17:32.966","","","","","",""
"card-selection-trial","40","316499","0.0-17.0-1.2","407","false","img/card_backs/set1/yellow.gif","img/card_backs/set1/purple.gif","img/card_backs/set1/green.gif","img/card_backs/set1/red.gif","img/card_backs/set2/pink.gif","img/card_backs/set2/blue.gif","img/card_backs/set2/orange.gif","img/card_backs/set2/gray.gif","""event"",""trial"",""time""
""fullscreenenter"",""1"",""5223""
","
","
","""event"",""trial"",""time""
""fullscreenenter"",""1"",""5223""
","
","","1089.1249999403954","","","","practice","2021-06-09 22:17:36.078","img/practice_cards/backs/dark_green.gif","2","-200","0","",""
"casino-fixation","41","317017","0.0-17.0-0.3","407","false","img/card_backs/set1/yellow.gif","img/card_backs/set1/purple.gif","img/card_backs/set1/green.gif","img/card_backs/set1/red.gif","img/card_backs/set2/pink.gif","img/card_backs/set2/blue.gif","img/card_backs/set2/orange.gif","img/card_backs/set2/gray.gif","""event"",""trial"",""time""
""fullscreenenter"",""1"",""5223""
","
","
","""event"",""trial"",""time""
""fullscreenenter"",""1"",""5223""
","
","","null","","null","","fixation","2021-06-09 22:17:36.596","","","","","",""
"card-selection-trial","42","319899","0.0-17.0-1.3","407","false","img/card_backs/set1/yellow.gif","img/card_backs/set1/purple.gif","img/card_backs/set1/green.gif","img/card_backs/set1/red.gif","img/card_backs/set2/pink.gif","img/card_backs/set2/blue.gif","img/card_backs/set2/orange.gif","img/card_backs/set2/gray.gif","""event"",""trial"",""time""
""fullscreenenter"",""1"",""5223""
","
","
","""event"",""trial"",""time""
""fullscreenenter"",""1"",""5223""
","
","","850.5699997767806","","","","practice","2021-06-09 22:17:39.477","img/practice_cards/backs/black.gif","0","-100","0","",""
"casino-fixation","43","320418","0.0-17.0-0.4","407","false","img/card_backs/set1/yellow.gif","img/card_backs/set1/purple.gif","img/card_backs/set1/green.gif","img/card_backs/set1/red.gif","img/card_backs/set2/pink.gif","img/card_backs/set2/blue.gif","img/card_backs/set2/orange.gif","img/card_backs/set2/gray.gif","""event"",""trial"",""time""
""fullscreenenter"",""1"",""5223""
","
","
","""event"",""trial"",""time""
""fullscreenenter"",""1"",""5223""
","
","","null","","null","","fixation","2021-06-09 22:17:39.996","","","","","",""
"card-selection-trial","44","323278","0.0-17.0-1.4","407","false","img/card_backs/set1/yellow.gif","img/card_backs/set1/purple.gif","img/card_backs/set1/green.gif","img/card_backs/set1/red.gif","img/card_backs/set2/pink.gif","img/card_backs/set2/blue.gif","img/card_backs/set2/orange.gif","img/card_backs/set2/gray.gif","""event"",""trial"",""time""
""fullscreenenter"",""1"",""5223""
","
","
","""event"",""trial"",""time""
""fullscreenenter"",""1"",""5223""
","
","","843.4549998492002","","","","practice","2021-06-09 22:17:42.856","img/practice_cards/backs/dark_blue.gif","2","200","0","",""
"casino-fixation","45","323798","0.0-17.0-0.5","407","false","img/card_backs/set1/yellow.gif","img/card_backs/set1/purple.gif","img/card_backs/set1/green.gif","img/card_backs/set1/red.gif","img/card_backs/set2/pink.gif","img/card_backs/set2/blue.gif","img/card_backs/set2/orange.gif","img/card_backs/set2/gray.gif","""event"",""trial"",""time""
""fullscreenenter"",""1"",""5223""
","
","
","""event"",""trial"",""time""
""fullscreenenter"",""1"",""5223""
","
","","null","","null","","fixation","2021-06-09 22:17:43.376","","","","","",""
"card-selection-trial","46","326658","0.0-17.0-1.5","407","false","img/card_backs/set1/yellow.gif","img/card_backs/set1/purple.gif","img/card_backs/set1/green.gif","img/card_backs/set1/red.gif","img/card_backs/set2/pink.gif","img/card_backs/set2/blue.gif","img/card_backs/set2/orange.gif","img/card_backs/set2/gray.gif","""event"",""trial"",""time""
""fullscreenenter"",""1"",""5223""
","
","
","""event"",""trial"",""time""
""fullscreenenter"",""1"",""5223""
","
","","837.1950001455843","","","","practice","2021-06-09 22:17:46.236","img/practice_cards/backs/dark_blue.gif","0","200","0","",""
"casino-fixation","47","327177","0.0-17.0-0.6","407","false","img/card_backs/set1/yellow.gif","img/card_backs/set1/purple.gif","img/card_backs/set1/green.gif","img/card_backs/set1/red.gif","img/card_backs/set2/pink.gif","img/card_backs/set2/blue.gif","img/card_backs/set2/orange.gif","img/card_backs/set2/gray.gif","""event"",""trial"",""time""
""fullscreenenter"",""1"",""5223""
","
","
","""event"",""trial"",""time""
""fullscreenenter"",""1"",""5223""
","
","","null","","null","","fixation","2021-06-09 22:17:46.756","","","","","",""
"card-selection-trial","48","330208","0.0-17.0-1.6","407","false","img/card_backs/set1/yellow.gif","img/card_backs/set1/purple.gif","img/card_backs/set1/green.gif","img/card_backs/set1/red.gif","img/card_backs/set2/pink.gif","img/card_backs/set2/blue.gif","img/card_backs/set2/orange.gif","img/card_backs/set2/gray.gif","""event"",""trial"",""time""
""fullscreenenter"",""1"",""5223""
","
","
","""event"",""trial"",""time""
""fullscreenenter"",""1"",""5223""
","
","","1004.5950002968311","","","","practice","2021-06-09 22:17:49.787","img/practice_cards/backs/dark_blue.gif","1","-200","0","",""
"casino-fixation","49","330727","0.0-17.0-0.7","407","false","img/card_backs/set1/yellow.gif","img/card_backs/set1/purple.gif","img/card_backs/set1/green.gif","img/card_backs/set1/red.gif","img/card_backs/set2/pink.gif","img/card_backs/set2/blue.gif","img/card_backs/set2/orange.gif","img/card_backs/set2/gray.gif","""event"",""trial"",""time""
""fullscreenenter"",""1"",""5223""
","
","
","""event"",""trial"",""time""
""fullscreenenter"",""1"",""5223""
","
","","null","","null","","fixation","2021-06-09 22:17:50.306","","","","","",""
"card-selection-trial","50","333588","0.0-17.0-1.7","407","false","img/card_backs/set1/yellow.gif","img/card_backs/set1/purple.gif","img/card_backs/set1/green.gif","img/card_backs/set1/red.gif","img/card_backs/set2/pink.gif","img/card_backs/set2/blue.gif","img/card_backs/set2/orange.gif","img/card_backs/set2/gray.gif","""event"",""trial"",""time""
""fullscreenenter"",""1"",""5223""
","
","
","""event"",""trial"",""time""
""fullscreenenter"",""1"",""5223""
","
","","837.0949998497963","","","","practice","2021-06-09 22:17:53.166","img/practice_cards/backs/dark_blue.gif","3","-200","0","",""
"casino-fixation","51","334091","0.0-17.0-0.8","407","false","img/card_backs/set1/yellow.gif","img/card_backs/set1/purple.gif","img/card_backs/set1/green.gif","img/card_backs/set1/red.gif","img/card_backs/set2/pink.gif","img/card_backs/set2/blue.gif","img/card_backs/set2/orange.gif","img/card_backs/set2/gray.gif","""event"",""trial"",""time""
""fullscreenenter"",""1"",""5223""
","
","
","""event"",""trial"",""time""
""fullscreenenter"",""1"",""5223""
","
","","null","","null","","fixation","2021-06-09 22:17:53.670","","","","","",""
"card-selection-trial","52","337161","0.0-17.0-1.8","407","false","img/card_backs/set1/yellow.gif","img/card_backs/set1/purple.gif","img/card_backs/set1/green.gif","img/card_backs/set1/red.gif","img/card_backs/set2/pink.gif","img/card_backs/set2/blue.gif","img/card_backs/set2/orange.gif","img/card_backs/set2/gray.gif","""event"",""trial"",""time""
""fullscreenenter"",""1"",""5223""
","
","
","""event"",""trial"",""time""
""fullscreenenter"",""1"",""5223""
","
","","1060.8450002036989","","","","practice","2021-06-09 22:17:56.739","img/practice_cards/backs/dark_blue.gif","1","200","0","",""
"casino-fixation","53","337664","0.0-17.0-0.9","407","false","img/card_backs/set1/yellow.gif","img/card_backs/set1/purple.gif","img/card_backs/set1/green.gif","img/card_backs/set1/red.gif","img/card_backs/set2/pink.gif","img/card_backs/set2/blue.gif","img/card_backs/set2/orange.gif","img/card_backs/set2/gray.gif","""event"",""trial"",""time""
""fullscreenenter"",""1"",""5223""
","
","
","""event"",""trial"",""time""
""fullscreenenter"",""1"",""5223""
","
","","null","","null","","fixation","2021-06-09 22:17:57.242","","","","","",""
"card-selection-trial","54","340800","0.0-17.0-1.9","407","false","img/card_backs/set1/yellow.gif","img/card_backs/set1/purple.gif","img/card_backs/set1/green.gif","img/card_backs/set1/red.gif","img/card_backs/set2/pink.gif","img/card_backs/set2/blue.gif","img/card_backs/set2/orange.gif","img/card_backs/set2/gray.gif","""event"",""trial"",""time""
""fullscreenenter"",""1"",""5223""
","
","
","""event"",""trial"",""time""
""fullscreenenter"",""1"",""5223""
","
","","1128.6850003525615","","","","practice","2021-06-09 22:18:00.378","img/practice_cards/backs/dark_blue.gif","2","-200","0","",""
"casino-keyboard-response","55","344660","0.0-18.0","407","false","img/card_backs/set1/yellow.gif","img/card_backs/set1/purple.gif","img/card_backs/set1/green.gif","img/card_backs/set1/red.gif","img/card_backs/set2/pink.gif","img/card_backs/set2/blue.gif","img/card_backs/set2/orange.gif","img/card_backs/set2/gray.gif","""event"",""trial"",""time""
""fullscreenenter"",""1"",""5223""
","
","
","""event"",""trial"",""time""
""fullscreenenter"",""1"",""5223""
","
","","3856.8649999797344","You earned -300 tokens during the practice round!","82","","","2021-06-09 22:18:04.239","","","","","",""
"casino-keyboard-response","56","349720","0.0-19.0-0.0","407","false","img/card_backs/set1/yellow.gif","img/card_backs/set1/purple.gif","img/card_backs/set1/green.gif","img/card_backs/set1/red.gif","img/card_backs/set2/pink.gif","img/card_backs/set2/blue.gif","img/card_backs/set2/orange.gif","img/card_backs/set2/gray.gif","""event"",""trial"",""time""
""fullscreenenter"",""1"",""5223""
","
","
","""event"",""trial"",""time""
""fullscreenenter"",""1"",""5223""
","
","","5054.75000012666","Nice job! You are almost ready to play the real game.","86","","instructions","2021-06-09 22:18:09.298","","","","","",""
"casino-keyboard-response","57","356284","0.0-19.0-0.1","407","false","img/card_backs/set1/yellow.gif","img/card_backs/set1/purple.gif","img/card_backs/set1/green.gif","img/card_backs/set1/red.gif","img/card_backs/set2/pink.gif","img/card_backs/set2/blue.gif","img/card_backs/set2/orange.gif","img/card_backs/set2/gray.gif","""event"",""trial"",""time""
""fullscreenenter"",""1"",""5223""
","
","
","""event"",""trial"",""time""
""fullscreenenter"",""1"",""5223""
","
","","6560.715000145137","You will play two rounds of the real game. In each round, you will pick 100 cards in total.","73","","instructions","2021-06-09 22:18:15.862","","","","","",""
"casino-keyboard-response","58","361361","0.0-19.0-0.2","407","false","img/card_backs/set1/yellow.gif","img/card_backs/set1/purple.gif","img/card_backs/set1/green.gif","img/card_backs/set1/red.gif","img/card_backs/set2/pink.gif","img/card_backs/set2/blue.gif","img/card_backs/set2/orange.gif","img/card_backs/set2/gray.gif","""event"",""trial"",""time""
""fullscreenenter"",""1"",""5223""
","
","
","""event"",""trial"",""time""
""fullscreenenter"",""1"",""5223""
","
","","5072.854999918491","We are now going to ask you some questions about how the game works.","66","","instructions","2021-06-09 22:18:20.939","","","","","",""
"casino-keyboard-response","59","367756","0.0-19.0-0.3","407","false","img/card_backs/set1/yellow.gif","img/card_backs/set1/purple.gif","img/card_backs/set1/green.gif","img/card_backs/set1/red.gif","img/card_backs/set2/pink.gif","img/card_backs/set2/blue.gif","img/card_backs/set2/orange.gif","img/card_backs/set2/gray.gif","""event"",""trial"",""time""
""fullscreenenter"",""1"",""5223""
","
","
","""event"",""trial"",""time""
""fullscreenenter"",""1"",""5223""
","
","","6391.580000054091","Answer carefully. You will not be able to begin the game until you answer them correctly.","67","","instructions","2021-06-09 22:18:27.334","","","","","",""
"casino-comp_q","60","373880","0.0-20.0-0.0","407","false","img/card_backs/set1/yellow.gif","img/card_backs/set1/purple.gif","img/card_backs/set1/green.gif","img/card_backs/set1/red.gif","img/card_backs/set2/pink.gif","img/card_backs/set2/blue.gif","img/card_backs/set2/orange.gif","img/card_backs/set2/gray.gif","""event"",""trial"",""time""
""fullscreenenter"",""1"",""5223""
","
","
","""event"",""trial"",""time""
""fullscreenenter"",""1"",""5223""
","
","","6119.425000157207","True or False: All the decks have some cards that cause you to win tokens and some cards that cause you to lose tokens.","84","","","2021-06-09 22:18:33.459","","","","","",""
"casino-keyboard-response","61","377343","0.0-20.0-1.0","407","false","img/card_backs/set1/yellow.gif","img/card_backs/set1/purple.gif","img/card_backs/set1/green.gif","img/card_backs/set1/red.gif","img/card_backs/set2/pink.gif","img/card_backs/set2/blue.gif","img/card_backs/set2/orange.gif","img/card_backs/set2/gray.gif","""event"",""trial"",""time""
""fullscreenenter"",""1"",""5223""
","
","
","""event"",""trial"",""time""
""fullscreenenter"",""1"",""5223""
","
","","3459.1649998910725","True is correct! All the decks have a mix of winning and losing cards.","77","","","2021-06-09 22:18:36.922","","","","","true",""
"casino-comp_q","62","382477","0.0-21.0-0.0","407","false","img/card_backs/set1/yellow.gif","img/card_backs/set1/purple.gif","img/card_backs/set1/green.gif","img/card_backs/set1/red.gif","img/card_backs/set2/pink.gif","img/card_backs/set2/blue.gif","img/card_backs/set2/orange.gif","img/card_backs/set2/gray.gif","""event"",""trial"",""time""
""fullscreenenter"",""1"",""5223""
","
","
","""event"",""trial"",""time""
""fullscreenenter"",""1"",""5223""
","
","","5127.62500019744","True or False: You will have as much time as you want to make your response.","70","","","2021-06-09 22:18:42.055","","","","","",""
"casino-keyboard-response","63","385478","0.0-21.0-1.0","407","false","img/card_backs/set1/yellow.gif","img/card_backs/set1/purple.gif","img/card_backs/set1/green.gif","img/card_backs/set1/red.gif","img/card_backs/set2/pink.gif","img/card_backs/set2/blue.gif","img/card_backs/set2/orange.gif","img/card_backs/set2/gray.gif","""event"",""trial"",""time""
""fullscreenenter"",""1"",""5223""
","
","
","""event"",""trial"",""time""
""fullscreenenter"",""1"",""5223""
","
","","2994.239999912679","False is correct! You will only have 10 seconds to make each choice.","75","","","2021-06-09 22:18:45.057","","","","","true",""
"casino-comp_q","64","390722","0.0-22.0-0.0","407","false","img/card_backs/set1/yellow.gif","img/card_backs/set1/purple.gif","img/card_backs/set1/green.gif","img/card_backs/set1/red.gif","img/card_backs/set2/pink.gif","img/card_backs/set2/blue.gif","img/card_backs/set2/orange.gif","img/card_backs/set2/gray.gif","""event"",""trial"",""time""
""fullscreenenter"",""1"",""5223""
","
","
","""event"",""trial"",""time""
""fullscreenenter"",""1"",""5223""
","
","","5239.610000047833","True or False: The location of the deck determines how lucky it is.","70","","","2021-06-09 22:18:50.300","","","","","",""
"casino-keyboard-response","65","394202","0.0-22.0-1.0","407","false","img/card_backs/set1/yellow.gif","img/card_backs/set1/purple.gif","img/card_backs/set1/green.gif","img/card_backs/set1/red.gif","img/card_backs/set2/pink.gif","img/card_backs/set2/blue.gif","img/card_backs/set2/orange.gif","img/card_backs/set2/gray.gif","""event"",""trial"",""time""
""fullscreenenter"",""1"",""5223""
","
","
","""event"",""trial"",""time""
""fullscreenenter"",""1"",""5223""
","
","","3476.6750000417233","False is correct! The <i>color</i>  of the deck determines how lucky or unlucky it is.","68","","","2021-06-09 22:18:53.780","","","","","true",""
"casino-keyboard-response","66","399978","0.0-23.0-0.0","407","false","img/card_backs/set1/yellow.gif","img/card_backs/set1/purple.gif","img/card_backs/set1/green.gif","img/card_backs/set1/red.gif","img/card_backs/set2/pink.gif","img/card_backs/set2/blue.gif","img/card_backs/set2/orange.gif","img/card_backs/set2/gray.gif","""event"",""trial"",""time""
""fullscreenenter"",""1"",""5223""
","
","
","""event"",""trial"",""time""
""fullscreenenter"",""1"",""5223""
","
","","5772.270000074059","Great job! Now it's time to start the real game.","82","","instructions","2021-06-09 22:18:59.556","","","","","",""
"casino-keyboard-response","67","405511","0.0-23.0-0.1","407","false","img/card_backs/set1/yellow.gif","img/card_backs/set1/purple.gif","img/card_backs/set1/green.gif","img/card_backs/set1/red.gif","img/card_backs/set2/pink.gif","img/card_backs/set2/blue.gif","img/card_backs/set2/orange.gif","img/card_backs/set2/gray.gif","""event"",""trial"",""time""
""fullscreenenter"",""1"",""5223""
","
","
","""event"",""trial"",""time""
""fullscreenenter"",""1"",""5223""
","
","","5529.799999669194","Before we start, we're going to head into a new room of the casino.","86","","instructions","2021-06-09 22:19:05.089","","","","","",""
"casino-keyboard-response","68","412731","0.0-24.0-0.0","407","false","img/card_backs/set1/yellow.gif","img/card_backs/set1/purple.gif","img/card_backs/set1/green.gif","img/card_backs/set1/red.gif","img/card_backs/set2/pink.gif","img/card_backs/set2/blue.gif","img/card_backs/set2/orange.gif","img/card_backs/set2/gray.gif","""event"",""trial"",""time""
""fullscreenenter"",""1"",""5223""
","
","
","""event"",""trial"",""time""
""fullscreenenter"",""1"",""5223""
","
","","7216.744999866933","Here we are! The real game will use different cards, but the rules will be the same.","71","","instructions","2021-06-09 22:19:12.309","","","","","",""
"casino-keyboard-response","69","415916","0.0-24.0-0.1","407","false","img/card_backs/set1/yellow.gif","img/card_backs/set1/purple.gif","img/card_backs/set1/green.gif","img/card_backs/set1/red.gif","img/card_backs/set2/pink.gif","img/card_backs/set2/blue.gif","img/card_backs/set2/orange.gif","img/card_backs/set2/gray.gif","""event"",""trial"",""time""
""fullscreenenter"",""1"",""5223""
","
","
","""event"",""trial"",""time""
""fullscreenenter"",""1"",""5223""
","
","","3188.45499958843","Ready? Put your fingers over the '2', '4', 6', and '8' keys so you are ready to play the game. </br> Then press 2 to start.","50","","instructions","2021-06-09 22:19:15.494","","","","","",""
"casino-fixation","70","416430","0.0-25.0-0.0","407","false","img/card_backs/set1/yellow.gif","img/card_backs/set1/purple.gif","img/card_backs/set1/green.gif","img/card_backs/set1/red.gif","img/card_backs/set2/pink.gif","img/card_backs/set2/blue.gif","img/card_backs/set2/orange.gif","img/card_backs/set2/gray.gif","""event"",""trial"",""time""
""fullscreenenter"",""1"",""5223""
","
","
","""event"",""trial"",""time""
""fullscreenenter"",""1"",""5223""
","
","","null","","null","","fixation","2021-06-09 22:19:16.008","","","","","",""
"card-selection-trial","71","420190","0.0-25.0-1.0","407","false","img/card_backs/set1/yellow.gif","img/card_backs/set1/purple.gif","img/card_backs/set1/green.gif","img/card_backs/set1/red.gif","img/card_backs/set2/pink.gif","img/card_backs/set2/blue.gif","img/card_backs/set2/orange.gif","img/card_backs/set2/gray.gif","""event"",""trial"",""time""
""fullscreenenter"",""1"",""5223""
","
","
","""event"",""trial"",""time""
""fullscreenenter"",""1"",""5223""
","
","","1728.2150001265109","","","","real_trial","2021-06-09 22:19:19.768","img/card_backs/set1/green.gif","2","-70","1","",""
"casino-fixation","72","420710","0.0-25.0-0.1","407","false","img/card_backs/set1/yellow.gif","img/card_backs/set1/purple.gif","img/card_backs/set1/green.gif","img/card_backs/set1/red.gif","img/card_backs/set2/pink.gif","img/card_backs/set2/blue.gif","img/card_backs/set2/orange.gif","img/card_backs/set2/gray.gif","""event"",""trial"",""time""
""fullscreenenter"",""1"",""5223""
","
","
","""event"",""trial"",""time""
""fullscreenenter"",""1"",""5223""
","
","","null","","null","","fixation","2021-06-09 22:19:20.288","","","","","",""
"card-selection-trial","73","423350","0.0-25.0-1.1","407","false","img/card_backs/set1/yellow.gif","img/card_backs/set1/purple.gif","img/card_backs/set1/green.gif","img/card_backs/set1/red.gif","img/card_backs/set2/pink.gif","img/card_backs/set2/blue.gif","img/card_backs/set2/orange.gif","img/card_backs/set2/gray.gif","""event"",""trial"",""time""
""fullscreenenter"",""1"",""5223""
","
","
","""event"",""trial"",""time""
""fullscreenenter"",""1"",""5223""
","
","","617.5800003111362","","","","real_trial","2021-06-09 22:19:22.928","img/card_backs/set1/purple.gif","3","-240","1","",""
"casino-fixation","74","423859","0.0-25.0-0.2","407","false","img/card_backs/set1/yellow.gif","img/card_backs/set1/purple.gif","img/card_backs/set1/green.gif","img/card_backs/set1/red.gif","img/card_backs/set2/pink.gif","img/card_backs/set2/blue.gif","img/card_backs/set2/orange.gif","img/card_backs/set2/gray.gif","""event"",""trial"",""time""
""fullscreenenter"",""1"",""5223""
","
","
","""event"",""trial"",""time""
""fullscreenenter"",""1"",""5223""
","
","","null","","null","","fixation","2021-06-09 22:19:23.438","","","","","",""
"card-selection-trial","75","426691","0.0-25.0-1.2","407","false","img/card_backs/set1/yellow.gif","img/card_backs/set1/purple.gif","img/card_backs/set1/green.gif","img/card_backs/set1/red.gif","img/card_backs/set2/pink.gif","img/card_backs/set2/blue.gif","img/card_backs/set2/orange.gif","img/card_backs/set2/gray.gif","""event"",""trial"",""time""
""fullscreenenter"",""1"",""5223""
","
","
","""event"",""trial"",""time""
""fullscreenenter"",""1"",""5223""
","
","","803.8800000213087","","","","real_trial","2021-06-09 22:19:26.269","img/card_backs/set1/yellow.gif","1","-240","1","",""
"casino-fixation","76","427210","0.0-25.0-0.3","407","false","img/card_backs/set1/yellow.gif","img/card_backs/set1/purple.gif","img/card_backs/set1/green.gif","img/card_backs/set1/red.gif","img/card_backs/set2/pink.gif","img/card_backs/set2/blue.gif","img/card_backs/set2/orange.gif","img/card_backs/set2/gray.gif","""event"",""trial"",""time""
""fullscreenenter"",""1"",""5223""
","
","
","""event"",""trial"",""time""
""fullscreenenter"",""1"",""5223""
","
","","null","","null","","fixation","2021-06-09 22:19:26.788","","","","","",""
"card-selection-trial","77","429630","0.0-25.0-1.3","407","false","img/card_backs/set1/yellow.gif","img/card_backs/set1/purple.gif","img/card_backs/set1/green.gif","img/card_backs/set1/red.gif","img/card_backs/set2/pink.gif","img/card_backs/set2/blue.gif","img/card_backs/set2/orange.gif","img/card_backs/set2/gray.gif","""event"",""trial"",""time""
""fullscreenenter"",""1"",""5223""
","
","
","""event"",""trial"",""time""
""fullscreenenter"",""1"",""5223""
","
","","392.5900002941489","","","","real_trial","2021-06-09 22:19:29.208","img/card_backs/set1/purple.gif","1","-250","1","",""
"casino-fixation","78","430150","0.0-25.0-0.4","407","false","img/card_backs/set1/yellow.gif","img/card_backs/set1/purple.gif","img/card_backs/set1/green.gif","img/card_backs/set1/red.gif","img/card_backs/set2/pink.gif","img/card_backs/set2/blue.gif","img/card_backs/set2/orange.gif","img/card_backs/set2/gray.gif","""event"",""trial"",""time""
""fullscreenenter"",""1"",""5223""
","
","
","""event"",""trial"",""time""
""fullscreenenter"",""1"",""5223""
","
","","null","","null","","fixation","2021-06-09 22:19:29.728","","","","","",""
"card-selection-trial","79","432510","0.0-25.0-1.4","407","false","img/card_backs/set1/yellow.gif","img/card_backs/set1/purple.gif","img/card_backs/set1/green.gif","img/card_backs/set1/red.gif","img/card_backs/set2/pink.gif","img/card_backs/set2/blue.gif","img/card_backs/set2/orange.gif","img/card_backs/set2/gray.gif","""event"",""trial"",""time""
""fullscreenenter"",""1"",""5223""
","
","
","""event"",""trial"",""time""
""fullscreenenter"",""1"",""5223""
","
","","352.78999991714954","","","","real_trial","2021-06-09 22:19:32.088","img/card_backs/set1/purple.gif","0","200","1","",""
"casino-fixation","80","433029","0.0-25.0-0.5","407","false","img/card_backs/set1/yellow.gif","img/card_backs/set1/purple.gif","img/card_backs/set1/green.gif","img/card_backs/set1/red.gif","img/card_backs/set2/pink.gif","img/card_backs/set2/blue.gif","img/card_backs/set2/orange.gif","img/card_backs/set2/gray.gif","""event"",""trial"",""time""
""fullscreenenter"",""1"",""5223""
","
","
","""event"",""trial"",""time""
""fullscreenenter"",""1"",""5223""
","
","","null","","null","","fixation","2021-06-09 22:19:32.608","","","","","",""
"card-selection-trial","81","435690","0.0-25.0-1.5","407","false","img/card_backs/set1/yellow.gif","img/card_backs/set1/purple.gif","img/card_backs/set1/green.gif","img/card_backs/set1/red.gif","img/card_backs/set2/pink.gif","img/card_backs/set2/blue.gif","img/card_backs/set2/orange.gif","img/card_backs/set2/gray.gif","""event"",""trial"",""time""
""fullscreenenter"",""1"",""5223""
","
","
","""event"",""trial"",""time""
""fullscreenenter"",""1"",""5223""
","
","","646.2349998764694","","","","real_trial","2021-06-09 22:19:35.268","img/card_backs/set1/purple.gif","0","-250","1","",""
"casino-fixation","82","436199","0.0-25.0-0.6","407","false","img/card_backs/set1/yellow.gif","img/card_backs/set1/purple.gif","img/card_backs/set1/green.gif","img/card_backs/set1/red.gif","img/card_backs/set2/pink.gif","img/card_backs/set2/blue.gif","img/card_backs/set2/orange.gif","img/card_backs/set2/gray.gif","""event"",""trial"",""time""
""fullscreenenter"",""1"",""5223""
","
","
","""event"",""trial"",""time""
""fullscreenenter"",""1"",""5223""
","
","","null","","null","","fixation","2021-06-09 22:19:35.778","","","","","",""
"card-selection-trial","83","438810","0.0-25.0-1.6","407","false","img/card_backs/set1/yellow.gif","img/card_backs/set1/purple.gif","img/card_backs/set1/green.gif","img/card_backs/set1/red.gif","img/card_backs/set2/pink.gif","img/card_backs/set2/blue.gif","img/card_backs/set2/orange.gif","img/card_backs/set2/gray.gif","""event"",""trial"",""time""
""fullscreenenter"",""1"",""5223""
","
","
","""event"",""trial"",""time""
""fullscreenenter"",""1"",""5223""
","
","","581.5900000743568","","","","real_trial","2021-06-09 22:19:38.388","img/card_backs/set1/purple.gif","0","-240","1","",""
"casino-fixation","84","439330","0.0-25.0-0.7","407","false","img/card_backs/set1/yellow.gif","img/card_backs/set1/purple.gif","img/card_backs/set1/green.gif","img/card_backs/set1/red.gif","img/card_backs/set2/pink.gif","img/card_backs/set2/blue.gif","img/card_backs/set2/orange.gif","img/card_backs/set2/gray.gif","""event"",""trial"",""time""
""fullscreenenter"",""1"",""5223""
","
","
","""event"",""trial"",""time""
""fullscreenenter"",""1"",""5223""
","
","","null","","null","","fixation","2021-06-09 22:19:38.908","","","","","",""
"card-selection-trial","85","442170","0.0-25.0-1.7","407","false","img/card_backs/set1/yellow.gif","img/card_backs/set1/purple.gif","img/card_backs/set1/green.gif","img/card_backs/set1/red.gif","img/card_backs/set2/pink.gif","img/card_backs/set2/blue.gif","img/card_backs/set2/orange.gif","img/card_backs/set2/gray.gif","""event"",""trial"",""time""
""fullscreenenter"",""1"",""5223""
","
","
","""event"",""trial"",""time""
""fullscreenenter"",""1"",""5223""
","
","","819.9749998748302","","","","real_trial","2021-06-09 22:19:41.748","img/card_backs/set1/green.gif","2","120","1","",""
"casino-fixation","86","442676","0.0-25.0-0.8","407","false","img/card_backs/set1/yellow.gif","img/card_backs/set1/purple.gif","img/card_backs/set1/green.gif","img/card_backs/set1/red.gif","img/card_backs/set2/pink.gif","img/card_backs/set2/blue.gif","img/card_backs/set2/orange.gif","img/card_backs/set2/gray.gif","""event"",""trial"",""time""
""fullscreenenter"",""1"",""5223""
","
","
","""event"",""trial"",""time""
""fullscreenenter"",""1"",""5223""
","
","","null","","null","","fixation","2021-06-09 22:19:42.254","","","","","",""
"card-selection-trial","87","445320","0.0-25.0-1.8","407","false","img/card_backs/set1/yellow.gif","img/card_backs/set1/purple.gif","img/card_backs/set1/green.gif","img/card_backs/set1/red.gif","img/card_backs/set2/pink.gif","img/card_backs/set2/blue.gif","img/card_backs/set2/orange.gif","img/card_backs/set2/gray.gif","""event"",""trial"",""time""
""fullscreenenter"",""1"",""5223""
","
","
","""event"",""trial"",""time""
""fullscreenenter"",""1"",""5223""
","
","","625.9349999018013","","","","real_trial","2021-06-09 22:19:44.898","img/card_backs/set1/green.gif","2","120","1","",""
"casino-fixation","88","445839","0.0-25.0-0.9","407","false","img/card_backs/set1/yellow.gif","img/card_backs/set1/purple.gif","img/card_backs/set1/green.gif","img/card_backs/set1/red.gif","img/card_backs/set2/pink.gif","img/card_backs/set2/blue.gif","img/card_backs/set2/orange.gif","img/card_backs/set2/gray.gif","""event"",""trial"",""time""
""fullscreenenter"",""1"",""5223""
","
","
","""event"",""trial"",""time""
""fullscreenenter"",""1"",""5223""
","
","","null","","null","","fixation","2021-06-09 22:19:45.418","","","","","",""
"card-selection-trial","89","448721","0.0-25.0-1.9","407","false","img/card_backs/set1/yellow.gif","img/card_backs/set1/purple.gif","img/card_backs/set1/green.gif","img/card_backs/set1/red.gif","img/card_backs/set2/pink.gif","img/card_backs/set2/blue.gif","img/card_backs/set2/orange.gif","img/card_backs/set2/gray.gif","""event"",""trial"",""time""
""fullscreenenter"",""1"",""5223""
","
","
","""event"",""trial"",""time""
""fullscreenenter"",""1"",""5223""
","
","","869.7449997998774","","","","real_trial","2021-06-09 22:19:48.299","img/card_backs/set1/green.gif","2","-60","1","",""
"casino-fixation","90","449226","0.0-25.0-0.10","407","false","img/card_backs/set1/yellow.gif","img/card_backs/set1/purple.gif","img/card_backs/set1/green.gif","img/card_backs/set1/red.gif","img/card_backs/set2/pink.gif","img/card_backs/set2/blue.gif","img/card_backs/set2/orange.gif","img/card_backs/set2/gray.gif","""event"",""trial"",""time""
""fullscreenenter"",""1"",""5223""
","
","
","""event"",""trial"",""time""
""fullscreenenter"",""1"",""5223""
","
","","null","","null","","fixation","2021-06-09 22:19:48.804","","","","","",""
"card-selection-trial","91","451920","0.0-25.0-1.10","407","false","img/card_backs/set1/yellow.gif","img/card_backs/set1/purple.gif","img/card_backs/set1/green.gif","img/card_backs/set1/red.gif","img/card_backs/set2/pink.gif","img/card_backs/set2/blue.gif","img/card_backs/set2/orange.gif","img/card_backs/set2/gray.gif","""event"",""trial"",""time""
""fullscreenenter"",""1"",""5223""
","
","
","""event"",""trial"",""time""
""fullscreenenter"",""1"",""5223""
","
","","684.30499965325","","","","real_trial","2021-06-09 22:19:51.498","img/card_backs/set1/green.gif","0","110","1","",""
"casino-fixation","92","452423","0.0-25.0-0.11","407","false","img/card_backs/set1/yellow.gif","img/card_backs/set1/purple.gif","img/card_backs/set1/green.gif","img/card_backs/set1/red.gif","img/card_backs/set2/pink.gif","img/card_backs/set2/blue.gif","img/card_backs/set2/orange.gif","img/card_backs/set2/gray.gif","""event"",""trial"",""time""
""fullscreenenter"",""1"",""5223""
","
","
","""event"",""trial"",""time""
""fullscreenenter"",""1"",""5223""
","
","","null","","null","","fixation","2021-06-09 22:19:52.002","","","","","",""
"card-selection-trial","93","455015","0.0-25.0-1.11","407","false","img/card_backs/set1/yellow.gif","img/card_backs/set1/purple.gif","img/card_backs/set1/green.gif","img/card_backs/set1/red.gif","img/card_backs/set2/pink.gif","img/card_backs/set2/blue.gif","img/card_backs/set2/orange.gif","img/card_backs/set2/gray.gif","""event"",""trial"",""time""
""fullscreenenter"",""1"",""5223""
","
","
","""event"",""trial"",""time""
""fullscreenenter"",""1"",""5223""
","
","","582.725000102073","","","","real_trial","2021-06-09 22:19:54.593","img/card_backs/set1/green.gif","0","110","1","",""
"casino-fixation","94","455518","0.0-25.0-0.12","407","false","img/card_backs/set1/yellow.gif","img/card_backs/set1/purple.gif","img/card_backs/set1/green.gif","img/card_backs/set1/red.gif","img/card_backs/set2/pink.gif","img/card_backs/set2/blue.gif","img/card_backs/set2/orange.gif","img/card_backs/set2/gray.gif","""event"",""trial"",""time""
""fullscreenenter"",""1"",""5223""
","
","
","""event"",""trial"",""time""
""fullscreenenter"",""1"",""5223""
","
","","null","","null","","fixation","2021-06-09 22:19:55.096","","","","","",""
"card-selection-trial","95","458682","0.0-25.0-1.12","407","false","img/card_backs/set1/yellow.gif","img/card_backs/set1/purple.gif","img/card_backs/set1/green.gif","img/card_backs/set1/red.gif","img/card_backs/set2/pink.gif","img/card_backs/set2/blue.gif","img/card_backs/set2/orange.gif","img/card_backs/set2/gray.gif","""event"",""trial"",""time""
""fullscreenenter"",""1"",""5223""
","
","
","""event"",""trial"",""time""
""fullscreenenter"",""1"",""5223""
","
","","1153.880000114441","","","","real_trial","2021-06-09 22:19:58.260","img/card_backs/set1/green.gif","2","100","1","",""
"casino-fixation","96","459184","0.0-25.0-0.13","407","false","img/card_backs/set1/yellow.gif","img/card_backs/set1/purple.gif","img/card_backs/set1/green.gif","img/card_backs/set1/red.gif","img/card_backs/set2/pink.gif","img/card_backs/set2/blue.gif","img/card_backs/set2/orange.gif","img/card_backs/set2/gray.gif","""event"",""trial"",""time""
""fullscreenenter"",""1"",""5223""
","
","
","""event"",""trial"",""time""
""fullscreenenter"",""1"",""5223""
","
","","null","","null","","fixation","2021-06-09 22:19:58.762","","","","","",""
"card-selection-trial","97","461722","0.0-25.0-1.13","407","false","img/card_backs/set1/yellow.gif","img/card_backs/set1/purple.gif","img/card_backs/set1/green.gif","img/card_backs/set1/red.gif","img/card_backs/set2/pink.gif","img/card_backs/set2/blue.gif","img/card_backs/set2/orange.gif","img/card_backs/set2/gray.gif","""event"",""trial"",""time""
""fullscreenenter"",""1"",""5223""
","
","
","""event"",""trial"",""time""
""fullscreenenter"",""1"",""5223""
","
","","527.62999990955","","","","real_trial","2021-06-09 22:20:01.300","img/card_backs/set1/green.gif","2","-60","1","",""
"casino-fixation","98","462226","0.0-25.0-0.14","407","false","img/card_backs/set1/yellow.gif","img/card_backs/set1/purple.gif","img/card_backs/set1/green.gif","img/card_backs/set1/red.gif","img/card_backs/set2/pink.gif","img/card_backs/set2/blue.gif","img/card_backs/set2/orange.gif","img/card_backs/set2/gray.gif","""event"",""trial"",""time""
""fullscreenenter"",""1"",""5223""
","
","
","""event"",""trial"",""time""
""fullscreenenter"",""1"",""5223""
","
","","null","","null","","fixation","2021-06-09 22:20:01.804","","","","","",""
"card-selection-trial","99","464884","0.0-25.0-1.14","407","false","img/card_backs/set1/yellow.gif","img/card_backs/set1/purple.gif","img/card_backs/set1/green.gif","img/card_backs/set1/red.gif","img/card_backs/set2/pink.gif","img/card_backs/set2/blue.gif","img/card_backs/set2/orange.gif","img/card_backs/set2/gray.gif","""event"",""trial"",""time""
""fullscreenenter"",""1"",""5223""
","
","
","""event"",""trial"",""time""
""fullscreenenter"",""1"",""5223""
","
","","650.2449996769428","","","","real_trial","2021-06-09 22:20:04.462","img/card_backs/set1/green.gif","3","110","1","",""
"casino-fixation","100","465387","0.0-25.0-0.15","407","false","img/card_backs/set1/yellow.gif","img/card_backs/set1/purple.gif","img/card_backs/set1/green.gif","img/card_backs/set1/red.gif","img/card_backs/set2/pink.gif","img/card_backs/set2/blue.gif","img/card_backs/set2/orange.gif","img/card_backs/set2/gray.gif","""event"",""trial"",""time""
""fullscreenenter"",""1"",""5223""
","
","
","""event"",""trial"",""time""
""fullscreenenter"",""1"",""5223""
","
","","null","","null","","fixation","2021-06-09 22:20:04.965","","","","","",""
"card-selection-trial","101","468001","0.0-25.0-1.15","407","false","img/card_backs/set1/yellow.gif","img/card_backs/set1/purple.gif","img/card_backs/set1/green.gif","img/card_backs/set1/red.gif","img/card_backs/set2/pink.gif","img/card_backs/set2/blue.gif","img/card_backs/set2/orange.gif","img/card_backs/set2/gray.gif","""event"",""trial"",""time""
""fullscreenenter"",""1"",""5223""
","
","
","""event"",""trial"",""time""
""fullscreenenter"",""1"",""5223""
","
","","604.7649998217821","","","","real_trial","2021-06-09 22:20:07.580","img/card_backs/set1/green.gif","0","100","1","",""
"casino-fixation","102","468506","0.0-25.0-0.16","407","false","img/card_backs/set1/yellow.gif","img/card_backs/set1/purple.gif","img/card_backs/set1/green.gif","img/card_backs/set1/red.gif","img/card_backs/set2/pink.gif","img/card_backs/set2/blue.gif","img/card_backs/set2/orange.gif","img/card_backs/set2/gray.gif","""event"",""trial"",""time""
""fullscreenenter"",""1"",""5223""
","
","
","""event"",""trial"",""time""
""fullscreenenter"",""1"",""5223""
","
","","null","","null","","fixation","2021-06-09 22:20:08.084","","","","","",""
"card-selection-trial","103","471099","0.0-25.0-1.16","407","false","img/card_backs/set1/yellow.gif","img/card_backs/set1/purple.gif","img/card_backs/set1/green.gif","img/card_backs/set1/red.gif","img/card_backs/set2/pink.gif","img/card_backs/set2/blue.gif","img/card_backs/set2/orange.gif","img/card_backs/set2/gray.gif","""event"",""trial"",""time""
""fullscreenenter"",""1"",""5223""
","
","
","""event"",""trial"",""time""
""fullscreenenter"",""1"",""5223""
","
","","584.305000025779","","","","real_trial","2021-06-09 22:20:10.677","img/card_backs/set1/green.gif","3","-70","1","",""
"casino-fixation","104","471601","0.0-25.0-0.17","407","false","img/card_backs/set1/yellow.gif","img/card_backs/set1/purple.gif","img/card_backs/set1/green.gif","img/card_backs/set1/red.gif","img/card_backs/set2/pink.gif","img/card_backs/set2/blue.gif","img/card_backs/set2/orange.gif","img/card_backs/set2/gray.gif","""event"",""trial"",""time""
""fullscreenenter"",""1"",""5223""
","
","
","""event"",""trial"",""time""
""fullscreenenter"",""1"",""5223""
","
","","null","","null","","fixation","2021-06-09 22:20:11.180","","","","","",""
"card-selection-trial","105","474289","0.0-25.0-1.17","407","false","img/card_backs/set1/yellow.gif","img/card_backs/set1/purple.gif","img/card_backs/set1/green.gif","img/card_backs/set1/red.gif","img/card_backs/set2/pink.gif","img/card_backs/set2/blue.gif","img/card_backs/set2/orange.gif","img/card_backs/set2/gray.gif","""event"",""trial"",""time""
""fullscreenenter"",""1"",""5223""
","
","
","""event"",""trial"",""time""
""fullscreenenter"",""1"",""5223""
","
","","678.2100000418723","","","","real_trial","2021-06-09 22:20:13.867","img/card_backs/set1/green.gif","0","-60","1","",""
"casino-fixation","106","474792","0.0-25.0-0.18","407","false","img/card_backs/set1/yellow.gif","img/card_backs/set1/purple.gif","img/card_backs/set1/green.gif","img/card_backs/set1/red.gif","img/card_backs/set2/pink.gif","img/card_backs/set2/blue.gif","img/card_backs/set2/orange.gif","img/card_backs/set2/gray.gif","""event"",""trial"",""time""
""fullscreenenter"",""1"",""5223""
","
","
","""event"",""trial"",""time""
""fullscreenenter"",""1"",""5223""
","
","","null","","null","","fixation","2021-06-09 22:20:14.370","","","","","",""
"card-selection-trial","107","477290","0.0-25.0-1.18","407","false","img/card_backs/set1/yellow.gif","img/card_backs/set1/purple.gif","img/card_backs/set1/green.gif","img/card_backs/set1/red.gif","img/card_backs/set2/pink.gif","img/card_backs/set2/blue.gif","img/card_backs/set2/orange.gif","img/card_backs/set2/gray.gif","""event"",""trial"",""time""
""fullscreenenter"",""1"",""5223""
","
","
","""event"",""trial"",""time""
""fullscreenenter"",""1"",""5223""
","
","","477.65500005334616","","","","real_trial","2021-06-09 22:20:16.868","img/card_backs/set1/green.gif","3","120","1","",""
"casino-fixation","108","477792","0.0-25.0-0.19","407","false","img/card_backs/set1/yellow.gif","img/card_backs/set1/purple.gif","img/card_backs/set1/green.gif","img/card_backs/set1/red.gif","img/card_backs/set2/pink.gif","img/card_backs/set2/blue.gif","img/card_backs/set2/orange.gif","img/card_backs/set2/gray.gif","""event"",""trial"",""time""
""fullscreenenter"",""1"",""5223""
","
","
","""event"",""trial"",""time""
""fullscreenenter"",""1"",""5223""
","
","","null","","null","","fixation","2021-06-09 22:20:17.370","","","","","",""
"card-selection-trial","109","480274","0.0-25.0-1.19","407","false","img/card_backs/set1/yellow.gif","img/card_backs/set1/purple.gif","img/card_backs/set1/green.gif","img/card_backs/set1/red.gif","img/card_backs/set2/pink.gif","img/card_backs/set2/blue.gif","img/card_backs/set2/orange.gif","img/card_backs/set2/gray.gif","""event"",""trial"",""time""
""fullscreenenter"",""1"",""5223""
","
","
","""event"",""trial"",""time""
""fullscreenenter"",""1"",""5223""
","
","","473.8650000654161","","","","real_trial","2021-06-09 22:20:19.852","img/card_backs/set1/green.gif","3","-60","1","",""
"casino-fixation","110","480776","0.0-25.0-0.20","407","false","img/card_backs/set1/yellow.gif","img/card_backs/set1/purple.gif","img/card_backs/set1/green.gif","img/card_backs/set1/red.gif","img/card_backs/set2/pink.gif","img/card_backs/set2/blue.gif","img/card_backs/set2/orange.gif","img/card_backs/set2/gray.gif","""event"",""trial"",""time""
""fullscreenenter"",""1"",""5223""
","
","
","""event"",""trial"",""time""
""fullscreenenter"",""1"",""5223""
","
","","null","","null","","fixation","2021-06-09 22:20:20.354","","","","","",""
"card-selection-trial","111","483729","0.0-25.0-1.20","407","false","img/card_backs/set1/yellow.gif","img/card_backs/set1/purple.gif","img/card_backs/set1/green.gif","img/card_backs/set1/red.gif","img/card_backs/set2/pink.gif","img/card_backs/set2/blue.gif","img/card_backs/set2/orange.gif","img/card_backs/set2/gray.gif","""event"",""trial"",""time""
""fullscreenenter"",""1"",""5223""
","
","
","""event"",""trial"",""time""
""fullscreenenter"",""1"",""5223""
","
","","942.8849997930229","","","","real_trial","2021-06-09 22:20:23.307","img/card_backs/set1/green.gif","1","120","1","",""
"casino-fixation","112","484233","0.0-25.0-0.21","407","false","img/card_backs/set1/yellow.gif","img/card_backs/set1/purple.gif","img/card_backs/set1/green.gif","img/card_backs/set1/red.gif","img/card_backs/set2/pink.gif","img/card_backs/set2/blue.gif","img/card_backs/set2/orange.gif","img/card_backs/set2/gray.gif","""event"",""trial"",""time""
""fullscreenenter"",""1"",""5223""
","
","
","""event"",""trial"",""time""
""fullscreenenter"",""1"",""5223""
","
","","null","","null","","fixation","2021-06-09 22:20:23.811","","","","","",""
"card-selection-trial","113","486713","0.0-25.0-1.21","407","false","img/card_backs/set1/yellow.gif","img/card_backs/set1/purple.gif","img/card_backs/set1/green.gif","img/card_backs/set1/red.gif","img/card_backs/set2/pink.gif","img/card_backs/set2/blue.gif","img/card_backs/set2/orange.gif","img/card_backs/set2/gray.gif","""event"",""trial"",""time""
""fullscreenenter"",""1"",""5223""
","
","
","""event"",""trial"",""time""
""fullscreenenter"",""1"",""5223""
","
","","470.509999897331","","","","real_trial","2021-06-09 22:20:26.291","img/card_backs/set1/green.gif","1","110","1","",""
"casino-fixation","114","487215","0.0-25.0-0.22","407","false","img/card_backs/set1/yellow.gif","img/card_backs/set1/purple.gif","img/card_backs/set1/green.gif","img/card_backs/set1/red.gif","img/card_backs/set2/pink.gif","img/card_backs/set2/blue.gif","img/card_backs/set2/orange.gif","img/card_backs/set2/gray.gif","""event"",""trial"",""time""
""fullscreenenter"",""1"",""5223""
","
","
","""event"",""trial"",""time""
""fullscreenenter"",""1"",""5223""
","
","","null","","null","","fixation","2021-06-09 22:20:26.794","","","","","",""
"card-selection-trial","115","490337","0.0-25.0-1.22","407","false","img/card_backs/set1/yellow.gif","img/card_backs/set1/purple.gif","img/card_backs/set1/green.gif","img/card_backs/set1/red.gif","img/card_backs/set2/pink.gif","img/card_backs/set2/blue.gif","img/card_backs/set2/orange.gif","img/card_backs/set2/gray.gif","""event"",""trial"",""time""
""fullscreenenter"",""1"",""5223""
","
","
","""event"",""trial"",""time""
""fullscreenenter"",""1"",""5223""
","
","","1111.8700001388788","","","","real_trial","2021-06-09 22:20:29.915","img/card_backs/set1/green.gif","2","100","1","",""
"casino-fixation","116","490841","0.0-25.0-0.23","407","false","img/card_backs/set1/yellow.gif","img/card_backs/set1/purple.gif","img/card_backs/set1/green.gif","img/card_backs/set1/red.gif","img/card_backs/set2/pink.gif","img/card_backs/set2/blue.gif","img/card_backs/set2/orange.gif","img/card_backs/set2/gray.gif","""event"",""trial"",""time""
""fullscreenenter"",""1"",""5223""
","
","
","""event"",""trial"",""time""
""fullscreenenter"",""1"",""5223""
","
","","null","","null","","fixation","2021-06-09 22:20:30.419","","","","","",""
"card-selection-trial","117","493379","0.0-25.0-1.23","407","false","img/card_backs/set1/yellow.gif","img/card_backs/set1/purple.gif","img/card_backs/set1/green.gif","img/card_backs/set1/red.gif","img/card_backs/set2/pink.gif","img/card_backs/set2/blue.gif","img/card_backs/set2/orange.gif","img/card_backs/set2/gray.gif","""event"",""trial"",""time""
""fullscreenenter"",""1"",""5223""
","
","
","""event"",""trial"",""time""
""fullscreenenter"",""1"",""5223""
","
","","528.4400000236928","","","","real_trial","2021-06-09 22:20:32.957","img/card_backs/set1/green.gif","3","-50","1","",""
"casino-fixation","118","493881","0.0-25.0-0.24","407","false","img/card_backs/set1/yellow.gif","img/card_backs/set1/purple.gif","img/card_backs/set1/green.gif","img/card_backs/set1/red.gif","img/card_backs/set2/pink.gif","img/card_backs/set2/blue.gif","img/card_backs/set2/orange.gif","img/card_backs/set2/gray.gif","""event"",""trial"",""time""
""fullscreenenter"",""1"",""5223""
","
","
","""event"",""trial"",""time""
""fullscreenenter"",""1"",""5223""
","
","","null","","null","","fixation","2021-06-09 22:20:33.459","","","","","",""
"card-selection-trial","119","496508","0.0-25.0-1.24","407","false","img/card_backs/set1/yellow.gif","img/card_backs/set1/purple.gif","img/card_backs/set1/green.gif","img/card_backs/set1/red.gif","img/card_backs/set2/pink.gif","img/card_backs/set2/blue.gif","img/card_backs/set2/orange.gif","img/card_backs/set2/gray.gif","""event"",""trial"",""time""
""fullscreenenter"",""1"",""5223""
","
","
","""event"",""trial"",""time""
""fullscreenenter"",""1"",""5223""
","
","","616.2000000476837","","","","real_trial","2021-06-09 22:20:36.086","img/card_backs/set1/green.gif","2","-50","1","",""
"casino-fixation","120","497010","0.0-25.0-0.25","407","false","img/card_backs/set1/yellow.gif","img/card_backs/set1/purple.gif","img/card_backs/set1/green.gif","img/card_backs/set1/red.gif","img/card_backs/set2/pink.gif","img/card_backs/set2/blue.gif","img/card_backs/set2/orange.gif","img/card_backs/set2/gray.gif","""event"",""trial"",""time""
""fullscreenenter"",""1"",""5223""
","
","
","""event"",""trial"",""time""
""fullscreenenter"",""1"",""5223""
","
","","null","","null","","fixation","2021-06-09 22:20:36.588","","","","","",""
"card-selection-trial","121","499670","0.0-25.0-1.25","407","false","img/card_backs/set1/yellow.gif","img/card_backs/set1/purple.gif","img/card_backs/set1/green.gif","img/card_backs/set1/red.gif","img/card_backs/set2/pink.gif","img/card_backs/set2/blue.gif","img/card_backs/set2/orange.gif","img/card_backs/set2/gray.gif","""event"",""trial"",""time""
""fullscreenenter"",""1"",""5223""
","
","
","""event"",""trial"",""time""
""fullscreenenter"",""1"",""5223""
","
","","648.7000002525747","","","","real_trial","2021-06-09 22:20:39.248","img/card_backs/set1/green.gif","2","120","1","",""
"casino-fixation","122","500174","0.0-25.0-0.26","407","false","img/card_backs/set1/yellow.gif","img/card_backs/set1/purple.gif","img/card_backs/set1/green.gif","img/card_backs/set1/red.gif","img/card_backs/set2/pink.gif","img/card_backs/set2/blue.gif","img/card_backs/set2/orange.gif","img/card_backs/set2/gray.gif","""event"",""trial"",""time""
""fullscreenenter"",""1"",""5223""
","
","
","""event"",""trial"",""time""
""fullscreenenter"",""1"",""5223""
","
","","null","","null","","fixation","2021-06-09 22:20:39.752","","","","","",""
"card-selection-trial","123","502670","0.0-25.0-1.26","407","false","img/card_backs/set1/yellow.gif","img/card_backs/set1/purple.gif","img/card_backs/set1/green.gif","img/card_backs/set1/red.gif","img/card_backs/set2/pink.gif","img/card_backs/set2/blue.gif","img/card_backs/set2/orange.gif","img/card_backs/set2/gray.gif","""event"",""trial"",""time""
""fullscreenenter"",""1"",""5223""
","
","
","""event"",""trial"",""time""
""fullscreenenter"",""1"",""5223""
","
","","486.03500006720424","","","","real_trial","2021-06-09 22:20:42.248","img/card_backs/set1/green.gif","0","100","1","",""
"casino-fixation","124","503173","0.0-25.0-0.27","407","false","img/card_backs/set1/yellow.gif","img/card_backs/set1/purple.gif","img/card_backs/set1/green.gif","img/card_backs/set1/red.gif","img/card_backs/set2/pink.gif","img/card_backs/set2/blue.gif","img/card_backs/set2/orange.gif","img/card_backs/set2/gray.gif","""event"",""trial"",""time""
""fullscreenenter"",""1"",""5223""
","
","
","""event"",""trial"",""time""
""fullscreenenter"",""1"",""5223""
","
","","null","","null","","fixation","2021-06-09 22:20:42.751","","","","","",""
"card-selection-trial","125","505864","0.0-25.0-1.27","407","false","img/card_backs/set1/yellow.gif","img/card_backs/set1/purple.gif","img/card_backs/set1/green.gif","img/card_backs/set1/red.gif","img/card_backs/set2/pink.gif","img/card_backs/set2/blue.gif","img/card_backs/set2/orange.gif","img/card_backs/set2/gray.gif","""event"",""trial"",""time""
""fullscreenenter"",""1"",""5223""
","
","
","""event"",""trial"",""time""
""fullscreenenter"",""1"",""5223""
","
","","680.8199998922646","","","","real_trial","2021-06-09 22:20:45.442","img/card_backs/set1/green.gif","1","-60","1","",""
"casino-fixation","126","506368","0.0-25.0-0.28","407","false","img/card_backs/set1/yellow.gif","img/card_backs/set1/purple.gif","img/card_backs/set1/green.gif","img/card_backs/set1/red.gif","img/card_backs/set2/pink.gif","img/card_backs/set2/blue.gif","img/card_backs/set2/orange.gif","img/card_backs/set2/gray.gif","""event"",""trial"",""time""
""fullscreenenter"",""1"",""5223""
","
","
","""event"",""trial"",""time""
""fullscreenenter"",""1"",""5223""
","
","","null","","null","","fixation","2021-06-09 22:20:45.946","","","","","",""
"card-selection-trial","127","509497","0.0-25.0-1.28","407","false","img/card_backs/set1/yellow.gif","img/card_backs/set1/purple.gif","img/card_backs/set1/green.gif","img/card_backs/set1/red.gif","img/card_backs/set2/pink.gif","img/card_backs/set2/blue.gif","img/card_backs/set2/orange.gif","img/card_backs/set2/gray.gif","""event"",""trial"",""time""
""fullscreenenter"",""1"",""5223""
","
","
","""event"",""trial"",""time""
""fullscreenenter"",""1"",""5223""
","
","","1118.9600001089275","","","","real_trial","2021-06-09 22:20:49.075","img/card_backs/set1/green.gif","2","120","1","",""
"casino-fixation","128","510000","0.0-25.0-0.29","407","false","img/card_backs/set1/yellow.gif","img/card_backs/set1/purple.gif","img/card_backs/set1/green.gif","img/card_backs/set1/red.gif","img/card_backs/set2/pink.gif","img/card_backs/set2/blue.gif","img/card_backs/set2/orange.gif","img/card_backs/set2/gray.gif","""event"",""trial"",""time""
""fullscreenenter"",""1"",""5223""
","
","
","""event"",""trial"",""time""
""fullscreenenter"",""1"",""5223""
","
","","null","","null","","fixation","2021-06-09 22:20:49.578","","","","","",""
"card-selection-trial","129","512614","0.0-25.0-1.29","407","false","img/card_backs/set1/yellow.gif","img/card_backs/set1/purple.gif","img/card_backs/set1/green.gif","img/card_backs/set1/red.gif","img/card_backs/set2/pink.gif","img/card_backs/set2/blue.gif","img/card_backs/set2/orange.gif","img/card_backs/set2/gray.gif","""event"",""trial"",""time""
""fullscreenenter"",""1"",""5223""
","
","
","""event"",""trial"",""time""
""fullscreenenter"",""1"",""5223""
","
","","592.7749997936189","","","","real_trial","2021-06-09 22:20:52.192","img/card_backs/set1/green.gif","3","120","1","",""
"casino-fixation","130","513116","0.0-25.0-0.30","407","false","img/card_backs/set1/yellow.gif","img/card_backs/set1/purple.gif","img/card_backs/set1/green.gif","img/card_backs/set1/red.gif","img/card_backs/set2/pink.gif","img/card_backs/set2/blue.gif","img/card_backs/set2/orange.gif","img/card_backs/set2/gray.gif","""event"",""trial"",""time""
""fullscreenenter"",""1"",""5223""
","
","
","""event"",""trial"",""time""
""fullscreenenter"",""1"",""5223""
","
","","null","","null","","fixation","2021-06-09 22:20:52.695","","","","","",""
"card-selection-trial","131","515683","0.0-25.0-1.30","407","false","img/card_backs/set1/yellow.gif","img/card_backs/set1/purple.gif","img/card_backs/set1/green.gif","img/card_backs/set1/red.gif","img/card_backs/set2/pink.gif","img/card_backs/set2/blue.gif","img/card_backs/set2/orange.gif","img/card_backs/set2/gray.gif","""event"",""trial"",""time""
""fullscreenenter"",""1"",""5223""
","
","
","""event"",""trial"",""time""
""fullscreenenter"",""1"",""5223""
","
","","557.0100001059473","","","","real_trial","2021-06-09 22:20:55.261","img/card_backs/set1/green.gif","0","120","1","",""
"casino-fixation","132","516186","0.0-25.0-0.31","407","false","img/card_backs/set1/yellow.gif","img/card_backs/set1/purple.gif","img/card_backs/set1/green.gif","img/card_backs/set1/red.gif","img/card_backs/set2/pink.gif","img/card_backs/set2/blue.gif","img/card_backs/set2/orange.gif","img/card_backs/set2/gray.gif","""event"",""trial"",""time""
""fullscreenenter"",""1"",""5223""
","
","
","""event"",""trial"",""time""
""fullscreenenter"",""1"",""5223""
","
","","null","","null","","fixation","2021-06-09 22:20:55.764","","","","","",""
"card-selection-trial","133","518757","0.0-25.0-1.31","407","false","img/card_backs/set1/yellow.gif","img/card_backs/set1/purple.gif","img/card_backs/set1/green.gif","img/card_backs/set1/red.gif","img/card_backs/set2/pink.gif","img/card_backs/set2/blue.gif","img/card_backs/set2/orange.gif","img/card_backs/set2/gray.gif","""event"",""trial"",""time""
""fullscreenenter"",""1"",""5223""
","
","
","""event"",""trial"",""time""
""fullscreenenter"",""1"",""5223""
","
","","562.4250001274049","","","","real_trial","2021-06-09 22:20:58.335","img/card_backs/set1/green.gif","3","-70","1","",""
"casino-fixation","134","519259","0.0-25.0-0.32","407","false","img/card_backs/set1/yellow.gif","img/card_backs/set1/purple.gif","img/card_backs/set1/green.gif","img/card_backs/set1/red.gif","img/card_backs/set2/pink.gif","img/card_backs/set2/blue.gif","img/card_backs/set2/orange.gif","img/card_backs/set2/gray.gif","""event"",""trial"",""time""
""fullscreenenter"",""1"",""5223""
","
","
","""event"",""trial"",""time""
""fullscreenenter"",""1"",""5223""
","
","","null","","null","","fixation","2021-06-09 22:20:58.837","","","","","",""
"card-selection-trial","135","521846","0.0-25.0-1.32","407","false","img/card_backs/set1/yellow.gif","img/card_backs/set1/purple.gif","img/card_backs/set1/green.gif","img/card_backs/set1/red.gif","img/card_backs/set2/pink.gif","img/card_backs/set2/blue.gif","img/card_backs/set2/orange.gif","img/card_backs/set2/gray.gif","""event"",""trial"",""time""
""fullscreenenter"",""1"",""5223""
","
","
","""event"",""trial"",""time""
""fullscreenenter"",""1"",""5223""
","
","","576.3649996370077","","","","real_trial","2021-06-09 22:21:01.424","img/card_backs/set1/green.gif","0","120","1","",""
"casino-fixation","136","522350","0.0-25.0-0.33","407","false","img/card_backs/set1/yellow.gif","img/card_backs/set1/purple.gif","img/card_backs/set1/green.gif","img/card_backs/set1/red.gif","img/card_backs/set2/pink.gif","img/card_backs/set2/blue.gif","img/card_backs/set2/orange.gif","img/card_backs/set2/gray.gif","""event"",""trial"",""time""
""fullscreenenter"",""1"",""5223""
","
","
","""event"",""trial"",""time""
""fullscreenenter"",""1"",""5223""
","
","","null","","null","","fixation","2021-06-09 22:21:01.928","","","","","",""
"card-selection-trial","137","525169","0.0-25.0-1.33","407","false","img/card_backs/set1/yellow.gif","img/card_backs/set1/purple.gif","img/card_backs/set1/green.gif","img/card_backs/set1/red.gif","img/card_backs/set2/pink.gif","img/card_backs/set2/blue.gif","img/card_backs/set2/orange.gif","img/card_backs/set2/gray.gif","""event"",""trial"",""time""
""fullscreenenter"",""1"",""5223""
","
","
","""event"",""trial"",""time""
""fullscreenenter"",""1"",""5223""
","
","","808.35000006482","","","","real_trial","2021-06-09 22:21:04.747","img/card_backs/set1/green.gif","2","-60","1","",""
"casino-fixation","138","525671","0.0-25.0-0.34","407","false","img/card_backs/set1/yellow.gif","img/card_backs/set1/purple.gif","img/card_backs/set1/green.gif","img/card_backs/set1/red.gif","img/card_backs/set2/pink.gif","img/card_backs/set2/blue.gif","img/card_backs/set2/orange.gif","img/card_backs/set2/gray.gif","""event"",""trial"",""time""
""fullscreenenter"",""1"",""5223""
","
","
","""event"",""trial"",""time""
""fullscreenenter"",""1"",""5223""
","
","","null","","null","","fixation","2021-06-09 22:21:05.249","","","","","",""
"card-selection-trial","139","528305","0.0-25.0-1.34","407","false","img/card_backs/set1/yellow.gif","img/card_backs/set1/purple.gif","img/card_backs/set1/green.gif","img/card_backs/set1/red.gif","img/card_backs/set2/pink.gif","img/card_backs/set2/blue.gif","img/card_backs/set2/orange.gif","img/card_backs/set2/gray.gif","""event"",""trial"",""time""
""fullscreenenter"",""1"",""5223""
","
","
","""event"",""trial"",""time""
""fullscreenenter"",""1"",""5223""
","
","","624.1100002080202","","","","real_trial","2021-06-09 22:21:07.883","img/card_backs/set1/green.gif","1","110","1","",""
"casino-fixation","140","528807","0.0-25.0-0.35","407","false","img/card_backs/set1/yellow.gif","img/card_backs/set1/purple.gif","img/card_backs/set1/green.gif","img/card_backs/set1/red.gif","img/card_backs/set2/pink.gif","img/card_backs/set2/blue.gif","img/card_backs/set2/orange.gif","img/card_backs/set2/gray.gif","""event"",""trial"",""time""
""fullscreenenter"",""1"",""5223""
","
","
","""event"",""trial"",""time""
""fullscreenenter"",""1"",""5223""
","
","","null","","null","","fixation","2021-06-09 22:21:08.386","","","","","",""
"card-selection-trial","141","531402","0.0-25.0-1.35","407","false","img/card_backs/set1/yellow.gif","img/card_backs/set1/purple.gif","img/card_backs/set1/green.gif","img/card_backs/set1/red.gif","img/card_backs/set2/pink.gif","img/card_backs/set2/blue.gif","img/card_backs/set2/orange.gif","img/card_backs/set2/gray.gif","""event"",""trial"",""time""
""fullscreenenter"",""1"",""5223""
","
","
","""event"",""trial"",""time""
""fullscreenenter"",""1"",""5223""
","
","","584.8449999466538","","","","real_trial","2021-06-09 22:21:10.981","img/card_backs/set1/green.gif","2","100","1","",""
"casino-fixation","142","531904","0.0-25.0-0.36","407","false","img/card_backs/set1/yellow.gif","img/card_backs/set1/purple.gif","img/card_backs/set1/green.gif","img/card_backs/set1/red.gif","img/card_backs/set2/pink.gif","img/card_backs/set2/blue.gif","img/card_backs/set2/orange.gif","img/card_backs/set2/gray.gif","""event"",""trial"",""time""
""fullscreenenter"",""1"",""5223""
","
","
","""event"",""trial"",""time""
""fullscreenenter"",""1"",""5223""
","
","","null","","null","","fixation","2021-06-09 22:21:11.483","","","","","",""
"card-selection-trial","143","533965","0.0-25.0-1.36","407","false","img/card_backs/set1/yellow.gif","img/card_backs/set1/purple.gif","img/card_backs/set1/green.gif","img/card_backs/set1/red.gif","img/card_backs/set2/pink.gif","img/card_backs/set2/blue.gif","img/card_backs/set2/orange.gif","img/card_backs/set2/gray.gif","""event"",""trial"",""time""
""fullscreenenter"",""1"",""5223""
","
","
","""event"",""trial"",""time""
""fullscreenenter"",""1"",""5223""
","
","","51.69000010937452","","","","real_trial","2021-06-09 22:21:13.543","img/card_backs/set1/red.gif","3","120","1","",""
"casino-fixation","144","534467","0.0-25.0-0.37","407","false","img/card_backs/set1/yellow.gif","img/card_backs/set1/purple.gif","img/card_backs/set1/green.gif","img/card_backs/set1/red.gif","img/card_backs/set2/pink.gif","img/card_backs/set2/blue.gif","img/card_backs/set2/orange.gif","img/card_backs/set2/gray.gif","""event"",""trial"",""time""
""fullscreenenter"",""1"",""5223""
","
","
","""event"",""trial"",""time""
""fullscreenenter"",""1"",""5223""
","
","","null","","null","","fixation","2021-06-09 22:21:14.045","","","","","",""
"card-selection-trial","145","537356","0.0-25.0-1.37","407","false","img/card_backs/set1/yellow.gif","img/card_backs/set1/purple.gif","img/card_backs/set1/green.gif","img/card_backs/set1/red.gif","img/card_backs/set2/pink.gif","img/card_backs/set2/blue.gif","img/card_backs/set2/orange.gif","img/card_backs/set2/gray.gif","""event"",""trial"",""time""
""fullscreenenter"",""1"",""5223""
","
","
","""event"",""trial"",""time""
""fullscreenenter"",""1"",""5223""
","
","","879.9200002104044","","","","real_trial","2021-06-09 22:21:16.935","img/card_backs/set1/green.gif","2","100","1","",""
"casino-fixation","146","537860","0.0-25.0-0.38","407","false","img/card_backs/set1/yellow.gif","img/card_backs/set1/purple.gif","img/card_backs/set1/green.gif","img/card_backs/set1/red.gif","img/card_backs/set2/pink.gif","img/card_backs/set2/blue.gif","img/card_backs/set2/orange.gif","img/card_backs/set2/gray.gif","""event"",""trial"",""time""
""fullscreenenter"",""1"",""5223""
","
","
","""event"",""trial"",""time""
""fullscreenenter"",""1"",""5223""
","
","","null","","null","","fixation","2021-06-09 22:21:17.438","","","","","",""
"card-selection-trial","147","540416","0.0-25.0-1.38","407","false","img/card_backs/set1/yellow.gif","img/card_backs/set1/purple.gif","img/card_backs/set1/green.gif","img/card_backs/set1/red.gif","img/card_backs/set2/pink.gif","img/card_backs/set2/blue.gif","img/card_backs/set2/orange.gif","img/card_backs/set2/gray.gif","""event"",""trial"",""time""
""fullscreenenter"",""1"",""5223""
","
","
","""event"",""trial"",""time""
""fullscreenenter"",""1"",""5223""
","
","","546.1550001055002","","","","real_trial","2021-06-09 22:21:19.994","img/card_backs/set1/green.gif","1","-60","1","",""
"casino-fixation","148","540919","0.0-25.0-0.39","407","false","img/card_backs/set1/yellow.gif","img/card_backs/set1/purple.gif","img/card_backs/set1/green.gif","img/card_backs/set1/red.gif","img/card_backs/set2/pink.gif","img/card_backs/set2/blue.gif","img/card_backs/set2/orange.gif","img/card_backs/set2/gray.gif","""event"",""trial"",""time""
""fullscreenenter"",""1"",""5223""
","
","
","""event"",""trial"",""time""
""fullscreenenter"",""1"",""5223""
","
","","null","","null","","fixation","2021-06-09 22:21:20.497","","","","","",""
"card-selection-trial","149","543491","0.0-25.0-1.39","407","false","img/card_backs/set1/yellow.gif","img/card_backs/set1/purple.gif","img/card_backs/set1/green.gif","img/card_backs/set1/red.gif","img/card_backs/set2/pink.gif","img/card_backs/set2/blue.gif","img/card_backs/set2/orange.gif","img/card_backs/set2/gray.gif","""event"",""trial"",""time""
""fullscreenenter"",""1"",""5223""
","
","
","""event"",""trial"",""time""
""fullscreenenter"",""1"",""5223""
","
","","561.2849998287857","","","","real_trial","2021-06-09 22:21:23.069","img/card_backs/set1/green.gif","3","100","1","",""
"casino-fixation","150","543993","0.0-25.0-0.40","407","false","img/card_backs/set1/yellow.gif","img/card_backs/set1/purple.gif","img/card_backs/set1/green.gif","img/card_backs/set1/red.gif","img/card_backs/set2/pink.gif","img/card_backs/set2/blue.gif","img/card_backs/set2/orange.gif","img/card_backs/set2/gray.gif","""event"",""trial"",""time""
""fullscreenenter"",""1"",""5223""
","
","
","""event"",""trial"",""time""
""fullscreenenter"",""1"",""5223""
","
","","null","","null","","fixation","2021-06-09 22:21:23.571","","","","","",""
"card-selection-trial","151","546564","0.0-25.0-1.40","407","false","img/card_backs/set1/yellow.gif","img/card_backs/set1/purple.gif","img/card_backs/set1/green.gif","img/card_backs/set1/red.gif","img/card_backs/set2/pink.gif","img/card_backs/set2/blue.gif","img/card_backs/set2/orange.gif","img/card_backs/set2/gray.gif","""event"",""trial"",""time""
""fullscreenenter"",""1"",""5223""
","
","
","""event"",""trial"",""time""
""fullscreenenter"",""1"",""5223""
","
","","560.3800001554191","","","","real_trial","2021-06-09 22:21:26.142","img/card_backs/set1/green.gif","2","100","1","",""
"casino-fixation","152","547066","0.0-25.0-0.41","407","false","img/card_backs/set1/yellow.gif","img/card_backs/set1/purple.gif","img/card_backs/set1/green.gif","img/card_backs/set1/red.gif","img/card_backs/set2/pink.gif","img/card_backs/set2/blue.gif","img/card_backs/set2/orange.gif","img/card_backs/set2/gray.gif","""event"",""trial"",""time""
""fullscreenenter"",""1"",""5223""
","
","
","""event"",""trial"",""time""
""fullscreenenter"",""1"",""5223""
","
","","null","","null","","fixation","2021-06-09 22:21:26.644","","","","","",""
"card-selection-trial","153","549670","0.0-25.0-1.41","407","false","img/card_backs/set1/yellow.gif","img/card_backs/set1/purple.gif","img/card_backs/set1/green.gif","img/card_backs/set1/red.gif","img/card_backs/set2/pink.gif","img/card_backs/set2/blue.gif","img/card_backs/set2/orange.gif","img/card_backs/set2/gray.gif","""event"",""trial"",""time""
""fullscreenenter"",""1"",""5223""
","
","
","""event"",""trial"",""time""
""fullscreenenter"",""1"",""5223""
","
","","592.0949997380376","","","","real_trial","2021-06-09 22:21:29.248","img/card_backs/set1/green.gif","0","120","1","",""
"casino-fixation","154","550173","0.0-25.0-0.42","407","false","img/card_backs/set1/yellow.gif","img/card_backs/set1/purple.gif","img/card_backs/set1/green.gif","img/card_backs/set1/red.gif","img/card_backs/set2/pink.gif","img/card_backs/set2/blue.gif","img/card_backs/set2/orange.gif","img/card_backs/set2/gray.gif","""event"",""trial"",""time""
""fullscreenenter"",""1"",""5223""
","
","
","""event"",""trial"",""time""
""fullscreenenter"",""1"",""5223""
","
","","null","","null","","fixation","2021-06-09 22:21:29.752","","","","","",""
"card-selection-trial","155","552791","0.0-25.0-1.42","407","false","img/card_backs/set1/yellow.gif","img/card_backs/set1/purple.gif","img/card_backs/set1/green.gif","img/card_backs/set1/red.gif","img/card_backs/set2/pink.gif","img/card_backs/set2/blue.gif","img/card_backs/set2/orange.gif","img/card_backs/set2/gray.gif","""event"",""trial"",""time""
""fullscreenenter"",""1"",""5223""
","
","
","""event"",""trial"",""time""
""fullscreenenter"",""1"",""5223""
","
","","607.2450000792742","","","","real_trial","2021-06-09 22:21:32.369","img/card_backs/set1/green.gif","3","120","1","",""
"casino-fixation","156","553293","0.0-25.0-0.43","407","false","img/card_backs/set1/yellow.gif","img/card_backs/set1/purple.gif","img/card_backs/set1/green.gif","img/card_backs/set1/red.gif","img/card_backs/set2/pink.gif","img/card_backs/set2/blue.gif","img/card_backs/set2/orange.gif","img/card_backs/set2/gray.gif","""event"",""trial"",""time""
""fullscreenenter"",""1"",""5223""
","
","
","""event"",""trial"",""time""
""fullscreenenter"",""1"",""5223""
","
","","null","","null","","fixation","2021-06-09 22:21:32.872","","","","","",""
"card-selection-trial","157","555919","0.0-25.0-1.43","407","false","img/card_backs/set1/yellow.gif","img/card_backs/set1/purple.gif","img/card_backs/set1/green.gif","img/card_backs/set1/red.gif","img/card_backs/set2/pink.gif","img/card_backs/set2/blue.gif","img/card_backs/set2/orange.gif","img/card_backs/set2/gray.gif","""event"",""trial"",""time""
""fullscreenenter"",""1"",""5223""
","
","
","""event"",""trial"",""time""
""fullscreenenter"",""1"",""5223""
","
","","615.7699995674193","","","","real_trial","2021-06-09 22:21:35.497","img/card_backs/set1/green.gif","1","100","1","",""
"casino-fixation","158","556422","0.0-25.0-0.44","407","false","img/card_backs/set1/yellow.gif","img/card_backs/set1/purple.gif","img/card_backs/set1/green.gif","img/card_backs/set1/red.gif","img/card_backs/set2/pink.gif","img/card_backs/set2/blue.gif","img/card_backs/set2/orange.gif","img/card_backs/set2/gray.gif","""event"",""trial"",""time""
""fullscreenenter"",""1"",""5223""
","
","
","""event"",""trial"",""time""
""fullscreenenter"",""1"",""5223""
","
","","null","","null","","fixation","2021-06-09 22:21:36.000","","","","","",""
"card-selection-trial","159","558967","0.0-25.0-1.44","407","false","img/card_backs/set1/yellow.gif","img/card_backs/set1/purple.gif","img/card_backs/set1/green.gif","img/card_backs/set1/red.gif","img/card_backs/set2/pink.gif","img/card_backs/set2/blue.gif","img/card_backs/set2/orange.gif","img/card_backs/set2/gray.gif","""event"",""trial"",""time""
""fullscreenenter"",""1"",""5223""
","
","
","""event"",""trial"",""time""
""fullscreenenter"",""1"",""5223""
","
","","535.0949997082353","","","","real_trial","2021-06-09 22:21:38.545","img/card_backs/set1/green.gif","0","120","1","",""
"casino-fixation","160","559470","0.0-25.0-0.45","407","false","img/card_backs/set1/yellow.gif","img/card_backs/set1/purple.gif","img/card_backs/set1/green.gif","img/card_backs/set1/red.gif","img/card_backs/set2/pink.gif","img/card_backs/set2/blue.gif","img/card_backs/set2/orange.gif","img/card_backs/set2/gray.gif","""event"",""trial"",""time""
""fullscreenenter"",""1"",""5223""
","
","
","""event"",""trial"",""time""
""fullscreenenter"",""1"",""5223""
","
","","null","","null","","fixation","2021-06-09 22:21:39.048","","","","","",""
"card-selection-trial","161","561908","0.0-25.0-1.45","407","false","img/card_backs/set1/yellow.gif","img/card_backs/set1/purple.gif","img/card_backs/set1/green.gif","img/card_backs/set1/red.gif","img/card_backs/set2/pink.gif","img/card_backs/set2/blue.gif","img/card_backs/set2/orange.gif","img/card_backs/set2/gray.gif","""event"",""trial"",""time""
""fullscreenenter"",""1"",""5223""
","
","
","""event"",""trial"",""time""
""fullscreenenter"",""1"",""5223""
","
","","427.800000179559","","","","real_trial","2021-06-09 22:21:41.486","img/card_backs/set1/green.gif","3","120","1","",""
"casino-fixation","162","562411","0.0-25.0-0.46","407","false","img/card_backs/set1/yellow.gif","img/card_backs/set1/purple.gif","img/card_backs/set1/green.gif","img/card_backs/set1/red.gif","img/card_backs/set2/pink.gif","img/card_backs/set2/blue.gif","img/card_backs/set2/orange.gif","img/card_backs/set2/gray.gif","""event"",""trial"",""time""
""fullscreenenter"",""1"",""5223""
","
","
","""event"",""trial"",""time""
""fullscreenenter"",""1"",""5223""
","
","","null","","null","","fixation","2021-06-09 22:21:41.990","","","","","",""
"card-selection-trial","163","564988","0.0-25.0-1.46","407","false","img/card_backs/set1/yellow.gif","img/card_backs/set1/purple.gif","img/card_backs/set1/green.gif","img/card_backs/set1/red.gif","img/card_backs/set2/pink.gif","img/card_backs/set2/blue.gif","img/card_backs/set2/orange.gif","img/card_backs/set2/gray.gif","""event"",""trial"",""time""
""fullscreenenter"",""1"",""5223""
","
","
","""event"",""trial"",""time""
""fullscreenenter"",""1"",""5223""
","
","","566.2450003437698","","","","real_trial","2021-06-09 22:21:44.566","img/card_backs/set1/green.gif","1","100","1","",""
"casino-fixation","164","565490","0.0-25.0-0.47","407","false","img/card_backs/set1/yellow.gif","img/card_backs/set1/purple.gif","img/card_backs/set1/green.gif","img/card_backs/set1/red.gif","img/card_backs/set2/pink.gif","img/card_backs/set2/blue.gif","img/card_backs/set2/orange.gif","img/card_backs/set2/gray.gif","""event"",""trial"",""time""
""fullscreenenter"",""1"",""5223""
","
","
","""event"",""trial"",""time""
""fullscreenenter"",""1"",""5223""
","
","","null","","null","","fixation","2021-06-09 22:21:45.069","","","","","",""
"card-selection-trial","165","567901","0.0-25.0-1.47","407","false","img/card_backs/set1/yellow.gif","img/card_backs/set1/purple.gif","img/card_backs/set1/green.gif","img/card_backs/set1/red.gif","img/card_backs/set2/pink.gif","img/card_backs/set2/blue.gif","img/card_backs/set2/orange.gif","img/card_backs/set2/gray.gif","""event"",""trial"",""time""
""fullscreenenter"",""1"",""5223""
","
","
","""event"",""trial"",""time""
""fullscreenenter"",""1"",""5223""
","
","","399.70000041648746","","","","real_trial","2021-06-09 22:21:47.480","img/card_backs/set1/green.gif","0","110","1","",""
"casino-fixation","166","568405","0.0-25.0-0.48","407","false","img/card_backs/set1/yellow.gif","img/card_backs/set1/purple.gif","img/card_backs/set1/green.gif","img/card_backs/set1/red.gif","img/card_backs/set2/pink.gif","img/card_backs/set2/blue.gif","img/card_backs/set2/orange.gif","img/card_backs/set2/gray.gif","""event"",""trial"",""time""
""fullscreenenter"",""1"",""5223""
","
","
","""event"",""trial"",""time""
""fullscreenenter"",""1"",""5223""
","
","","null","","null","","fixation","2021-06-09 22:21:47.983","","","","","",""
