"trial_type","trial_index","time_elapsed","internal_node_id","sub_id","risk_good_first","block1_A","block1_B","block1_C","block1_D","block2_A","block2_B","block2_C","block2_D","interactions","blur_events","focus_events","fullscreenenter_events","fullscreenexit_events","success","rt","stimulus","key_press","button_pressed","task_part","timestamp","card_choice","choice_position","points_earned","block","correct","response"
"pavlovia","0","5","0.0-0.0","628","false","img/card_backs/set1/yellow.gif","img/card_backs/set1/purple.gif","img/card_backs/set1/green.gif","img/card_backs/set1/red.gif","img/card_backs/set2/gray.gif","img/card_backs/set2/blue.gif","img/card_backs/set2/pink.gif","img/card_backs/set2/orange.gif","""event"",""trial"",""time""
""blur"",""1"",""2417""
""focus"",""1"",""10192""
""fullscreenenter"",""1"",""10365""
","""event"",""trial"",""time""
""blur"",""1"",""2417""
","""event"",""trial"",""time""
""focus"",""1"",""10192""
","""event"",""trial"",""time""
""fullscreenenter"",""1"",""10365""
","
","","","","","","","","","","","","",""
"fullscreen","1","11344","0.0-1.0","628","false","img/card_backs/set1/yellow.gif","img/card_backs/set1/purple.gif","img/card_backs/set1/green.gif","img/card_backs/set1/red.gif","img/card_backs/set2/gray.gif","img/card_backs/set2/blue.gif","img/card_backs/set2/pink.gif","img/card_backs/set2/orange.gif","""event"",""trial"",""time""
""blur"",""1"",""2417""
""focus"",""1"",""10192""
""fullscreenenter"",""1"",""10365""
","""event"",""trial"",""time""
""blur"",""1"",""2417""
","""event"",""trial"",""time""
""focus"",""1"",""10192""
","""event"",""trial"",""time""
""fullscreenenter"",""1"",""10365""
","
","true","","","","","","","","","","","",""
"audio-keyboard-response","2","16917","0.0-2.0","628","false","img/card_backs/set1/yellow.gif","img/card_backs/set1/purple.gif","img/card_backs/set1/green.gif","img/card_backs/set1/red.gif","img/card_backs/set2/gray.gif","img/card_backs/set2/blue.gif","img/card_backs/set2/pink.gif","img/card_backs/set2/orange.gif","""event"",""trial"",""time""
""blur"",""1"",""2417""
""focus"",""1"",""10192""
""fullscreenenter"",""1"",""10365""
","""event"",""trial"",""time""
""blur"",""1"",""2417""
","""event"",""trial"",""time""
""focus"",""1"",""10192""
","""event"",""trial"",""time""
""fullscreenenter"",""1"",""10365""
","
","","5571","audio/beep_loop.wav","32","","","","","","","","",""
"audio-button-response","3","19547","0.0-3.0","628","false","img/card_backs/set1/yellow.gif","img/card_backs/set1/purple.gif","img/card_backs/set1/green.gif","img/card_backs/set1/red.gif","img/card_backs/set2/gray.gif","img/card_backs/set2/blue.gif","img/card_backs/set2/pink.gif","img/card_backs/set2/orange.gif","""event"",""trial"",""time""
""blur"",""1"",""2417""
""focus"",""1"",""10192""
""fullscreenenter"",""1"",""10365""
","""event"",""trial"",""time""
""blur"",""1"",""2417""
","""event"",""trial"",""time""
""focus"",""1"",""10192""
","""event"",""trial"",""time""
""fullscreenenter"",""1"",""10365""
","
","","NaN","audio/turtle.mp3","","3","","","","","","","",""
"audio-button-response","4","22427","0.0-4.0","628","false","img/card_backs/set1/yellow.gif","img/card_backs/set1/purple.gif","img/card_backs/set1/green.gif","img/card_backs/set1/red.gif","img/card_backs/set2/gray.gif","img/card_backs/set2/blue.gif","img/card_backs/set2/pink.gif","img/card_backs/set2/orange.gif","""event"",""trial"",""time""
""blur"",""1"",""2417""
""focus"",""1"",""10192""
""fullscreenenter"",""1"",""10365""
","""event"",""trial"",""time""
""blur"",""1"",""2417""
","""event"",""trial"",""time""
""focus"",""1"",""10192""
","""event"",""trial"",""time""
""fullscreenenter"",""1"",""10365""
","
","","NaN","audio/shark.mp3","","2","","","","","","","",""
"fullscreen","5","26612","0.0-5.0","628","false","img/card_backs/set1/yellow.gif","img/card_backs/set1/purple.gif","img/card_backs/set1/green.gif","img/card_backs/set1/red.gif","img/card_backs/set2/gray.gif","img/card_backs/set2/blue.gif","img/card_backs/set2/pink.gif","img/card_backs/set2/orange.gif","""event"",""trial"",""time""
""blur"",""1"",""2417""
""focus"",""1"",""10192""
""fullscreenenter"",""1"",""10365""
","""event"",""trial"",""time""
""blur"",""1"",""2417""
","""event"",""trial"",""time""
""focus"",""1"",""10192""
","""event"",""trial"",""time""
""fullscreenenter"",""1"",""10365""
","
","true","","","","","","","","","","","",""
"casino-keyboard-response","6","33834","0.0-6.0-0.0","628","false","img/card_backs/set1/yellow.gif","img/card_backs/set1/purple.gif","img/card_backs/set1/green.gif","img/card_backs/set1/red.gif","img/card_backs/set2/gray.gif","img/card_backs/set2/blue.gif","img/card_backs/set2/pink.gif","img/card_backs/set2/orange.gif","""event"",""trial"",""time""
""blur"",""1"",""2417""
""focus"",""1"",""10192""
""fullscreenenter"",""1"",""10365""
","""event"",""trial"",""time""
""blur"",""1"",""2417""
","""event"",""trial"",""time""
""focus"",""1"",""10192""
","""event"",""trial"",""time""
""fullscreenenter"",""1"",""10365""
","
","","7217.899999976158","Welcome to the casino!","71","","instructions","2021-07-29 17:36:56.942","","","","","",""
"casino-keyboard-response","7","46607","0.0-6.0-0.1","628","false","img/card_backs/set1/yellow.gif","img/card_backs/set1/purple.gif","img/card_backs/set1/green.gif","img/card_backs/set1/red.gif","img/card_backs/set2/gray.gif","img/card_backs/set2/blue.gif","img/card_backs/set2/pink.gif","img/card_backs/set2/orange.gif","""event"",""trial"",""time""
""blur"",""1"",""2417""
""focus"",""1"",""10192""
""fullscreenenter"",""1"",""10365""
","""event"",""trial"",""time""
""blur"",""1"",""2417""
","""event"",""trial"",""time""
""focus"",""1"",""10192""
","""event"",""trial"",""time""
""fullscreenenter"",""1"",""10365""
","
","","12771.399999976158","Today you will be playing a game to earn tokens. </br> At the end of the experiment, you will be paid a bonus based on how many tokens you win. ","69","","instructions","2021-07-29 17:37:09.715","","","","","",""
"casino-keyboard-response","8","54839","0.0-6.0-0.2","628","false","img/card_backs/set1/yellow.gif","img/card_backs/set1/purple.gif","img/card_backs/set1/green.gif","img/card_backs/set1/red.gif","img/card_backs/set2/gray.gif","img/card_backs/set2/blue.gif","img/card_backs/set2/pink.gif","img/card_backs/set2/orange.gif","""event"",""trial"",""time""
""blur"",""1"",""2417""
""focus"",""1"",""10192""
""fullscreenenter"",""1"",""10365""
","""event"",""trial"",""time""
""blur"",""1"",""2417""
","""event"",""trial"",""time""
""focus"",""1"",""10192""
","""event"",""trial"",""time""
""fullscreenenter"",""1"",""10365""
","
","","8230.5","On every turn, you will be shown four different decks of cards. </br> You need to select a card from one of the four decks.  ","75","","instructions","2021-07-29 17:37:17.947","","","","","",""
"casino-keyboard-response","9","60758","0.0-6.0-0.3","628","false","img/card_backs/set1/yellow.gif","img/card_backs/set1/purple.gif","img/card_backs/set1/green.gif","img/card_backs/set1/red.gif","img/card_backs/set2/gray.gif","img/card_backs/set2/blue.gif","img/card_backs/set2/pink.gif","img/card_backs/set2/orange.gif","""event"",""trial"",""time""
""blur"",""1"",""2417""
""focus"",""1"",""10192""
""fullscreenenter"",""1"",""10365""
","""event"",""trial"",""time""
""blur"",""1"",""2417""
","""event"",""trial"",""time""
""focus"",""1"",""10192""
","""event"",""trial"",""time""
""fullscreenenter"",""1"",""10365""
","
","","5917.399999976158","On the next screen, you will see what the decks will look like. ","66","","instructions","2021-07-29 17:37:23.866","","","","","",""
"card-selection-trial","10","64773","0.0-7.0-0.0","628","false","img/card_backs/set1/yellow.gif","img/card_backs/set1/purple.gif","img/card_backs/set1/green.gif","img/card_backs/set1/red.gif","img/card_backs/set2/gray.gif","img/card_backs/set2/blue.gif","img/card_backs/set2/pink.gif","img/card_backs/set2/orange.gif","""event"",""trial"",""time""
""blur"",""1"",""2417""
""focus"",""1"",""10192""
""fullscreenenter"",""1"",""10365""
","""event"",""trial"",""time""
""blur"",""1"",""2417""
","""event"",""trial"",""time""
""focus"",""1"",""10192""
","""event"",""trial"",""time""
""fullscreenenter"",""1"",""10365""
","
","","null","","","","practice","2021-07-29 17:37:27.881","null","null","null","0","",""
"casino-keyboard-response","11","76584","0.0-8.0-0.0","628","false","img/card_backs/set1/yellow.gif","img/card_backs/set1/purple.gif","img/card_backs/set1/green.gif","img/card_backs/set1/red.gif","img/card_backs/set2/gray.gif","img/card_backs/set2/blue.gif","img/card_backs/set2/pink.gif","img/card_backs/set2/orange.gif","""event"",""trial"",""time""
""blur"",""1"",""2417""
""focus"",""1"",""10192""
""fullscreenenter"",""1"",""10365""
","""event"",""trial"",""time""
""blur"",""1"",""2417""
","""event"",""trial"",""time""
""focus"",""1"",""10192""
","""event"",""trial"",""time""
""fullscreenenter"",""1"",""10365""
","
","","11809.700000047684","You should pick a card from a deck using the '2', '4', '6', and '8' keys at the top of the keyboard.","85","","instructions","2021-07-29 17:37:39.692","","","","","",""
"casino-keyboard-response","12","82757","0.0-8.0-0.1","628","false","img/card_backs/set1/yellow.gif","img/card_backs/set1/purple.gif","img/card_backs/set1/green.gif","img/card_backs/set1/red.gif","img/card_backs/set2/gray.gif","img/card_backs/set2/blue.gif","img/card_backs/set2/pink.gif","img/card_backs/set2/orange.gif","""event"",""trial"",""time""
""blur"",""1"",""2417""
""focus"",""1"",""10192""
""fullscreenenter"",""1"",""10365""
","""event"",""trial"",""time""
""blur"",""1"",""2417""
","""event"",""trial"",""time""
""focus"",""1"",""10192""
","""event"",""trial"",""time""
""fullscreenenter"",""1"",""10365""
","
","","6171.199999928474","Once you select a card, it will turn over and you will see how many tokens you earned.","83","","instructions","2021-07-29 17:37:45.865","","","","","",""
"casino-keyboard-response","13","94617","0.0-8.0-0.2","628","false","img/card_backs/set1/yellow.gif","img/card_backs/set1/purple.gif","img/card_backs/set1/green.gif","img/card_backs/set1/red.gif","img/card_backs/set2/gray.gif","img/card_backs/set2/blue.gif","img/card_backs/set2/pink.gif","img/card_backs/set2/orange.gif","""event"",""trial"",""time""
""blur"",""1"",""2417""
""focus"",""1"",""10192""
""fullscreenenter"",""1"",""10365""
","""event"",""trial"",""time""
""blur"",""1"",""2417""
","""event"",""trial"",""time""
""focus"",""1"",""10192""
","""event"",""trial"",""time""
""fullscreenenter"",""1"",""10365""
","
","","11858.300000071526","Let's try practicing that! </br> First, try to put your fingers over the '2', '4', '6', and '8' keys. </br>  You can use whatever fingers are most comfortable for you. Try to find a comfortable position now. ","50","","instructions","2021-07-29 17:37:57.725","","","","","",""
"casino-keyboard-response","14","102034","0.0-8.0-0.3","628","false","img/card_backs/set1/yellow.gif","img/card_backs/set1/purple.gif","img/card_backs/set1/green.gif","img/card_backs/set1/red.gif","img/card_backs/set2/gray.gif","img/card_backs/set2/blue.gif","img/card_backs/set2/pink.gif","img/card_backs/set2/orange.gif","""event"",""trial"",""time""
""blur"",""1"",""2417""
""focus"",""1"",""10192""
""fullscreenenter"",""1"",""10365""
","""event"",""trial"",""time""
""blur"",""1"",""2417""
","""event"",""trial"",""time""
""focus"",""1"",""10192""
","""event"",""trial"",""time""
""fullscreenenter"",""1"",""10365""
","
","","7415.5","Okay ready? </br> On the next screen, press '2' to select the left deck. ","50","","instructions","2021-07-29 17:38:05.142","","","","","",""
"card-selection-trial","15","105883","0.0-9.0-0.0","628","false","img/card_backs/set1/yellow.gif","img/card_backs/set1/purple.gif","img/card_backs/set1/green.gif","img/card_backs/set1/red.gif","img/card_backs/set2/gray.gif","img/card_backs/set2/blue.gif","img/card_backs/set2/pink.gif","img/card_backs/set2/orange.gif","""event"",""trial"",""time""
""blur"",""1"",""2417""
""focus"",""1"",""10192""
""fullscreenenter"",""1"",""10365""
","""event"",""trial"",""time""
""blur"",""1"",""2417""
","""event"",""trial"",""time""
""focus"",""1"",""10192""
","""event"",""trial"",""time""
""fullscreenenter"",""1"",""10365""
","
","","1821.5","","","","practice_card_selection","2021-07-29 17:38:08.991","img/practice_cards/backs/dark_green.gif","0","200","","",""
"casino-keyboard-response","16","122324","0.0-10.0-0.0","628","false","img/card_backs/set1/yellow.gif","img/card_backs/set1/purple.gif","img/card_backs/set1/green.gif","img/card_backs/set1/red.gif","img/card_backs/set2/gray.gif","img/card_backs/set2/blue.gif","img/card_backs/set2/pink.gif","img/card_backs/set2/orange.gif","""event"",""trial"",""time""
""blur"",""1"",""2417""
""focus"",""1"",""10192""
""fullscreenenter"",""1"",""10365""
","""event"",""trial"",""time""
""blur"",""1"",""2417""
","""event"",""trial"",""time""
""focus"",""1"",""10192""
","""event"",""trial"",""time""
""fullscreenenter"",""1"",""10365""
","
","","16439.200000047684","Great! Now on the next screen, try pressing '6' to select the third deck.","54","","instructions","2021-07-29 17:38:25.432","","","","","",""
"card-selection-trial","17","126143","0.0-11.0-0.0","628","false","img/card_backs/set1/yellow.gif","img/card_backs/set1/purple.gif","img/card_backs/set1/green.gif","img/card_backs/set1/red.gif","img/card_backs/set2/gray.gif","img/card_backs/set2/blue.gif","img/card_backs/set2/pink.gif","img/card_backs/set2/orange.gif","""event"",""trial"",""time""
""blur"",""1"",""2417""
""focus"",""1"",""10192""
""fullscreenenter"",""1"",""10365""
","""event"",""trial"",""time""
""blur"",""1"",""2417""
","""event"",""trial"",""time""
""focus"",""1"",""10192""
","""event"",""trial"",""time""
""fullscreenenter"",""1"",""10365""
","
","","1798.8000000715256","","","","practice_card_selection","2021-07-29 17:38:29.251","img/practice_cards/backs/dark_blue.gif","2","200","","",""
"casino-keyboard-response","18","130729","0.0-12.0-0.0","628","false","img/card_backs/set1/yellow.gif","img/card_backs/set1/purple.gif","img/card_backs/set1/green.gif","img/card_backs/set1/red.gif","img/card_backs/set2/gray.gif","img/card_backs/set2/blue.gif","img/card_backs/set2/pink.gif","img/card_backs/set2/orange.gif","""event"",""trial"",""time""
""blur"",""1"",""2417""
""focus"",""1"",""10192""
""fullscreenenter"",""1"",""10365""
","""event"",""trial"",""time""
""blur"",""1"",""2417""
","""event"",""trial"",""time""
""focus"",""1"",""10192""
","""event"",""trial"",""time""
""fullscreenenter"",""1"",""10365""
","
","","4584.899999976158","Now on the next screen, try pressing '4' to select the second deck.","52","","instructions","2021-07-29 17:38:33.837","","","","","",""
"card-selection-trial","19","133363","0.0-13.0-0.0","628","false","img/card_backs/set1/yellow.gif","img/card_backs/set1/purple.gif","img/card_backs/set1/green.gif","img/card_backs/set1/red.gif","img/card_backs/set2/gray.gif","img/card_backs/set2/blue.gif","img/card_backs/set2/pink.gif","img/card_backs/set2/orange.gif","""event"",""trial"",""time""
""blur"",""1"",""2417""
""focus"",""1"",""10192""
""fullscreenenter"",""1"",""10365""
","""event"",""trial"",""time""
""blur"",""1"",""2417""
","""event"",""trial"",""time""
""focus"",""1"",""10192""
","""event"",""trial"",""time""
""fullscreenenter"",""1"",""10365""
","
","","615.3999999761581","","","","practice_card_selection","2021-07-29 17:38:36.471","img/practice_cards/backs/brown.gif","1","100","","",""
"casino-keyboard-response","20","138019","0.0-14.0-0.0","628","false","img/card_backs/set1/yellow.gif","img/card_backs/set1/purple.gif","img/card_backs/set1/green.gif","img/card_backs/set1/red.gif","img/card_backs/set2/gray.gif","img/card_backs/set2/blue.gif","img/card_backs/set2/pink.gif","img/card_backs/set2/orange.gif","""event"",""trial"",""time""
""blur"",""1"",""2417""
""focus"",""1"",""10192""
""fullscreenenter"",""1"",""10365""
","""event"",""trial"",""time""
""blur"",""1"",""2417""
","""event"",""trial"",""time""
""focus"",""1"",""10192""
","""event"",""trial"",""time""
""fullscreenenter"",""1"",""10365""
","
","","4654.199999928474","Finally, try pressing '8' to select the deck all the way on the right.","56","","instructions","2021-07-29 17:38:41.127","","","","","",""
"card-selection-trial","21","140974","0.0-15.0-0.0","628","false","img/card_backs/set1/yellow.gif","img/card_backs/set1/purple.gif","img/card_backs/set1/green.gif","img/card_backs/set1/red.gif","img/card_backs/set2/gray.gif","img/card_backs/set2/blue.gif","img/card_backs/set2/pink.gif","img/card_backs/set2/orange.gif","""event"",""trial"",""time""
""blur"",""1"",""2417""
""focus"",""1"",""10192""
""fullscreenenter"",""1"",""10365""
","""event"",""trial"",""time""
""blur"",""1"",""2417""
","""event"",""trial"",""time""
""focus"",""1"",""10192""
","""event"",""trial"",""time""
""fullscreenenter"",""1"",""10365""
","
","","940.2999999523163","","","","practice_card_selection","2021-07-29 17:38:44.082","img/practice_cards/backs/black.gif","3","-100","","",""
"casino-keyboard-response","22","147310","0.0-16.0-0.0","628","false","img/card_backs/set1/yellow.gif","img/card_backs/set1/purple.gif","img/card_backs/set1/green.gif","img/card_backs/set1/red.gif","img/card_backs/set2/gray.gif","img/card_backs/set2/blue.gif","img/card_backs/set2/pink.gif","img/card_backs/set2/orange.gif","""event"",""trial"",""time""
""blur"",""1"",""2417""
""focus"",""1"",""10192""
""fullscreenenter"",""1"",""10365""
","""event"",""trial"",""time""
""blur"",""1"",""2417""
","""event"",""trial"",""time""
""focus"",""1"",""10192""
","""event"",""trial"",""time""
""fullscreenenter"",""1"",""10365""
","
","","6333.600000023842","Great! It seems like you are getting the hang of this.","80","","instructions","2021-07-29 17:38:50.418","","","","","",""
"casino-keyboard-response","23","156575","0.0-16.0-0.1","628","false","img/card_backs/set1/yellow.gif","img/card_backs/set1/purple.gif","img/card_backs/set1/green.gif","img/card_backs/set1/red.gif","img/card_backs/set2/gray.gif","img/card_backs/set2/blue.gif","img/card_backs/set2/pink.gif","img/card_backs/set2/orange.gif","""event"",""trial"",""time""
""blur"",""1"",""2417""
""focus"",""1"",""10192""
""fullscreenenter"",""1"",""10365""
","""event"",""trial"",""time""
""blur"",""1"",""2417""
","""event"",""trial"",""time""
""focus"",""1"",""10192""
","""event"",""trial"",""time""
""fullscreenenter"",""1"",""10365""
","
","","9263.299999952316","You may have noticed that some cards will cause you to <b> win </b> tokens while other cards will cause you to <b> lose </b>  tokens.","70","","instructions","2021-07-29 17:38:59.683","","","","","",""
"casino-keyboard-response","24","166207","0.0-16.0-0.2","628","false","img/card_backs/set1/yellow.gif","img/card_backs/set1/purple.gif","img/card_backs/set1/green.gif","img/card_backs/set1/red.gif","img/card_backs/set2/gray.gif","img/card_backs/set2/blue.gif","img/card_backs/set2/pink.gif","img/card_backs/set2/orange.gif","""event"",""trial"",""time""
""blur"",""1"",""2417""
""focus"",""1"",""10192""
""fullscreenenter"",""1"",""10365""
","""event"",""trial"",""time""
""blur"",""1"",""2417""
","""event"",""trial"",""time""
""focus"",""1"",""10192""
","""event"",""trial"",""time""
""fullscreenenter"",""1"",""10365""
","
","","9628.5","Each deck has a mix of cards that will cause you to win and lose tokens. </br> However, the cards in each colored deck are different.","73","","instructions","2021-07-29 17:39:09.315","","","","","",""
"casino-keyboard-response","25","174747","0.0-16.0-0.3","628","false","img/card_backs/set1/yellow.gif","img/card_backs/set1/purple.gif","img/card_backs/set1/green.gif","img/card_backs/set1/red.gif","img/card_backs/set2/gray.gif","img/card_backs/set2/blue.gif","img/card_backs/set2/pink.gif","img/card_backs/set2/orange.gif","""event"",""trial"",""time""
""blur"",""1"",""2417""
""focus"",""1"",""10192""
""fullscreenenter"",""1"",""10365""
","""event"",""trial"",""time""
""blur"",""1"",""2417""
","""event"",""trial"",""time""
""focus"",""1"",""10192""
","""event"",""trial"",""time""
""fullscreenenter"",""1"",""10365""
","
","","8538.5","Some colored decks are luckier than others. </br> If you choose the lucky decks, you will earn more tokens than if you choose the unlucky decks.","69","","instructions","2021-07-29 17:39:17.855","","","","","",""
"casino-keyboard-response","26","183653","0.0-16.0-0.4","628","false","img/card_backs/set1/yellow.gif","img/card_backs/set1/purple.gif","img/card_backs/set1/green.gif","img/card_backs/set1/red.gif","img/card_backs/set2/gray.gif","img/card_backs/set2/blue.gif","img/card_backs/set2/pink.gif","img/card_backs/set2/orange.gif","""event"",""trial"",""time""
""blur"",""1"",""2417""
""focus"",""1"",""10192""
""fullscreenenter"",""1"",""10365""
","""event"",""trial"",""time""
""blur"",""1"",""2417""
","""event"",""trial"",""time""
""focus"",""1"",""10192""
","""event"",""trial"",""time""
""fullscreenenter"",""1"",""10365""
","
","","8903.400000095367","You should try to figure out which decks are lucky. </br> Then, try to choose the lucky decks so you can win the most tokens.","87","","instructions","2021-07-29 17:39:26.761","","","","","",""
"casino-keyboard-response","27","200128","0.0-16.0-0.5","628","false","img/card_backs/set1/yellow.gif","img/card_backs/set1/purple.gif","img/card_backs/set1/green.gif","img/card_backs/set1/red.gif","img/card_backs/set2/gray.gif","img/card_backs/set2/blue.gif","img/card_backs/set2/pink.gif","img/card_backs/set2/orange.gif","""event"",""trial"",""time""
""blur"",""1"",""2417""
""focus"",""1"",""10192""
""fullscreenenter"",""1"",""10365""
","""event"",""trial"",""time""
""blur"",""1"",""2417""
","""event"",""trial"",""time""
""focus"",""1"",""10192""
","""event"",""trial"",""time""
""fullscreenenter"",""1"",""10365""
","
","","16472","To make it trickier, the casino dealer will switch the locations of the decks on every turn. </br> The color of the deck determines how lucky it is. The location does not matter.","88","","instructions","2021-07-29 17:39:43.236","","","","","",""
"casino-keyboard-response","28","213077","0.0-16.0-0.6","628","false","img/card_backs/set1/yellow.gif","img/card_backs/set1/purple.gif","img/card_backs/set1/green.gif","img/card_backs/set1/red.gif","img/card_backs/set2/gray.gif","img/card_backs/set2/blue.gif","img/card_backs/set2/pink.gif","img/card_backs/set2/orange.gif","""event"",""trial"",""time""
""blur"",""1"",""2417""
""focus"",""1"",""10192""
""fullscreenenter"",""1"",""10365""
","""event"",""trial"",""time""
""blur"",""1"",""2417""
","""event"",""trial"",""time""
""focus"",""1"",""10192""
","""event"",""trial"",""time""
""fullscreenenter"",""1"",""10365""
","
","","12947","The mix of cards in each colored deck will stay the same throughout the game. </br> That means that a deck that is lucky early on will stay lucky.","79","","instructions","2021-07-29 17:39:56.185","","","","","",""
"casino-keyboard-response","29","221828","0.0-16.0-0.7","628","false","img/card_backs/set1/yellow.gif","img/card_backs/set1/purple.gif","img/card_backs/set1/green.gif","img/card_backs/set1/red.gif","img/card_backs/set2/gray.gif","img/card_backs/set2/blue.gif","img/card_backs/set2/pink.gif","img/card_backs/set2/orange.gif","""event"",""trial"",""time""
""blur"",""1"",""2417""
""focus"",""1"",""10192""
""fullscreenenter"",""1"",""10365""
","""event"",""trial"",""time""
""blur"",""1"",""2417""
","""event"",""trial"",""time""
""focus"",""1"",""10192""
","""event"",""trial"",""time""
""fullscreenenter"",""1"",""10365""
","
","","8750.200000047684","Remember though, all the decks have a <b> mix </b> of both <b> good </b> and <b> bad </b> cards so it may take a couple of turns to figure out if a deck is lucky.","69","","instructions","2021-07-29 17:40:04.936","","","","","",""
"casino-keyboard-response","30","230444","0.0-16.0-0.8","628","false","img/card_backs/set1/yellow.gif","img/card_backs/set1/purple.gif","img/card_backs/set1/green.gif","img/card_backs/set1/red.gif","img/card_backs/set2/gray.gif","img/card_backs/set2/blue.gif","img/card_backs/set2/pink.gif","img/card_backs/set2/orange.gif","""event"",""trial"",""time""
""blur"",""1"",""2417""
""focus"",""1"",""10192""
""fullscreenenter"",""1"",""10365""
","""event"",""trial"",""time""
""blur"",""1"",""2417""
","""event"",""trial"",""time""
""focus"",""1"",""10192""
","""event"",""trial"",""time""
""fullscreenenter"",""1"",""10365""
","
","","8613.5","At the end of the game, you will be paid bonus money based on how many tokens you win. </br> If you win more tokens, you will earn more money!","72","","instructions","2021-07-29 17:40:13.552","","","","","",""
"casino-keyboard-response","31","241397","0.0-16.0-0.9","628","false","img/card_backs/set1/yellow.gif","img/card_backs/set1/purple.gif","img/card_backs/set1/green.gif","img/card_backs/set1/red.gif","img/card_backs/set2/gray.gif","img/card_backs/set2/blue.gif","img/card_backs/set2/pink.gif","img/card_backs/set2/orange.gif","""event"",""trial"",""time""
""blur"",""1"",""2417""
""focus"",""1"",""10192""
""fullscreenenter"",""1"",""10365""
","""event"",""trial"",""time""
""blur"",""1"",""2417""
","""event"",""trial"",""time""
""focus"",""1"",""10192""
","""event"",""trial"",""time""
""fullscreenenter"",""1"",""10365""
","
","","10950.199999928474","You will never <b> lose </b> money. </br> If you end up with fewer than 0 tokens, you will earn $0 of bonus money, but you will still be paid for playing the game.","83","","instructions","2021-07-29 17:40:24.505","","","","","",""
"casino-keyboard-response","32","246168","0.0-16.0-0.10","628","false","img/card_backs/set1/yellow.gif","img/card_backs/set1/purple.gif","img/card_backs/set1/green.gif","img/card_backs/set1/red.gif","img/card_backs/set2/gray.gif","img/card_backs/set2/blue.gif","img/card_backs/set2/pink.gif","img/card_backs/set2/orange.gif","""event"",""trial"",""time""
""blur"",""1"",""2417""
""focus"",""1"",""10192""
""fullscreenenter"",""1"",""10365""
","""event"",""trial"",""time""
""blur"",""1"",""2417""
","""event"",""trial"",""time""
""focus"",""1"",""10192""
","""event"",""trial"",""time""
""fullscreenenter"",""1"",""10365""
","
","","4769.700000047684","You will have 10 seconds to make each choice.","82","","instructions","2021-07-29 17:40:29.276","","","","","",""
"casino-keyboard-response","33","255021","0.0-16.0-0.11","628","false","img/card_backs/set1/yellow.gif","img/card_backs/set1/purple.gif","img/card_backs/set1/green.gif","img/card_backs/set1/red.gif","img/card_backs/set2/gray.gif","img/card_backs/set2/blue.gif","img/card_backs/set2/pink.gif","img/card_backs/set2/orange.gif","""event"",""trial"",""time""
""blur"",""1"",""2417""
""focus"",""1"",""10192""
""fullscreenenter"",""1"",""10365""
","""event"",""trial"",""time""
""blur"",""1"",""2417""
","""event"",""trial"",""time""
""focus"",""1"",""10192""
","""event"",""trial"",""time""
""fullscreenenter"",""1"",""10365""
","
","","8851.099999904633","Before you play the game for real, you will play with practice decks. </br> The tokens you earn during practice won't count toward your total.","86","","instructions","2021-07-29 17:40:38.129","","","","","",""
"casino-keyboard-response","34","266811","0.0-16.0-0.12","628","false","img/card_backs/set1/yellow.gif","img/card_backs/set1/purple.gif","img/card_backs/set1/green.gif","img/card_backs/set1/red.gif","img/card_backs/set2/gray.gif","img/card_backs/set2/blue.gif","img/card_backs/set2/pink.gif","img/card_backs/set2/orange.gif","""event"",""trial"",""time""
""blur"",""1"",""2417""
""focus"",""1"",""10192""
""fullscreenenter"",""1"",""10365""
","""event"",""trial"",""time""
""blur"",""1"",""2417""
","""event"",""trial"",""time""
""focus"",""1"",""10192""
","""event"",""trial"",""time""
""fullscreenenter"",""1"",""10365""
","
","","11788.600000023842","Ready? Remember, use the '2', '4', '6', and '8' keys to select the decks. </br> Put your fingers on those keys now and then press '2' to begin.","50","","instructions","2021-07-29 17:40:49.919","","","","","",""
"casino-fixation","35","267316","0.0-17.0-0.0","628","false","img/card_backs/set1/yellow.gif","img/card_backs/set1/purple.gif","img/card_backs/set1/green.gif","img/card_backs/set1/red.gif","img/card_backs/set2/gray.gif","img/card_backs/set2/blue.gif","img/card_backs/set2/pink.gif","img/card_backs/set2/orange.gif","""event"",""trial"",""time""
""blur"",""1"",""2417""
""focus"",""1"",""10192""
""fullscreenenter"",""1"",""10365""
","""event"",""trial"",""time""
""blur"",""1"",""2417""
","""event"",""trial"",""time""
""focus"",""1"",""10192""
","""event"",""trial"",""time""
""fullscreenenter"",""1"",""10365""
","
","","null","","null","","fixation","2021-07-29 17:40:50.424","","","","","",""
"card-selection-trial","36","272635","0.0-17.0-1.0","628","false","img/card_backs/set1/yellow.gif","img/card_backs/set1/purple.gif","img/card_backs/set1/green.gif","img/card_backs/set1/red.gif","img/card_backs/set2/gray.gif","img/card_backs/set2/blue.gif","img/card_backs/set2/pink.gif","img/card_backs/set2/orange.gif","""event"",""trial"",""time""
""blur"",""1"",""2417""
""focus"",""1"",""10192""
""fullscreenenter"",""1"",""10365""
","""event"",""trial"",""time""
""blur"",""1"",""2417""
","""event"",""trial"",""time""
""focus"",""1"",""10192""
","""event"",""trial"",""time""
""fullscreenenter"",""1"",""10365""
","
","","3314.2000000476837","","","","practice","2021-07-29 17:40:55.743","img/practice_cards/backs/dark_blue.gif","3","200","0","",""
"casino-fixation","37","273143","0.0-17.0-0.1","628","false","img/card_backs/set1/yellow.gif","img/card_backs/set1/purple.gif","img/card_backs/set1/green.gif","img/card_backs/set1/red.gif","img/card_backs/set2/gray.gif","img/card_backs/set2/blue.gif","img/card_backs/set2/pink.gif","img/card_backs/set2/orange.gif","""event"",""trial"",""time""
""blur"",""1"",""2417""
""focus"",""1"",""10192""
""fullscreenenter"",""1"",""10365""
","""event"",""trial"",""time""
""blur"",""1"",""2417""
","""event"",""trial"",""time""
""focus"",""1"",""10192""
","""event"",""trial"",""time""
""fullscreenenter"",""1"",""10365""
","
","","null","","null","","fixation","2021-07-29 17:40:56.251","","","","","",""
"card-selection-trial","38","278171","0.0-17.0-1.1","628","false","img/card_backs/set1/yellow.gif","img/card_backs/set1/purple.gif","img/card_backs/set1/green.gif","img/card_backs/set1/red.gif","img/card_backs/set2/gray.gif","img/card_backs/set2/blue.gif","img/card_backs/set2/pink.gif","img/card_backs/set2/orange.gif","""event"",""trial"",""time""
""blur"",""1"",""2417""
""focus"",""1"",""10192""
""fullscreenenter"",""1"",""10365""
","""event"",""trial"",""time""
""blur"",""1"",""2417""
","""event"",""trial"",""time""
""focus"",""1"",""10192""
","""event"",""trial"",""time""
""fullscreenenter"",""1"",""10365""
","
","","3024","","","","practice","2021-07-29 17:41:01.279","img/practice_cards/backs/brown.gif","1","-100","0","",""
"casino-fixation","39","278672","0.0-17.0-0.2","628","false","img/card_backs/set1/yellow.gif","img/card_backs/set1/purple.gif","img/card_backs/set1/green.gif","img/card_backs/set1/red.gif","img/card_backs/set2/gray.gif","img/card_backs/set2/blue.gif","img/card_backs/set2/pink.gif","img/card_backs/set2/orange.gif","""event"",""trial"",""time""
""blur"",""1"",""2417""
""focus"",""1"",""10192""
""fullscreenenter"",""1"",""10365""
","""event"",""trial"",""time""
""blur"",""1"",""2417""
","""event"",""trial"",""time""
""focus"",""1"",""10192""
","""event"",""trial"",""time""
""fullscreenenter"",""1"",""10365""
","
","","null","","null","","fixation","2021-07-29 17:41:01.780","","","","","",""
"card-selection-trial","40","282679","0.0-17.0-1.2","628","false","img/card_backs/set1/yellow.gif","img/card_backs/set1/purple.gif","img/card_backs/set1/green.gif","img/card_backs/set1/red.gif","img/card_backs/set2/gray.gif","img/card_backs/set2/blue.gif","img/card_backs/set2/pink.gif","img/card_backs/set2/orange.gif","""event"",""trial"",""time""
""blur"",""1"",""2417""
""focus"",""1"",""10192""
""fullscreenenter"",""1"",""10365""
","""event"",""trial"",""time""
""blur"",""1"",""2417""
","""event"",""trial"",""time""
""focus"",""1"",""10192""
","""event"",""trial"",""time""
""fullscreenenter"",""1"",""10365""
","
","","1988.7999999523163","","","","practice","2021-07-29 17:41:05.787","img/practice_cards/backs/dark_green.gif","0","200","0","",""
"casino-fixation","41","283192","0.0-17.0-0.3","628","false","img/card_backs/set1/yellow.gif","img/card_backs/set1/purple.gif","img/card_backs/set1/green.gif","img/card_backs/set1/red.gif","img/card_backs/set2/gray.gif","img/card_backs/set2/blue.gif","img/card_backs/set2/pink.gif","img/card_backs/set2/orange.gif","""event"",""trial"",""time""
""blur"",""1"",""2417""
""focus"",""1"",""10192""
""fullscreenenter"",""1"",""10365""
","""event"",""trial"",""time""
""blur"",""1"",""2417""
","""event"",""trial"",""time""
""focus"",""1"",""10192""
","""event"",""trial"",""time""
""fullscreenenter"",""1"",""10365""
","
","","null","","null","","fixation","2021-07-29 17:41:06.300","","","","","",""
"card-selection-trial","42","288162","0.0-17.0-1.3","628","false","img/card_backs/set1/yellow.gif","img/card_backs/set1/purple.gif","img/card_backs/set1/green.gif","img/card_backs/set1/red.gif","img/card_backs/set2/gray.gif","img/card_backs/set2/blue.gif","img/card_backs/set2/pink.gif","img/card_backs/set2/orange.gif","""event"",""trial"",""time""
""blur"",""1"",""2417""
""focus"",""1"",""10192""
""fullscreenenter"",""1"",""10365""
","""event"",""trial"",""time""
""blur"",""1"",""2417""
","""event"",""trial"",""time""
""focus"",""1"",""10192""
","""event"",""trial"",""time""
""fullscreenenter"",""1"",""10365""
","
","","2946.399999976158","","","","practice","2021-07-29 17:41:11.270","img/practice_cards/backs/dark_green.gif","2","200","0","",""
"casino-fixation","43","288683","0.0-17.0-0.4","628","false","img/card_backs/set1/yellow.gif","img/card_backs/set1/purple.gif","img/card_backs/set1/green.gif","img/card_backs/set1/red.gif","img/card_backs/set2/gray.gif","img/card_backs/set2/blue.gif","img/card_backs/set2/pink.gif","img/card_backs/set2/orange.gif","""event"",""trial"",""time""
""blur"",""1"",""2417""
""focus"",""1"",""10192""
""fullscreenenter"",""1"",""10365""
","""event"",""trial"",""time""
""blur"",""1"",""2417""
","""event"",""trial"",""time""
""focus"",""1"",""10192""
","""event"",""trial"",""time""
""fullscreenenter"",""1"",""10365""
","
","","null","","null","","fixation","2021-07-29 17:41:11.791","","","","","",""
"card-selection-trial","44","293152","0.0-17.0-1.4","628","false","img/card_backs/set1/yellow.gif","img/card_backs/set1/purple.gif","img/card_backs/set1/green.gif","img/card_backs/set1/red.gif","img/card_backs/set2/gray.gif","img/card_backs/set2/blue.gif","img/card_backs/set2/pink.gif","img/card_backs/set2/orange.gif","""event"",""trial"",""time""
""blur"",""1"",""2417""
""focus"",""1"",""10192""
""fullscreenenter"",""1"",""10365""
","""event"",""trial"",""time""
""blur"",""1"",""2417""
","""event"",""trial"",""time""
""focus"",""1"",""10192""
","""event"",""trial"",""time""
""fullscreenenter"",""1"",""10365""
","
","","2444.600000023842","","","","practice","2021-07-29 17:41:16.260","img/practice_cards/backs/black.gif","2","-100","0","",""
"casino-fixation","45","293672","0.0-17.0-0.5","628","false","img/card_backs/set1/yellow.gif","img/card_backs/set1/purple.gif","img/card_backs/set1/green.gif","img/card_backs/set1/red.gif","img/card_backs/set2/gray.gif","img/card_backs/set2/blue.gif","img/card_backs/set2/pink.gif","img/card_backs/set2/orange.gif","""event"",""trial"",""time""
""blur"",""1"",""2417""
""focus"",""1"",""10192""
""fullscreenenter"",""1"",""10365""
","""event"",""trial"",""time""
""blur"",""1"",""2417""
","""event"",""trial"",""time""
""focus"",""1"",""10192""
","""event"",""trial"",""time""
""fullscreenenter"",""1"",""10365""
","
","","null","","null","","fixation","2021-07-29 17:41:16.780","","","","","",""
"card-selection-trial","46","297244","0.0-17.0-1.5","628","false","img/card_backs/set1/yellow.gif","img/card_backs/set1/purple.gif","img/card_backs/set1/green.gif","img/card_backs/set1/red.gif","img/card_backs/set2/gray.gif","img/card_backs/set2/blue.gif","img/card_backs/set2/pink.gif","img/card_backs/set2/orange.gif","""event"",""trial"",""time""
""blur"",""1"",""2417""
""focus"",""1"",""10192""
""fullscreenenter"",""1"",""10365""
","""event"",""trial"",""time""
""blur"",""1"",""2417""
","""event"",""trial"",""time""
""focus"",""1"",""10192""
","""event"",""trial"",""time""
""fullscreenenter"",""1"",""10365""
","
","","1566.7000000476837","","","","practice","2021-07-29 17:41:20.352","img/practice_cards/backs/dark_blue.gif","3","-200","0","",""
"casino-fixation","47","297747","0.0-17.0-0.6","628","false","img/card_backs/set1/yellow.gif","img/card_backs/set1/purple.gif","img/card_backs/set1/green.gif","img/card_backs/set1/red.gif","img/card_backs/set2/gray.gif","img/card_backs/set2/blue.gif","img/card_backs/set2/pink.gif","img/card_backs/set2/orange.gif","""event"",""trial"",""time""
""blur"",""1"",""2417""
""focus"",""1"",""10192""
""fullscreenenter"",""1"",""10365""
","""event"",""trial"",""time""
""blur"",""1"",""2417""
","""event"",""trial"",""time""
""focus"",""1"",""10192""
","""event"",""trial"",""time""
""fullscreenenter"",""1"",""10365""
","
","","null","","null","","fixation","2021-07-29 17:41:20.855","","","","","",""
"card-selection-trial","48","302758","0.0-17.0-1.6","628","false","img/card_backs/set1/yellow.gif","img/card_backs/set1/purple.gif","img/card_backs/set1/green.gif","img/card_backs/set1/red.gif","img/card_backs/set2/gray.gif","img/card_backs/set2/blue.gif","img/card_backs/set2/pink.gif","img/card_backs/set2/orange.gif","""event"",""trial"",""time""
""blur"",""1"",""2417""
""focus"",""1"",""10192""
""fullscreenenter"",""1"",""10365""
","""event"",""trial"",""time""
""blur"",""1"",""2417""
","""event"",""trial"",""time""
""focus"",""1"",""10192""
","""event"",""trial"",""time""
""fullscreenenter"",""1"",""10365""
","
","","3007.100000023842","","","","practice","2021-07-29 17:41:25.866","img/practice_cards/backs/dark_blue.gif","0","-200","0","",""
"casino-fixation","49","303261","0.0-17.0-0.7","628","false","img/card_backs/set1/yellow.gif","img/card_backs/set1/purple.gif","img/card_backs/set1/green.gif","img/card_backs/set1/red.gif","img/card_backs/set2/gray.gif","img/card_backs/set2/blue.gif","img/card_backs/set2/pink.gif","img/card_backs/set2/orange.gif","""event"",""trial"",""time""
""blur"",""1"",""2417""
""focus"",""1"",""10192""
""fullscreenenter"",""1"",""10365""
","""event"",""trial"",""time""
""blur"",""1"",""2417""
","""event"",""trial"",""time""
""focus"",""1"",""10192""
","""event"",""trial"",""time""
""fullscreenenter"",""1"",""10365""
","
","","null","","null","","fixation","2021-07-29 17:41:26.369","","","","","",""
"card-selection-trial","50","307573","0.0-17.0-1.7","628","false","img/card_backs/set1/yellow.gif","img/card_backs/set1/purple.gif","img/card_backs/set1/green.gif","img/card_backs/set1/red.gif","img/card_backs/set2/gray.gif","img/card_backs/set2/blue.gif","img/card_backs/set2/pink.gif","img/card_backs/set2/orange.gif","""event"",""trial"",""time""
""blur"",""1"",""2417""
""focus"",""1"",""10192""
""fullscreenenter"",""1"",""10365""
","""event"",""trial"",""time""
""blur"",""1"",""2417""
","""event"",""trial"",""time""
""focus"",""1"",""10192""
","""event"",""trial"",""time""
""fullscreenenter"",""1"",""10365""
","
","","2307.100000023842","","","","practice","2021-07-29 17:41:30.681","img/practice_cards/backs/brown.gif","1","-100","0","",""
"casino-fixation","51","308075","0.0-17.0-0.8","628","false","img/card_backs/set1/yellow.gif","img/card_backs/set1/purple.gif","img/card_backs/set1/green.gif","img/card_backs/set1/red.gif","img/card_backs/set2/gray.gif","img/card_backs/set2/blue.gif","img/card_backs/set2/pink.gif","img/card_backs/set2/orange.gif","""event"",""trial"",""time""
""blur"",""1"",""2417""
""focus"",""1"",""10192""
""fullscreenenter"",""1"",""10365""
","""event"",""trial"",""time""
""blur"",""1"",""2417""
","""event"",""trial"",""time""
""focus"",""1"",""10192""
","""event"",""trial"",""time""
""fullscreenenter"",""1"",""10365""
","
","","null","","null","","fixation","2021-07-29 17:41:31.183","","","","","",""
"card-selection-trial","52","312742","0.0-17.0-1.8","628","false","img/card_backs/set1/yellow.gif","img/card_backs/set1/purple.gif","img/card_backs/set1/green.gif","img/card_backs/set1/red.gif","img/card_backs/set2/gray.gif","img/card_backs/set2/blue.gif","img/card_backs/set2/pink.gif","img/card_backs/set2/orange.gif","""event"",""trial"",""time""
""blur"",""1"",""2417""
""focus"",""1"",""10192""
""fullscreenenter"",""1"",""10365""
","""event"",""trial"",""time""
""blur"",""1"",""2417""
","""event"",""trial"",""time""
""focus"",""1"",""10192""
","""event"",""trial"",""time""
""fullscreenenter"",""1"",""10365""
","
","","2663.2999999523163","","","","practice","2021-07-29 17:41:35.850","img/practice_cards/backs/dark_green.gif","2","200","0","",""
"casino-fixation","53","313245","0.0-17.0-0.9","628","false","img/card_backs/set1/yellow.gif","img/card_backs/set1/purple.gif","img/card_backs/set1/green.gif","img/card_backs/set1/red.gif","img/card_backs/set2/gray.gif","img/card_backs/set2/blue.gif","img/card_backs/set2/pink.gif","img/card_backs/set2/orange.gif","""event"",""trial"",""time""
""blur"",""1"",""2417""
""focus"",""1"",""10192""
""fullscreenenter"",""1"",""10365""
","""event"",""trial"",""time""
""blur"",""1"",""2417""
","""event"",""trial"",""time""
""focus"",""1"",""10192""
","""event"",""trial"",""time""
""fullscreenenter"",""1"",""10365""
","
","","null","","null","","fixation","2021-07-29 17:41:36.353","","","","","",""
"card-selection-trial","54","319018","0.0-17.0-1.9","628","false","img/card_backs/set1/yellow.gif","img/card_backs/set1/purple.gif","img/card_backs/set1/green.gif","img/card_backs/set1/red.gif","img/card_backs/set2/gray.gif","img/card_backs/set2/blue.gif","img/card_backs/set2/pink.gif","img/card_backs/set2/orange.gif","""event"",""trial"",""time""
""blur"",""1"",""2417""
""focus"",""1"",""10192""
""fullscreenenter"",""1"",""10365""
","""event"",""trial"",""time""
""blur"",""1"",""2417""
","""event"",""trial"",""time""
""focus"",""1"",""10192""
","""event"",""trial"",""time""
""fullscreenenter"",""1"",""10365""
","
","","3768.5","","","","practice","2021-07-29 17:41:42.127","img/practice_cards/backs/dark_green.gif","3","-200","0","",""
"casino-keyboard-response","55","324154","0.0-18.0","628","false","img/card_backs/set1/yellow.gif","img/card_backs/set1/purple.gif","img/card_backs/set1/green.gif","img/card_backs/set1/red.gif","img/card_backs/set2/gray.gif","img/card_backs/set2/blue.gif","img/card_backs/set2/pink.gif","img/card_backs/set2/orange.gif","""event"",""trial"",""time""
""blur"",""1"",""2417""
""focus"",""1"",""10192""
""fullscreenenter"",""1"",""10365""
","""event"",""trial"",""time""
""blur"",""1"",""2417""
","""event"",""trial"",""time""
""focus"",""1"",""10192""
","""event"",""trial"",""time""
""fullscreenenter"",""1"",""10365""
","
","","5134.700000047684","You earned -100 tokens during the practice round!","82","","","2021-07-29 17:41:47.263","","","","","",""
"casino-keyboard-response","56","329187","0.0-19.0-0.0","628","false","img/card_backs/set1/yellow.gif","img/card_backs/set1/purple.gif","img/card_backs/set1/green.gif","img/card_backs/set1/red.gif","img/card_backs/set2/gray.gif","img/card_backs/set2/blue.gif","img/card_backs/set2/pink.gif","img/card_backs/set2/orange.gif","""event"",""trial"",""time""
""blur"",""1"",""2417""
""focus"",""1"",""10192""
""fullscreenenter"",""1"",""10365""
","""event"",""trial"",""time""
""blur"",""1"",""2417""
","""event"",""trial"",""time""
""focus"",""1"",""10192""
","""event"",""trial"",""time""
""fullscreenenter"",""1"",""10365""
","
","","5029.300000071526","Nice job! You are almost ready to play the real game.","86","","instructions","2021-07-29 17:41:52.295","","","","","",""
"casino-keyboard-response","57","338603","0.0-19.0-0.1","628","false","img/card_backs/set1/yellow.gif","img/card_backs/set1/purple.gif","img/card_backs/set1/green.gif","img/card_backs/set1/red.gif","img/card_backs/set2/gray.gif","img/card_backs/set2/blue.gif","img/card_backs/set2/pink.gif","img/card_backs/set2/orange.gif","""event"",""trial"",""time""
""blur"",""1"",""2417""
""focus"",""1"",""10192""
""fullscreenenter"",""1"",""10365""
","""event"",""trial"",""time""
""blur"",""1"",""2417""
","""event"",""trial"",""time""
""focus"",""1"",""10192""
","""event"",""trial"",""time""
""fullscreenenter"",""1"",""10365""
","
","","9414.699999928474","You will play two rounds of the real game. In each round, you will pick 100 cards in total.","73","","instructions","2021-07-29 17:42:01.711","","","","","",""
"casino-keyboard-response","58","343357","0.0-19.0-0.2","628","false","img/card_backs/set1/yellow.gif","img/card_backs/set1/purple.gif","img/card_backs/set1/green.gif","img/card_backs/set1/red.gif","img/card_backs/set2/gray.gif","img/card_backs/set2/blue.gif","img/card_backs/set2/pink.gif","img/card_backs/set2/orange.gif","""event"",""trial"",""time""
""blur"",""1"",""2417""
""focus"",""1"",""10192""
""fullscreenenter"",""1"",""10365""
","""event"",""trial"",""time""
""blur"",""1"",""2417""
","""event"",""trial"",""time""
""focus"",""1"",""10192""
","""event"",""trial"",""time""
""fullscreenenter"",""1"",""10365""
","
","","4752.300000071526","We are now going to ask you some questions about how the game works.","66","","instructions","2021-07-29 17:42:06.465","","","","","",""
"casino-keyboard-response","59","349547","0.0-19.0-0.3","628","false","img/card_backs/set1/yellow.gif","img/card_backs/set1/purple.gif","img/card_backs/set1/green.gif","img/card_backs/set1/red.gif","img/card_backs/set2/gray.gif","img/card_backs/set2/blue.gif","img/card_backs/set2/pink.gif","img/card_backs/set2/orange.gif","""event"",""trial"",""time""
""blur"",""1"",""2417""
""focus"",""1"",""10192""
""fullscreenenter"",""1"",""10365""
","""event"",""trial"",""time""
""blur"",""1"",""2417""
","""event"",""trial"",""time""
""focus"",""1"",""10192""
","""event"",""trial"",""time""
""fullscreenenter"",""1"",""10365""
","
","","6188.699999928474","Answer carefully. You will not be able to begin the game until you answer them correctly.","67","","instructions","2021-07-29 17:42:12.655","","","","","",""
"casino-comp_q","60","360526","0.0-20.0-0.0","628","false","img/card_backs/set1/yellow.gif","img/card_backs/set1/purple.gif","img/card_backs/set1/green.gif","img/card_backs/set1/red.gif","img/card_backs/set2/gray.gif","img/card_backs/set2/blue.gif","img/card_backs/set2/pink.gif","img/card_backs/set2/orange.gif","""event"",""trial"",""time""
""blur"",""1"",""2417""
""focus"",""1"",""10192""
""fullscreenenter"",""1"",""10365""
","""event"",""trial"",""time""
""blur"",""1"",""2417""
","""event"",""trial"",""time""
""focus"",""1"",""10192""
","""event"",""trial"",""time""
""fullscreenenter"",""1"",""10365""
","
","","10977.399999976158","True or False: All the decks have some cards that cause you to win tokens and some cards that cause you to lose tokens.","84","","","2021-07-29 17:42:23.634","","","","","",""
"casino-keyboard-response","61","365966","0.0-20.0-1.0","628","false","img/card_backs/set1/yellow.gif","img/card_backs/set1/purple.gif","img/card_backs/set1/green.gif","img/card_backs/set1/red.gif","img/card_backs/set2/gray.gif","img/card_backs/set2/blue.gif","img/card_backs/set2/pink.gif","img/card_backs/set2/orange.gif","""event"",""trial"",""time""
""blur"",""1"",""2417""
""focus"",""1"",""10192""
""fullscreenenter"",""1"",""10365""
","""event"",""trial"",""time""
""blur"",""1"",""2417""
","""event"",""trial"",""time""
""focus"",""1"",""10192""
","""event"",""trial"",""time""
""fullscreenenter"",""1"",""10365""
","
","","5438.699999928474","True is correct! All the decks have a mix of winning and losing cards.","77","","","2021-07-29 17:42:29.075","","","","","true",""
"casino-comp_q","62","373264","0.0-21.0-0.0","628","false","img/card_backs/set1/yellow.gif","img/card_backs/set1/purple.gif","img/card_backs/set1/green.gif","img/card_backs/set1/red.gif","img/card_backs/set2/gray.gif","img/card_backs/set2/blue.gif","img/card_backs/set2/pink.gif","img/card_backs/set2/orange.gif","""event"",""trial"",""time""
""blur"",""1"",""2417""
""focus"",""1"",""10192""
""fullscreenenter"",""1"",""10365""
","""event"",""trial"",""time""
""blur"",""1"",""2417""
","""event"",""trial"",""time""
""focus"",""1"",""10192""
","""event"",""trial"",""time""
""fullscreenenter"",""1"",""10365""
","
","","7295.5","True or False: You will have as much time as you want to make your response.","70","","","2021-07-29 17:42:36.372","","","","","",""
"casino-keyboard-response","63","378937","0.0-21.0-1.0","628","false","img/card_backs/set1/yellow.gif","img/card_backs/set1/purple.gif","img/card_backs/set1/green.gif","img/card_backs/set1/red.gif","img/card_backs/set2/gray.gif","img/card_backs/set2/blue.gif","img/card_backs/set2/pink.gif","img/card_backs/set2/orange.gif","""event"",""trial"",""time""
""blur"",""1"",""2417""
""focus"",""1"",""10192""
""fullscreenenter"",""1"",""10365""
","""event"",""trial"",""time""
""blur"",""1"",""2417""
","""event"",""trial"",""time""
""focus"",""1"",""10192""
","""event"",""trial"",""time""
""fullscreenenter"",""1"",""10365""
","
","","5671.799999952316","False is correct! You will only have 10 seconds to make each choice.","75","","","2021-07-29 17:42:42.045","","","","","true",""
"casino-comp_q","64","389405","0.0-22.0-0.0","628","false","img/card_backs/set1/yellow.gif","img/card_backs/set1/purple.gif","img/card_backs/set1/green.gif","img/card_backs/set1/red.gif","img/card_backs/set2/gray.gif","img/card_backs/set2/blue.gif","img/card_backs/set2/pink.gif","img/card_backs/set2/orange.gif","""event"",""trial"",""time""
""blur"",""1"",""2417""
""focus"",""1"",""10192""
""fullscreenenter"",""1"",""10365""
","""event"",""trial"",""time""
""blur"",""1"",""2417""
","""event"",""trial"",""time""
""focus"",""1"",""10192""
","""event"",""trial"",""time""
""fullscreenenter"",""1"",""10365""
","
","","10466.599999904633","True or False: The location of the deck determines how lucky it is.","70","","","2021-07-29 17:42:52.513","","","","","",""
"casino-keyboard-response","65","399951","0.0-22.0-1.0","628","false","img/card_backs/set1/yellow.gif","img/card_backs/set1/purple.gif","img/card_backs/set1/green.gif","img/card_backs/set1/red.gif","img/card_backs/set2/gray.gif","img/card_backs/set2/blue.gif","img/card_backs/set2/pink.gif","img/card_backs/set2/orange.gif","""event"",""trial"",""time""
""blur"",""1"",""2417""
""focus"",""1"",""10192""
""fullscreenenter"",""1"",""10365""
","""event"",""trial"",""time""
""blur"",""1"",""2417""
","""event"",""trial"",""time""
""focus"",""1"",""10192""
","""event"",""trial"",""time""
""fullscreenenter"",""1"",""10365""
","
","","10544.100000023842","False is correct! The <i>color</i>  of the deck determines how lucky or unlucky it is.","68","","","2021-07-29 17:43:03.059","","","","","true",""
"casino-keyboard-response","66","418440","0.0-23.0-0.0","628","false","img/card_backs/set1/yellow.gif","img/card_backs/set1/purple.gif","img/card_backs/set1/green.gif","img/card_backs/set1/red.gif","img/card_backs/set2/gray.gif","img/card_backs/set2/blue.gif","img/card_backs/set2/pink.gif","img/card_backs/set2/orange.gif","""event"",""trial"",""time""
""blur"",""1"",""2417""
""focus"",""1"",""10192""
""fullscreenenter"",""1"",""10365""
","""event"",""trial"",""time""
""blur"",""1"",""2417""
","""event"",""trial"",""time""
""focus"",""1"",""10192""
","""event"",""trial"",""time""
""fullscreenenter"",""1"",""10365""
","
","","18487.100000023842","Great job! Now it's time to start the real game.","82","","instructions","2021-07-29 17:43:21.548","","","","","",""
"casino-keyboard-response","67","424026","0.0-23.0-0.1","628","false","img/card_backs/set1/yellow.gif","img/card_backs/set1/purple.gif","img/card_backs/set1/green.gif","img/card_backs/set1/red.gif","img/card_backs/set2/gray.gif","img/card_backs/set2/blue.gif","img/card_backs/set2/pink.gif","img/card_backs/set2/orange.gif","""event"",""trial"",""time""
""blur"",""1"",""2417""
""focus"",""1"",""10192""
""fullscreenenter"",""1"",""10365""
","""event"",""trial"",""time""
""blur"",""1"",""2417""
","""event"",""trial"",""time""
""focus"",""1"",""10192""
","""event"",""trial"",""time""
""fullscreenenter"",""1"",""10365""
","
","","5584.600000023842","Before we start, we're going to head into a new room of the casino.","86","","instructions","2021-07-29 17:43:27.134","","","","","",""
"casino-keyboard-response","68","431119","0.0-24.0-0.0","628","false","img/card_backs/set1/yellow.gif","img/card_backs/set1/purple.gif","img/card_backs/set1/green.gif","img/card_backs/set1/red.gif","img/card_backs/set2/gray.gif","img/card_backs/set2/blue.gif","img/card_backs/set2/pink.gif","img/card_backs/set2/orange.gif","""event"",""trial"",""time""
""blur"",""1"",""2417""
""focus"",""1"",""10192""
""fullscreenenter"",""1"",""10365""
","""event"",""trial"",""time""
""blur"",""1"",""2417""
","""event"",""trial"",""time""
""focus"",""1"",""10192""
","""event"",""trial"",""time""
""fullscreenenter"",""1"",""10365""
","
","","7092.100000023842","Here we are! The real game will use different cards, but the rules will be the same.","71","","instructions","2021-07-29 17:43:34.228","","","","","",""
"casino-keyboard-response","69","442358","0.0-24.0-0.1","628","false","img/card_backs/set1/yellow.gif","img/card_backs/set1/purple.gif","img/card_backs/set1/green.gif","img/card_backs/set1/red.gif","img/card_backs/set2/gray.gif","img/card_backs/set2/blue.gif","img/card_backs/set2/pink.gif","img/card_backs/set2/orange.gif","""event"",""trial"",""time""
""blur"",""1"",""2417""
""focus"",""1"",""10192""
""fullscreenenter"",""1"",""10365""
","""event"",""trial"",""time""
""blur"",""1"",""2417""
","""event"",""trial"",""time""
""focus"",""1"",""10192""
","""event"",""trial"",""time""
""fullscreenenter"",""1"",""10365""
","
","","11237.200000047684","Ready? Put your fingers over the '2', '4', 6', and '8' keys so you are ready to play the game. </br> Then press 2 to start.","50","","instructions","2021-07-29 17:43:45.466","","","","","",""
"casino-fixation","70","442871","0.0-25.0-0.0","628","false","img/card_backs/set1/yellow.gif","img/card_backs/set1/purple.gif","img/card_backs/set1/green.gif","img/card_backs/set1/red.gif","img/card_backs/set2/gray.gif","img/card_backs/set2/blue.gif","img/card_backs/set2/pink.gif","img/card_backs/set2/orange.gif","""event"",""trial"",""time""
""blur"",""1"",""2417""
""focus"",""1"",""10192""
""fullscreenenter"",""1"",""10365""
","""event"",""trial"",""time""
""blur"",""1"",""2417""
","""event"",""trial"",""time""
""focus"",""1"",""10192""
","""event"",""trial"",""time""
""fullscreenenter"",""1"",""10365""
","
","","null","","null","","fixation","2021-07-29 17:43:45.979","","","","","",""
"card-selection-trial","71","446555","0.0-25.0-1.0","628","false","img/card_backs/set1/yellow.gif","img/card_backs/set1/purple.gif","img/card_backs/set1/green.gif","img/card_backs/set1/red.gif","img/card_backs/set2/gray.gif","img/card_backs/set2/blue.gif","img/card_backs/set2/pink.gif","img/card_backs/set2/orange.gif","""event"",""trial"",""time""
""blur"",""1"",""2417""
""focus"",""1"",""10192""
""fullscreenenter"",""1"",""10365""
","""event"",""trial"",""time""
""blur"",""1"",""2417""
","""event"",""trial"",""time""
""focus"",""1"",""10192""
","""event"",""trial"",""time""
""fullscreenenter"",""1"",""10365""
","
","","1670.9000000953674","","","","real_trial","2021-07-29 17:43:49.663","img/card_backs/set1/purple.gif","0","-240","1","",""
"casino-fixation","72","447061","0.0-25.0-0.1","628","false","img/card_backs/set1/yellow.gif","img/card_backs/set1/purple.gif","img/card_backs/set1/green.gif","img/card_backs/set1/red.gif","img/card_backs/set2/gray.gif","img/card_backs/set2/blue.gif","img/card_backs/set2/pink.gif","img/card_backs/set2/orange.gif","""event"",""trial"",""time""
""blur"",""1"",""2417""
""focus"",""1"",""10192""
""fullscreenenter"",""1"",""10365""
","""event"",""trial"",""time""
""blur"",""1"",""2417""
","""event"",""trial"",""time""
""focus"",""1"",""10192""
","""event"",""trial"",""time""
""fullscreenenter"",""1"",""10365""
","
","","null","","null","","fixation","2021-07-29 17:43:50.169","","","","","",""
"card-selection-trial","73","451004","0.0-25.0-1.1","628","false","img/card_backs/set1/yellow.gif","img/card_backs/set1/purple.gif","img/card_backs/set1/green.gif","img/card_backs/set1/red.gif","img/card_backs/set2/gray.gif","img/card_backs/set2/blue.gif","img/card_backs/set2/pink.gif","img/card_backs/set2/orange.gif","""event"",""trial"",""time""
""blur"",""1"",""2417""
""focus"",""1"",""10192""
""fullscreenenter"",""1"",""10365""
","""event"",""trial"",""time""
""blur"",""1"",""2417""
","""event"",""trial"",""time""
""focus"",""1"",""10192""
","""event"",""trial"",""time""
""fullscreenenter"",""1"",""10365""
","
","","1925.8999999761581","","","","real_trial","2021-07-29 17:43:54.112","img/card_backs/set1/red.gif","0","-50","1","",""
"casino-fixation","74","451505","0.0-25.0-0.2","628","false","img/card_backs/set1/yellow.gif","img/card_backs/set1/purple.gif","img/card_backs/set1/green.gif","img/card_backs/set1/red.gif","img/card_backs/set2/gray.gif","img/card_backs/set2/blue.gif","img/card_backs/set2/pink.gif","img/card_backs/set2/orange.gif","""event"",""trial"",""time""
""blur"",""1"",""2417""
""focus"",""1"",""10192""
""fullscreenenter"",""1"",""10365""
","""event"",""trial"",""time""
""blur"",""1"",""2417""
","""event"",""trial"",""time""
""focus"",""1"",""10192""
","""event"",""trial"",""time""
""fullscreenenter"",""1"",""10365""
","
","","null","","null","","fixation","2021-07-29 17:43:54.613","","","","","",""
"card-selection-trial","75","456740","0.0-25.0-1.2","628","false","img/card_backs/set1/yellow.gif","img/card_backs/set1/purple.gif","img/card_backs/set1/green.gif","img/card_backs/set1/red.gif","img/card_backs/set2/gray.gif","img/card_backs/set2/blue.gif","img/card_backs/set2/pink.gif","img/card_backs/set2/orange.gif","""event"",""trial"",""time""
""blur"",""1"",""2417""
""focus"",""1"",""10192""
""fullscreenenter"",""1"",""10365""
","""event"",""trial"",""time""
""blur"",""1"",""2417""
","""event"",""trial"",""time""
""focus"",""1"",""10192""
","""event"",""trial"",""time""
""fullscreenenter"",""1"",""10365""
","
","","3225.899999976158","","","","real_trial","2021-07-29 17:43:59.848","img/card_backs/set1/yellow.gif","3","-250","1","",""
"casino-fixation","76","457260","0.0-25.0-0.3","628","false","img/card_backs/set1/yellow.gif","img/card_backs/set1/purple.gif","img/card_backs/set1/green.gif","img/card_backs/set1/red.gif","img/card_backs/set2/gray.gif","img/card_backs/set2/blue.gif","img/card_backs/set2/pink.gif","img/card_backs/set2/orange.gif","""event"",""trial"",""time""
""blur"",""1"",""2417""
""focus"",""1"",""10192""
""fullscreenenter"",""1"",""10365""
","""event"",""trial"",""time""
""blur"",""1"",""2417""
","""event"",""trial"",""time""
""focus"",""1"",""10192""
","""event"",""trial"",""time""
""fullscreenenter"",""1"",""10365""
","
","","null","","null","","fixation","2021-07-29 17:44:00.368","","","","","",""
"card-selection-trial","77","460690","0.0-25.0-1.3","628","false","img/card_backs/set1/yellow.gif","img/card_backs/set1/purple.gif","img/card_backs/set1/green.gif","img/card_backs/set1/red.gif","img/card_backs/set2/gray.gif","img/card_backs/set2/blue.gif","img/card_backs/set2/pink.gif","img/card_backs/set2/orange.gif","""event"",""trial"",""time""
""blur"",""1"",""2417""
""focus"",""1"",""10192""
""fullscreenenter"",""1"",""10365""
","""event"",""trial"",""time""
""blur"",""1"",""2417""
","""event"",""trial"",""time""
""focus"",""1"",""10192""
","""event"",""trial"",""time""
""fullscreenenter"",""1"",""10365""
","
","","1420.2000000476837","","","","real_trial","2021-07-29 17:44:03.798","img/card_backs/set1/green.gif","0","110","1","",""
"casino-fixation","78","461210","0.0-25.0-0.4","628","false","img/card_backs/set1/yellow.gif","img/card_backs/set1/purple.gif","img/card_backs/set1/green.gif","img/card_backs/set1/red.gif","img/card_backs/set2/gray.gif","img/card_backs/set2/blue.gif","img/card_backs/set2/pink.gif","img/card_backs/set2/orange.gif","""event"",""trial"",""time""
""blur"",""1"",""2417""
""focus"",""1"",""10192""
""fullscreenenter"",""1"",""10365""
","""event"",""trial"",""time""
""blur"",""1"",""2417""
","""event"",""trial"",""time""
""focus"",""1"",""10192""
","""event"",""trial"",""time""
""fullscreenenter"",""1"",""10365""
","
","","null","","null","","fixation","2021-07-29 17:44:04.318","","","","","",""
"card-selection-trial","79","464820","0.0-25.0-1.4","628","false","img/card_backs/set1/yellow.gif","img/card_backs/set1/purple.gif","img/card_backs/set1/green.gif","img/card_backs/set1/red.gif","img/card_backs/set2/gray.gif","img/card_backs/set2/blue.gif","img/card_backs/set2/pink.gif","img/card_backs/set2/orange.gif","""event"",""trial"",""time""
""blur"",""1"",""2417""
""focus"",""1"",""10192""
""fullscreenenter"",""1"",""10365""
","""event"",""trial"",""time""
""blur"",""1"",""2417""
","""event"",""trial"",""time""
""focus"",""1"",""10192""
","""event"",""trial"",""time""
""fullscreenenter"",""1"",""10365""
","
","","1587.2999999523163","","","","real_trial","2021-07-29 17:44:07.928","img/card_backs/set1/green.gif","2","-50","1","",""
"casino-fixation","80","465339","0.0-25.0-0.5","628","false","img/card_backs/set1/yellow.gif","img/card_backs/set1/purple.gif","img/card_backs/set1/green.gif","img/card_backs/set1/red.gif","img/card_backs/set2/gray.gif","img/card_backs/set2/blue.gif","img/card_backs/set2/pink.gif","img/card_backs/set2/orange.gif","""event"",""trial"",""time""
""blur"",""1"",""2417""
""focus"",""1"",""10192""
""fullscreenenter"",""1"",""10365""
","""event"",""trial"",""time""
""blur"",""1"",""2417""
","""event"",""trial"",""time""
""focus"",""1"",""10192""
","""event"",""trial"",""time""
""fullscreenenter"",""1"",""10365""
","
","","null","","null","","fixation","2021-07-29 17:44:08.448","","","","","",""
"card-selection-trial","81","469820","0.0-25.0-1.5","628","false","img/card_backs/set1/yellow.gif","img/card_backs/set1/purple.gif","img/card_backs/set1/green.gif","img/card_backs/set1/red.gif","img/card_backs/set2/gray.gif","img/card_backs/set2/blue.gif","img/card_backs/set2/pink.gif","img/card_backs/set2/orange.gif","""event"",""trial"",""time""
""blur"",""1"",""2417""
""focus"",""1"",""10192""
""fullscreenenter"",""1"",""10365""
","""event"",""trial"",""time""
""blur"",""1"",""2417""
","""event"",""trial"",""time""
""focus"",""1"",""10192""
","""event"",""trial"",""time""
""fullscreenenter"",""1"",""10365""
","
","","2458.6999999284744","","","","real_trial","2021-07-29 17:44:12.928","img/card_backs/set1/green.gif","3","120","1","",""
"casino-fixation","82","470322","0.0-25.0-0.6","628","false","img/card_backs/set1/yellow.gif","img/card_backs/set1/purple.gif","img/card_backs/set1/green.gif","img/card_backs/set1/red.gif","img/card_backs/set2/gray.gif","img/card_backs/set2/blue.gif","img/card_backs/set2/pink.gif","img/card_backs/set2/orange.gif","""event"",""trial"",""time""
""blur"",""1"",""2417""
""focus"",""1"",""10192""
""fullscreenenter"",""1"",""10365""
","""event"",""trial"",""time""
""blur"",""1"",""2417""
","""event"",""trial"",""time""
""focus"",""1"",""10192""
","""event"",""trial"",""time""
""fullscreenenter"",""1"",""10365""
","
","","null","","null","","fixation","2021-07-29 17:44:13.430","","","","","",""
"card-selection-trial","83","475637","0.0-25.0-1.6","628","false","img/card_backs/set1/yellow.gif","img/card_backs/set1/purple.gif","img/card_backs/set1/green.gif","img/card_backs/set1/red.gif","img/card_backs/set2/gray.gif","img/card_backs/set2/blue.gif","img/card_backs/set2/pink.gif","img/card_backs/set2/orange.gif","""event"",""trial"",""time""
""blur"",""1"",""2417""
""focus"",""1"",""10192""
""fullscreenenter"",""1"",""10365""
","""event"",""trial"",""time""
""blur"",""1"",""2417""
","""event"",""trial"",""time""
""focus"",""1"",""10192""
","""event"",""trial"",""time""
""fullscreenenter"",""1"",""10365""
","
","","3309.0999999046326","","","","real_trial","2021-07-29 17:44:18.745","img/card_backs/set1/green.gif","2","110","1","",""
"casino-fixation","84","476140","0.0-25.0-0.7","628","false","img/card_backs/set1/yellow.gif","img/card_backs/set1/purple.gif","img/card_backs/set1/green.gif","img/card_backs/set1/red.gif","img/card_backs/set2/gray.gif","img/card_backs/set2/blue.gif","img/card_backs/set2/pink.gif","img/card_backs/set2/orange.gif","""event"",""trial"",""time""
""blur"",""1"",""2417""
""focus"",""1"",""10192""
""fullscreenenter"",""1"",""10365""
","""event"",""trial"",""time""
""blur"",""1"",""2417""
","""event"",""trial"",""time""
""focus"",""1"",""10192""
","""event"",""trial"",""time""
""fullscreenenter"",""1"",""10365""
","
","","null","","null","","fixation","2021-07-29 17:44:19.248","","","","","",""
"card-selection-trial","85","480194","0.0-25.0-1.7","628","false","img/card_backs/set1/yellow.gif","img/card_backs/set1/purple.gif","img/card_backs/set1/green.gif","img/card_backs/set1/red.gif","img/card_backs/set2/gray.gif","img/card_backs/set2/blue.gif","img/card_backs/set2/pink.gif","img/card_backs/set2/orange.gif","""event"",""trial"",""time""
""blur"",""1"",""2417""
""focus"",""1"",""10192""
""fullscreenenter"",""1"",""10365""
","""event"",""trial"",""time""
""blur"",""1"",""2417""
","""event"",""trial"",""time""
""focus"",""1"",""10192""
","""event"",""trial"",""time""
""fullscreenenter"",""1"",""10365""
","
","","2050.2000000476837","","","","real_trial","2021-07-29 17:44:23.302","img/card_backs/set1/green.gif","1","100","1","",""
"casino-fixation","86","480697","0.0-25.0-0.8","628","false","img/card_backs/set1/yellow.gif","img/card_backs/set1/purple.gif","img/card_backs/set1/green.gif","img/card_backs/set1/red.gif","img/card_backs/set2/gray.gif","img/card_backs/set2/blue.gif","img/card_backs/set2/pink.gif","img/card_backs/set2/orange.gif","""event"",""trial"",""time""
""blur"",""1"",""2417""
""focus"",""1"",""10192""
""fullscreenenter"",""1"",""10365""
","""event"",""trial"",""time""
""blur"",""1"",""2417""
","""event"",""trial"",""time""
""focus"",""1"",""10192""
","""event"",""trial"",""time""
""fullscreenenter"",""1"",""10365""
","
","","null","","null","","fixation","2021-07-29 17:44:23.805","","","","","",""
"card-selection-trial","87","484130","0.0-25.0-1.8","628","false","img/card_backs/set1/yellow.gif","img/card_backs/set1/purple.gif","img/card_backs/set1/green.gif","img/card_backs/set1/red.gif","img/card_backs/set2/gray.gif","img/card_backs/set2/blue.gif","img/card_backs/set2/pink.gif","img/card_backs/set2/orange.gif","""event"",""trial"",""time""
""blur"",""1"",""2417""
""focus"",""1"",""10192""
""fullscreenenter"",""1"",""10365""
","""event"",""trial"",""time""
""blur"",""1"",""2417""
","""event"",""trial"",""time""
""focus"",""1"",""10192""
","""event"",""trial"",""time""
""fullscreenenter"",""1"",""10365""
","
","","1428.3999999761581","","","","real_trial","2021-07-29 17:44:27.238","img/card_backs/set1/green.gif","3","-70","1","",""
"casino-fixation","88","484632","0.0-25.0-0.9","628","false","img/card_backs/set1/yellow.gif","img/card_backs/set1/purple.gif","img/card_backs/set1/green.gif","img/card_backs/set1/red.gif","img/card_backs/set2/gray.gif","img/card_backs/set2/blue.gif","img/card_backs/set2/pink.gif","img/card_backs/set2/orange.gif","""event"",""trial"",""time""
""blur"",""1"",""2417""
""focus"",""1"",""10192""
""fullscreenenter"",""1"",""10365""
","""event"",""trial"",""time""
""blur"",""1"",""2417""
","""event"",""trial"",""time""
""focus"",""1"",""10192""
","""event"",""trial"",""time""
""fullscreenenter"",""1"",""10365""
","
","","null","","null","","fixation","2021-07-29 17:44:27.740","","","","","",""
"card-selection-trial","89","488084","0.0-25.0-1.9","628","false","img/card_backs/set1/yellow.gif","img/card_backs/set1/purple.gif","img/card_backs/set1/green.gif","img/card_backs/set1/red.gif","img/card_backs/set2/gray.gif","img/card_backs/set2/blue.gif","img/card_backs/set2/pink.gif","img/card_backs/set2/orange.gif","""event"",""trial"",""time""
""blur"",""1"",""2417""
""focus"",""1"",""10192""
""fullscreenenter"",""1"",""10365""
","""event"",""trial"",""time""
""blur"",""1"",""2417""
","""event"",""trial"",""time""
""focus"",""1"",""10192""
","""event"",""trial"",""time""
""fullscreenenter"",""1"",""10365""
","
","","1447.6000000238419","","","","real_trial","2021-07-29 17:44:31.192","img/card_backs/set1/green.gif","3","-70","1","",""
"casino-fixation","90","488586","0.0-25.0-0.10","628","false","img/card_backs/set1/yellow.gif","img/card_backs/set1/purple.gif","img/card_backs/set1/green.gif","img/card_backs/set1/red.gif","img/card_backs/set2/gray.gif","img/card_backs/set2/blue.gif","img/card_backs/set2/pink.gif","img/card_backs/set2/orange.gif","""event"",""trial"",""time""
""blur"",""1"",""2417""
""focus"",""1"",""10192""
""fullscreenenter"",""1"",""10365""
","""event"",""trial"",""time""
""blur"",""1"",""2417""
","""event"",""trial"",""time""
""focus"",""1"",""10192""
","""event"",""trial"",""time""
""fullscreenenter"",""1"",""10365""
","
","","null","","null","","fixation","2021-07-29 17:44:31.694","","","","","",""
"card-selection-trial","91","492003","0.0-25.0-1.10","628","false","img/card_backs/set1/yellow.gif","img/card_backs/set1/purple.gif","img/card_backs/set1/green.gif","img/card_backs/set1/red.gif","img/card_backs/set2/gray.gif","img/card_backs/set2/blue.gif","img/card_backs/set2/pink.gif","img/card_backs/set2/orange.gif","""event"",""trial"",""time""
""blur"",""1"",""2417""
""focus"",""1"",""10192""
""fullscreenenter"",""1"",""10365""
","""event"",""trial"",""time""
""blur"",""1"",""2417""
","""event"",""trial"",""time""
""focus"",""1"",""10192""
","""event"",""trial"",""time""
""fullscreenenter"",""1"",""10365""
","
","","1412.1000000238419","","","","real_trial","2021-07-29 17:44:35.111","img/card_backs/set1/purple.gif","2","-230","1","",""
"casino-fixation","92","492505","0.0-25.0-0.11","628","false","img/card_backs/set1/yellow.gif","img/card_backs/set1/purple.gif","img/card_backs/set1/green.gif","img/card_backs/set1/red.gif","img/card_backs/set2/gray.gif","img/card_backs/set2/blue.gif","img/card_backs/set2/pink.gif","img/card_backs/set2/orange.gif","""event"",""trial"",""time""
""blur"",""1"",""2417""
""focus"",""1"",""10192""
""fullscreenenter"",""1"",""10365""
","""event"",""trial"",""time""
""blur"",""1"",""2417""
","""event"",""trial"",""time""
""focus"",""1"",""10192""
","""event"",""trial"",""time""
""fullscreenenter"",""1"",""10365""
","
","","null","","null","","fixation","2021-07-29 17:44:35.613","","","","","",""
"card-selection-trial","93","496748","0.0-25.0-1.11","628","false","img/card_backs/set1/yellow.gif","img/card_backs/set1/purple.gif","img/card_backs/set1/green.gif","img/card_backs/set1/red.gif","img/card_backs/set2/gray.gif","img/card_backs/set2/blue.gif","img/card_backs/set2/pink.gif","img/card_backs/set2/orange.gif","""event"",""trial"",""time""
""blur"",""1"",""2417""
""focus"",""1"",""10192""
""fullscreenenter"",""1"",""10365""
","""event"",""trial"",""time""
""blur"",""1"",""2417""
","""event"",""trial"",""time""
""focus"",""1"",""10192""
","""event"",""trial"",""time""
""fullscreenenter"",""1"",""10365""
","
","","2237.8000000715256","","","","real_trial","2021-07-29 17:44:39.856","img/card_backs/set1/green.gif","2","100","1","",""
"casino-fixation","94","497250","0.0-25.0-0.12","628","false","img/card_backs/set1/yellow.gif","img/card_backs/set1/purple.gif","img/card_backs/set1/green.gif","img/card_backs/set1/red.gif","img/card_backs/set2/gray.gif","img/card_backs/set2/blue.gif","img/card_backs/set2/pink.gif","img/card_backs/set2/orange.gif","""event"",""trial"",""time""
""blur"",""1"",""2417""
""focus"",""1"",""10192""
""fullscreenenter"",""1"",""10365""
","""event"",""trial"",""time""
""blur"",""1"",""2417""
","""event"",""trial"",""time""
""focus"",""1"",""10192""
","""event"",""trial"",""time""
""fullscreenenter"",""1"",""10365""
","
","","null","","null","","fixation","2021-07-29 17:44:40.358","","","","","",""
"card-selection-trial","95","501583","0.0-25.0-1.12","628","false","img/card_backs/set1/yellow.gif","img/card_backs/set1/purple.gif","img/card_backs/set1/green.gif","img/card_backs/set1/red.gif","img/card_backs/set2/gray.gif","img/card_backs/set2/blue.gif","img/card_backs/set2/pink.gif","img/card_backs/set2/orange.gif","""event"",""trial"",""time""
""blur"",""1"",""2417""
""focus"",""1"",""10192""
""fullscreenenter"",""1"",""10365""
","""event"",""trial"",""time""
""blur"",""1"",""2417""
","""event"",""trial"",""time""
""focus"",""1"",""10192""
","""event"",""trial"",""time""
""fullscreenenter"",""1"",""10365""
","
","","2324.8000000715256","","","","real_trial","2021-07-29 17:44:44.691","img/card_backs/set1/green.gif","1","110","1","",""
"casino-fixation","96","502085","0.0-25.0-0.13","628","false","img/card_backs/set1/yellow.gif","img/card_backs/set1/purple.gif","img/card_backs/set1/green.gif","img/card_backs/set1/red.gif","img/card_backs/set2/gray.gif","img/card_backs/set2/blue.gif","img/card_backs/set2/pink.gif","img/card_backs/set2/orange.gif","""event"",""trial"",""time""
""blur"",""1"",""2417""
""focus"",""1"",""10192""
""fullscreenenter"",""1"",""10365""
","""event"",""trial"",""time""
""blur"",""1"",""2417""
","""event"",""trial"",""time""
""focus"",""1"",""10192""
","""event"",""trial"",""time""
""fullscreenenter"",""1"",""10365""
","
","","null","","null","","fixation","2021-07-29 17:44:45.193","","","","","",""
"card-selection-trial","97","507287","0.0-25.0-1.13","628","false","img/card_backs/set1/yellow.gif","img/card_backs/set1/purple.gif","img/card_backs/set1/green.gif","img/card_backs/set1/red.gif","img/card_backs/set2/gray.gif","img/card_backs/set2/blue.gif","img/card_backs/set2/pink.gif","img/card_backs/set2/orange.gif","""event"",""trial"",""time""
""blur"",""1"",""2417""
""focus"",""1"",""10192""
""fullscreenenter"",""1"",""10365""
","""event"",""trial"",""time""
""blur"",""1"",""2417""
","""event"",""trial"",""time""
""focus"",""1"",""10192""
","""event"",""trial"",""time""
""fullscreenenter"",""1"",""10365""
","
","","3194.600000023842","","","","real_trial","2021-07-29 17:44:50.395","img/card_backs/set1/green.gif","1","-50","1","",""
"casino-fixation","98","507790","0.0-25.0-0.14","628","false","img/card_backs/set1/yellow.gif","img/card_backs/set1/purple.gif","img/card_backs/set1/green.gif","img/card_backs/set1/red.gif","img/card_backs/set2/gray.gif","img/card_backs/set2/blue.gif","img/card_backs/set2/pink.gif","img/card_backs/set2/orange.gif","""event"",""trial"",""time""
""blur"",""1"",""2417""
""focus"",""1"",""10192""
""fullscreenenter"",""1"",""10365""
","""event"",""trial"",""time""
""blur"",""1"",""2417""
","""event"",""trial"",""time""
""focus"",""1"",""10192""
","""event"",""trial"",""time""
""fullscreenenter"",""1"",""10365""
","
","","null","","null","","fixation","2021-07-29 17:44:50.898","","","","","",""
"card-selection-trial","99","511146","0.0-25.0-1.14","628","false","img/card_backs/set1/yellow.gif","img/card_backs/set1/purple.gif","img/card_backs/set1/green.gif","img/card_backs/set1/red.gif","img/card_backs/set2/gray.gif","img/card_backs/set2/blue.gif","img/card_backs/set2/pink.gif","img/card_backs/set2/orange.gif","""event"",""trial"",""time""
""blur"",""1"",""2417""
""focus"",""1"",""10192""
""fullscreenenter"",""1"",""10365""
","""event"",""trial"",""time""
""blur"",""1"",""2417""
","""event"",""trial"",""time""
""focus"",""1"",""10192""
","""event"",""trial"",""time""
""fullscreenenter"",""1"",""10365""
","
","","1351.3999999761581","","","","real_trial","2021-07-29 17:44:54.254","img/card_backs/set1/yellow.gif","1","-240","1","",""
"casino-fixation","100","511647","0.0-25.0-0.15","628","false","img/card_backs/set1/yellow.gif","img/card_backs/set1/purple.gif","img/card_backs/set1/green.gif","img/card_backs/set1/red.gif","img/card_backs/set2/gray.gif","img/card_backs/set2/blue.gif","img/card_backs/set2/pink.gif","img/card_backs/set2/orange.gif","""event"",""trial"",""time""
""blur"",""1"",""2417""
""focus"",""1"",""10192""
""fullscreenenter"",""1"",""10365""
","""event"",""trial"",""time""
""blur"",""1"",""2417""
","""event"",""trial"",""time""
""focus"",""1"",""10192""
","""event"",""trial"",""time""
""fullscreenenter"",""1"",""10365""
","
","","null","","null","","fixation","2021-07-29 17:44:54.756","","","","","",""
"card-selection-trial","101","516021","0.0-25.0-1.15","628","false","img/card_backs/set1/yellow.gif","img/card_backs/set1/purple.gif","img/card_backs/set1/green.gif","img/card_backs/set1/red.gif","img/card_backs/set2/gray.gif","img/card_backs/set2/blue.gif","img/card_backs/set2/pink.gif","img/card_backs/set2/orange.gif","""event"",""trial"",""time""
""blur"",""1"",""2417""
""focus"",""1"",""10192""
""fullscreenenter"",""1"",""10365""
","""event"",""trial"",""time""
""blur"",""1"",""2417""
","""event"",""trial"",""time""
""focus"",""1"",""10192""
","""event"",""trial"",""time""
""fullscreenenter"",""1"",""10365""
","
","","2366.5","","","","real_trial","2021-07-29 17:44:59.129","img/card_backs/set1/yellow.gif","3","180","1","",""
"casino-fixation","102","516523","0.0-25.0-0.16","628","false","img/card_backs/set1/yellow.gif","img/card_backs/set1/purple.gif","img/card_backs/set1/green.gif","img/card_backs/set1/red.gif","img/card_backs/set2/gray.gif","img/card_backs/set2/blue.gif","img/card_backs/set2/pink.gif","img/card_backs/set2/orange.gif","""event"",""trial"",""time""
""blur"",""1"",""2417""
""focus"",""1"",""10192""
""fullscreenenter"",""1"",""10365""
","""event"",""trial"",""time""
""blur"",""1"",""2417""
","""event"",""trial"",""time""
""focus"",""1"",""10192""
","""event"",""trial"",""time""
""fullscreenenter"",""1"",""10365""
","
","","null","","null","","fixation","2021-07-29 17:44:59.631","","","","","",""
"card-selection-trial","103","520144","0.0-25.0-1.16","628","false","img/card_backs/set1/yellow.gif","img/card_backs/set1/purple.gif","img/card_backs/set1/green.gif","img/card_backs/set1/red.gif","img/card_backs/set2/gray.gif","img/card_backs/set2/blue.gif","img/card_backs/set2/pink.gif","img/card_backs/set2/orange.gif","""event"",""trial"",""time""
""blur"",""1"",""2417""
""focus"",""1"",""10192""
""fullscreenenter"",""1"",""10365""
","""event"",""trial"",""time""
""blur"",""1"",""2417""
","""event"",""trial"",""time""
""focus"",""1"",""10192""
","""event"",""trial"",""time""
""fullscreenenter"",""1"",""10365""
","
","","1615.1000000238419","","","","real_trial","2021-07-29 17:45:03.252","img/card_backs/set1/red.gif","0","100","1","",""
"casino-fixation","104","520646","0.0-25.0-0.17","628","false","img/card_backs/set1/yellow.gif","img/card_backs/set1/purple.gif","img/card_backs/set1/green.gif","img/card_backs/set1/red.gif","img/card_backs/set2/gray.gif","img/card_backs/set2/blue.gif","img/card_backs/set2/pink.gif","img/card_backs/set2/orange.gif","""event"",""trial"",""time""
""blur"",""1"",""2417""
""focus"",""1"",""10192""
""fullscreenenter"",""1"",""10365""
","""event"",""trial"",""time""
""blur"",""1"",""2417""
","""event"",""trial"",""time""
""focus"",""1"",""10192""
","""event"",""trial"",""time""
""fullscreenenter"",""1"",""10365""
","
","","null","","null","","fixation","2021-07-29 17:45:03.754","","","","","",""
"card-selection-trial","105","524237","0.0-25.0-1.17","628","false","img/card_backs/set1/yellow.gif","img/card_backs/set1/purple.gif","img/card_backs/set1/green.gif","img/card_backs/set1/red.gif","img/card_backs/set2/gray.gif","img/card_backs/set2/blue.gif","img/card_backs/set2/pink.gif","img/card_backs/set2/orange.gif","""event"",""trial"",""time""
""blur"",""1"",""2417""
""focus"",""1"",""10192""
""fullscreenenter"",""1"",""10365""
","""event"",""trial"",""time""
""blur"",""1"",""2417""
","""event"",""trial"",""time""
""focus"",""1"",""10192""
","""event"",""trial"",""time""
""fullscreenenter"",""1"",""10365""
","
","","1585.7999999523163","","","","real_trial","2021-07-29 17:45:07.345","img/card_backs/set1/red.gif","2","120","1","",""
"casino-fixation","106","524738","0.0-25.0-0.18","628","false","img/card_backs/set1/yellow.gif","img/card_backs/set1/purple.gif","img/card_backs/set1/green.gif","img/card_backs/set1/red.gif","img/card_backs/set2/gray.gif","img/card_backs/set2/blue.gif","img/card_backs/set2/pink.gif","img/card_backs/set2/orange.gif","""event"",""trial"",""time""
""blur"",""1"",""2417""
""focus"",""1"",""10192""
""fullscreenenter"",""1"",""10365""
","""event"",""trial"",""time""
""blur"",""1"",""2417""
","""event"",""trial"",""time""
""focus"",""1"",""10192""
","""event"",""trial"",""time""
""fullscreenenter"",""1"",""10365""
","
","","null","","null","","fixation","2021-07-29 17:45:07.847","","","","","",""
"card-selection-trial","107","527963","0.0-25.0-1.18","628","false","img/card_backs/set1/yellow.gif","img/card_backs/set1/purple.gif","img/card_backs/set1/green.gif","img/card_backs/set1/red.gif","img/card_backs/set2/gray.gif","img/card_backs/set2/blue.gif","img/card_backs/set2/pink.gif","img/card_backs/set2/orange.gif","""event"",""trial"",""time""
""blur"",""1"",""2417""
""focus"",""1"",""10192""
""fullscreenenter"",""1"",""10365""
","""event"",""trial"",""time""
""blur"",""1"",""2417""
","""event"",""trial"",""time""
""focus"",""1"",""10192""
","""event"",""trial"",""time""
""fullscreenenter"",""1"",""10365""
","
","","1220.1999999284744","","","","real_trial","2021-07-29 17:45:11.071","img/card_backs/set1/red.gif","1","100","1","",""
"casino-fixation","108","528464","0.0-25.0-0.19","628","false","img/card_backs/set1/yellow.gif","img/card_backs/set1/purple.gif","img/card_backs/set1/green.gif","img/card_backs/set1/red.gif","img/card_backs/set2/gray.gif","img/card_backs/set2/blue.gif","img/card_backs/set2/pink.gif","img/card_backs/set2/orange.gif","""event"",""trial"",""time""
""blur"",""1"",""2417""
""focus"",""1"",""10192""
""fullscreenenter"",""1"",""10365""
","""event"",""trial"",""time""
""blur"",""1"",""2417""
","""event"",""trial"",""time""
""focus"",""1"",""10192""
","""event"",""trial"",""time""
""fullscreenenter"",""1"",""10365""
","
","","null","","null","","fixation","2021-07-29 17:45:11.572","","","","","",""
"card-selection-trial","109","531998","0.0-25.0-1.19","628","false","img/card_backs/set1/yellow.gif","img/card_backs/set1/purple.gif","img/card_backs/set1/green.gif","img/card_backs/set1/red.gif","img/card_backs/set2/gray.gif","img/card_backs/set2/blue.gif","img/card_backs/set2/pink.gif","img/card_backs/set2/orange.gif","""event"",""trial"",""time""
""blur"",""1"",""2417""
""focus"",""1"",""10192""
""fullscreenenter"",""1"",""10365""
","""event"",""trial"",""time""
""blur"",""1"",""2417""
","""event"",""trial"",""time""
""focus"",""1"",""10192""
","""event"",""trial"",""time""
""fullscreenenter"",""1"",""10365""
","
","","1528.8999999761581","","","","real_trial","2021-07-29 17:45:15.106","img/card_backs/set1/red.gif","1","-60","1","",""
"casino-fixation","110","532501","0.0-25.0-0.20","628","false","img/card_backs/set1/yellow.gif","img/card_backs/set1/purple.gif","img/card_backs/set1/green.gif","img/card_backs/set1/red.gif","img/card_backs/set2/gray.gif","img/card_backs/set2/blue.gif","img/card_backs/set2/pink.gif","img/card_backs/set2/orange.gif","""event"",""trial"",""time""
""blur"",""1"",""2417""
""focus"",""1"",""10192""
""fullscreenenter"",""1"",""10365""
","""event"",""trial"",""time""
""blur"",""1"",""2417""
","""event"",""trial"",""time""
""focus"",""1"",""10192""
","""event"",""trial"",""time""
""fullscreenenter"",""1"",""10365""
","
","","null","","null","","fixation","2021-07-29 17:45:15.609","","","","","",""
"card-selection-trial","111","536076","0.0-25.0-1.20","628","false","img/card_backs/set1/yellow.gif","img/card_backs/set1/purple.gif","img/card_backs/set1/green.gif","img/card_backs/set1/red.gif","img/card_backs/set2/gray.gif","img/card_backs/set2/blue.gif","img/card_backs/set2/pink.gif","img/card_backs/set2/orange.gif","""event"",""trial"",""time""
""blur"",""1"",""2417""
""focus"",""1"",""10192""
""fullscreenenter"",""1"",""10365""
","""event"",""trial"",""time""
""blur"",""1"",""2417""
","""event"",""trial"",""time""
""focus"",""1"",""10192""
","""event"",""trial"",""time""
""fullscreenenter"",""1"",""10365""
","
","","1570.3999999761581","","","","real_trial","2021-07-29 17:45:19.184","img/card_backs/set1/green.gif","0","-70","1","",""
"casino-fixation","112","536579","0.0-25.0-0.21","628","false","img/card_backs/set1/yellow.gif","img/card_backs/set1/purple.gif","img/card_backs/set1/green.gif","img/card_backs/set1/red.gif","img/card_backs/set2/gray.gif","img/card_backs/set2/blue.gif","img/card_backs/set2/pink.gif","img/card_backs/set2/orange.gif","""event"",""trial"",""time""
""blur"",""1"",""2417""
""focus"",""1"",""10192""
""fullscreenenter"",""1"",""10365""
","""event"",""trial"",""time""
""blur"",""1"",""2417""
","""event"",""trial"",""time""
""focus"",""1"",""10192""
","""event"",""trial"",""time""
""fullscreenenter"",""1"",""10365""
","
","","null","","null","","fixation","2021-07-29 17:45:19.687","","","","","",""
"card-selection-trial","113","540363","0.0-25.0-1.21","628","false","img/card_backs/set1/yellow.gif","img/card_backs/set1/purple.gif","img/card_backs/set1/green.gif","img/card_backs/set1/red.gif","img/card_backs/set2/gray.gif","img/card_backs/set2/blue.gif","img/card_backs/set2/pink.gif","img/card_backs/set2/orange.gif","""event"",""trial"",""time""
""blur"",""1"",""2417""
""focus"",""1"",""10192""
""fullscreenenter"",""1"",""10365""
","""event"",""trial"",""time""
""blur"",""1"",""2417""
","""event"",""trial"",""time""
""focus"",""1"",""10192""
","""event"",""trial"",""time""
""fullscreenenter"",""1"",""10365""
","
","","1777.5","","","","real_trial","2021-07-29 17:45:23.471","img/card_backs/set1/red.gif","0","120","1","",""
"casino-fixation","114","540864","0.0-25.0-0.22","628","false","img/card_backs/set1/yellow.gif","img/card_backs/set1/purple.gif","img/card_backs/set1/green.gif","img/card_backs/set1/red.gif","img/card_backs/set2/gray.gif","img/card_backs/set2/blue.gif","img/card_backs/set2/pink.gif","img/card_backs/set2/orange.gif","""event"",""trial"",""time""
""blur"",""1"",""2417""
""focus"",""1"",""10192""
""fullscreenenter"",""1"",""10365""
","""event"",""trial"",""time""
""blur"",""1"",""2417""
","""event"",""trial"",""time""
""focus"",""1"",""10192""
","""event"",""trial"",""time""
""fullscreenenter"",""1"",""10365""
","
","","null","","null","","fixation","2021-07-29 17:45:23.973","","","","","",""
"card-selection-trial","115","544357","0.0-25.0-1.22","628","false","img/card_backs/set1/yellow.gif","img/card_backs/set1/purple.gif","img/card_backs/set1/green.gif","img/card_backs/set1/red.gif","img/card_backs/set2/gray.gif","img/card_backs/set2/blue.gif","img/card_backs/set2/pink.gif","img/card_backs/set2/orange.gif","""event"",""trial"",""time""
""blur"",""1"",""2417""
""focus"",""1"",""10192""
""fullscreenenter"",""1"",""10365""
","""event"",""trial"",""time""
""blur"",""1"",""2417""
","""event"",""trial"",""time""
""focus"",""1"",""10192""
","""event"",""trial"",""time""
""fullscreenenter"",""1"",""10365""
","
","","1487.5","","","","real_trial","2021-07-29 17:45:27.465","img/card_backs/set1/red.gif","2","-70","1","",""
"casino-fixation","116","544859","0.0-25.0-0.23","628","false","img/card_backs/set1/yellow.gif","img/card_backs/set1/purple.gif","img/card_backs/set1/green.gif","img/card_backs/set1/red.gif","img/card_backs/set2/gray.gif","img/card_backs/set2/blue.gif","img/card_backs/set2/pink.gif","img/card_backs/set2/orange.gif","""event"",""trial"",""time""
""blur"",""1"",""2417""
""focus"",""1"",""10192""
""fullscreenenter"",""1"",""10365""
","""event"",""trial"",""time""
""blur"",""1"",""2417""
","""event"",""trial"",""time""
""focus"",""1"",""10192""
","""event"",""trial"",""time""
""fullscreenenter"",""1"",""10365""
","
","","null","","null","","fixation","2021-07-29 17:45:27.967","","","","","",""
"card-selection-trial","117","548337","0.0-25.0-1.23","628","false","img/card_backs/set1/yellow.gif","img/card_backs/set1/purple.gif","img/card_backs/set1/green.gif","img/card_backs/set1/red.gif","img/card_backs/set2/gray.gif","img/card_backs/set2/blue.gif","img/card_backs/set2/pink.gif","img/card_backs/set2/orange.gif","""event"",""trial"",""time""
""blur"",""1"",""2417""
""focus"",""1"",""10192""
""fullscreenenter"",""1"",""10365""
","""event"",""trial"",""time""
""blur"",""1"",""2417""
","""event"",""trial"",""time""
""focus"",""1"",""10192""
","""event"",""trial"",""time""
""fullscreenenter"",""1"",""10365""
","
","","1465.1000000238419","","","","real_trial","2021-07-29 17:45:31.445","img/card_backs/set1/red.gif","0","-70","1","",""
"casino-fixation","118","548839","0.0-25.0-0.24","628","false","img/card_backs/set1/yellow.gif","img/card_backs/set1/purple.gif","img/card_backs/set1/green.gif","img/card_backs/set1/red.gif","img/card_backs/set2/gray.gif","img/card_backs/set2/blue.gif","img/card_backs/set2/pink.gif","img/card_backs/set2/orange.gif","""event"",""trial"",""time""
""blur"",""1"",""2417""
""focus"",""1"",""10192""
""fullscreenenter"",""1"",""10365""
","""event"",""trial"",""time""
""blur"",""1"",""2417""
","""event"",""trial"",""time""
""focus"",""1"",""10192""
","""event"",""trial"",""time""
""fullscreenenter"",""1"",""10365""
","
","","null","","null","","fixation","2021-07-29 17:45:31.947","","","","","",""
"card-selection-trial","119","552425","0.0-25.0-1.24","628","false","img/card_backs/set1/yellow.gif","img/card_backs/set1/purple.gif","img/card_backs/set1/green.gif","img/card_backs/set1/red.gif","img/card_backs/set2/gray.gif","img/card_backs/set2/blue.gif","img/card_backs/set2/pink.gif","img/card_backs/set2/orange.gif","""event"",""trial"",""time""
""blur"",""1"",""2417""
""focus"",""1"",""10192""
""fullscreenenter"",""1"",""10365""
","""event"",""trial"",""time""
""blur"",""1"",""2417""
","""event"",""trial"",""time""
""focus"",""1"",""10192""
","""event"",""trial"",""time""
""fullscreenenter"",""1"",""10365""
","
","","1580.7000000476837","","","","real_trial","2021-07-29 17:45:35.533","img/card_backs/set1/green.gif","2","-70","1","",""
"casino-fixation","120","552926","0.0-25.0-0.25","628","false","img/card_backs/set1/yellow.gif","img/card_backs/set1/purple.gif","img/card_backs/set1/green.gif","img/card_backs/set1/red.gif","img/card_backs/set2/gray.gif","img/card_backs/set2/blue.gif","img/card_backs/set2/pink.gif","img/card_backs/set2/orange.gif","""event"",""trial"",""time""
""blur"",""1"",""2417""
""focus"",""1"",""10192""
""fullscreenenter"",""1"",""10365""
","""event"",""trial"",""time""
""blur"",""1"",""2417""
","""event"",""trial"",""time""
""focus"",""1"",""10192""
","""event"",""trial"",""time""
""fullscreenenter"",""1"",""10365""
","
","","null","","null","","fixation","2021-07-29 17:45:36.034","","","","","",""
"card-selection-trial","121","556693","0.0-25.0-1.25","628","false","img/card_backs/set1/yellow.gif","img/card_backs/set1/purple.gif","img/card_backs/set1/green.gif","img/card_backs/set1/red.gif","img/card_backs/set2/gray.gif","img/card_backs/set2/blue.gif","img/card_backs/set2/pink.gif","img/card_backs/set2/orange.gif","""event"",""trial"",""time""
""blur"",""1"",""2417""
""focus"",""1"",""10192""
""fullscreenenter"",""1"",""10365""
","""event"",""trial"",""time""
""blur"",""1"",""2417""
","""event"",""trial"",""time""
""focus"",""1"",""10192""
","""event"",""trial"",""time""
""fullscreenenter"",""1"",""10365""
","
","","1760.8999999761581","","","","real_trial","2021-07-29 17:45:39.801","img/card_backs/set1/red.gif","0","100","1","",""
"casino-fixation","122","557195","0.0-25.0-0.26","628","false","img/card_backs/set1/yellow.gif","img/card_backs/set1/purple.gif","img/card_backs/set1/green.gif","img/card_backs/set1/red.gif","img/card_backs/set2/gray.gif","img/card_backs/set2/blue.gif","img/card_backs/set2/pink.gif","img/card_backs/set2/orange.gif","""event"",""trial"",""time""
""blur"",""1"",""2417""
""focus"",""1"",""10192""
""fullscreenenter"",""1"",""10365""
","""event"",""trial"",""time""
""blur"",""1"",""2417""
","""event"",""trial"",""time""
""focus"",""1"",""10192""
","""event"",""trial"",""time""
""fullscreenenter"",""1"",""10365""
","
","","null","","null","","fixation","2021-07-29 17:45:40.303","","","","","",""
"card-selection-trial","123","559945","0.0-25.0-1.26","628","false","img/card_backs/set1/yellow.gif","img/card_backs/set1/purple.gif","img/card_backs/set1/green.gif","img/card_backs/set1/red.gif","img/card_backs/set2/gray.gif","img/card_backs/set2/blue.gif","img/card_backs/set2/pink.gif","img/card_backs/set2/orange.gif","""event"",""trial"",""time""
""blur"",""1"",""2417""
""focus"",""1"",""10192""
""fullscreenenter"",""1"",""10365""
","""event"",""trial"",""time""
""blur"",""1"",""2417""
","""event"",""trial"",""time""
""focus"",""1"",""10192""
","""event"",""trial"",""time""
""fullscreenenter"",""1"",""10365""
","
","","745.7000000476837","","","","real_trial","2021-07-29 17:45:43.053","img/card_backs/set1/red.gif","0","110","1","",""
"casino-fixation","124","560446","0.0-25.0-0.27","628","false","img/card_backs/set1/yellow.gif","img/card_backs/set1/purple.gif","img/card_backs/set1/green.gif","img/card_backs/set1/red.gif","img/card_backs/set2/gray.gif","img/card_backs/set2/blue.gif","img/card_backs/set2/pink.gif","img/card_backs/set2/orange.gif","""event"",""trial"",""time""
""blur"",""1"",""2417""
""focus"",""1"",""10192""
""fullscreenenter"",""1"",""10365""
","""event"",""trial"",""time""
""blur"",""1"",""2417""
","""event"",""trial"",""time""
""focus"",""1"",""10192""
","""event"",""trial"",""time""
""fullscreenenter"",""1"",""10365""
","
","","null","","null","","fixation","2021-07-29 17:45:43.555","","","","","",""
"card-selection-trial","125","565378","0.0-25.0-1.27","628","false","img/card_backs/set1/yellow.gif","img/card_backs/set1/purple.gif","img/card_backs/set1/green.gif","img/card_backs/set1/red.gif","img/card_backs/set2/gray.gif","img/card_backs/set2/blue.gif","img/card_backs/set2/pink.gif","img/card_backs/set2/orange.gif","""event"",""trial"",""time""
""blur"",""1"",""2417""
""focus"",""1"",""10192""
""fullscreenenter"",""1"",""10365""
","""event"",""trial"",""time""
""blur"",""1"",""2417""
","""event"",""trial"",""time""
""focus"",""1"",""10192""
","""event"",""trial"",""time""
""fullscreenenter"",""1"",""10365""
","
","","2927","","","","real_trial","2021-07-29 17:45:48.486","img/card_backs/set1/green.gif","1","120","1","",""
"casino-fixation","126","565880","0.0-25.0-0.28","628","false","img/card_backs/set1/yellow.gif","img/card_backs/set1/purple.gif","img/card_backs/set1/green.gif","img/card_backs/set1/red.gif","img/card_backs/set2/gray.gif","img/card_backs/set2/blue.gif","img/card_backs/set2/pink.gif","img/card_backs/set2/orange.gif","""event"",""trial"",""time""
""blur"",""1"",""2417""
""focus"",""1"",""10192""
""fullscreenenter"",""1"",""10365""
","""event"",""trial"",""time""
""blur"",""1"",""2417""
","""event"",""trial"",""time""
""focus"",""1"",""10192""
","""event"",""trial"",""time""
""fullscreenenter"",""1"",""10365""
","
","","null","","null","","fixation","2021-07-29 17:45:48.988","","","","","",""
"card-selection-trial","127","569568","0.0-25.0-1.28","628","false","img/card_backs/set1/yellow.gif","img/card_backs/set1/purple.gif","img/card_backs/set1/green.gif","img/card_backs/set1/red.gif","img/card_backs/set2/gray.gif","img/card_backs/set2/blue.gif","img/card_backs/set2/pink.gif","img/card_backs/set2/orange.gif","""event"",""trial"",""time""
""blur"",""1"",""2417""
""focus"",""1"",""10192""
""fullscreenenter"",""1"",""10365""
","""event"",""trial"",""time""
""blur"",""1"",""2417""
","""event"",""trial"",""time""
""focus"",""1"",""10192""
","""event"",""trial"",""time""
""fullscreenenter"",""1"",""10365""
","
","","1682.3999999761581","","","","real_trial","2021-07-29 17:45:52.676","img/card_backs/set1/red.gif","1","120","1","",""
"casino-fixation","128","570069","0.0-25.0-0.29","628","false","img/card_backs/set1/yellow.gif","img/card_backs/set1/purple.gif","img/card_backs/set1/green.gif","img/card_backs/set1/red.gif","img/card_backs/set2/gray.gif","img/card_backs/set2/blue.gif","img/card_backs/set2/pink.gif","img/card_backs/set2/orange.gif","""event"",""trial"",""time""
""blur"",""1"",""2417""
""focus"",""1"",""10192""
""fullscreenenter"",""1"",""10365""
","""event"",""trial"",""time""
""blur"",""1"",""2417""
","""event"",""trial"",""time""
""focus"",""1"",""10192""
","""event"",""trial"",""time""
""fullscreenenter"",""1"",""10365""
","
","","null","","null","","fixation","2021-07-29 17:45:53.177","","","","","",""
"card-selection-trial","129","573183","0.0-25.0-1.29","628","false","img/card_backs/set1/yellow.gif","img/card_backs/set1/purple.gif","img/card_backs/set1/green.gif","img/card_backs/set1/red.gif","img/card_backs/set2/gray.gif","img/card_backs/set2/blue.gif","img/card_backs/set2/pink.gif","img/card_backs/set2/orange.gif","""event"",""trial"",""time""
""blur"",""1"",""2417""
""focus"",""1"",""10192""
""fullscreenenter"",""1"",""10365""
","""event"",""trial"",""time""
""blur"",""1"",""2417""
","""event"",""trial"",""time""
""focus"",""1"",""10192""
","""event"",""trial"",""time""
""fullscreenenter"",""1"",""10365""
","
","","1096.3999999761581","","","","real_trial","2021-07-29 17:45:56.291","img/card_backs/set1/red.gif","0","120","1","",""
"casino-fixation","130","573685","0.0-25.0-0.30","628","false","img/card_backs/set1/yellow.gif","img/card_backs/set1/purple.gif","img/card_backs/set1/green.gif","img/card_backs/set1/red.gif","img/card_backs/set2/gray.gif","img/card_backs/set2/blue.gif","img/card_backs/set2/pink.gif","img/card_backs/set2/orange.gif","""event"",""trial"",""time""
""blur"",""1"",""2417""
""focus"",""1"",""10192""
""fullscreenenter"",""1"",""10365""
","""event"",""trial"",""time""
""blur"",""1"",""2417""
","""event"",""trial"",""time""
""focus"",""1"",""10192""
","""event"",""trial"",""time""
