"trial_type","trial_index","time_elapsed","internal_node_id","sub_id","risk_good_first","block1_A","block1_B","block1_C","block1_D","block2_A","block2_B","block2_C","block2_D","interactions","blur_events","focus_events","fullscreenenter_events","fullscreenexit_events","success","rt","stimulus","key_press","button_pressed","task_part","timestamp","card_choice","choice_position","points_earned","block","correct","response"
"pavlovia","0","2","0.0-0.0","A130","true","img/card_backs/set1/red.gif","img/card_backs/set1/yellow.gif","img/card_backs/set1/purple.gif","img/card_backs/set1/green.gif","img/card_backs/set2/pink.gif","img/card_backs/set2/blue.gif","img/card_backs/set2/gray.gif","img/card_backs/set2/orange.gif","""event"",""trial"",""time""
""blur"",""0"",""0""
""focus"",""1"",""113898""
""blur"",""1"",""116054""
""focus"",""1"",""144226""
""fullscreenenter"",""1"",""145240""
","""event"",""trial"",""time""
""blur"",""0"",""0""
""blur"",""1"",""116054""
","""event"",""trial"",""time""
""focus"",""1"",""113898""
""focus"",""1"",""144226""
","""event"",""trial"",""time""
""fullscreenenter"",""1"",""145240""
","
","","","","","","","","","","","","",""
"fullscreen","1","146235","0.0-1.0","A130","true","img/card_backs/set1/red.gif","img/card_backs/set1/yellow.gif","img/card_backs/set1/purple.gif","img/card_backs/set1/green.gif","img/card_backs/set2/pink.gif","img/card_backs/set2/blue.gif","img/card_backs/set2/gray.gif","img/card_backs/set2/orange.gif","""event"",""trial"",""time""
""blur"",""0"",""0""
""focus"",""1"",""113898""
""blur"",""1"",""116054""
""focus"",""1"",""144226""
""fullscreenenter"",""1"",""145240""
","""event"",""trial"",""time""
""blur"",""0"",""0""
""blur"",""1"",""116054""
","""event"",""trial"",""time""
""focus"",""1"",""113898""
""focus"",""1"",""144226""
","""event"",""trial"",""time""
""fullscreenenter"",""1"",""145240""
","
","true","","","","","","","","","","","",""
"audio-keyboard-response","2","147455","0.0-2.0","A130","true","img/card_backs/set1/red.gif","img/card_backs/set1/yellow.gif","img/card_backs/set1/purple.gif","img/card_backs/set1/green.gif","img/card_backs/set2/pink.gif","img/card_backs/set2/blue.gif","img/card_backs/set2/gray.gif","img/card_backs/set2/orange.gif","""event"",""trial"",""time""
""blur"",""0"",""0""
""focus"",""1"",""113898""
""blur"",""1"",""116054""
""focus"",""1"",""144226""
""fullscreenenter"",""1"",""145240""
","""event"",""trial"",""time""
""blur"",""0"",""0""
""blur"",""1"",""116054""
","""event"",""trial"",""time""
""focus"",""1"",""113898""
""focus"",""1"",""144226""
","""event"",""trial"",""time""
""fullscreenenter"",""1"",""145240""
","
","","1184","audio/beep_loop.wav","32","","","","","","","","",""
"audio-button-response","3","149125","0.0-3.0","A130","true","img/card_backs/set1/red.gif","img/card_backs/set1/yellow.gif","img/card_backs/set1/purple.gif","img/card_backs/set1/green.gif","img/card_backs/set2/pink.gif","img/card_backs/set2/blue.gif","img/card_backs/set2/gray.gif","img/card_backs/set2/orange.gif","""event"",""trial"",""time""
""blur"",""0"",""0""
""focus"",""1"",""113898""
""blur"",""1"",""116054""
""focus"",""1"",""144226""
""fullscreenenter"",""1"",""145240""
","""event"",""trial"",""time""
""blur"",""0"",""0""
""blur"",""1"",""116054""
","""event"",""trial"",""time""
""focus"",""1"",""113898""
""focus"",""1"",""144226""
","""event"",""trial"",""time""
""fullscreenenter"",""1"",""145240""
","
","","NaN","audio/turtle.mp3","","3","","","","","","","",""
"audio-button-response","4","151027","0.0-4.0","A130","true","img/card_backs/set1/red.gif","img/card_backs/set1/yellow.gif","img/card_backs/set1/purple.gif","img/card_backs/set1/green.gif","img/card_backs/set2/pink.gif","img/card_backs/set2/blue.gif","img/card_backs/set2/gray.gif","img/card_backs/set2/orange.gif","""event"",""trial"",""time""
""blur"",""0"",""0""
""focus"",""1"",""113898""
""blur"",""1"",""116054""
""focus"",""1"",""144226""
""fullscreenenter"",""1"",""145240""
","""event"",""trial"",""time""
""blur"",""0"",""0""
""blur"",""1"",""116054""
","""event"",""trial"",""time""
""focus"",""1"",""113898""
""focus"",""1"",""144226""
","""event"",""trial"",""time""
""fullscreenenter"",""1"",""145240""
","
","","NaN","audio/shark.mp3","","2","","","","","","","",""
"fullscreen","5","153754","0.0-5.0","A130","true","img/card_backs/set1/red.gif","img/card_backs/set1/yellow.gif","img/card_backs/set1/purple.gif","img/card_backs/set1/green.gif","img/card_backs/set2/pink.gif","img/card_backs/set2/blue.gif","img/card_backs/set2/gray.gif","img/card_backs/set2/orange.gif","""event"",""trial"",""time""
""blur"",""0"",""0""
""focus"",""1"",""113898""
""blur"",""1"",""116054""
""focus"",""1"",""144226""
""fullscreenenter"",""1"",""145240""
","""event"",""trial"",""time""
""blur"",""0"",""0""
""blur"",""1"",""116054""
","""event"",""trial"",""time""
""focus"",""1"",""113898""
""focus"",""1"",""144226""
","""event"",""trial"",""time""
""fullscreenenter"",""1"",""145240""
","
","true","","","","","","","","","","","",""
"casino-keyboard-response","6","156713","0.0-6.0-0.0","A130","true","img/card_backs/set1/red.gif","img/card_backs/set1/yellow.gif","img/card_backs/set1/purple.gif","img/card_backs/set1/green.gif","img/card_backs/set2/pink.gif","img/card_backs/set2/blue.gif","img/card_backs/set2/gray.gif","img/card_backs/set2/orange.gif","""event"",""trial"",""time""
""blur"",""0"",""0""
""focus"",""1"",""113898""
""blur"",""1"",""116054""
""focus"",""1"",""144226""
""fullscreenenter"",""1"",""145240""
","""event"",""trial"",""time""
""blur"",""0"",""0""
""blur"",""1"",""116054""
","""event"",""trial"",""time""
""focus"",""1"",""113898""
""focus"",""1"",""144226""
","""event"",""trial"",""time""
""fullscreenenter"",""1"",""145240""
","
","","2953.670000017155","Welcome to the casino!","71","","instructions","2021-04-05 04:43:07.175","","","","","",""
"casino-keyboard-response","7","166618","0.0-6.0-0.1","A130","true","img/card_backs/set1/red.gif","img/card_backs/set1/yellow.gif","img/card_backs/set1/purple.gif","img/card_backs/set1/green.gif","img/card_backs/set2/pink.gif","img/card_backs/set2/blue.gif","img/card_backs/set2/gray.gif","img/card_backs/set2/orange.gif","""event"",""trial"",""time""
""blur"",""0"",""0""
""focus"",""1"",""113898""
""blur"",""1"",""116054""
""focus"",""1"",""144226""
""fullscreenenter"",""1"",""145240""
","""event"",""trial"",""time""
""blur"",""0"",""0""
""blur"",""1"",""116054""
","""event"",""trial"",""time""
""focus"",""1"",""113898""
""focus"",""1"",""144226""
","""event"",""trial"",""time""
""fullscreenenter"",""1"",""145240""
","
","","9901.754999998957","Today you will be playing a game to earn tokens. </br> At the end of the experiment, you will be paid a bonus based on how many tokens you win. ","69","","instructions","2021-04-05 04:43:17.079","","","","","",""
"casino-keyboard-response","8","175821","0.0-6.0-0.2","A130","true","img/card_backs/set1/red.gif","img/card_backs/set1/yellow.gif","img/card_backs/set1/purple.gif","img/card_backs/set1/green.gif","img/card_backs/set2/pink.gif","img/card_backs/set2/blue.gif","img/card_backs/set2/gray.gif","img/card_backs/set2/orange.gif","""event"",""trial"",""time""
""blur"",""0"",""0""
""focus"",""1"",""113898""
""blur"",""1"",""116054""
""focus"",""1"",""144226""
""fullscreenenter"",""1"",""145240""
","""event"",""trial"",""time""
""blur"",""0"",""0""
""blur"",""1"",""116054""
","""event"",""trial"",""time""
""focus"",""1"",""113898""
""focus"",""1"",""144226""
","""event"",""trial"",""time""
""fullscreenenter"",""1"",""145240""
","
","","9200.124999973923","On every turn, you will be shown four different decks of cards. </br> You need to select a card from one of the four decks.  ","75","","instructions","2021-04-05 04:43:26.282","","","","","",""
"casino-keyboard-response","9","180431","0.0-6.0-0.3","A130","true","img/card_backs/set1/red.gif","img/card_backs/set1/yellow.gif","img/card_backs/set1/purple.gif","img/card_backs/set1/green.gif","img/card_backs/set2/pink.gif","img/card_backs/set2/blue.gif","img/card_backs/set2/gray.gif","img/card_backs/set2/orange.gif","""event"",""trial"",""time""
""blur"",""0"",""0""
""focus"",""1"",""113898""
""blur"",""1"",""116054""
""focus"",""1"",""144226""
""fullscreenenter"",""1"",""145240""
","""event"",""trial"",""time""
""blur"",""0"",""0""
""blur"",""1"",""116054""
","""event"",""trial"",""time""
""focus"",""1"",""113898""
""focus"",""1"",""144226""
","""event"",""trial"",""time""
""fullscreenenter"",""1"",""145240""
","
","","4607.1699999738485","On the next screen, you will see what the decks will look like. ","66","","instructions","2021-04-05 04:43:30.892","","","","","",""
"card-selection-trial","10","184442","0.0-7.0-0.0","A130","true","img/card_backs/set1/red.gif","img/card_backs/set1/yellow.gif","img/card_backs/set1/purple.gif","img/card_backs/set1/green.gif","img/card_backs/set2/pink.gif","img/card_backs/set2/blue.gif","img/card_backs/set2/gray.gif","img/card_backs/set2/orange.gif","""event"",""trial"",""time""
""blur"",""0"",""0""
""focus"",""1"",""113898""
""blur"",""1"",""116054""
""focus"",""1"",""144226""
""fullscreenenter"",""1"",""145240""
","""event"",""trial"",""time""
""blur"",""0"",""0""
""blur"",""1"",""116054""
","""event"",""trial"",""time""
""focus"",""1"",""113898""
""focus"",""1"",""144226""
","""event"",""trial"",""time""
""fullscreenenter"",""1"",""145240""
","
","","null","","","","practice","2021-04-05 04:43:34.903","null","null","null","0","",""
"casino-keyboard-response","11","192756","0.0-8.0-0.0","A130","true","img/card_backs/set1/red.gif","img/card_backs/set1/yellow.gif","img/card_backs/set1/purple.gif","img/card_backs/set1/green.gif","img/card_backs/set2/pink.gif","img/card_backs/set2/blue.gif","img/card_backs/set2/gray.gif","img/card_backs/set2/orange.gif","""event"",""trial"",""time""
""blur"",""0"",""0""
""focus"",""1"",""113898""
""blur"",""1"",""116054""
""focus"",""1"",""144226""
""fullscreenenter"",""1"",""145240""
","""event"",""trial"",""time""
""blur"",""0"",""0""
""blur"",""1"",""116054""
","""event"",""trial"",""time""
""focus"",""1"",""113898""
""focus"",""1"",""144226""
","""event"",""trial"",""time""
""fullscreenenter"",""1"",""145240""
","
","","8311.045000038575","You should pick a card from a deck using the '2', '4', '6', and '8' keys at the top of the keyboard.","85","","instructions","2021-04-05 04:43:43.217","","","","","",""
"casino-keyboard-response","12","198752","0.0-8.0-0.1","A130","true","img/card_backs/set1/red.gif","img/card_backs/set1/yellow.gif","img/card_backs/set1/purple.gif","img/card_backs/set1/green.gif","img/card_backs/set2/pink.gif","img/card_backs/set2/blue.gif","img/card_backs/set2/gray.gif","img/card_backs/set2/orange.gif","""event"",""trial"",""time""
""blur"",""0"",""0""
""focus"",""1"",""113898""
""blur"",""1"",""116054""
""focus"",""1"",""144226""
""fullscreenenter"",""1"",""145240""
","""event"",""trial"",""time""
""blur"",""0"",""0""
""blur"",""1"",""116054""
","""event"",""trial"",""time""
""focus"",""1"",""113898""
""focus"",""1"",""144226""
","""event"",""trial"",""time""
""fullscreenenter"",""1"",""145240""
","
","","5994.039999961387","Once you select a card, it will turn over and you will see how many tokens you earned.","83","","instructions","2021-04-05 04:43:49.213","","","","","",""
"casino-keyboard-response","13","213111","0.0-8.0-0.2","A130","true","img/card_backs/set1/red.gif","img/card_backs/set1/yellow.gif","img/card_backs/set1/purple.gif","img/card_backs/set1/green.gif","img/card_backs/set2/pink.gif","img/card_backs/set2/blue.gif","img/card_backs/set2/gray.gif","img/card_backs/set2/orange.gif","""event"",""trial"",""time""
""blur"",""0"",""0""
""focus"",""1"",""113898""
""blur"",""1"",""116054""
""focus"",""1"",""144226""
""fullscreenenter"",""1"",""145240""
","""event"",""trial"",""time""
""blur"",""0"",""0""
""blur"",""1"",""116054""
","""event"",""trial"",""time""
""focus"",""1"",""113898""
""focus"",""1"",""144226""
","""event"",""trial"",""time""
""fullscreenenter"",""1"",""145240""
","
","","14356.254999991506","Let's try practicing that! </br> First, try to put your fingers over the '2', '4', '6', and '8' keys. </br>  You can use whatever fingers are most comfortable for you. Try to find a comfortable position now. ","50","","instructions","2021-04-05 04:44:03.573","","","","","",""
"casino-keyboard-response","14","218801","0.0-8.0-0.3","A130","true","img/card_backs/set1/red.gif","img/card_backs/set1/yellow.gif","img/card_backs/set1/purple.gif","img/card_backs/set1/green.gif","img/card_backs/set2/pink.gif","img/card_backs/set2/blue.gif","img/card_backs/set2/gray.gif","img/card_backs/set2/orange.gif","""event"",""trial"",""time""
""blur"",""0"",""0""
""focus"",""1"",""113898""
""blur"",""1"",""116054""
""focus"",""1"",""144226""
""fullscreenenter"",""1"",""145240""
","""event"",""trial"",""time""
""blur"",""0"",""0""
""blur"",""1"",""116054""
","""event"",""trial"",""time""
""focus"",""1"",""113898""
""focus"",""1"",""144226""
","""event"",""trial"",""time""
""fullscreenenter"",""1"",""145240""
","
","","5686.87500001397","Okay ready? </br> On the next screen, press '2' to select the left deck. ","50","","instructions","2021-04-05 04:44:09.262","","","","","",""
"card-selection-trial","15","221643","0.0-9.0-0.0","A130","true","img/card_backs/set1/red.gif","img/card_backs/set1/yellow.gif","img/card_backs/set1/purple.gif","img/card_backs/set1/green.gif","img/card_backs/set2/pink.gif","img/card_backs/set2/blue.gif","img/card_backs/set2/gray.gif","img/card_backs/set2/orange.gif","""event"",""trial"",""time""
""blur"",""0"",""0""
""focus"",""1"",""113898""
""blur"",""1"",""116054""
""focus"",""1"",""144226""
""fullscreenenter"",""1"",""145240""
","""event"",""trial"",""time""
""blur"",""0"",""0""
""blur"",""1"",""116054""
","""event"",""trial"",""time""
""focus"",""1"",""113898""
""focus"",""1"",""144226""
","""event"",""trial"",""time""
""fullscreenenter"",""1"",""145240""
","
","","820.914999989327","","","","practice_card_selection","2021-04-05 04:44:12.104","img/practice_cards/backs/dark_green.gif","0","-200","","",""
"casino-keyboard-response","16","227051","0.0-10.0-0.0","A130","true","img/card_backs/set1/red.gif","img/card_backs/set1/yellow.gif","img/card_backs/set1/purple.gif","img/card_backs/set1/green.gif","img/card_backs/set2/pink.gif","img/card_backs/set2/blue.gif","img/card_backs/set2/gray.gif","img/card_backs/set2/orange.gif","""event"",""trial"",""time""
""blur"",""0"",""0""
""focus"",""1"",""113898""
""blur"",""1"",""116054""
""focus"",""1"",""144226""
""fullscreenenter"",""1"",""145240""
","""event"",""trial"",""time""
""blur"",""0"",""0""
""blur"",""1"",""116054""
","""event"",""trial"",""time""
""focus"",""1"",""113898""
""focus"",""1"",""144226""
","""event"",""trial"",""time""
""fullscreenenter"",""1"",""145240""
","
","","5404.53499997966","Great! Now on the next screen, try pressing '6' to select the third deck.","54","","instructions","2021-04-05 04:44:17.512","","","","","",""
"card-selection-trial","17","229640","0.0-11.0-0.0","A130","true","img/card_backs/set1/red.gif","img/card_backs/set1/yellow.gif","img/card_backs/set1/purple.gif","img/card_backs/set1/green.gif","img/card_backs/set2/pink.gif","img/card_backs/set2/blue.gif","img/card_backs/set2/gray.gif","img/card_backs/set2/orange.gif","""event"",""trial"",""time""
""blur"",""0"",""0""
""focus"",""1"",""113898""
""blur"",""1"",""116054""
""focus"",""1"",""144226""
""fullscreenenter"",""1"",""145240""
","""event"",""trial"",""time""
""blur"",""0"",""0""
""blur"",""1"",""116054""
","""event"",""trial"",""time""
""focus"",""1"",""113898""
""focus"",""1"",""144226""
","""event"",""trial"",""time""
""fullscreenenter"",""1"",""145240""
","
","","583.5400000214577","","","","practice_card_selection","2021-04-05 04:44:20.101","img/practice_cards/backs/dark_green.gif","2","200","","",""
"casino-keyboard-response","18","234074","0.0-12.0-0.0","A130","true","img/card_backs/set1/red.gif","img/card_backs/set1/yellow.gif","img/card_backs/set1/purple.gif","img/card_backs/set1/green.gif","img/card_backs/set2/pink.gif","img/card_backs/set2/blue.gif","img/card_backs/set2/gray.gif","img/card_backs/set2/orange.gif","""event"",""trial"",""time""
""blur"",""0"",""0""
""focus"",""1"",""113898""
""blur"",""1"",""116054""
""focus"",""1"",""144226""
""fullscreenenter"",""1"",""145240""
","""event"",""trial"",""time""
""blur"",""0"",""0""
""blur"",""1"",""116054""
","""event"",""trial"",""time""
""focus"",""1"",""113898""
""focus"",""1"",""144226""
","""event"",""trial"",""time""
""fullscreenenter"",""1"",""145240""
","
","","4430.630000017118","Now on the next screen, try pressing '4' to select the second deck.","52","","instructions","2021-04-05 04:44:24.536","","","","","",""
"card-selection-trial","19","236457","0.0-13.0-0.0","A130","true","img/card_backs/set1/red.gif","img/card_backs/set1/yellow.gif","img/card_backs/set1/purple.gif","img/card_backs/set1/green.gif","img/card_backs/set2/pink.gif","img/card_backs/set2/blue.gif","img/card_backs/set2/gray.gif","img/card_backs/set2/orange.gif","""event"",""trial"",""time""
""blur"",""0"",""0""
""focus"",""1"",""113898""
""blur"",""1"",""116054""
""focus"",""1"",""144226""
""fullscreenenter"",""1"",""145240""
","""event"",""trial"",""time""
""blur"",""0"",""0""
""blur"",""1"",""116054""
","""event"",""trial"",""time""
""focus"",""1"",""113898""
""focus"",""1"",""144226""
","""event"",""trial"",""time""
""fullscreenenter"",""1"",""145240""
","
","","372.1699999878183","","","","practice_card_selection","2021-04-05 04:44:26.918","img/practice_cards/backs/black.gif","1","100","","",""
"casino-keyboard-response","20","240971","0.0-14.0-0.0","A130","true","img/card_backs/set1/red.gif","img/card_backs/set1/yellow.gif","img/card_backs/set1/purple.gif","img/card_backs/set1/green.gif","img/card_backs/set2/pink.gif","img/card_backs/set2/blue.gif","img/card_backs/set2/gray.gif","img/card_backs/set2/orange.gif","""event"",""trial"",""time""
""blur"",""0"",""0""
""focus"",""1"",""113898""
""blur"",""1"",""116054""
""focus"",""1"",""144226""
""fullscreenenter"",""1"",""145240""
","""event"",""trial"",""time""
""blur"",""0"",""0""
""blur"",""1"",""116054""
","""event"",""trial"",""time""
""focus"",""1"",""113898""
""focus"",""1"",""144226""
","""event"",""trial"",""time""
""fullscreenenter"",""1"",""145240""
","
","","4510.999999998603","Finally, try pressing '8' to select the deck all the way on the right.","56","","instructions","2021-04-05 04:44:31.432","","","","","",""
"card-selection-trial","21","243397","0.0-15.0-0.0","A130","true","img/card_backs/set1/red.gif","img/card_backs/set1/yellow.gif","img/card_backs/set1/purple.gif","img/card_backs/set1/green.gif","img/card_backs/set2/pink.gif","img/card_backs/set2/blue.gif","img/card_backs/set2/gray.gif","img/card_backs/set2/orange.gif","""event"",""trial"",""time""
""blur"",""0"",""0""
""focus"",""1"",""113898""
""blur"",""1"",""116054""
""focus"",""1"",""144226""
""fullscreenenter"",""1"",""145240""
","""event"",""trial"",""time""
""blur"",""0"",""0""
""blur"",""1"",""116054""
","""event"",""trial"",""time""
""focus"",""1"",""113898""
""focus"",""1"",""144226""
","""event"",""trial"",""time""
""fullscreenenter"",""1"",""145240""
","
","","421.5400000102818","","","","practice_card_selection","2021-04-05 04:44:33.858","img/practice_cards/backs/dark_blue.gif","3","200","","",""
"casino-keyboard-response","22","247193","0.0-16.0-0.0","A130","true","img/card_backs/set1/red.gif","img/card_backs/set1/yellow.gif","img/card_backs/set1/purple.gif","img/card_backs/set1/green.gif","img/card_backs/set2/pink.gif","img/card_backs/set2/blue.gif","img/card_backs/set2/gray.gif","img/card_backs/set2/orange.gif","""event"",""trial"",""time""
""blur"",""0"",""0""
""focus"",""1"",""113898""
""blur"",""1"",""116054""
""focus"",""1"",""144226""
""fullscreenenter"",""1"",""145240""
","""event"",""trial"",""time""
""blur"",""0"",""0""
""blur"",""1"",""116054""
","""event"",""trial"",""time""
""focus"",""1"",""113898""
""focus"",""1"",""144226""
","""event"",""trial"",""time""
""fullscreenenter"",""1"",""145240""
","
","","3792.665000015404","Great! It seems like you are getting the hang of this.","80","","instructions","2021-04-05 04:44:37.654","","","","","",""
"casino-keyboard-response","23","265648","0.0-16.0-0.1","A130","true","img/card_backs/set1/red.gif","img/card_backs/set1/yellow.gif","img/card_backs/set1/purple.gif","img/card_backs/set1/green.gif","img/card_backs/set2/pink.gif","img/card_backs/set2/blue.gif","img/card_backs/set2/gray.gif","img/card_backs/set2/orange.gif","""event"",""trial"",""time""
""blur"",""0"",""0""
""focus"",""1"",""113898""
""blur"",""1"",""116054""
""focus"",""1"",""144226""
""fullscreenenter"",""1"",""145240""
","""event"",""trial"",""time""
""blur"",""0"",""0""
""blur"",""1"",""116054""
","""event"",""trial"",""time""
""focus"",""1"",""113898""
""focus"",""1"",""144226""
","""event"",""trial"",""time""
""fullscreenenter"",""1"",""145240""
","
","","18453.37499998277","You may have noticed that some cards will cause you to <b> win </b> tokens while other cards will cause you to <b> lose </b>  tokens.","70","","instructions","2021-04-05 04:44:56.110","","","","","",""
"casino-keyboard-response","24","275779","0.0-16.0-0.2","A130","true","img/card_backs/set1/red.gif","img/card_backs/set1/yellow.gif","img/card_backs/set1/purple.gif","img/card_backs/set1/green.gif","img/card_backs/set2/pink.gif","img/card_backs/set2/blue.gif","img/card_backs/set2/gray.gif","img/card_backs/set2/orange.gif","""event"",""trial"",""time""
""blur"",""0"",""0""
""focus"",""1"",""113898""
""blur"",""1"",""116054""
""focus"",""1"",""144226""
""fullscreenenter"",""1"",""145240""
","""event"",""trial"",""time""
""blur"",""0"",""0""
""blur"",""1"",""116054""
","""event"",""trial"",""time""
""focus"",""1"",""113898""
""focus"",""1"",""144226""
","""event"",""trial"",""time""
""fullscreenenter"",""1"",""145240""
","
","","10128.250000008848","Each deck has a mix of cards that will cause you to win and lose tokens. </br> However, the cards in each colored deck are different.","73","","instructions","2021-04-05 04:45:06.240","","","","","",""
"casino-keyboard-response","25","285252","0.0-16.0-0.3","A130","true","img/card_backs/set1/red.gif","img/card_backs/set1/yellow.gif","img/card_backs/set1/purple.gif","img/card_backs/set1/green.gif","img/card_backs/set2/pink.gif","img/card_backs/set2/blue.gif","img/card_backs/set2/gray.gif","img/card_backs/set2/orange.gif","""event"",""trial"",""time""
""blur"",""0"",""0""
""focus"",""1"",""113898""
""blur"",""1"",""116054""
""focus"",""1"",""144226""
""fullscreenenter"",""1"",""145240""
","""event"",""trial"",""time""
""blur"",""0"",""0""
""blur"",""1"",""116054""
","""event"",""trial"",""time""
""focus"",""1"",""113898""
""focus"",""1"",""144226""
","""event"",""trial"",""time""
""fullscreenenter"",""1"",""145240""
","
","","9470.295000006445","Some colored decks are luckier than others. </br> If you choose the lucky decks, you will earn more tokens than if you choose the unlucky decks.","69","","instructions","2021-04-05 04:45:15.713","","","","","",""
"casino-keyboard-response","26","294037","0.0-16.0-0.4","A130","true","img/card_backs/set1/red.gif","img/card_backs/set1/yellow.gif","img/card_backs/set1/purple.gif","img/card_backs/set1/green.gif","img/card_backs/set2/pink.gif","img/card_backs/set2/blue.gif","img/card_backs/set2/gray.gif","img/card_backs/set2/orange.gif","""event"",""trial"",""time""
""blur"",""0"",""0""
""focus"",""1"",""113898""
""blur"",""1"",""116054""
""focus"",""1"",""144226""
""fullscreenenter"",""1"",""145240""
","""event"",""trial"",""time""
""blur"",""0"",""0""
""blur"",""1"",""116054""
","""event"",""trial"",""time""
""focus"",""1"",""113898""
""focus"",""1"",""144226""
","""event"",""trial"",""time""
""fullscreenenter"",""1"",""145240""
","
","","8782.290000002831","You should try to figure out which decks are lucky. </br> Then, try to choose the lucky decks so you can win the most tokens.","87","","instructions","2021-04-05 04:45:24.499","","","","","",""
"casino-keyboard-response","27","306199","0.0-16.0-0.5","A130","true","img/card_backs/set1/red.gif","img/card_backs/set1/yellow.gif","img/card_backs/set1/purple.gif","img/card_backs/set1/green.gif","img/card_backs/set2/pink.gif","img/card_backs/set2/blue.gif","img/card_backs/set2/gray.gif","img/card_backs/set2/orange.gif","""event"",""trial"",""time""
""blur"",""0"",""0""
""focus"",""1"",""113898""
""blur"",""1"",""116054""
""focus"",""1"",""144226""
""fullscreenenter"",""1"",""145240""
","""event"",""trial"",""time""
""blur"",""0"",""0""
""blur"",""1"",""116054""
","""event"",""trial"",""time""
""focus"",""1"",""113898""
""focus"",""1"",""144226""
","""event"",""trial"",""time""
""fullscreenenter"",""1"",""145240""
","
","","12159.169999998994","To make it trickier, the casino dealer will switch the locations of the decks on every turn. </br> The color of the deck determines how lucky it is. The location does not matter.","88","","instructions","2021-04-05 04:45:36.660","","","","","",""
"casino-keyboard-response","28","323499","0.0-16.0-0.6","A130","true","img/card_backs/set1/red.gif","img/card_backs/set1/yellow.gif","img/card_backs/set1/purple.gif","img/card_backs/set1/green.gif","img/card_backs/set2/pink.gif","img/card_backs/set2/blue.gif","img/card_backs/set2/gray.gif","img/card_backs/set2/orange.gif","""event"",""trial"",""time""
""blur"",""0"",""0""
""focus"",""1"",""113898""
""blur"",""1"",""116054""
""focus"",""1"",""144226""
""fullscreenenter"",""1"",""145240""
","""event"",""trial"",""time""
""blur"",""0"",""0""
""blur"",""1"",""116054""
","""event"",""trial"",""time""
""focus"",""1"",""113898""
""focus"",""1"",""144226""
","""event"",""trial"",""time""
""fullscreenenter"",""1"",""145240""
","
","","17297.289999958593","The mix of cards in each colored deck will stay the same throughout the game. </br> That means that a deck that is lucky early on will stay lucky.","79","","instructions","2021-04-05 04:45:53.960","","","","","",""
"casino-keyboard-response","29","331509","0.0-16.0-0.7","A130","true","img/card_backs/set1/red.gif","img/card_backs/set1/yellow.gif","img/card_backs/set1/purple.gif","img/card_backs/set1/green.gif","img/card_backs/set2/pink.gif","img/card_backs/set2/blue.gif","img/card_backs/set2/gray.gif","img/card_backs/set2/orange.gif","""event"",""trial"",""time""
""blur"",""0"",""0""
""focus"",""1"",""113898""
""blur"",""1"",""116054""
""focus"",""1"",""144226""
""fullscreenenter"",""1"",""145240""
","""event"",""trial"",""time""
""blur"",""0"",""0""
""blur"",""1"",""116054""
","""event"",""trial"",""time""
""focus"",""1"",""113898""
""focus"",""1"",""144226""
","""event"",""trial"",""time""
""fullscreenenter"",""1"",""145240""
","
","","8007.164999959059","Remember though, all the decks have a <b> mix </b> of both <b> good </b> and <b> bad </b> cards so it may take a couple of turns to figure out if a deck is lucky.","69","","instructions","2021-04-05 04:46:01.970","","","","","",""
"casino-keyboard-response","30","339502","0.0-16.0-0.8","A130","true","img/card_backs/set1/red.gif","img/card_backs/set1/yellow.gif","img/card_backs/set1/purple.gif","img/card_backs/set1/green.gif","img/card_backs/set2/pink.gif","img/card_backs/set2/blue.gif","img/card_backs/set2/gray.gif","img/card_backs/set2/orange.gif","""event"",""trial"",""time""
""blur"",""0"",""0""
""focus"",""1"",""113898""
""blur"",""1"",""116054""
""focus"",""1"",""144226""
""fullscreenenter"",""1"",""145240""
","""event"",""trial"",""time""
""blur"",""0"",""0""
""blur"",""1"",""116054""
","""event"",""trial"",""time""
""focus"",""1"",""113898""
""focus"",""1"",""144226""
","""event"",""trial"",""time""
""fullscreenenter"",""1"",""145240""
","
","","7990.749999997206","At the end of the game, you will be paid bonus money based on how many tokens you win. </br> If you win more tokens, you will earn more money!","72","","instructions","2021-04-05 04:46:09.963","","","","","",""
"casino-keyboard-response","31","351660","0.0-16.0-0.9","A130","true","img/card_backs/set1/red.gif","img/card_backs/set1/yellow.gif","img/card_backs/set1/purple.gif","img/card_backs/set1/green.gif","img/card_backs/set2/pink.gif","img/card_backs/set2/blue.gif","img/card_backs/set2/gray.gif","img/card_backs/set2/orange.gif","""event"",""trial"",""time""
""blur"",""0"",""0""
""focus"",""1"",""113898""
""blur"",""1"",""116054""
""focus"",""1"",""144226""
""fullscreenenter"",""1"",""145240""
","""event"",""trial"",""time""
""blur"",""0"",""0""
""blur"",""1"",""116054""
","""event"",""trial"",""time""
""focus"",""1"",""113898""
""focus"",""1"",""144226""
","""event"",""trial"",""time""
""fullscreenenter"",""1"",""145240""
","
","","12155.960000003688","You will never <b> lose </b> money. </br> If you end up with fewer than 0 tokens, you will earn $0 of bonus money, but you will still be paid for playing the game.","83","","instructions","2021-04-05 04:46:22.121","","","","","",""
"casino-keyboard-response","32","364860","0.0-16.0-0.10","A130","true","img/card_backs/set1/red.gif","img/card_backs/set1/yellow.gif","img/card_backs/set1/purple.gif","img/card_backs/set1/green.gif","img/card_backs/set2/pink.gif","img/card_backs/set2/blue.gif","img/card_backs/set2/gray.gif","img/card_backs/set2/orange.gif","""event"",""trial"",""time""
""blur"",""0"",""0""
""focus"",""1"",""113898""
""blur"",""1"",""116054""
""focus"",""1"",""144226""
""fullscreenenter"",""1"",""145240""
","""event"",""trial"",""time""
""blur"",""0"",""0""
""blur"",""1"",""116054""
","""event"",""trial"",""time""
""focus"",""1"",""113898""
""focus"",""1"",""144226""
","""event"",""trial"",""time""
""fullscreenenter"",""1"",""145240""
","
","","13196.919999958482","You will have 10 seconds to make each choice.","82","","instructions","2021-04-05 04:46:35.321","","","","","",""
"casino-keyboard-response","33","374123","0.0-16.0-0.11","A130","true","img/card_backs/set1/red.gif","img/card_backs/set1/yellow.gif","img/card_backs/set1/purple.gif","img/card_backs/set1/green.gif","img/card_backs/set2/pink.gif","img/card_backs/set2/blue.gif","img/card_backs/set2/gray.gif","img/card_backs/set2/orange.gif","""event"",""trial"",""time""
""blur"",""0"",""0""
""focus"",""1"",""113898""
""blur"",""1"",""116054""
""focus"",""1"",""144226""
""fullscreenenter"",""1"",""145240""
","""event"",""trial"",""time""
""blur"",""0"",""0""
""blur"",""1"",""116054""
","""event"",""trial"",""time""
""focus"",""1"",""113898""
""focus"",""1"",""144226""
","""event"",""trial"",""time""
""fullscreenenter"",""1"",""145240""
","
","","9261.16999995429","Before you play the game for real, you will play with practice decks. </br> The tokens you earn during practice won't count toward your total.","86","","instructions","2021-04-05 04:46:44.585","","","","","",""
"casino-keyboard-response","34","387373","0.0-16.0-0.12","A130","true","img/card_backs/set1/red.gif","img/card_backs/set1/yellow.gif","img/card_backs/set1/purple.gif","img/card_backs/set1/green.gif","img/card_backs/set2/pink.gif","img/card_backs/set2/blue.gif","img/card_backs/set2/gray.gif","img/card_backs/set2/orange.gif","""event"",""trial"",""time""
""blur"",""0"",""0""
""focus"",""1"",""113898""
""blur"",""1"",""116054""
""focus"",""1"",""144226""
""fullscreenenter"",""1"",""145240""
","""event"",""trial"",""time""
""blur"",""0"",""0""
""blur"",""1"",""116054""
","""event"",""trial"",""time""
""focus"",""1"",""113898""
""focus"",""1"",""144226""
","""event"",""trial"",""time""
""fullscreenenter"",""1"",""145240""
","
","","13246.704999997746","Ready? Remember, use the '2', '4', '6', and '8' keys to select the decks. </br> Put your fingers on those keys now and then press '2' to begin.","50","","instructions","2021-04-05 04:46:57.834","","","","","",""
"casino-fixation","35","387877","0.0-17.0-0.0","A130","true","img/card_backs/set1/red.gif","img/card_backs/set1/yellow.gif","img/card_backs/set1/purple.gif","img/card_backs/set1/green.gif","img/card_backs/set2/pink.gif","img/card_backs/set2/blue.gif","img/card_backs/set2/gray.gif","img/card_backs/set2/orange.gif","""event"",""trial"",""time""
""blur"",""0"",""0""
""focus"",""1"",""113898""
""blur"",""1"",""116054""
""focus"",""1"",""144226""
""fullscreenenter"",""1"",""145240""
","""event"",""trial"",""time""
""blur"",""0"",""0""
""blur"",""1"",""116054""
","""event"",""trial"",""time""
""focus"",""1"",""113898""
""focus"",""1"",""144226""
","""event"",""trial"",""time""
""fullscreenenter"",""1"",""145240""
","
","","null","","null","","fixation","2021-04-05 04:46:58.338","","","","","",""
"card-selection-trial","36","393058","0.0-17.0-1.0","A130","true","img/card_backs/set1/red.gif","img/card_backs/set1/yellow.gif","img/card_backs/set1/purple.gif","img/card_backs/set1/green.gif","img/card_backs/set2/pink.gif","img/card_backs/set2/blue.gif","img/card_backs/set2/gray.gif","img/card_backs/set2/orange.gif","""event"",""trial"",""time""
""blur"",""0"",""0""
""focus"",""1"",""113898""
""blur"",""1"",""116054""
""focus"",""1"",""144226""
""fullscreenenter"",""1"",""145240""
","""event"",""trial"",""time""
""blur"",""0"",""0""
""blur"",""1"",""116054""
","""event"",""trial"",""time""
""focus"",""1"",""113898""
""focus"",""1"",""144226""
","""event"",""trial"",""time""
""fullscreenenter"",""1"",""145240""
","
","","3167.790000035893","","","","practice","2021-04-05 04:47:03.519","img/practice_cards/backs/dark_green.gif","0","200","0","",""
"casino-fixation","37","393565","0.0-17.0-0.1","A130","true","img/card_backs/set1/red.gif","img/card_backs/set1/yellow.gif","img/card_backs/set1/purple.gif","img/card_backs/set1/green.gif","img/card_backs/set2/pink.gif","img/card_backs/set2/blue.gif","img/card_backs/set2/gray.gif","img/card_backs/set2/orange.gif","""event"",""trial"",""time""
""blur"",""0"",""0""
""focus"",""1"",""113898""
""blur"",""1"",""116054""
""focus"",""1"",""144226""
""fullscreenenter"",""1"",""145240""
","""event"",""trial"",""time""
""blur"",""0"",""0""
""blur"",""1"",""116054""
","""event"",""trial"",""time""
""focus"",""1"",""113898""
""focus"",""1"",""144226""
","""event"",""trial"",""time""
""fullscreenenter"",""1"",""145240""
","
","","null","","null","","fixation","2021-04-05 04:47:04.026","","","","","",""
"card-selection-trial","38","396714","0.0-17.0-1.1","A130","true","img/card_backs/set1/red.gif","img/card_backs/set1/yellow.gif","img/card_backs/set1/purple.gif","img/card_backs/set1/green.gif","img/card_backs/set2/pink.gif","img/card_backs/set2/blue.gif","img/card_backs/set2/gray.gif","img/card_backs/set2/orange.gif","""event"",""trial"",""time""
""blur"",""0"",""0""
""focus"",""1"",""113898""
""blur"",""1"",""116054""
""focus"",""1"",""144226""
""fullscreenenter"",""1"",""145240""
","""event"",""trial"",""time""
""blur"",""0"",""0""
""blur"",""1"",""116054""
","""event"",""trial"",""time""
""focus"",""1"",""113898""
""focus"",""1"",""144226""
","""event"",""trial"",""time""
""fullscreenenter"",""1"",""145240""
","
","","1135.6650000088848","","","","practice","2021-04-05 04:47:07.175","img/practice_cards/backs/black.gif","1","-100","0","",""
"casino-fixation","39","397221","0.0-17.0-0.2","A130","true","img/card_backs/set1/red.gif","img/card_backs/set1/yellow.gif","img/card_backs/set1/purple.gif","img/card_backs/set1/green.gif","img/card_backs/set2/pink.gif","img/card_backs/set2/blue.gif","img/card_backs/set2/gray.gif","img/card_backs/set2/orange.gif","""event"",""trial"",""time""
""blur"",""0"",""0""
""focus"",""1"",""113898""
""blur"",""1"",""116054""
""focus"",""1"",""144226""
""fullscreenenter"",""1"",""145240""
","""event"",""trial"",""time""
""blur"",""0"",""0""
""blur"",""1"",""116054""
","""event"",""trial"",""time""
""focus"",""1"",""113898""
""focus"",""1"",""144226""
","""event"",""trial"",""time""
""fullscreenenter"",""1"",""145240""
","
","","null","","null","","fixation","2021-04-05 04:47:07.682","","","","","",""
"card-selection-trial","40","401404","0.0-17.0-1.2","A130","true","img/card_backs/set1/red.gif","img/card_backs/set1/yellow.gif","img/card_backs/set1/purple.gif","img/card_backs/set1/green.gif","img/card_backs/set2/pink.gif","img/card_backs/set2/blue.gif","img/card_backs/set2/gray.gif","img/card_backs/set2/orange.gif","""event"",""trial"",""time""
""blur"",""0"",""0""
""focus"",""1"",""113898""
""blur"",""1"",""116054""
""focus"",""1"",""144226""
""fullscreenenter"",""1"",""145240""
","""event"",""trial"",""time""
""blur"",""0"",""0""
""blur"",""1"",""116054""
","""event"",""trial"",""time""
""focus"",""1"",""113898""
""focus"",""1"",""144226""
","""event"",""trial"",""time""
""fullscreenenter"",""1"",""145240""
","
","","2173.204999999143","","","","practice","2021-04-05 04:47:11.865","img/practice_cards/backs/dark_green.gif","2","200","0","",""
"casino-fixation","41","401909","0.0-17.0-0.3","A130","true","img/card_backs/set1/red.gif","img/card_backs/set1/yellow.gif","img/card_backs/set1/purple.gif","img/card_backs/set1/green.gif","img/card_backs/set2/pink.gif","img/card_backs/set2/blue.gif","img/card_backs/set2/gray.gif","img/card_backs/set2/orange.gif","""event"",""trial"",""time""
""blur"",""0"",""0""
""focus"",""1"",""113898""
""blur"",""1"",""116054""
""focus"",""1"",""144226""
""fullscreenenter"",""1"",""145240""
","""event"",""trial"",""time""
""blur"",""0"",""0""
""blur"",""1"",""116054""
","""event"",""trial"",""time""
""focus"",""1"",""113898""
""focus"",""1"",""144226""
","""event"",""trial"",""time""
""fullscreenenter"",""1"",""145240""
","
","","null","","null","","fixation","2021-04-05 04:47:12.370","","","","","",""
"card-selection-trial","42","404594","0.0-17.0-1.3","A130","true","img/card_backs/set1/red.gif","img/card_backs/set1/yellow.gif","img/card_backs/set1/purple.gif","img/card_backs/set1/green.gif","img/card_backs/set2/pink.gif","img/card_backs/set2/blue.gif","img/card_backs/set2/gray.gif","img/card_backs/set2/orange.gif","""event"",""trial"",""time""
""blur"",""0"",""0""
""focus"",""1"",""113898""
""blur"",""1"",""116054""
""focus"",""1"",""144226""
""fullscreenenter"",""1"",""145240""
","""event"",""trial"",""time""
""blur"",""0"",""0""
""blur"",""1"",""116054""
","""event"",""trial"",""time""
""focus"",""1"",""113898""
""focus"",""1"",""144226""
","""event"",""trial"",""time""
""fullscreenenter"",""1"",""145240""
","
","","671.1649999488145","","","","practice","2021-04-05 04:47:15.055","img/practice_cards/backs/dark_green.gif","0","200","0","",""
"casino-fixation","43","405098","0.0-17.0-0.4","A130","true","img/card_backs/set1/red.gif","img/card_backs/set1/yellow.gif","img/card_backs/set1/purple.gif","img/card_backs/set1/green.gif","img/card_backs/set2/pink.gif","img/card_backs/set2/blue.gif","img/card_backs/set2/gray.gif","img/card_backs/set2/orange.gif","""event"",""trial"",""time""
""blur"",""0"",""0""
""focus"",""1"",""113898""
""blur"",""1"",""116054""
""focus"",""1"",""144226""
""fullscreenenter"",""1"",""145240""
","""event"",""trial"",""time""
""blur"",""0"",""0""
""blur"",""1"",""116054""
","""event"",""trial"",""time""
""focus"",""1"",""113898""
""focus"",""1"",""144226""
","""event"",""trial"",""time""
""fullscreenenter"",""1"",""145240""
","
","","null","","null","","fixation","2021-04-05 04:47:15.560","","","","","",""
"card-selection-trial","44","407972","0.0-17.0-1.4","A130","true","img/card_backs/set1/red.gif","img/card_backs/set1/yellow.gif","img/card_backs/set1/purple.gif","img/card_backs/set1/green.gif","img/card_backs/set2/pink.gif","img/card_backs/set2/blue.gif","img/card_backs/set2/gray.gif","img/card_backs/set2/orange.gif","""event"",""trial"",""time""
""blur"",""0"",""0""
""focus"",""1"",""113898""
""blur"",""1"",""116054""
""focus"",""1"",""144226""
""fullscreenenter"",""1"",""145240""
","""event"",""trial"",""time""
""blur"",""0"",""0""
""blur"",""1"",""116054""
","""event"",""trial"",""time""
""focus"",""1"",""113898""
""focus"",""1"",""144226""
","""event"",""trial"",""time""
""fullscreenenter"",""1"",""145240""
","
","","860.91500002658","","","","practice","2021-04-05 04:47:18.434","img/practice_cards/backs/dark_green.gif","2","200","0","",""
"casino-fixation","45","408478","0.0-17.0-0.5","A130","true","img/card_backs/set1/red.gif","img/card_backs/set1/yellow.gif","img/card_backs/set1/purple.gif","img/card_backs/set1/green.gif","img/card_backs/set2/pink.gif","img/card_backs/set2/blue.gif","img/card_backs/set2/gray.gif","img/card_backs/set2/orange.gif","""event"",""trial"",""time""
""blur"",""0"",""0""
""focus"",""1"",""113898""
""blur"",""1"",""116054""
""focus"",""1"",""144226""
""fullscreenenter"",""1"",""145240""
","""event"",""trial"",""time""
""blur"",""0"",""0""
""blur"",""1"",""116054""
","""event"",""trial"",""time""
""focus"",""1"",""113898""
""focus"",""1"",""144226""
","""event"",""trial"",""time""
""fullscreenenter"",""1"",""145240""
","
","","null","","null","","fixation","2021-04-05 04:47:18.939","","","","","",""
"card-selection-trial","46","412033","0.0-17.0-1.5","A130","true","img/card_backs/set1/red.gif","img/card_backs/set1/yellow.gif","img/card_backs/set1/purple.gif","img/card_backs/set1/green.gif","img/card_backs/set2/pink.gif","img/card_backs/set2/blue.gif","img/card_backs/set2/gray.gif","img/card_backs/set2/orange.gif","""event"",""trial"",""time""
""blur"",""0"",""0""
""focus"",""1"",""113898""
""blur"",""1"",""116054""
""focus"",""1"",""144226""
""fullscreenenter"",""1"",""145240""
","""event"",""trial"",""time""
""blur"",""0"",""0""
""blur"",""1"",""116054""
","""event"",""trial"",""time""
""focus"",""1"",""113898""
""focus"",""1"",""144226""
","""event"",""trial"",""time""
""fullscreenenter"",""1"",""145240""
","
","","1543.5799999977462","","","","practice","2021-04-05 04:47:22.494","img/practice_cards/backs/brown.gif","3","100","0","",""
"casino-fixation","47","412537","0.0-17.0-0.6","A130","true","img/card_backs/set1/red.gif","img/card_backs/set1/yellow.gif","img/card_backs/set1/purple.gif","img/card_backs/set1/green.gif","img/card_backs/set2/pink.gif","img/card_backs/set2/blue.gif","img/card_backs/set2/gray.gif","img/card_backs/set2/orange.gif","""event"",""trial"",""time""
""blur"",""0"",""0""
""focus"",""1"",""113898""
""blur"",""1"",""116054""
""focus"",""1"",""144226""
""fullscreenenter"",""1"",""145240""
","""event"",""trial"",""time""
""blur"",""0"",""0""
""blur"",""1"",""116054""
","""event"",""trial"",""time""
""focus"",""1"",""113898""
""focus"",""1"",""144226""
","""event"",""trial"",""time""
""fullscreenenter"",""1"",""145240""
","
","","null","","null","","fixation","2021-04-05 04:47:22.998","","","","","",""
"card-selection-trial","48","415877","0.0-17.0-1.6","A130","true","img/card_backs/set1/red.gif","img/card_backs/set1/yellow.gif","img/card_backs/set1/purple.gif","img/card_backs/set1/green.gif","img/card_backs/set2/pink.gif","img/card_backs/set2/blue.gif","img/card_backs/set2/gray.gif","img/card_backs/set2/orange.gif","""event"",""trial"",""time""
""blur"",""0"",""0""
""focus"",""1"",""113898""
""blur"",""1"",""116054""
""focus"",""1"",""144226""
""fullscreenenter"",""1"",""145240""
","""event"",""trial"",""time""
""blur"",""0"",""0""
""blur"",""1"",""116054""
","""event"",""trial"",""time""
""focus"",""1"",""113898""
""focus"",""1"",""144226""
","""event"",""trial"",""time""
""fullscreenenter"",""1"",""145240""
","
","","1330.3750000195578","","","","practice","2021-04-05 04:47:26.339","img/practice_cards/backs/dark_blue.gif","0","-200","0","",""
"casino-fixation","49","416388","0.0-17.0-0.7","A130","true","img/card_backs/set1/red.gif","img/card_backs/set1/yellow.gif","img/card_backs/set1/purple.gif","img/card_backs/set1/green.gif","img/card_backs/set2/pink.gif","img/card_backs/set2/blue.gif","img/card_backs/set2/gray.gif","img/card_backs/set2/orange.gif","""event"",""trial"",""time""
""blur"",""0"",""0""
""focus"",""1"",""113898""
""blur"",""1"",""116054""
""focus"",""1"",""144226""
""fullscreenenter"",""1"",""145240""
","""event"",""trial"",""time""
""blur"",""0"",""0""
""blur"",""1"",""116054""
","""event"",""trial"",""time""
""focus"",""1"",""113898""
""focus"",""1"",""144226""
","""event"",""trial"",""time""
""fullscreenenter"",""1"",""145240""
","
","","null","","null","","fixation","2021-04-05 04:47:26.849","","","","","",""
"card-selection-trial","50","418872","0.0-17.0-1.7","A130","true","img/card_backs/set1/red.gif","img/card_backs/set1/yellow.gif","img/card_backs/set1/purple.gif","img/card_backs/set1/green.gif","img/card_backs/set2/pink.gif","img/card_backs/set2/blue.gif","img/card_backs/set2/gray.gif","img/card_backs/set2/orange.gif","""event"",""trial"",""time""
""blur"",""0"",""0""
""focus"",""1"",""113898""
""blur"",""1"",""116054""
""focus"",""1"",""144226""
""fullscreenenter"",""1"",""145240""
","""event"",""trial"",""time""
""blur"",""0"",""0""
""blur"",""1"",""116054""
","""event"",""trial"",""time""
""focus"",""1"",""113898""
""focus"",""1"",""144226""
","""event"",""trial"",""time""
""fullscreenenter"",""1"",""145240""
","
","","470.0450000236742","","","","practice","2021-04-05 04:47:29.334","img/practice_cards/backs/dark_blue.gif","0","200","0","",""
"casino-fixation","51","419377","0.0-17.0-0.8","A130","true","img/card_backs/set1/red.gif","img/card_backs/set1/yellow.gif","img/card_backs/set1/purple.gif","img/card_backs/set1/green.gif","img/card_backs/set2/pink.gif","img/card_backs/set2/blue.gif","img/card_backs/set2/gray.gif","img/card_backs/set2/orange.gif","""event"",""trial"",""time""
""blur"",""0"",""0""
""focus"",""1"",""113898""
""blur"",""1"",""116054""
""focus"",""1"",""144226""
""fullscreenenter"",""1"",""145240""
","""event"",""trial"",""time""
""blur"",""0"",""0""
""blur"",""1"",""116054""
","""event"",""trial"",""time""
""focus"",""1"",""113898""
""focus"",""1"",""144226""
","""event"",""trial"",""time""
""fullscreenenter"",""1"",""145240""
","
","","null","","null","","fixation","2021-04-05 04:47:29.838","","","","","",""
"card-selection-trial","52","421872","0.0-17.0-1.8","A130","true","img/card_backs/set1/red.gif","img/card_backs/set1/yellow.gif","img/card_backs/set1/purple.gif","img/card_backs/set1/green.gif","img/card_backs/set2/pink.gif","img/card_backs/set2/blue.gif","img/card_backs/set2/gray.gif","img/card_backs/set2/orange.gif","""event"",""trial"",""time""
""blur"",""0"",""0""
""focus"",""1"",""113898""
""blur"",""1"",""116054""
""focus"",""1"",""144226""
""fullscreenenter"",""1"",""145240""
","""event"",""trial"",""time""
""blur"",""0"",""0""
""blur"",""1"",""116054""
","""event"",""trial"",""time""
""focus"",""1"",""113898""
""focus"",""1"",""144226""
","""event"",""trial"",""time""
""fullscreenenter"",""1"",""145240""
","
","","480.4149999981746","","","","practice","2021-04-05 04:47:32.333","img/practice_cards/backs/dark_blue.gif","0","200","0","",""
"casino-fixation","53","422377","0.0-17.0-0.9","A130","true","img/card_backs/set1/red.gif","img/card_backs/set1/yellow.gif","img/card_backs/set1/purple.gif","img/card_backs/set1/green.gif","img/card_backs/set2/pink.gif","img/card_backs/set2/blue.gif","img/card_backs/set2/gray.gif","img/card_backs/set2/orange.gif","""event"",""trial"",""time""
""blur"",""0"",""0""
""focus"",""1"",""113898""
""blur"",""1"",""116054""
""focus"",""1"",""144226""
""fullscreenenter"",""1"",""145240""
","""event"",""trial"",""time""
""blur"",""0"",""0""
""blur"",""1"",""116054""
","""event"",""trial"",""time""
""focus"",""1"",""113898""
""focus"",""1"",""144226""
","""event"",""trial"",""time""
""fullscreenenter"",""1"",""145240""
","
","","null","","null","","fixation","2021-04-05 04:47:32.838","","","","","",""
"card-selection-trial","54","425266","0.0-17.0-1.9","A130","true","img/card_backs/set1/red.gif","img/card_backs/set1/yellow.gif","img/card_backs/set1/purple.gif","img/card_backs/set1/green.gif","img/card_backs/set2/pink.gif","img/card_backs/set2/blue.gif","img/card_backs/set2/gray.gif","img/card_backs/set2/orange.gif","""event"",""trial"",""time""
""blur"",""0"",""0""
""focus"",""1"",""113898""
""blur"",""1"",""116054""
""focus"",""1"",""144226""
""fullscreenenter"",""1"",""145240""
","""event"",""trial"",""time""
""blur"",""0"",""0""
""blur"",""1"",""116054""
","""event"",""trial"",""time""
""focus"",""1"",""113898""
""focus"",""1"",""144226""
","""event"",""trial"",""time""
""fullscreenenter"",""1"",""145240""
","
","","876.54000002658","","","","practice","2021-04-05 04:47:35.728","img/practice_cards/backs/dark_blue.gif","1","-200","0","",""
"casino-keyboard-response","55","428188","0.0-18.0","A130","true","img/card_backs/set1/red.gif","img/card_backs/set1/yellow.gif","img/card_backs/set1/purple.gif","img/card_backs/set1/green.gif","img/card_backs/set2/pink.gif","img/card_backs/set2/blue.gif","img/card_backs/set2/gray.gif","img/card_backs/set2/orange.gif","""event"",""trial"",""time""
""blur"",""0"",""0""
""focus"",""1"",""113898""
""blur"",""1"",""116054""
""focus"",""1"",""144226""
""fullscreenenter"",""1"",""145240""
","""event"",""trial"",""time""
""blur"",""0"",""0""
""blur"",""1"",""116054""
","""event"",""trial"",""time""
""focus"",""1"",""113898""
""focus"",""1"",""144226""
","""event"",""trial"",""time""
""fullscreenenter"",""1"",""145240""
","
","","2919.3349999841303","You earned 800 tokens during the practice round!","82","","","2021-04-05 04:47:38.650","","","","","",""
"casino-keyboard-response","56","432323","0.0-19.0-0.0","A130","true","img/card_backs/set1/red.gif","img/card_backs/set1/yellow.gif","img/card_backs/set1/purple.gif","img/card_backs/set1/green.gif","img/card_backs/set2/pink.gif","img/card_backs/set2/blue.gif","img/card_backs/set2/gray.gif","img/card_backs/set2/orange.gif","""event"",""trial"",""time""
""blur"",""0"",""0""
""focus"",""1"",""113898""
""blur"",""1"",""116054""
""focus"",""1"",""144226""
""fullscreenenter"",""1"",""145240""
","""event"",""trial"",""time""
""blur"",""0"",""0""
""blur"",""1"",""116054""
","""event"",""trial"",""time""
""focus"",""1"",""113898""
""focus"",""1"",""144226""
","""event"",""trial"",""time""
""fullscreenenter"",""1"",""145240""
","
","","4131.835000007413","Nice job! You are almost ready to play the real game.","86","","instructions","2021-04-05 04:47:42.784","","","","","",""
"casino-keyboard-response","57","438784","0.0-19.0-0.1","A130","true","img/card_backs/set1/red.gif","img/card_backs/set1/yellow.gif","img/card_backs/set1/purple.gif","img/card_backs/set1/green.gif","img/card_backs/set2/pink.gif","img/card_backs/set2/blue.gif","img/card_backs/set2/gray.gif","img/card_backs/set2/orange.gif","""event"",""trial"",""time""
""blur"",""0"",""0""
""focus"",""1"",""113898""
""blur"",""1"",""116054""
""focus"",""1"",""144226""
""fullscreenenter"",""1"",""145240""
","""event"",""trial"",""time""
""blur"",""0"",""0""
""blur"",""1"",""116054""
","""event"",""trial"",""time""
""focus"",""1"",""113898""
""focus"",""1"",""144226""
","""event"",""trial"",""time""
""fullscreenenter"",""1"",""145240""
","
","","6458.45500001451","You will play two rounds of the real game. In each round, you will pick 100 cards in total.","73","","instructions","2021-04-05 04:47:49.245","","","","","",""
"casino-keyboard-response","58","442736","0.0-19.0-0.2","A130","true","img/card_backs/set1/red.gif","img/card_backs/set1/yellow.gif","img/card_backs/set1/purple.gif","img/card_backs/set1/green.gif","img/card_backs/set2/pink.gif","img/card_backs/set2/blue.gif","img/card_backs/set2/gray.gif","img/card_backs/set2/orange.gif","""event"",""trial"",""time""
""blur"",""0"",""0""
""focus"",""1"",""113898""
""blur"",""1"",""116054""
""focus"",""1"",""144226""
""fullscreenenter"",""1"",""145240""
","""event"",""trial"",""time""
""blur"",""0"",""0""
""blur"",""1"",""116054""
","""event"",""trial"",""time""
""focus"",""1"",""113898""
""focus"",""1"",""144226""
","""event"",""trial"",""time""
""fullscreenenter"",""1"",""145240""
","
","","3948.625000019092","We are now going to ask you some questions about how the game works.","66","","instructions","2021-04-05 04:47:53.197","","","","","",""
"casino-keyboard-response","59","448696","0.0-19.0-0.3","A130","true","img/card_backs/set1/red.gif","img/card_backs/set1/yellow.gif","img/card_backs/set1/purple.gif","img/card_backs/set1/green.gif","img/card_backs/set2/pink.gif","img/card_backs/set2/blue.gif","img/card_backs/set2/gray.gif","img/card_backs/set2/orange.gif","""event"",""trial"",""time""
""blur"",""0"",""0""
""focus"",""1"",""113898""
""blur"",""1"",""116054""
""focus"",""1"",""144226""
""fullscreenenter"",""1"",""145240""
","""event"",""trial"",""time""
""blur"",""0"",""0""
""blur"",""1"",""116054""
","""event"",""trial"",""time""
""focus"",""1"",""113898""
""focus"",""1"",""144226""
","""event"",""trial"",""time""
""fullscreenenter"",""1"",""145240""
","
","","5957.250000035856","Answer carefully. You will not be able to begin the game until you answer them correctly.","67","","instructions","2021-04-05 04:47:59.157","","","","","",""
"casino-comp_q","60","453337","0.0-20.0-0.0","A130","true","img/card_backs/set1/red.gif","img/card_backs/set1/yellow.gif","img/card_backs/set1/purple.gif","img/card_backs/set1/green.gif","img/card_backs/set2/pink.gif","img/card_backs/set2/blue.gif","img/card_backs/set2/gray.gif","img/card_backs/set2/orange.gif","""event"",""trial"",""time""
""blur"",""0"",""0""
""focus"",""1"",""113898""
""blur"",""1"",""116054""
""focus"",""1"",""144226""
""fullscreenenter"",""1"",""145240""
","""event"",""trial"",""time""
""blur"",""0"",""0""
""blur"",""1"",""116054""
","""event"",""trial"",""time""
""focus"",""1"",""113898""
""focus"",""1"",""144226""
","""event"",""trial"",""time""
""fullscreenenter"",""1"",""145240""
","
","","4638.0450000287965","True or False: All the decks have some cards that cause you to win tokens and some cards that cause you to lose tokens.","84","","","2021-04-05 04:48:03.798","","","","","",""
"casino-keyboard-response","61","456434","0.0-20.0-1.0","A130","true","img/card_backs/set1/red.gif","img/card_backs/set1/yellow.gif","img/card_backs/set1/purple.gif","img/card_backs/set1/green.gif","img/card_backs/set2/pink.gif","img/card_backs/set2/blue.gif","img/card_backs/set2/gray.gif","img/card_backs/set2/orange.gif","""event"",""trial"",""time""
""blur"",""0"",""0""
""focus"",""1"",""113898""
""blur"",""1"",""116054""
""focus"",""1"",""144226""
""fullscreenenter"",""1"",""145240""
","""event"",""trial"",""time""
""blur"",""0"",""0""
""blur"",""1"",""116054""
","""event"",""trial"",""time""
""focus"",""1"",""113898""
""focus"",""1"",""144226""
","""event"",""trial"",""time""
""fullscreenenter"",""1"",""145240""
","
","","3093.9999999827705","True is correct! All the decks have a mix of winning and losing cards.","77","","","2021-04-05 04:48:06.895","","","","","true",""
"casino-comp_q","62","459752","0.0-21.0-0.0","A130","true","img/card_backs/set1/red.gif","img/card_backs/set1/yellow.gif","img/card_backs/set1/purple.gif","img/card_backs/set1/green.gif","img/card_backs/set2/pink.gif","img/card_backs/set2/blue.gif","img/card_backs/set2/gray.gif","img/card_backs/set2/orange.gif","""event"",""trial"",""time""
""blur"",""0"",""0""
""focus"",""1"",""113898""
""blur"",""1"",""116054""
""focus"",""1"",""144226""
""fullscreenenter"",""1"",""145240""
","""event"",""trial"",""time""
""blur"",""0"",""0""
""blur"",""1"",""116054""
","""event"",""trial"",""time""
""focus"",""1"",""113898""
""focus"",""1"",""144226""
","""event"",""trial"",""time""
""fullscreenenter"",""1"",""145240""
","
","","3314.8800000199117","True or False: You will have as much time as you want to make your response.","70","","","2021-04-05 04:48:10.213","","","","","",""
"casino-keyboard-response","63","462589","0.0-21.0-1.0","A130","true","img/card_backs/set1/red.gif","img/card_backs/set1/yellow.gif","img/card_backs/set1/purple.gif","img/card_backs/set1/green.gif","img/card_backs/set2/pink.gif","img/card_backs/set2/blue.gif","img/card_backs/set2/gray.gif","img/card_backs/set2/orange.gif","""event"",""trial"",""time""
""blur"",""0"",""0""
""focus"",""1"",""113898""
""blur"",""1"",""116054""
""focus"",""1"",""144226""
""fullscreenenter"",""1"",""145240""
","""event"",""trial"",""time""
""blur"",""0"",""0""
""blur"",""1"",""116054""
","""event"",""trial"",""time""
""focus"",""1"",""113898""
""focus"",""1"",""144226""
","""event"",""trial"",""time""
""fullscreenenter"",""1"",""145240""
","
","","2834.249999956228","False is correct! You will only have 10 seconds to make each choice.","75","","","2021-04-05 04:48:13.050","","","","","true",""
"casino-comp_q","64","465598","0.0-22.0-0.0","A130","true","img/card_backs/set1/red.gif","img/card_backs/set1/yellow.gif","img/card_backs/set1/purple.gif","img/card_backs/set1/green.gif","img/card_backs/set2/pink.gif","img/card_backs/set2/blue.gif","img/card_backs/set2/gray.gif","img/card_backs/set2/orange.gif","""event"",""trial"",""time""
""blur"",""0"",""0""
""focus"",""1"",""113898""
""blur"",""1"",""116054""
""focus"",""1"",""144226""
""fullscreenenter"",""1"",""145240""
","""event"",""trial"",""time""
""blur"",""0"",""0""
""blur"",""1"",""116054""
","""event"",""trial"",""time""
""focus"",""1"",""113898""
""focus"",""1"",""144226""
","""event"",""trial"",""time""
""fullscreenenter"",""1"",""145240""
","
","","3007.080000010319","True or False: The location of the deck determines how lucky it is.","70","","","2021-04-05 04:48:16.059","","","","","",""
"casino-keyboard-response","65","468227","0.0-22.0-1.0","A130","true","img/card_backs/set1/red.gif","img/card_backs/set1/yellow.gif","img/card_backs/set1/purple.gif","img/card_backs/set1/green.gif","img/card_backs/set2/pink.gif","img/card_backs/set2/blue.gif","img/card_backs/set2/gray.gif","img/card_backs/set2/orange.gif","""event"",""trial"",""time""
""blur"",""0"",""0""
""focus"",""1"",""113898""
""blur"",""1"",""116054""
""focus"",""1"",""144226""
""fullscreenenter"",""1"",""145240""
","""event"",""trial"",""time""
""blur"",""0"",""0""
""blur"",""1"",""116054""
","""event"",""trial"",""time""
""focus"",""1"",""113898""
""focus"",""1"",""144226""
","""event"",""trial"",""time""
""fullscreenenter"",""1"",""145240""
","
","","2625.99999998929","False is correct! The <i>color</i>  of the deck determines how lucky or unlucky it is.","68","","","2021-04-05 04:48:18.688","","","","","true",""
"casino-keyboard-response","66","472048","0.0-23.0-0.0","A130","true","img/card_backs/set1/red.gif","img/card_backs/set1/yellow.gif","img/card_backs/set1/purple.gif","img/card_backs/set1/green.gif","img/card_backs/set2/pink.gif","img/card_backs/set2/blue.gif","img/card_backs/set2/gray.gif","img/card_backs/set2/orange.gif","""event"",""trial"",""time""
""blur"",""0"",""0""
""focus"",""1"",""113898""
""blur"",""1"",""116054""
""focus"",""1"",""144226""
""fullscreenenter"",""1"",""145240""
","""event"",""trial"",""time""
""blur"",""0"",""0""
""blur"",""1"",""116054""
","""event"",""trial"",""time""
""focus"",""1"",""113898""
""focus"",""1"",""144226""
","""event"",""trial"",""time""
""fullscreenenter"",""1"",""145240""
","
","","3818.9199999906123","Great job! Now it's time to start the real game.","82","","instructions","2021-04-05 04:48:22.509","","","","","",""
"casino-keyboard-response","67","476886","0.0-23.0-0.1","A130","true","img/card_backs/set1/red.gif","img/card_backs/set1/yellow.gif","img/card_backs/set1/purple.gif","img/card_backs/set1/green.gif","img/card_backs/set2/pink.gif","img/card_backs/set2/blue.gif","img/card_backs/set2/gray.gif","img/card_backs/set2/orange.gif","""event"",""trial"",""time""
""blur"",""0"",""0""
""focus"",""1"",""113898""
""blur"",""1"",""116054""
""focus"",""1"",""144226""
""fullscreenenter"",""1"",""145240""
","""event"",""trial"",""time""
""blur"",""0"",""0""
""blur"",""1"",""116054""
","""event"",""trial"",""time""
""focus"",""1"",""113898""
""focus"",""1"",""144226""
","""event"",""trial"",""time""
""fullscreenenter"",""1"",""145240""
","
","","4835.374999966007","Before we start, we're going to head into a new room of the casino.","86","","instructions","2021-04-05 04:48:27.347","","","","","",""
"casino-keyboard-response","68","482712","0.0-24.0-0.0","A130","true","img/card_backs/set1/red.gif","img/card_backs/set1/yellow.gif","img/card_backs/set1/purple.gif","img/card_backs/set1/green.gif","img/card_backs/set2/pink.gif","img/card_backs/set2/blue.gif","img/card_backs/set2/gray.gif","img/card_backs/set2/orange.gif","""event"",""trial"",""time""
""blur"",""0"",""0""
""focus"",""1"",""113898""
""blur"",""1"",""116054""
""focus"",""1"",""144226""
""fullscreenenter"",""1"",""145240""
","""event"",""trial"",""time""
""blur"",""0"",""0""
""blur"",""1"",""116054""
","""event"",""trial"",""time""
""focus"",""1"",""113898""
""focus"",""1"",""144226""
","""event"",""trial"",""time""
""fullscreenenter"",""1"",""145240""
","
","","5823.875000001863","Here we are! The real game will use different cards, but the rules will be the same.","71","","instructions","2021-04-05 04:48:33.173","","","","","",""
"casino-keyboard-response","69","485149","0.0-24.0-0.1","A130","true","img/card_backs/set1/red.gif","img/card_backs/set1/yellow.gif","img/card_backs/set1/purple.gif","img/card_backs/set1/green.gif","img/card_backs/set2/pink.gif","img/card_backs/set2/blue.gif","img/card_backs/set2/gray.gif","img/card_backs/set2/orange.gif","""event"",""trial"",""time""
""blur"",""0"",""0""
""focus"",""1"",""113898""
""blur"",""1"",""116054""
""focus"",""1"",""144226""
""fullscreenenter"",""1"",""145240""
","""event"",""trial"",""time""
""blur"",""0"",""0""
""blur"",""1"",""116054""
","""event"",""trial"",""time""
""focus"",""1"",""113898""
""focus"",""1"",""144226""
","""event"",""trial"",""time""
""fullscreenenter"",""1"",""145240""
","
","","2434.4599999603815","Ready? Put your fingers over the '2', '4', 6', and '8' keys so you are ready to play the game. </br> Then press 2 to start.","50","","instructions","2021-04-05 04:48:35.610","","","","","",""
"casino-fixation","70","485651","0.0-25.0-0.0","A130","true","img/card_backs/set1/red.gif","img/card_backs/set1/yellow.gif","img/card_backs/set1/purple.gif","img/card_backs/set1/green.gif","img/card_backs/set2/pink.gif","img/card_backs/set2/blue.gif","img/card_backs/set2/gray.gif","img/card_backs/set2/orange.gif","""event"",""trial"",""time""
""blur"",""0"",""0""
""focus"",""1"",""113898""
""blur"",""1"",""116054""
""focus"",""1"",""144226""
""fullscreenenter"",""1"",""145240""
","""event"",""trial"",""time""
""blur"",""0"",""0""
""blur"",""1"",""116054""
","""event"",""trial"",""time""
""focus"",""1"",""113898""
""focus"",""1"",""144226""
","""event"",""trial"",""time""
""fullscreenenter"",""1"",""145240""
","
","","null","","null","","fixation","2021-04-05 04:48:36.113","","","","","",""
"card-selection-trial","71","488591","0.0-25.0-1.0","A130","true","img/card_backs/set1/red.gif","img/card_backs/set1/yellow.gif","img/card_backs/set1/purple.gif","img/card_backs/set1/green.gif","img/card_backs/set2/pink.gif","img/card_backs/set2/blue.gif","img/card_backs/set2/gray.gif","img/card_backs/set2/orange.gif","""event"",""trial"",""time""
""blur"",""0"",""0""
""focus"",""1"",""113898""
""blur"",""1"",""116054""
""focus"",""1"",""144226""
""fullscreenenter"",""1"",""145240""
","""event"",""trial"",""time""
""blur"",""0"",""0""
""blur"",""1"",""116054""
","""event"",""trial"",""time""
""focus"",""1"",""113898""
""focus"",""1"",""144226""
","""event"",""trial"",""time""
""fullscreenenter"",""1"",""145240""
","
","","929.2500000447035","","","","real_trial","2021-04-05 04:48:39.053","img/card_backs/set1/yellow.gif","0","260","1","",""
"casino-fixation","72","489097","0.0-25.0-0.1","A130","true","img/card_backs/set1/red.gif","img/card_backs/set1/yellow.gif","img/card_backs/set1/purple.gif","img/card_backs/set1/green.gif","img/card_backs/set2/pink.gif","img/card_backs/set2/blue.gif","img/card_backs/set2/gray.gif","img/card_backs/set2/orange.gif","""event"",""trial"",""time""
""blur"",""0"",""0""
""focus"",""1"",""113898""
""blur"",""1"",""116054""
""focus"",""1"",""144226""
""fullscreenenter"",""1"",""145240""
","""event"",""trial"",""time""
""blur"",""0"",""0""
""blur"",""1"",""116054""
","""event"",""trial"",""time""
""focus"",""1"",""113898""
""focus"",""1"",""144226""
","""event"",""trial"",""time""
""fullscreenenter"",""1"",""145240""
","
","","null","","null","","fixation","2021-04-05 04:48:39.558","","","","","",""
"card-selection-trial","73","492652","0.0-25.0-1.1","A130","true","img/card_backs/set1/red.gif","img/card_backs/set1/yellow.gif","img/card_backs/set1/purple.gif","img/card_backs/set1/green.gif","img/card_backs/set2/pink.gif","img/card_backs/set2/blue.gif","img/card_backs/set2/gray.gif","img/card_backs/set2/orange.gif","""event"",""trial"",""time""
""blur"",""0"",""0""
""focus"",""1"",""113898""
""blur"",""1"",""116054""
""focus"",""1"",""144226""
""fullscreenenter"",""1"",""145240""
","""event"",""trial"",""time""
""blur"",""0"",""0""
""blur"",""1"",""116054""
","""event"",""trial"",""time""
""focus"",""1"",""113898""
""focus"",""1"",""144226""
","""event"",""trial"",""time""
""fullscreenenter"",""1"",""145240""
","
","","1541.8350000400096","","","","real_trial","2021-04-05 04:48:43.113","img/card_backs/set1/red.gif","2","240","1","",""
"casino-fixation","74","493159","0.0-25.0-0.2","A130","true","img/card_backs/set1/red.gif","img/card_backs/set1/yellow.gif","img/card_backs/set1/purple.gif","img/card_backs/set1/green.gif","img/card_backs/set2/pink.gif","img/card_backs/set2/blue.gif","img/card_backs/set2/gray.gif","img/card_backs/set2/orange.gif","""event"",""trial"",""time""
""blur"",""0"",""0""
""focus"",""1"",""113898""
""blur"",""1"",""116054""
""focus"",""1"",""144226""
""fullscreenenter"",""1"",""145240""
","""event"",""trial"",""time""
""blur"",""0"",""0""
""blur"",""1"",""116054""
","""event"",""trial"",""time""
""focus"",""1"",""113898""
""focus"",""1"",""144226""
","""event"",""trial"",""time""
""fullscreenenter"",""1"",""145240""
","
","","null","","null","","fixation","2021-04-05 04:48:43.620","","","","","",""
"card-selection-trial","75","496217","0.0-25.0-1.2","A130","true","img/card_backs/set1/red.gif","img/card_backs/set1/yellow.gif","img/card_backs/set1/purple.gif","img/card_backs/set1/green.gif","img/card_backs/set2/pink.gif","img/card_backs/set2/blue.gif","img/card_backs/set2/gray.gif","img/card_backs/set2/orange.gif","""event"",""trial"",""time""
""blur"",""0"",""0""
""focus"",""1"",""113898""
""blur"",""1"",""116054""
""focus"",""1"",""144226""
""fullscreenenter"",""1"",""145240""
","""event"",""trial"",""time""
""blur"",""0"",""0""
""blur"",""1"",""116054""
","""event"",""trial"",""time""
""focus"",""1"",""113898""
""focus"",""1"",""144226""
","""event"",""trial"",""time""
""fullscreenenter"",""1"",""145240""
","
","","1045.4149999422953","","","","real_trial","2021-04-05 04:48:46.678","img/card_backs/set1/green.gif","1","-100","1","",""
"casino-fixation","76","496725","0.0-25.0-0.3","A130","true","img/card_backs/set1/red.gif","img/card_backs/set1/yellow.gif","img/card_backs/set1/purple.gif","img/card_backs/set1/green.gif","img/card_backs/set2/pink.gif","img/card_backs/set2/blue.gif","img/card_backs/set2/gray.gif","img/card_backs/set2/orange.gif","""event"",""trial"",""time""
""blur"",""0"",""0""
""focus"",""1"",""113898""
""blur"",""1"",""116054""
""focus"",""1"",""144226""
""fullscreenenter"",""1"",""145240""
","""event"",""trial"",""time""
""blur"",""0"",""0""
""blur"",""1"",""116054""
","""event"",""trial"",""time""
""focus"",""1"",""113898""
""focus"",""1"",""144226""
","""event"",""trial"",""time""
""fullscreenenter"",""1"",""145240""
","
","","null","","null","","fixation","2021-04-05 04:48:47.186","","","","","",""
"card-selection-trial","77","499786","0.0-25.0-1.3","A130","true","img/card_backs/set1/red.gif","img/card_backs/set1/yellow.gif","img/card_backs/set1/purple.gif","img/card_backs/set1/green.gif","img/card_backs/set2/pink.gif","img/card_backs/set2/blue.gif","img/card_backs/set2/gray.gif","img/card_backs/set2/orange.gif","""event"",""trial"",""time""
""blur"",""0"",""0""
""focus"",""1"",""113898""
""blur"",""1"",""116054""
""focus"",""1"",""144226""
""fullscreenenter"",""1"",""145240""
","""event"",""trial"",""time""
""blur"",""0"",""0""
""blur"",""1"",""116054""
","""event"",""trial"",""time""
""focus"",""1"",""113898""
""focus"",""1"",""144226""
","""event"",""trial"",""time""
""fullscreenenter"",""1"",""145240""
","
","","1047.6250000065193","","","","real_trial","2021-04-05 04:48:50.247","img/card_backs/set1/green.gif","3","60","1","",""
"casino-fixation","78","500293","0.0-25.0-0.4","A130","true","img/card_backs/set1/red.gif","img/card_backs/set1/yellow.gif","img/card_backs/set1/purple.gif","img/card_backs/set1/green.gif","img/card_backs/set2/pink.gif","img/card_backs/set2/blue.gif","img/card_backs/set2/gray.gif","img/card_backs/set2/orange.gif","""event"",""trial"",""time""
""blur"",""0"",""0""
""focus"",""1"",""113898""
""blur"",""1"",""116054""
""focus"",""1"",""144226""
""fullscreenenter"",""1"",""145240""
","""event"",""trial"",""time""
""blur"",""0"",""0""
""blur"",""1"",""116054""
","""event"",""trial"",""time""
""focus"",""1"",""113898""
""focus"",""1"",""144226""
","""event"",""trial"",""time""
""fullscreenenter"",""1"",""145240""
","
","","null","","null","","fixation","2021-04-05 04:48:50.755","","","","","",""
"card-selection-trial","79","503252","0.0-25.0-1.4","A130","true","img/card_backs/set1/red.gif","img/card_backs/set1/yellow.gif","img/card_backs/set1/purple.gif","img/card_backs/set1/green.gif","img/card_backs/set2/pink.gif","img/card_backs/set2/blue.gif","img/card_backs/set2/gray.gif","img/card_backs/set2/orange.gif","""event"",""trial"",""time""
""blur"",""0"",""0""
""focus"",""1"",""113898""
""blur"",""1"",""116054""
""focus"",""1"",""144226""
""fullscreenenter"",""1"",""145240""
","""event"",""trial"",""time""
""blur"",""0"",""0""
""blur"",""1"",""116054""
","""event"",""trial"",""time""
""focus"",""1"",""113898""
""focus"",""1"",""144226""
","""event"",""trial"",""time""
""fullscreenenter"",""1"",""145240""
","
","","947.6249999715947","","","","real_trial","2021-04-05 04:48:53.713","img/card_backs/set1/purple.gif","2","-110","1","",""
"casino-fixation","80","503759","0.0-25.0-0.5","A130","true","img/card_backs/set1/red.gif","img/card_backs/set1/yellow.gif","img/card_backs/set1/purple.gif","img/card_backs/set1/green.gif","img/card_backs/set2/pink.gif","img/card_backs/set2/blue.gif","img/card_backs/set2/gray.gif","img/card_backs/set2/orange.gif","""event"",""trial"",""time""
""blur"",""0"",""0""
""focus"",""1"",""113898""
""blur"",""1"",""116054""
""focus"",""1"",""144226""
""fullscreenenter"",""1"",""145240""
","""event"",""trial"",""time""
""blur"",""0"",""0""
""blur"",""1"",""116054""
","""event"",""trial"",""time""
""focus"",""1"",""113898""
""focus"",""1"",""144226""
","""event"",""trial"",""time""
""fullscreenenter"",""1"",""145240""
","
","","null","","null","","fixation","2021-04-05 04:48:54.220","","","","","",""
"card-selection-trial","81","507374","0.0-25.0-1.5","A130","true","img/card_backs/set1/red.gif","img/card_backs/set1/yellow.gif","img/card_backs/set1/purple.gif","img/card_backs/set1/green.gif","img/card_backs/set2/pink.gif","img/card_backs/set2/blue.gif","img/card_backs/set2/gray.gif","img/card_backs/set2/orange.gif","""event"",""trial"",""time""
""blur"",""0"",""0""
""focus"",""1"",""113898""
""blur"",""1"",""116054""
""focus"",""1"",""144226""
""fullscreenenter"",""1"",""145240""
","""event"",""trial"",""time""
""blur"",""0"",""0""
""blur"",""1"",""116054""
","""event"",""trial"",""time""
""focus"",""1"",""113898""
""focus"",""1"",""144226""
","""event"",""trial"",""time""
""fullscreenenter"",""1"",""145240""
","
","","1600.8349999901839","","","","real_trial","2021-04-05 04:48:57.835","img/card_backs/set1/yellow.gif","0","260","1","",""
"casino-fixation","82","507877","0.0-25.0-0.6","A130","true","img/card_backs/set1/red.gif","img/card_backs/set1/yellow.gif","img/card_backs/set1/purple.gif","img/card_backs/set1/green.gif","img/card_backs/set2/pink.gif","img/card_backs/set2/blue.gif","img/card_backs/set2/gray.gif","img/card_backs/set2/orange.gif","""event"",""trial"",""time""
""blur"",""0"",""0""
""focus"",""1"",""113898""
""blur"",""1"",""116054""
""focus"",""1"",""144226""
""fullscreenenter"",""1"",""145240""
","""event"",""trial"",""time""
""blur"",""0"",""0""
""blur"",""1"",""116054""
","""event"",""trial"",""time""
""focus"",""1"",""113898""
""focus"",""1"",""144226""
","""event"",""trial"",""time""
""fullscreenenter"",""1"",""145240""
","
","","null","","null","","fixation","2021-04-05 04:48:58.338","","","","","",""
"card-selection-trial","83","510657","0.0-25.0-1.6","A130","true","img/card_backs/set1/red.gif","img/card_backs/set1/yellow.gif","img/card_backs/set1/purple.gif","img/card_backs/set1/green.gif","img/card_backs/set2/pink.gif","img/card_backs/set2/blue.gif","img/card_backs/set2/gray.gif","img/card_backs/set2/orange.gif","""event"",""trial"",""time""
""blur"",""0"",""0""
""focus"",""1"",""113898""
""blur"",""1"",""116054""
""focus"",""1"",""144226""
""fullscreenenter"",""1"",""145240""
","""event"",""trial"",""time""
""blur"",""0"",""0""
""blur"",""1"",""116054""
","""event"",""trial"",""time""
""focus"",""1"",""113898""
""focus"",""1"",""144226""
","""event"",""trial"",""time""
""fullscreenenter"",""1"",""145240""
","
","","770.6299999845214","","","","real_trial","2021-04-05 04:49:01.119","img/card_backs/set1/yellow.gif","2","-190","1","",""
"casino-fixation","84","511160","0.0-25.0-0.7","A130","true","img/card_backs/set1/red.gif","img/card_backs/set1/yellow.gif","img/card_backs/set1/purple.gif","img/card_backs/set1/green.gif","img/card_backs/set2/pink.gif","img/card_backs/set2/blue.gif","img/card_backs/set2/gray.gif","img/card_backs/set2/orange.gif","""event"",""trial"",""time""
""blur"",""0"",""0""
""focus"",""1"",""113898""
""blur"",""1"",""116054""
""focus"",""1"",""144226""
""fullscreenenter"",""1"",""145240""
","""event"",""trial"",""time""
""blur"",""0"",""0""
""blur"",""1"",""116054""
","""event"",""trial"",""time""
""focus"",""1"",""113898""
""focus"",""1"",""144226""
","""event"",""trial"",""time""
""fullscreenenter"",""1"",""145240""
","
","","null","","null","","fixation","2021-04-05 04:49:01.621","","","","","",""
"card-selection-trial","85","513940","0.0-25.0-1.7","A130","true","img/card_backs/set1/red.gif","img/card_backs/set1/yellow.gif","img/card_backs/set1/purple.gif","img/card_backs/set1/green.gif","img/card_backs/set2/pink.gif","img/card_backs/set2/blue.gif","img/card_backs/set2/gray.gif","img/card_backs/set2/orange.gif","""event"",""trial"",""time""
""blur"",""0"",""0""
""focus"",""1"",""113898""
""blur"",""1"",""116054""
""focus"",""1"",""144226""
""fullscreenenter"",""1"",""145240""
","""event"",""trial"",""time""
""blur"",""0"",""0""
""blur"",""1"",""116054""
","""event"",""trial"",""time""
""focus"",""1"",""113898""
""focus"",""1"",""144226""
","""event"",""trial"",""time""
""fullscreenenter"",""1"",""145240""
","
","","765.4200000106357","","","","real_trial","2021-04-05 04:49:04.402","img/card_backs/set1/yellow.gif","1","240","1","",""
"casino-fixation","86","514445","0.0-25.0-0.8","A130","true","img/card_backs/set1/red.gif","img/card_backs/set1/yellow.gif","img/card_backs/set1/purple.gif","img/card_backs/set1/green.gif","img/card_backs/set2/pink.gif","img/card_backs/set2/blue.gif","img/card_backs/set2/gray.gif","img/card_backs/set2/orange.gif","""event"",""trial"",""time""
""blur"",""0"",""0""
""focus"",""1"",""113898""
""blur"",""1"",""116054""
""focus"",""1"",""144226""
""fullscreenenter"",""1"",""145240""
","""event"",""trial"",""time""
""blur"",""0"",""0""
""blur"",""1"",""116054""
","""event"",""trial"",""time""
""focus"",""1"",""113898""
""focus"",""1"",""144226""
","""event"",""trial"",""time""
""fullscreenenter"",""1"",""145240""
","
","","null","","null","","fixation","2021-04-05 04:49:04.906","","","","","",""
"card-selection-trial","87","517084","0.0-25.0-1.8","A130","true","img/card_backs/set1/red.gif","img/card_backs/set1/yellow.gif","img/card_backs/set1/purple.gif","img/card_backs/set1/green.gif","img/card_backs/set2/pink.gif","img/card_backs/set2/blue.gif","img/card_backs/set2/gray.gif","img/card_backs/set2/orange.gif","""event"",""trial"",""time""
""blur"",""0"",""0""
""focus"",""1"",""113898""
""blur"",""1"",""116054""
""focus"",""1"",""144226""
""fullscreenenter"",""1"",""145240""
","""event"",""trial"",""time""
""blur"",""0"",""0""
""blur"",""1"",""116054""
","""event"",""trial"",""time""
""focus"",""1"",""113898""
""focus"",""1"",""144226""
","""event"",""trial"",""time""
""fullscreenenter"",""1"",""145240""
","
","","627.2899999748915","","","","real_trial","2021-04-05 04:49:07.545","img/card_backs/set1/yellow.gif","0","-200","1","",""
"casino-fixation","88","517586","0.0-25.0-0.9","A130","true","img/card_backs/set1/red.gif","img/card_backs/set1/yellow.gif","img/card_backs/set1/purple.gif","img/card_backs/set1/green.gif","img/card_backs/set2/pink.gif","img/card_backs/set2/blue.gif","img/card_backs/set2/gray.gif","img/card_backs/set2/orange.gif","""event"",""trial"",""time""
""blur"",""0"",""0""
""focus"",""1"",""113898""
""blur"",""1"",""116054""
""focus"",""1"",""144226""
""fullscreenenter"",""1"",""145240""
","""event"",""trial"",""time""
""blur"",""0"",""0""
""blur"",""1"",""116054""
","""event"",""trial"",""time""
""focus"",""1"",""113898""
""focus"",""1"",""144226""
","""event"",""trial"",""time""
""fullscreenenter"",""1"",""145240""
","
","","null","","null","","fixation","2021-04-05 04:49:08.047","","","","","",""
"card-selection-trial","89","520662","0.0-25.0-1.9","A130","true","img/card_backs/set1/red.gif","img/card_backs/set1/yellow.gif","img/card_backs/set1/purple.gif","img/card_backs/set1/green.gif","img/card_backs/set2/pink.gif","img/card_backs/set2/blue.gif","img/card_backs/set2/gray.gif","img/card_backs/set2/orange.gif","""event"",""trial"",""time""
""blur"",""0"",""0""
""focus"",""1"",""113898""
""blur"",""1"",""116054""
""focus"",""1"",""144226""
""fullscreenenter"",""1"",""145240""
","""event"",""trial"",""time""
""blur"",""0"",""0""
""blur"",""1"",""116054""
","""event"",""trial"",""time""
""focus"",""1"",""113898""
""focus"",""1"",""144226""
","""event"",""trial"",""time""
""fullscreenenter"",""1"",""145240""
","
","","1066.0400000051595","","","","real_trial","2021-04-05 04:49:11.123","img/card_backs/set1/red.gif","1","-210","1","",""
"casino-fixation","90","521167","0.0-25.0-0.10","A130","true","img/card_backs/set1/red.gif","img/card_backs/set1/yellow.gif","img/card_backs/set1/purple.gif","img/card_backs/set1/green.gif","img/card_backs/set2/pink.gif","img/card_backs/set2/blue.gif","img/card_backs/set2/gray.gif","img/card_backs/set2/orange.gif","""event"",""trial"",""time""
""blur"",""0"",""0""
""focus"",""1"",""113898""
""blur"",""1"",""116054""
""focus"",""1"",""144226""
""fullscreenenter"",""1"",""145240""
","""event"",""trial"",""time""
""blur"",""0"",""0""
""blur"",""1"",""116054""
","""event"",""trial"",""time""
""focus"",""1"",""113898""
""focus"",""1"",""144226""
","""event"",""trial"",""time""
""fullscreenenter"",""1"",""145240""
","
","","null","","null","","fixation","2021-04-05 04:49:11.628","","","","","",""
"card-selection-trial","91","524126","0.0-25.0-1.10","A130","true","img/card_backs/set1/red.gif","img/card_backs/set1/yellow.gif","img/card_backs/set1/purple.gif","img/card_backs/set1/green.gif","img/card_backs/set2/pink.gif","img/card_backs/set2/blue.gif","img/card_backs/set2/gray.gif","img/card_backs/set2/orange.gif","""event"",""trial"",""time""
""blur"",""0"",""0""
""focus"",""1"",""113898""
""blur"",""1"",""116054""
""focus"",""1"",""144226""
""fullscreenenter"",""1"",""145240""
","""event"",""trial"",""time""
""blur"",""0"",""0""
""blur"",""1"",""116054""
","""event"",""trial"",""time""
""focus"",""1"",""113898""
""focus"",""1"",""144226""
","""event"",""trial"",""time""
""fullscreenenter"",""1"",""145240""
","
","","948.4149999916553","","","","real_trial","2021-04-05 04:49:14.587","img/card_backs/set1/red.gif","2","-200","1","",""
"casino-fixation","92","524632","0.0-25.0-0.11","A130","true","img/card_backs/set1/red.gif","img/card_backs/set1/yellow.gif","img/card_backs/set1/purple.gif","img/card_backs/set1/green.gif","img/card_backs/set2/pink.gif","img/card_backs/set2/blue.gif","img/card_backs/set2/gray.gif","img/card_backs/set2/orange.gif","""event"",""trial"",""time""
""blur"",""0"",""0""
""focus"",""1"",""113898""
""blur"",""1"",""116054""
""focus"",""1"",""144226""
""fullscreenenter"",""1"",""145240""
","""event"",""trial"",""time""
""blur"",""0"",""0""
""blur"",""1"",""116054""
","""event"",""trial"",""time""
""focus"",""1"",""113898""
""focus"",""1"",""144226""
","""event"",""trial"",""time""
""fullscreenenter"",""1"",""145240""
","
","","null","","null","","fixation","2021-04-05 04:49:15.093","","","","","",""
"card-selection-trial","93","527278","0.0-25.0-1.11","A130","true","img/card_backs/set1/red.gif","img/card_backs/set1/yellow.gif","img/card_backs/set1/purple.gif","img/card_backs/set1/green.gif","img/card_backs/set2/pink.gif","img/card_backs/set2/blue.gif","img/card_backs/set2/gray.gif","img/card_backs/set2/orange.gif","""event"",""trial"",""time""
""blur"",""0"",""0""
""focus"",""1"",""113898""
""blur"",""1"",""116054""
""focus"",""1"",""144226""
""fullscreenenter"",""1"",""145240""
","""event"",""trial"",""time""
""blur"",""0"",""0""
""blur"",""1"",""116054""
","""event"",""trial"",""time""
""focus"",""1"",""113898""
""focus"",""1"",""144226""
","""event"",""trial"",""time""
""fullscreenenter"",""1"",""145240""
","
","","640.3799999970943","","","","real_trial","2021-04-05 04:49:17.739","img/card_backs/set1/red.gif","0","240","1","",""
"casino-fixation","94","527785","0.0-25.0-0.12","A130","true","img/card_backs/set1/red.gif","img/card_backs/set1/yellow.gif","img/card_backs/set1/purple.gif","img/card_backs/set1/green.gif","img/card_backs/set2/pink.gif","img/card_backs/set2/blue.gif","img/card_backs/set2/gray.gif","img/card_backs/set2/orange.gif","""event"",""trial"",""time""
""blur"",""0"",""0""
""focus"",""1"",""113898""
""blur"",""1"",""116054""
""focus"",""1"",""144226""
""fullscreenenter"",""1"",""145240""
","""event"",""trial"",""time""
""blur"",""0"",""0""
""blur"",""1"",""116054""
","""event"",""trial"",""time""
""focus"",""1"",""113898""
""focus"",""1"",""144226""
","""event"",""trial"",""time""
""fullscreenenter"",""1"",""145240""
","
","","null","","null","","fixation","2021-04-05 04:49:18.246","","","","","",""
"card-selection-trial","95","530568","0.0-25.0-1.12","A130","true","img/card_backs/set1/red.gif","img/card_backs/set1/yellow.gif","img/card_backs/set1/purple.gif","img/card_backs/set1/green.gif","img/card_backs/set2/pink.gif","img/card_backs/set2/blue.gif","img/card_backs/set2/gray.gif","img/card_backs/set2/orange.gif","""event"",""trial"",""time""
""blur"",""0"",""0""
""focus"",""1"",""113898""
""blur"",""1"",""116054""
""focus"",""1"",""144226""
""fullscreenenter"",""1"",""145240""
","""event"",""trial"",""time""
""blur"",""0"",""0""
""blur"",""1"",""116054""
","""event"",""trial"",""time""
""focus"",""1"",""113898""
""focus"",""1"",""144226""
","""event"",""trial"",""time""
""fullscreenenter"",""1"",""145240""
","
","","770.8800000254996","","","","real_trial","2021-04-05 04:49:21.029","img/card_backs/set1/red.gif","1","-210","1","",""
"casino-fixation","96","531075","0.0-25.0-0.13","A130","true","img/card_backs/set1/red.gif","img/card_backs/set1/yellow.gif","img/card_backs/set1/purple.gif","img/card_backs/set1/green.gif","img/card_backs/set2/pink.gif","img/card_backs/set2/blue.gif","img/card_backs/set2/gray.gif","img/card_backs/set2/orange.gif","""event"",""trial"",""time""
""blur"",""0"",""0""
""focus"",""1"",""113898""
""blur"",""1"",""116054""
""focus"",""1"",""144226""
""fullscreenenter"",""1"",""145240""
","""event"",""trial"",""time""
""blur"",""0"",""0""
""blur"",""1"",""116054""
","""event"",""trial"",""time""
""focus"",""1"",""113898""
""focus"",""1"",""144226""
","""event"",""trial"",""time""
""fullscreenenter"",""1"",""145240""
","
","","null","","null","","fixation","2021-04-05 04:49:21.536","","","","","",""
"card-selection-trial","97","534466","0.0-25.0-1.13","A130","true","img/card_backs/set1/red.gif","img/card_backs/set1/yellow.gif","img/card_backs/set1/purple.gif","img/card_backs/set1/green.gif","img/card_backs/set2/pink.gif","img/card_backs/set2/blue.gif","img/card_backs/set2/gray.gif","img/card_backs/set2/orange.gif","""event"",""trial"",""time""
""blur"",""0"",""0""
""focus"",""1"",""113898""
""blur"",""1"",""116054""
""focus"",""1"",""144226""
""fullscreenenter"",""1"",""145240""
","""event"",""trial"",""time""
""blur"",""0"",""0""
""blur"",""1"",""116054""
","""event"",""trial"",""time""
""focus"",""1"",""113898""
""focus"",""1"",""144226""
","""event"",""trial"",""time""
""fullscreenenter"",""1"",""145240""
","
","","1379.4149999739602","","","","real_trial","2021-04-05 04:49:24.928","img/card_backs/set1/purple.gif","3","50","1","",""
"casino-fixation","98","534974","0.0-25.0-0.14","A130","true","img/card_backs/set1/red.gif","img/card_backs/set1/yellow.gif","img/card_backs/set1/purple.gif","img/card_backs/set1/green.gif","img/card_backs/set2/pink.gif","img/card_backs/set2/blue.gif","img/card_backs/set2/gray.gif","img/card_backs/set2/orange.gif","""event"",""trial"",""time""
""blur"",""0"",""0""
""focus"",""1"",""113898""
""blur"",""1"",""116054""
""focus"",""1"",""144226""
""fullscreenenter"",""1"",""145240""
","""event"",""trial"",""time""
""blur"",""0"",""0""
""blur"",""1"",""116054""
","""event"",""trial"",""time""
""focus"",""1"",""113898""
""focus"",""1"",""144226""
","""event"",""trial"",""time""
""fullscreenenter"",""1"",""145240""
","
","","null","","null","","fixation","2021-04-05 04:49:25.435","","","","","",""
"card-selection-trial","99","537807","0.0-25.0-1.14","A130","true","img/card_backs/set1/red.gif","img/card_backs/set1/yellow.gif","img/card_backs/set1/purple.gif","img/card_backs/set1/green.gif","img/card_backs/set2/pink.gif","img/card_backs/set2/blue.gif","img/card_backs/set2/gray.gif","img/card_backs/set2/orange.gif","""event"",""trial"",""time""
""blur"",""0"",""0""
""focus"",""1"",""113898""
""blur"",""1"",""116054""
""focus"",""1"",""144226""
""fullscreenenter"",""1"",""145240""
","""event"",""trial"",""time""
""blur"",""0"",""0""
""blur"",""1"",""116054""
","""event"",""trial"",""time""
""focus"",""1"",""113898""
""focus"",""1"",""144226""
","""event"",""trial"",""time""
""fullscreenenter"",""1"",""145240""
","
","","824.7050000354648","","","","real_trial","2021-04-05 04:49:28.269","img/card_backs/set1/purple.gif","2","40","1","",""
"casino-fixation","100","538313","0.0-25.0-0.15","A130","true","img/card_backs/set1/red.gif","img/card_backs/set1/yellow.gif","img/card_backs/set1/purple.gif","img/card_backs/set1/green.gif","img/card_backs/set2/pink.gif","img/card_backs/set2/blue.gif","img/card_backs/set2/gray.gif","img/card_backs/set2/orange.gif","""event"",""trial"",""time""
""blur"",""0"",""0""
""focus"",""1"",""113898""
""blur"",""1"",""116054""
""focus"",""1"",""144226""
""fullscreenenter"",""1"",""145240""
","""event"",""trial"",""time""
""blur"",""0"",""0""
""blur"",""1"",""116054""
","""event"",""trial"",""time""
""focus"",""1"",""113898""
""focus"",""1"",""144226""
","""event"",""trial"",""time""
""fullscreenenter"",""1"",""145240""
","
","","null","","null","","fixation","2021-04-05 04:49:28.774","","","","","",""
"card-selection-trial","101","540764","0.0-25.0-1.15","A130","true","img/card_backs/set1/red.gif","img/card_backs/set1/yellow.gif","img/card_backs/set1/purple.gif","img/card_backs/set1/green.gif","img/card_backs/set2/pink.gif","img/card_backs/set2/blue.gif","img/card_backs/set2/gray.gif","img/card_backs/set2/orange.gif","""event"",""trial"",""time""
""blur"",""0"",""0""
""focus"",""1"",""113898""
""blur"",""1"",""116054""
""focus"",""1"",""144226""
""fullscreenenter"",""1"",""145240""
","""event"",""trial"",""time""
""blur"",""0"",""0""
""blur"",""1"",""116054""
","""event"",""trial"",""time""
""focus"",""1"",""113898""
""focus"",""1"",""144226""
","""event"",""trial"",""time""
""fullscreenenter"",""1"",""145240""
","
","","438.58000001637265","","","","real_trial","2021-04-05 04:49:31.225","img/card_backs/set1/purple.gif","2","-90","1","",""
"casino-fixation","102","541271","0.0-25.0-0.16","A130","true","img/card_backs/set1/red.gif","img/card_backs/set1/yellow.gif","img/card_backs/set1/purple.gif","img/card_backs/set1/green.gif","img/card_backs/set2/pink.gif","img/card_backs/set2/blue.gif","img/card_backs/set2/gray.gif","img/card_backs/set2/orange.gif","""event"",""trial"",""time""
""blur"",""0"",""0""
""focus"",""1"",""113898""
""blur"",""1"",""116054""
""focus"",""1"",""144226""
""fullscreenenter"",""1"",""145240""
","""event"",""trial"",""time""
""blur"",""0"",""0""
""blur"",""1"",""116054""
","""event"",""trial"",""time""
""focus"",""1"",""113898""
""focus"",""1"",""144226""
","""event"",""trial"",""time""
""fullscreenenter"",""1"",""145240""
","
","","null","","null","","fixation","2021-04-05 04:49:31.732","","","","","",""
"card-selection-trial","103","544157","0.0-25.0-1.16","A130","true","img/card_backs/set1/red.gif","img/card_backs/set1/yellow.gif","img/card_backs/set1/purple.gif","img/card_backs/set1/green.gif","img/card_backs/set2/pink.gif","img/card_backs/set2/blue.gif","img/card_backs/set2/gray.gif","img/card_backs/set2/orange.gif","""event"",""trial"",""time""
""blur"",""0"",""0""
""focus"",""1"",""113898""
""blur"",""1"",""116054""
""focus"",""1"",""144226""
""fullscreenenter"",""1"",""145240""
","""event"",""trial"",""time""
""blur"",""0"",""0""
""blur"",""1"",""116054""
","""event"",""trial"",""time""
""focus"",""1"",""113898""
""focus"",""1"",""144226""
","""event"",""trial"",""time""
""fullscreenenter"",""1"",""145240""
","
","","872.0850000390783","","","","real_trial","2021-04-05 04:49:34.619","img/card_backs/set1/purple.gif","1","50","1","",""
"casino-fixation","104","544664","0.0-25.0-0.17","A130","true","img/card_backs/set1/red.gif","img/card_backs/set1/yellow.gif","img/card_backs/set1/purple.gif","img/card_backs/set1/green.gif","img/card_backs/set2/pink.gif","img/card_backs/set2/blue.gif","img/card_backs/set2/gray.gif","img/card_backs/set2/orange.gif","""event"",""trial"",""time""
""blur"",""0"",""0""
""focus"",""1"",""113898""
""blur"",""1"",""116054""
""focus"",""1"",""144226""
""fullscreenenter"",""1"",""145240""
","""event"",""trial"",""time""
""blur"",""0"",""0""
""blur"",""1"",""116054""
","""event"",""trial"",""time""
""focus"",""1"",""113898""
""focus"",""1"",""144226""
","""event"",""trial"",""time""
""fullscreenenter"",""1"",""145240""
","
","","null","","null","","fixation","2021-04-05 04:49:35.125","","","","","",""
"card-selection-trial","105","547188","0.0-25.0-1.17","A130","true","img/card_backs/set1/red.gif","img/card_backs/set1/yellow.gif","img/card_backs/set1/purple.gif","img/card_backs/set1/green.gif","img/card_backs/set2/pink.gif","img/card_backs/set2/blue.gif","img/card_backs/set2/gray.gif","img/card_backs/set2/orange.gif","""event"",""trial"",""time""
""blur"",""0"",""0""
""focus"",""1"",""113898""
""blur"",""1"",""116054""
""focus"",""1"",""144226""
""fullscreenenter"",""1"",""145240""
","""event"",""trial"",""time""
""blur"",""0"",""0""
""blur"",""1"",""116054""
","""event"",""trial"",""time""
""focus"",""1"",""113898""
""focus"",""1"",""144226""
","""event"",""trial"",""time""
""fullscreenenter"",""1"",""145240""
","
","","513.3700000005774","","","","real_trial","2021-04-05 04:49:37.649","img/card_backs/set1/purple.gif","0","60","1","",""
"casino-fixation","106","547693","0.0-25.0-0.18","A130","true","img/card_backs/set1/red.gif","img/card_backs/set1/yellow.gif","img/card_backs/set1/purple.gif","img/card_backs/set1/green.gif","img/card_backs/set2/pink.gif","img/card_backs/set2/blue.gif","img/card_backs/set2/gray.gif","img/card_backs/set2/orange.gif","""event"",""trial"",""time""
""blur"",""0"",""0""
""focus"",""1"",""113898""
""blur"",""1"",""116054""
""focus"",""1"",""144226""
""fullscreenenter"",""1"",""145240""
","""event"",""trial"",""time""
""blur"",""0"",""0""
""blur"",""1"",""116054""
","""event"",""trial"",""time""
""focus"",""1"",""113898""
""focus"",""1"",""144226""
","""event"",""trial"",""time""
""fullscreenenter"",""1"",""145240""
","
","","null","","null","","fixation","2021-04-05 04:49:38.155","","","","","",""
"card-selection-trial","107","550627","0.0-25.0-1.18","A130","true","img/card_backs/set1/red.gif","img/card_backs/set1/yellow.gif","img/card_backs/set1/purple.gif","img/card_backs/set1/green.gif","img/card_backs/set2/pink.gif","img/card_backs/set2/blue.gif","img/card_backs/set2/gray.gif","img/card_backs/set2/orange.gif","""event"",""trial"",""time""
""blur"",""0"",""0""
""focus"",""1"",""113898""
""blur"",""1"",""116054""
""focus"",""1"",""144226""
""fullscreenenter"",""1"",""145240""
","""event"",""trial"",""time""
""blur"",""0"",""0""
""blur"",""1"",""116054""
","""event"",""trial"",""time""
""focus"",""1"",""113898""
""focus"",""1"",""144226""
","""event"",""trial"",""time""
""fullscreenenter"",""1"",""145240""
","
","","923.3799999929033","","","","real_trial","2021-04-05 04:49:41.089","img/card_backs/set1/green.gif","1","-100","1","",""
"casino-fixation","108","551132","0.0-25.0-0.19","A130","true","img/card_backs/set1/red.gif","img/card_backs/set1/yellow.gif","img/card_backs/set1/purple.gif","img/card_backs/set1/green.gif","img/card_backs/set2/pink.gif","img/card_backs/set2/blue.gif","img/card_backs/set2/gray.gif","img/card_backs/set2/orange.gif","""event"",""trial"",""time""
""blur"",""0"",""0""
""focus"",""1"",""113898""
""blur"",""1"",""116054""
""focus"",""1"",""144226""
""fullscreenenter"",""1"",""145240""
","""event"",""trial"",""time""
""blur"",""0"",""0""
""blur"",""1"",""116054""
","""event"",""trial"",""time""
""focus"",""1"",""113898""
""focus"",""1"",""144226""
","""event"",""trial"",""time""
""fullscreenenter"",""1"",""145240""
","
","","null","","null","","fixation","2021-04-05 04:49:41.593","","","","","",""
"card-selection-trial","109","553860","0.0-25.0-1.19","A130","true","img/card_backs/set1/red.gif","img/card_backs/set1/yellow.gif","img/card_backs/set1/purple.gif","img/card_backs/set1/green.gif","img/card_backs/set2/pink.gif","img/card_backs/set2/blue.gif","img/card_backs/set2/gray.gif","img/card_backs/set2/orange.gif","""event"",""trial"",""time""
""blur"",""0"",""0""
""focus"",""1"",""113898""
""blur"",""1"",""116054""
""focus"",""1"",""144226""
""fullscreenenter"",""1"",""145240""
","""event"",""trial"",""time""
""blur"",""0"",""0""
""blur"",""1"",""116054""
","""event"",""trial"",""time""
""focus"",""1"",""113898""
""focus"",""1"",""144226""
","""event"",""trial"",""time""
""fullscreenenter"",""1"",""145240""
","
","","713.6249999748543","","","","real_trial","2021-04-05 04:49:44.321","img/card_backs/set1/green.gif","2","40","1","",""
"casino-fixation","110","554366","0.0-25.0-0.20","A130","true","img/card_backs/set1/red.gif","img/card_backs/set1/yellow.gif","img/card_backs/set1/purple.gif","img/card_backs/set1/green.gif","img/card_backs/set2/pink.gif","img/card_backs/set2/blue.gif","img/card_backs/set2/gray.gif","img/card_backs/set2/orange.gif","""event"",""trial"",""time""
""blur"",""0"",""0""
""focus"",""1"",""113898""
""blur"",""1"",""116054""
""focus"",""1"",""144226""
""fullscreenenter"",""1"",""145240""
","""event"",""trial"",""time""
""blur"",""0"",""0""
""blur"",""1"",""116054""
","""event"",""trial"",""time""
""focus"",""1"",""113898""
""focus"",""1"",""144226""
","""event"",""trial"",""time""
""fullscreenenter"",""1"",""145240""
","
","","null","","null","","fixation","2021-04-05 04:49:44.827","","","","","",""
"card-selection-trial","111","557328","0.0-25.0-1.20","A130","true","img/card_backs/set1/red.gif","img/card_backs/set1/yellow.gif","img/card_backs/set1/purple.gif","img/card_backs/set1/green.gif","img/card_backs/set2/pink.gif","img/card_backs/set2/blue.gif","img/card_backs/set2/gray.gif","img/card_backs/set2/orange.gif","""event"",""trial"",""time""
""blur"",""0"",""0""
""focus"",""1"",""113898""
""blur"",""1"",""116054""
""focus"",""1"",""144226""
""fullscreenenter"",""1"",""145240""
","""event"",""trial"",""time""
""blur"",""0"",""0""
""blur"",""1"",""116054""
","""event"",""trial"",""time""
""focus"",""1"",""113898""
""focus"",""1"",""144226""
","""event"",""trial"",""time""
""fullscreenenter"",""1"",""145240""
","
","","949.5400000014342","","","","real_trial","2021-04-05 04:49:47.789","img/card_backs/set1/green.gif","1","60","1","",""
"casino-fixation","112","557832","0.0-25.0-0.21","A130","true","img/card_backs/set1/red.gif","img/card_backs/set1/yellow.gif","img/card_backs/set1/purple.gif","img/card_backs/set1/green.gif","img/card_backs/set2/pink.gif","img/card_backs/set2/blue.gif","img/card_backs/set2/gray.gif","img/card_backs/set2/orange.gif","""event"",""trial"",""time""
""blur"",""0"",""0""
""focus"",""1"",""113898""
""blur"",""1"",""116054""
""focus"",""1"",""144226""
""fullscreenenter"",""1"",""145240""
","""event"",""trial"",""time""
""blur"",""0"",""0""
""blur"",""1"",""116054""
","""event"",""trial"",""time""
""focus"",""1"",""113898""
""focus"",""1"",""144226""
","""event"",""trial"",""time""
""fullscreenenter"",""1"",""145240""
","
","","null","","null","","fixation","2021-04-05 04:49:48.293","","","","","",""
"card-selection-trial","113","561609","0.0-25.0-1.21","A130","true","img/card_backs/set1/red.gif","img/card_backs/set1/yellow.gif","img/card_backs/set1/purple.gif","img/card_backs/set1/green.gif","img/card_backs/set2/pink.gif","img/card_backs/set2/blue.gif","img/card_backs/set2/gray.gif","img/card_backs/set2/orange.gif","""event"",""trial"",""time""
""blur"",""0"",""0""
""focus"",""1"",""113898""
""blur"",""1"",""116054""
""focus"",""1"",""144226""
""fullscreenenter"",""1"",""145240""
","""event"",""trial"",""time""
""blur"",""0"",""0""
""blur"",""1"",""116054""
","""event"",""trial"",""time""
""focus"",""1"",""113898""
""focus"",""1"",""144226""
","""event"",""trial"",""time""
""fullscreenenter"",""1"",""145240""
","
