"trial_type","trial_index","time_elapsed","internal_node_id","sub_id","risk_good_first","block1_A","block1_B","block1_C","block1_D","block2_A","block2_B","block2_C","block2_D","interactions","blur_events","focus_events","fullscreenenter_events","fullscreenexit_events","success","rt","stimulus","key_press","button_pressed","task_part","timestamp","card_choice","choice_position","points_earned","block","correct","response"
"pavlovia","0","5","0.0-0.0","600","false","img/card_backs/set1/red.gif","img/card_backs/set1/green.gif","img/card_backs/set1/purple.gif","img/card_backs/set1/yellow.gif","img/card_backs/set2/orange.gif","img/card_backs/set2/blue.gif","img/card_backs/set2/gray.gif","img/card_backs/set2/pink.gif","""event"",""trial"",""time""
""fullscreenenter"",""1"",""3408""
","
","
","""event"",""trial"",""time""
""fullscreenenter"",""1"",""3408""
","
","","","","","","","","","","","","",""
"fullscreen","1","4367","0.0-1.0","600","false","img/card_backs/set1/red.gif","img/card_backs/set1/green.gif","img/card_backs/set1/purple.gif","img/card_backs/set1/yellow.gif","img/card_backs/set2/orange.gif","img/card_backs/set2/blue.gif","img/card_backs/set2/gray.gif","img/card_backs/set2/pink.gif","""event"",""trial"",""time""
""fullscreenenter"",""1"",""3408""
","
","
","""event"",""trial"",""time""
""fullscreenenter"",""1"",""3408""
","
","true","","","","","","","","","","","",""
"audio-keyboard-response","2","6931","0.0-2.0","600","false","img/card_backs/set1/red.gif","img/card_backs/set1/green.gif","img/card_backs/set1/purple.gif","img/card_backs/set1/yellow.gif","img/card_backs/set2/orange.gif","img/card_backs/set2/blue.gif","img/card_backs/set2/gray.gif","img/card_backs/set2/pink.gif","""event"",""trial"",""time""
""fullscreenenter"",""1"",""3408""
","
","
","""event"",""trial"",""time""
""fullscreenenter"",""1"",""3408""
","
","","2269","audio/beep_loop.wav","32","","","","","","","","",""
"audio-button-response","3","8466","0.0-3.0","600","false","img/card_backs/set1/red.gif","img/card_backs/set1/green.gif","img/card_backs/set1/purple.gif","img/card_backs/set1/yellow.gif","img/card_backs/set2/orange.gif","img/card_backs/set2/blue.gif","img/card_backs/set2/gray.gif","img/card_backs/set2/pink.gif","""event"",""trial"",""time""
""fullscreenenter"",""1"",""3408""
","
","
","""event"",""trial"",""time""
""fullscreenenter"",""1"",""3408""
","
","","NaN","audio/turtle.mp3","","3","","","","","","","",""
"audio-button-response","4","10539","0.0-4.0","600","false","img/card_backs/set1/red.gif","img/card_backs/set1/green.gif","img/card_backs/set1/purple.gif","img/card_backs/set1/yellow.gif","img/card_backs/set2/orange.gif","img/card_backs/set2/blue.gif","img/card_backs/set2/gray.gif","img/card_backs/set2/pink.gif","""event"",""trial"",""time""
""fullscreenenter"",""1"",""3408""
","
","
","""event"",""trial"",""time""
""fullscreenenter"",""1"",""3408""
","
","","NaN","audio/shark.mp3","","2","","","","","","","",""
"fullscreen","5","14760","0.0-5.0","600","false","img/card_backs/set1/red.gif","img/card_backs/set1/green.gif","img/card_backs/set1/purple.gif","img/card_backs/set1/yellow.gif","img/card_backs/set2/orange.gif","img/card_backs/set2/blue.gif","img/card_backs/set2/gray.gif","img/card_backs/set2/pink.gif","""event"",""trial"",""time""
""fullscreenenter"",""1"",""3408""
","
","
","""event"",""trial"",""time""
""fullscreenenter"",""1"",""3408""
","
","true","","","","","","","","","","","",""
"casino-keyboard-response","6","18307","0.0-6.0-0.0","600","false","img/card_backs/set1/red.gif","img/card_backs/set1/green.gif","img/card_backs/set1/purple.gif","img/card_backs/set1/yellow.gif","img/card_backs/set2/orange.gif","img/card_backs/set2/blue.gif","img/card_backs/set2/gray.gif","img/card_backs/set2/pink.gif","""event"",""trial"",""time""
""fullscreenenter"",""1"",""3408""
","
","
","""event"",""trial"",""time""
""fullscreenenter"",""1"",""3408""
","
","","3544.2000000476837","Welcome to the casino!","71","","instructions","2021-07-01 19:15:20.888","","","","","",""
"casino-keyboard-response","7","28179","0.0-6.0-0.1","600","false","img/card_backs/set1/red.gif","img/card_backs/set1/green.gif","img/card_backs/set1/purple.gif","img/card_backs/set1/yellow.gif","img/card_backs/set2/orange.gif","img/card_backs/set2/blue.gif","img/card_backs/set2/gray.gif","img/card_backs/set2/pink.gif","""event"",""trial"",""time""
""fullscreenenter"",""1"",""3408""
","
","
","""event"",""trial"",""time""
""fullscreenenter"",""1"",""3408""
","
","","9869.700000047684","Today you will be playing a game to earn tokens. </br> At the end of the experiment, you will be paid a bonus based on how many tokens you win. ","69","","instructions","2021-07-01 19:15:30.760","","","","","",""
"casino-keyboard-response","8","35630","0.0-6.0-0.2","600","false","img/card_backs/set1/red.gif","img/card_backs/set1/green.gif","img/card_backs/set1/purple.gif","img/card_backs/set1/yellow.gif","img/card_backs/set2/orange.gif","img/card_backs/set2/blue.gif","img/card_backs/set2/gray.gif","img/card_backs/set2/pink.gif","""event"",""trial"",""time""
""fullscreenenter"",""1"",""3408""
","
","
","""event"",""trial"",""time""
""fullscreenenter"",""1"",""3408""
","
","","7449.599999904633","On every turn, you will be shown four different decks of cards. </br> You need to select a card from one of the four decks.  ","75","","instructions","2021-07-01 19:15:38.211","","","","","",""
"casino-keyboard-response","9","40627","0.0-6.0-0.3","600","false","img/card_backs/set1/red.gif","img/card_backs/set1/green.gif","img/card_backs/set1/purple.gif","img/card_backs/set1/yellow.gif","img/card_backs/set2/orange.gif","img/card_backs/set2/blue.gif","img/card_backs/set2/gray.gif","img/card_backs/set2/pink.gif","""event"",""trial"",""time""
""fullscreenenter"",""1"",""3408""
","
","
","""event"",""trial"",""time""
""fullscreenenter"",""1"",""3408""
","
","","4995.600000143051","On the next screen, you will see what the decks will look like. ","66","","instructions","2021-07-01 19:15:43.208","","","","","",""
"card-selection-trial","10","44649","0.0-7.0-0.0","600","false","img/card_backs/set1/red.gif","img/card_backs/set1/green.gif","img/card_backs/set1/purple.gif","img/card_backs/set1/yellow.gif","img/card_backs/set2/orange.gif","img/card_backs/set2/blue.gif","img/card_backs/set2/gray.gif","img/card_backs/set2/pink.gif","""event"",""trial"",""time""
""fullscreenenter"",""1"",""3408""
","
","
","""event"",""trial"",""time""
""fullscreenenter"",""1"",""3408""
","
","","null","","","","practice","2021-07-01 19:15:47.231","null","null","null","0","",""
"casino-keyboard-response","11","52222","0.0-8.0-0.0","600","false","img/card_backs/set1/red.gif","img/card_backs/set1/green.gif","img/card_backs/set1/purple.gif","img/card_backs/set1/yellow.gif","img/card_backs/set2/orange.gif","img/card_backs/set2/blue.gif","img/card_backs/set2/gray.gif","img/card_backs/set2/pink.gif","""event"",""trial"",""time""
""fullscreenenter"",""1"",""3408""
","
","
","""event"",""trial"",""time""
""fullscreenenter"",""1"",""3408""
","
","","7570.599999904633","You should pick a card from a deck using the '2', '4', '6', and '8' keys at the top of the keyboard.","85","","instructions","2021-07-01 19:15:54.803","","","","","",""
"casino-keyboard-response","12","57644","0.0-8.0-0.1","600","false","img/card_backs/set1/red.gif","img/card_backs/set1/green.gif","img/card_backs/set1/purple.gif","img/card_backs/set1/yellow.gif","img/card_backs/set2/orange.gif","img/card_backs/set2/blue.gif","img/card_backs/set2/gray.gif","img/card_backs/set2/pink.gif","""event"",""trial"",""time""
""fullscreenenter"",""1"",""3408""
","
","
","""event"",""trial"",""time""
""fullscreenenter"",""1"",""3408""
","
","","5420.900000095367","Once you select a card, it will turn over and you will see how many tokens you earned.","83","","instructions","2021-07-01 19:16:00.225","","","","","",""
"casino-keyboard-response","13","72245","0.0-8.0-0.2","600","false","img/card_backs/set1/red.gif","img/card_backs/set1/green.gif","img/card_backs/set1/purple.gif","img/card_backs/set1/yellow.gif","img/card_backs/set2/orange.gif","img/card_backs/set2/blue.gif","img/card_backs/set2/gray.gif","img/card_backs/set2/pink.gif","""event"",""trial"",""time""
""fullscreenenter"",""1"",""3408""
","
","
","""event"",""trial"",""time""
""fullscreenenter"",""1"",""3408""
","
","","14599.199999809265","Let's try practicing that! </br> First, try to put your fingers over the '2', '4', '6', and '8' keys. </br>  You can use whatever fingers are most comfortable for you. Try to find a comfortable position now. ","50","","instructions","2021-07-01 19:16:14.826","","","","","",""
"casino-keyboard-response","14","78244","0.0-8.0-0.3","600","false","img/card_backs/set1/red.gif","img/card_backs/set1/green.gif","img/card_backs/set1/purple.gif","img/card_backs/set1/yellow.gif","img/card_backs/set2/orange.gif","img/card_backs/set2/blue.gif","img/card_backs/set2/gray.gif","img/card_backs/set2/pink.gif","""event"",""trial"",""time""
""fullscreenenter"",""1"",""3408""
","
","
","""event"",""trial"",""time""
""fullscreenenter"",""1"",""3408""
","
","","5997.799999952316","Okay ready? </br> On the next screen, press '2' to select the left deck. ","50","","instructions","2021-07-01 19:16:20.825","","","","","",""
"card-selection-trial","15","81321","0.0-9.0-0.0","600","false","img/card_backs/set1/red.gif","img/card_backs/set1/green.gif","img/card_backs/set1/purple.gif","img/card_backs/set1/yellow.gif","img/card_backs/set2/orange.gif","img/card_backs/set2/blue.gif","img/card_backs/set2/gray.gif","img/card_backs/set2/pink.gif","""event"",""trial"",""time""
""fullscreenenter"",""1"",""3408""
","
","
","""event"",""trial"",""time""
""fullscreenenter"",""1"",""3408""
","
","","1060.2000000476837","","","","practice_card_selection","2021-07-01 19:16:23.902","img/practice_cards/backs/brown.gif","0","100","","",""
"casino-keyboard-response","16","87117","0.0-10.0-0.0","600","false","img/card_backs/set1/red.gif","img/card_backs/set1/green.gif","img/card_backs/set1/purple.gif","img/card_backs/set1/yellow.gif","img/card_backs/set2/orange.gif","img/card_backs/set2/blue.gif","img/card_backs/set2/gray.gif","img/card_backs/set2/pink.gif","""event"",""trial"",""time""
""fullscreenenter"",""1"",""3408""
","
","
","""event"",""trial"",""time""
""fullscreenenter"",""1"",""3408""
","
","","5794.800000190735","Great! Now on the next screen, try pressing '6' to select the third deck.","54","","instructions","2021-07-01 19:16:29.698","","","","","",""
"card-selection-trial","17","89876","0.0-11.0-0.0","600","false","img/card_backs/set1/red.gif","img/card_backs/set1/green.gif","img/card_backs/set1/purple.gif","img/card_backs/set1/yellow.gif","img/card_backs/set2/orange.gif","img/card_backs/set2/blue.gif","img/card_backs/set2/gray.gif","img/card_backs/set2/pink.gif","""event"",""trial"",""time""
""fullscreenenter"",""1"",""3408""
","
","
","""event"",""trial"",""time""
""fullscreenenter"",""1"",""3408""
","
","","752.7000000476837","","","","practice_card_selection","2021-07-01 19:16:32.457","img/practice_cards/backs/brown.gif","2","-100","","",""
"casino-keyboard-response","18","94466","0.0-12.0-0.0","600","false","img/card_backs/set1/red.gif","img/card_backs/set1/green.gif","img/card_backs/set1/purple.gif","img/card_backs/set1/yellow.gif","img/card_backs/set2/orange.gif","img/card_backs/set2/blue.gif","img/card_backs/set2/gray.gif","img/card_backs/set2/pink.gif","""event"",""trial"",""time""
""fullscreenenter"",""1"",""3408""
","
","
","""event"",""trial"",""time""
""fullscreenenter"",""1"",""3408""
","
","","4589.200000047684","Now on the next screen, try pressing '4' to select the second deck.","52","","instructions","2021-07-01 19:16:37.047","","","","","",""
"card-selection-trial","19","97151","0.0-13.0-0.0","600","false","img/card_backs/set1/red.gif","img/card_backs/set1/green.gif","img/card_backs/set1/purple.gif","img/card_backs/set1/yellow.gif","img/card_backs/set2/orange.gif","img/card_backs/set2/blue.gif","img/card_backs/set2/gray.gif","img/card_backs/set2/pink.gif","""event"",""trial"",""time""
""fullscreenenter"",""1"",""3408""
","
","
","""event"",""trial"",""time""
""fullscreenenter"",""1"",""3408""
","
","","663.9000000953674","","","","practice_card_selection","2021-07-01 19:16:39.732","img/practice_cards/backs/brown.gif","1","100","","",""
"casino-keyboard-response","20","101592","0.0-14.0-0.0","600","false","img/card_backs/set1/red.gif","img/card_backs/set1/green.gif","img/card_backs/set1/purple.gif","img/card_backs/set1/yellow.gif","img/card_backs/set2/orange.gif","img/card_backs/set2/blue.gif","img/card_backs/set2/gray.gif","img/card_backs/set2/pink.gif","""event"",""trial"",""time""
""fullscreenenter"",""1"",""3408""
","
","
","""event"",""trial"",""time""
""fullscreenenter"",""1"",""3408""
","
","","4439.400000095367","Finally, try pressing '8' to select the deck all the way on the right.","56","","instructions","2021-07-01 19:16:44.173","","","","","",""
"card-selection-trial","21","104141","0.0-15.0-0.0","600","false","img/card_backs/set1/red.gif","img/card_backs/set1/green.gif","img/card_backs/set1/purple.gif","img/card_backs/set1/yellow.gif","img/card_backs/set2/orange.gif","img/card_backs/set2/blue.gif","img/card_backs/set2/gray.gif","img/card_backs/set2/pink.gif","""event"",""trial"",""time""
""fullscreenenter"",""1"",""3408""
","
","
","""event"",""trial"",""time""
""fullscreenenter"",""1"",""3408""
","
","","527.0999999046326","","","","practice_card_selection","2021-07-01 19:16:46.722","img/practice_cards/backs/dark_blue.gif","3","200","","",""
"casino-keyboard-response","22","108041","0.0-16.0-0.0","600","false","img/card_backs/set1/red.gif","img/card_backs/set1/green.gif","img/card_backs/set1/purple.gif","img/card_backs/set1/yellow.gif","img/card_backs/set2/orange.gif","img/card_backs/set2/blue.gif","img/card_backs/set2/gray.gif","img/card_backs/set2/pink.gif","""event"",""trial"",""time""
""fullscreenenter"",""1"",""3408""
","
","
","""event"",""trial"",""time""
""fullscreenenter"",""1"",""3408""
","
","","3898.600000143051","Great! It seems like you are getting the hang of this.","80","","instructions","2021-07-01 19:16:50.622","","","","","",""
"casino-keyboard-response","23","115304","0.0-16.0-0.1","600","false","img/card_backs/set1/red.gif","img/card_backs/set1/green.gif","img/card_backs/set1/purple.gif","img/card_backs/set1/yellow.gif","img/card_backs/set2/orange.gif","img/card_backs/set2/blue.gif","img/card_backs/set2/gray.gif","img/card_backs/set2/pink.gif","""event"",""trial"",""time""
""fullscreenenter"",""1"",""3408""
","
","
","""event"",""trial"",""time""
""fullscreenenter"",""1"",""3408""
","
","","7261.699999809265","You may have noticed that some cards will cause you to <b> win </b> tokens while other cards will cause you to <b> lose </b>  tokens.","70","","instructions","2021-07-01 19:16:57.885","","","","","",""
"casino-keyboard-response","24","123703","0.0-16.0-0.2","600","false","img/card_backs/set1/red.gif","img/card_backs/set1/green.gif","img/card_backs/set1/purple.gif","img/card_backs/set1/yellow.gif","img/card_backs/set2/orange.gif","img/card_backs/set2/blue.gif","img/card_backs/set2/gray.gif","img/card_backs/set2/pink.gif","""event"",""trial"",""time""
""fullscreenenter"",""1"",""3408""
","
","
","""event"",""trial"",""time""
""fullscreenenter"",""1"",""3408""
","
","","8398.099999904633","Each deck has a mix of cards that will cause you to win and lose tokens. </br> However, the cards in each colored deck are different.","73","","instructions","2021-07-01 19:17:06.284","","","","","",""
"casino-keyboard-response","25","132510","0.0-16.0-0.3","600","false","img/card_backs/set1/red.gif","img/card_backs/set1/green.gif","img/card_backs/set1/purple.gif","img/card_backs/set1/yellow.gif","img/card_backs/set2/orange.gif","img/card_backs/set2/blue.gif","img/card_backs/set2/gray.gif","img/card_backs/set2/pink.gif","""event"",""trial"",""time""
""fullscreenenter"",""1"",""3408""
","
","
","""event"",""trial"",""time""
""fullscreenenter"",""1"",""3408""
","
","","8804.200000047684","Some colored decks are luckier than others. </br> If you choose the lucky decks, you will earn more tokens than if you choose the unlucky decks.","69","","instructions","2021-07-01 19:17:15.091","","","","","",""
"casino-keyboard-response","26","140179","0.0-16.0-0.4","600","false","img/card_backs/set1/red.gif","img/card_backs/set1/green.gif","img/card_backs/set1/purple.gif","img/card_backs/set1/yellow.gif","img/card_backs/set2/orange.gif","img/card_backs/set2/blue.gif","img/card_backs/set2/gray.gif","img/card_backs/set2/pink.gif","""event"",""trial"",""time""
""fullscreenenter"",""1"",""3408""
","
","
","""event"",""trial"",""time""
""fullscreenenter"",""1"",""3408""
","
","","7666.799999952316","You should try to figure out which decks are lucky. </br> Then, try to choose the lucky decks so you can win the most tokens.","87","","instructions","2021-07-01 19:17:22.760","","","","","",""
"casino-keyboard-response","27","151428","0.0-16.0-0.5","600","false","img/card_backs/set1/red.gif","img/card_backs/set1/green.gif","img/card_backs/set1/purple.gif","img/card_backs/set1/yellow.gif","img/card_backs/set2/orange.gif","img/card_backs/set2/blue.gif","img/card_backs/set2/gray.gif","img/card_backs/set2/pink.gif","""event"",""trial"",""time""
""fullscreenenter"",""1"",""3408""
","
","
","""event"",""trial"",""time""
""fullscreenenter"",""1"",""3408""
","
","","11247.900000095367","To make it trickier, the casino dealer will switch the locations of the decks on every turn. </br> The color of the deck determines how lucky it is. The location does not matter.","88","","instructions","2021-07-01 19:17:34.009","","","","","",""
"casino-keyboard-response","28","160662","0.0-16.0-0.6","600","false","img/card_backs/set1/red.gif","img/card_backs/set1/green.gif","img/card_backs/set1/purple.gif","img/card_backs/set1/yellow.gif","img/card_backs/set2/orange.gif","img/card_backs/set2/blue.gif","img/card_backs/set2/gray.gif","img/card_backs/set2/pink.gif","""event"",""trial"",""time""
""fullscreenenter"",""1"",""3408""
","
","
","""event"",""trial"",""time""
""fullscreenenter"",""1"",""3408""
","
","","9232.5","The mix of cards in each colored deck will stay the same throughout the game. </br> That means that a deck that is lucky early on will stay lucky.","79","","instructions","2021-07-01 19:17:43.243","","","","","",""
"casino-keyboard-response","29","168973","0.0-16.0-0.7","600","false","img/card_backs/set1/red.gif","img/card_backs/set1/green.gif","img/card_backs/set1/purple.gif","img/card_backs/set1/yellow.gif","img/card_backs/set2/orange.gif","img/card_backs/set2/blue.gif","img/card_backs/set2/gray.gif","img/card_backs/set2/pink.gif","""event"",""trial"",""time""
""fullscreenenter"",""1"",""3408""
","
","
","""event"",""trial"",""time""
""fullscreenenter"",""1"",""3408""
","
","","8309.599999904633","Remember though, all the decks have a <b> mix </b> of both <b> good </b> and <b> bad </b> cards so it may take a couple of turns to figure out if a deck is lucky.","69","","instructions","2021-07-01 19:17:51.555","","","","","",""
"casino-keyboard-response","30","177282","0.0-16.0-0.8","600","false","img/card_backs/set1/red.gif","img/card_backs/set1/green.gif","img/card_backs/set1/purple.gif","img/card_backs/set1/yellow.gif","img/card_backs/set2/orange.gif","img/card_backs/set2/blue.gif","img/card_backs/set2/gray.gif","img/card_backs/set2/pink.gif","""event"",""trial"",""time""
""fullscreenenter"",""1"",""3408""
","
","
","""event"",""trial"",""time""
""fullscreenenter"",""1"",""3408""
","
","","8307.5","At the end of the game, you will be paid bonus money based on how many tokens you win. </br> If you win more tokens, you will earn more money!","72","","instructions","2021-07-01 19:17:59.863","","","","","",""
"casino-keyboard-response","31","187482","0.0-16.0-0.9","600","false","img/card_backs/set1/red.gif","img/card_backs/set1/green.gif","img/card_backs/set1/purple.gif","img/card_backs/set1/yellow.gif","img/card_backs/set2/orange.gif","img/card_backs/set2/blue.gif","img/card_backs/set2/gray.gif","img/card_backs/set2/pink.gif","""event"",""trial"",""time""
""fullscreenenter"",""1"",""3408""
","
","
","""event"",""trial"",""time""
""fullscreenenter"",""1"",""3408""
","
","","10197.899999856949","You will never <b> lose </b> money. </br> If you end up with fewer than 0 tokens, you will earn $0 of bonus money, but you will still be paid for playing the game.","83","","instructions","2021-07-01 19:18:10.063","","","","","",""
"casino-keyboard-response","32","191736","0.0-16.0-0.10","600","false","img/card_backs/set1/red.gif","img/card_backs/set1/green.gif","img/card_backs/set1/purple.gif","img/card_backs/set1/yellow.gif","img/card_backs/set2/orange.gif","img/card_backs/set2/blue.gif","img/card_backs/set2/gray.gif","img/card_backs/set2/pink.gif","""event"",""trial"",""time""
""fullscreenenter"",""1"",""3408""
","
","
","""event"",""trial"",""time""
""fullscreenenter"",""1"",""3408""
","
","","4252.700000047684","You will have 10 seconds to make each choice.","82","","instructions","2021-07-01 19:18:14.317","","","","","",""
"casino-keyboard-response","33","199847","0.0-16.0-0.11","600","false","img/card_backs/set1/red.gif","img/card_backs/set1/green.gif","img/card_backs/set1/purple.gif","img/card_backs/set1/yellow.gif","img/card_backs/set2/orange.gif","img/card_backs/set2/blue.gif","img/card_backs/set2/gray.gif","img/card_backs/set2/pink.gif","""event"",""trial"",""time""
""fullscreenenter"",""1"",""3408""
","
","
","""event"",""trial"",""time""
""fullscreenenter"",""1"",""3408""
","
","","8108.899999856949","Before you play the game for real, you will play with practice decks. </br> The tokens you earn during practice won't count toward your total.","86","","instructions","2021-07-01 19:18:22.428","","","","","",""
"casino-keyboard-response","34","211346","0.0-16.0-0.12","600","false","img/card_backs/set1/red.gif","img/card_backs/set1/green.gif","img/card_backs/set1/purple.gif","img/card_backs/set1/yellow.gif","img/card_backs/set2/orange.gif","img/card_backs/set2/blue.gif","img/card_backs/set2/gray.gif","img/card_backs/set2/pink.gif","""event"",""trial"",""time""
""fullscreenenter"",""1"",""3408""
","
","
","""event"",""trial"",""time""
""fullscreenenter"",""1"",""3408""
","
","","11498","Ready? Remember, use the '2', '4', '6', and '8' keys to select the decks. </br> Put your fingers on those keys now and then press '2' to begin.","50","","instructions","2021-07-01 19:18:33.927","","","","","",""
"casino-fixation","35","211854","0.0-17.0-0.0","600","false","img/card_backs/set1/red.gif","img/card_backs/set1/green.gif","img/card_backs/set1/purple.gif","img/card_backs/set1/yellow.gif","img/card_backs/set2/orange.gif","img/card_backs/set2/blue.gif","img/card_backs/set2/gray.gif","img/card_backs/set2/pink.gif","""event"",""trial"",""time""
""fullscreenenter"",""1"",""3408""
","
","
","""event"",""trial"",""time""
""fullscreenenter"",""1"",""3408""
","
","","null","","null","","fixation","2021-07-01 19:18:34.435","","","","","",""
"card-selection-trial","36","215177","0.0-17.0-1.0","600","false","img/card_backs/set1/red.gif","img/card_backs/set1/green.gif","img/card_backs/set1/purple.gif","img/card_backs/set1/yellow.gif","img/card_backs/set2/orange.gif","img/card_backs/set2/blue.gif","img/card_backs/set2/gray.gif","img/card_backs/set2/pink.gif","""event"",""trial"",""time""
""fullscreenenter"",""1"",""3408""
","
","
","""event"",""trial"",""time""
""fullscreenenter"",""1"",""3408""
","
","","1318","","","","practice","2021-07-01 19:18:37.758","img/practice_cards/backs/dark_green.gif","0","-200","0","",""
"casino-fixation","37","215679","0.0-17.0-0.1","600","false","img/card_backs/set1/red.gif","img/card_backs/set1/green.gif","img/card_backs/set1/purple.gif","img/card_backs/set1/yellow.gif","img/card_backs/set2/orange.gif","img/card_backs/set2/blue.gif","img/card_backs/set2/gray.gif","img/card_backs/set2/pink.gif","""event"",""trial"",""time""
""fullscreenenter"",""1"",""3408""
","
","
","""event"",""trial"",""time""
""fullscreenenter"",""1"",""3408""
","
","","null","","null","","fixation","2021-07-01 19:18:38.260","","","","","",""
"card-selection-trial","38","220188","0.0-17.0-1.1","600","false","img/card_backs/set1/red.gif","img/card_backs/set1/green.gif","img/card_backs/set1/purple.gif","img/card_backs/set1/yellow.gif","img/card_backs/set2/orange.gif","img/card_backs/set2/blue.gif","img/card_backs/set2/gray.gif","img/card_backs/set2/pink.gif","""event"",""trial"",""time""
""fullscreenenter"",""1"",""3408""
","
","
","""event"",""trial"",""time""
""fullscreenenter"",""1"",""3408""
","
","","2497.699999809265","","","","practice","2021-07-01 19:18:42.769","img/practice_cards/backs/black.gif","3","-100","0","",""
"casino-fixation","39","220703","0.0-17.0-0.2","600","false","img/card_backs/set1/red.gif","img/card_backs/set1/green.gif","img/card_backs/set1/purple.gif","img/card_backs/set1/yellow.gif","img/card_backs/set2/orange.gif","img/card_backs/set2/blue.gif","img/card_backs/set2/gray.gif","img/card_backs/set2/pink.gif","""event"",""trial"",""time""
""fullscreenenter"",""1"",""3408""
","
","
","""event"",""trial"",""time""
""fullscreenenter"",""1"",""3408""
","
","","null","","null","","fixation","2021-07-01 19:18:43.284","","","","","",""
"card-selection-trial","40","225118","0.0-17.0-1.2","600","false","img/card_backs/set1/red.gif","img/card_backs/set1/green.gif","img/card_backs/set1/purple.gif","img/card_backs/set1/yellow.gif","img/card_backs/set2/orange.gif","img/card_backs/set2/blue.gif","img/card_backs/set2/gray.gif","img/card_backs/set2/pink.gif","""event"",""trial"",""time""
""fullscreenenter"",""1"",""3408""
","
","
","""event"",""trial"",""time""
""fullscreenenter"",""1"",""3408""
","
","","2399.800000190735","","","","practice","2021-07-01 19:18:47.700","img/practice_cards/backs/dark_green.gif","2","-200","0","",""
"casino-fixation","41","225622","0.0-17.0-0.3","600","false","img/card_backs/set1/red.gif","img/card_backs/set1/green.gif","img/card_backs/set1/purple.gif","img/card_backs/set1/yellow.gif","img/card_backs/set2/orange.gif","img/card_backs/set2/blue.gif","img/card_backs/set2/gray.gif","img/card_backs/set2/pink.gif","""event"",""trial"",""time""
""fullscreenenter"",""1"",""3408""
","
","
","""event"",""trial"",""time""
""fullscreenenter"",""1"",""3408""
","
","","null","","null","","fixation","2021-07-01 19:18:48.203","","","","","",""
"card-selection-trial","42","229020","0.0-17.0-1.3","600","false","img/card_backs/set1/red.gif","img/card_backs/set1/green.gif","img/card_backs/set1/purple.gif","img/card_backs/set1/yellow.gif","img/card_backs/set2/orange.gif","img/card_backs/set2/blue.gif","img/card_backs/set2/gray.gif","img/card_backs/set2/pink.gif","""event"",""trial"",""time""
""fullscreenenter"",""1"",""3408""
","
","
","""event"",""trial"",""time""
""fullscreenenter"",""1"",""3408""
","
","","1379.4000000953674","","","","practice","2021-07-01 19:18:51.601","img/practice_cards/backs/dark_blue.gif","1","-200","0","",""
"casino-fixation","43","229525","0.0-17.0-0.4","600","false","img/card_backs/set1/red.gif","img/card_backs/set1/green.gif","img/card_backs/set1/purple.gif","img/card_backs/set1/yellow.gif","img/card_backs/set2/orange.gif","img/card_backs/set2/blue.gif","img/card_backs/set2/gray.gif","img/card_backs/set2/pink.gif","""event"",""trial"",""time""
""fullscreenenter"",""1"",""3408""
","
","
","""event"",""trial"",""time""
""fullscreenenter"",""1"",""3408""
","
","","null","","null","","fixation","2021-07-01 19:18:52.106","","","","","",""
"card-selection-trial","44","233776","0.0-17.0-1.4","600","false","img/card_backs/set1/red.gif","img/card_backs/set1/green.gif","img/card_backs/set1/purple.gif","img/card_backs/set1/yellow.gif","img/card_backs/set2/orange.gif","img/card_backs/set2/blue.gif","img/card_backs/set2/gray.gif","img/card_backs/set2/pink.gif","""event"",""trial"",""time""
""fullscreenenter"",""1"",""3408""
","
","
","""event"",""trial"",""time""
""fullscreenenter"",""1"",""3408""
","
","","2237.600000143051","","","","practice","2021-07-01 19:18:56.357","img/practice_cards/backs/brown.gif","1","100","0","",""
"casino-fixation","45","234280","0.0-17.0-0.5","600","false","img/card_backs/set1/red.gif","img/card_backs/set1/green.gif","img/card_backs/set1/purple.gif","img/card_backs/set1/yellow.gif","img/card_backs/set2/orange.gif","img/card_backs/set2/blue.gif","img/card_backs/set2/gray.gif","img/card_backs/set2/pink.gif","""event"",""trial"",""time""
""fullscreenenter"",""1"",""3408""
","
","
","""event"",""trial"",""time""
""fullscreenenter"",""1"",""3408""
","
","","null","","null","","fixation","2021-07-01 19:18:56.861","","","","","",""
"card-selection-trial","46","238289","0.0-17.0-1.5","600","false","img/card_backs/set1/red.gif","img/card_backs/set1/green.gif","img/card_backs/set1/purple.gif","img/card_backs/set1/yellow.gif","img/card_backs/set2/orange.gif","img/card_backs/set2/blue.gif","img/card_backs/set2/gray.gif","img/card_backs/set2/pink.gif","""event"",""trial"",""time""
""fullscreenenter"",""1"",""3408""
","
","
","""event"",""trial"",""time""
""fullscreenenter"",""1"",""3408""
","
","","1988.5","","","","practice","2021-07-01 19:19:00.870","img/practice_cards/backs/brown.gif","1","-100","0","",""
"casino-fixation","47","238799","0.0-17.0-0.6","600","false","img/card_backs/set1/red.gif","img/card_backs/set1/green.gif","img/card_backs/set1/purple.gif","img/card_backs/set1/yellow.gif","img/card_backs/set2/orange.gif","img/card_backs/set2/blue.gif","img/card_backs/set2/gray.gif","img/card_backs/set2/pink.gif","""event"",""trial"",""time""
""fullscreenenter"",""1"",""3408""
","
","
","""event"",""trial"",""time""
""fullscreenenter"",""1"",""3408""
","
","","null","","null","","fixation","2021-07-01 19:19:01.380","","","","","",""
"card-selection-trial","48","242455","0.0-17.0-1.6","600","false","img/card_backs/set1/red.gif","img/card_backs/set1/green.gif","img/card_backs/set1/purple.gif","img/card_backs/set1/yellow.gif","img/card_backs/set2/orange.gif","img/card_backs/set2/blue.gif","img/card_backs/set2/gray.gif","img/card_backs/set2/pink.gif","""event"",""trial"",""time""
""fullscreenenter"",""1"",""3408""
","
","
","""event"",""trial"",""time""
""fullscreenenter"",""1"",""3408""
","
","","1650.2999999523163","","","","practice","2021-07-01 19:19:05.036","img/practice_cards/backs/brown.gif","2","100","0","",""
"casino-fixation","49","242956","0.0-17.0-0.7","600","false","img/card_backs/set1/red.gif","img/card_backs/set1/green.gif","img/card_backs/set1/purple.gif","img/card_backs/set1/yellow.gif","img/card_backs/set2/orange.gif","img/card_backs/set2/blue.gif","img/card_backs/set2/gray.gif","img/card_backs/set2/pink.gif","""event"",""trial"",""time""
""fullscreenenter"",""1"",""3408""
","
","
","""event"",""trial"",""time""
""fullscreenenter"",""1"",""3408""
","
","","null","","null","","fixation","2021-07-01 19:19:05.537","","","","","",""
"card-selection-trial","50","246444","0.0-17.0-1.7","600","false","img/card_backs/set1/red.gif","img/card_backs/set1/green.gif","img/card_backs/set1/purple.gif","img/card_backs/set1/yellow.gif","img/card_backs/set2/orange.gif","img/card_backs/set2/blue.gif","img/card_backs/set2/gray.gif","img/card_backs/set2/pink.gif","""event"",""trial"",""time""
""fullscreenenter"",""1"",""3408""
","
","
","""event"",""trial"",""time""
""fullscreenenter"",""1"",""3408""
","
","","1483.4000000953674","","","","practice","2021-07-01 19:19:09.025","img/practice_cards/backs/dark_blue.gif","3","-200","0","",""
"casino-fixation","51","246945","0.0-17.0-0.8","600","false","img/card_backs/set1/red.gif","img/card_backs/set1/green.gif","img/card_backs/set1/purple.gif","img/card_backs/set1/yellow.gif","img/card_backs/set2/orange.gif","img/card_backs/set2/blue.gif","img/card_backs/set2/gray.gif","img/card_backs/set2/pink.gif","""event"",""trial"",""time""
""fullscreenenter"",""1"",""3408""
","
","
","""event"",""trial"",""time""
""fullscreenenter"",""1"",""3408""
","
","","null","","null","","fixation","2021-07-01 19:19:09.527","","","","","",""
"card-selection-trial","52","250351","0.0-17.0-1.8","600","false","img/card_backs/set1/red.gif","img/card_backs/set1/green.gif","img/card_backs/set1/purple.gif","img/card_backs/set1/yellow.gif","img/card_backs/set2/orange.gif","img/card_backs/set2/blue.gif","img/card_backs/set2/gray.gif","img/card_backs/set2/pink.gif","""event"",""trial"",""time""
""fullscreenenter"",""1"",""3408""
","
","
","""event"",""trial"",""time""
""fullscreenenter"",""1"",""3408""
","
","","1400.5","","","","practice","2021-07-01 19:19:12.933","img/practice_cards/backs/black.gif","2","-100","0","",""
"casino-fixation","53","250854","0.0-17.0-0.9","600","false","img/card_backs/set1/red.gif","img/card_backs/set1/green.gif","img/card_backs/set1/purple.gif","img/card_backs/set1/yellow.gif","img/card_backs/set2/orange.gif","img/card_backs/set2/blue.gif","img/card_backs/set2/gray.gif","img/card_backs/set2/pink.gif","""event"",""trial"",""time""
""fullscreenenter"",""1"",""3408""
","
","
","""event"",""trial"",""time""
""fullscreenenter"",""1"",""3408""
","
","","null","","null","","fixation","2021-07-01 19:19:13.435","","","","","",""
"card-selection-trial","54","254596","0.0-17.0-1.9","600","false","img/card_backs/set1/red.gif","img/card_backs/set1/green.gif","img/card_backs/set1/purple.gif","img/card_backs/set1/yellow.gif","img/card_backs/set2/orange.gif","img/card_backs/set2/blue.gif","img/card_backs/set2/gray.gif","img/card_backs/set2/pink.gif","""event"",""trial"",""time""
""fullscreenenter"",""1"",""3408""
","
","
","""event"",""trial"",""time""
""fullscreenenter"",""1"",""3408""
","
","","1735.5999999046326","","","","practice","2021-07-01 19:19:17.177","img/practice_cards/backs/dark_blue.gif","1","200","0","",""
"casino-keyboard-response","55","261710","0.0-18.0","600","false","img/card_backs/set1/red.gif","img/card_backs/set1/green.gif","img/card_backs/set1/purple.gif","img/card_backs/set1/yellow.gif","img/card_backs/set2/orange.gif","img/card_backs/set2/blue.gif","img/card_backs/set2/gray.gif","img/card_backs/set2/pink.gif","""event"",""trial"",""time""
""fullscreenenter"",""1"",""3408""
","
","
","""event"",""trial"",""time""
""fullscreenenter"",""1"",""3408""
","
","","7112.5","You earned -700 tokens during the practice round!","82","","","2021-07-01 19:19:24.291","","","","","",""
"casino-keyboard-response","56","265945","0.0-19.0-0.0","600","false","img/card_backs/set1/red.gif","img/card_backs/set1/green.gif","img/card_backs/set1/purple.gif","img/card_backs/set1/yellow.gif","img/card_backs/set2/orange.gif","img/card_backs/set2/blue.gif","img/card_backs/set2/gray.gif","img/card_backs/set2/pink.gif","""event"",""trial"",""time""
""fullscreenenter"",""1"",""3408""
","
","
","""event"",""trial"",""time""
""fullscreenenter"",""1"",""3408""
","
","","4233.799999952316","Nice job! You are almost ready to play the real game.","86","","instructions","2021-07-01 19:19:28.526","","","","","",""
"casino-keyboard-response","57","273233","0.0-19.0-0.1","600","false","img/card_backs/set1/red.gif","img/card_backs/set1/green.gif","img/card_backs/set1/purple.gif","img/card_backs/set1/yellow.gif","img/card_backs/set2/orange.gif","img/card_backs/set2/blue.gif","img/card_backs/set2/gray.gif","img/card_backs/set2/pink.gif","""event"",""trial"",""time""
""fullscreenenter"",""1"",""3408""
","
","
","""event"",""trial"",""time""
""fullscreenenter"",""1"",""3408""
","
","","7287","You will play two rounds of the real game. In each round, you will pick 100 cards in total.","73","","instructions","2021-07-01 19:19:35.814","","","","","",""
"casino-keyboard-response","58","277480","0.0-19.0-0.2","600","false","img/card_backs/set1/red.gif","img/card_backs/set1/green.gif","img/card_backs/set1/purple.gif","img/card_backs/set1/yellow.gif","img/card_backs/set2/orange.gif","img/card_backs/set2/blue.gif","img/card_backs/set2/gray.gif","img/card_backs/set2/pink.gif","""event"",""trial"",""time""
""fullscreenenter"",""1"",""3408""
","
","
","""event"",""trial"",""time""
""fullscreenenter"",""1"",""3408""
","
","","4245.5","We are now going to ask you some questions about how the game works.","66","","instructions","2021-07-01 19:19:40.061","","","","","",""
"casino-keyboard-response","59","283430","0.0-19.0-0.3","600","false","img/card_backs/set1/red.gif","img/card_backs/set1/green.gif","img/card_backs/set1/purple.gif","img/card_backs/set1/yellow.gif","img/card_backs/set2/orange.gif","img/card_backs/set2/blue.gif","img/card_backs/set2/gray.gif","img/card_backs/set2/pink.gif","""event"",""trial"",""time""
""fullscreenenter"",""1"",""3408""
","
","
","""event"",""trial"",""time""
""fullscreenenter"",""1"",""3408""
","
","","5948.799999952316","Answer carefully. You will not be able to begin the game until you answer them correctly.","67","","instructions","2021-07-01 19:19:46.011","","","","","",""
"casino-comp_q","60","291427","0.0-20.0-0.0","600","false","img/card_backs/set1/red.gif","img/card_backs/set1/green.gif","img/card_backs/set1/purple.gif","img/card_backs/set1/yellow.gif","img/card_backs/set2/orange.gif","img/card_backs/set2/blue.gif","img/card_backs/set2/gray.gif","img/card_backs/set2/pink.gif","""event"",""trial"",""time""
""fullscreenenter"",""1"",""3408""
","
","
","""event"",""trial"",""time""
""fullscreenenter"",""1"",""3408""
","
","","7994.399999856949","True or False: All the decks have some cards that cause you to win tokens and some cards that cause you to lose tokens.","84","","","2021-07-01 19:19:54.010","","","","","",""
"casino-keyboard-response","61","295033","0.0-20.0-1.0","600","false","img/card_backs/set1/red.gif","img/card_backs/set1/green.gif","img/card_backs/set1/purple.gif","img/card_backs/set1/yellow.gif","img/card_backs/set2/orange.gif","img/card_backs/set2/blue.gif","img/card_backs/set2/gray.gif","img/card_backs/set2/pink.gif","""event"",""trial"",""time""
""fullscreenenter"",""1"",""3408""
","
","
","""event"",""trial"",""time""
""fullscreenenter"",""1"",""3408""
","
","","3601.7000000476837","True is correct! All the decks have a mix of winning and losing cards.","77","","","2021-07-01 19:19:57.614","","","","","true",""
"casino-comp_q","62","298537","0.0-21.0-0.0","600","false","img/card_backs/set1/red.gif","img/card_backs/set1/green.gif","img/card_backs/set1/purple.gif","img/card_backs/set1/yellow.gif","img/card_backs/set2/orange.gif","img/card_backs/set2/blue.gif","img/card_backs/set2/gray.gif","img/card_backs/set2/pink.gif","""event"",""trial"",""time""
""fullscreenenter"",""1"",""3408""
","
","
","""event"",""trial"",""time""
""fullscreenenter"",""1"",""3408""
","
","","3500.5999999046326","True or False: You will have as much time as you want to make your response.","70","","","2021-07-01 19:20:01.118","","","","","",""
"casino-keyboard-response","63","305076","0.0-21.0-1.0","600","false","img/card_backs/set1/red.gif","img/card_backs/set1/green.gif","img/card_backs/set1/purple.gif","img/card_backs/set1/yellow.gif","img/card_backs/set2/orange.gif","img/card_backs/set2/blue.gif","img/card_backs/set2/gray.gif","img/card_backs/set2/pink.gif","""event"",""trial"",""time""
""fullscreenenter"",""1"",""3408""
","
","
","""event"",""trial"",""time""
""fullscreenenter"",""1"",""3408""
","
","","6536.5","False is correct! You will only have 10 seconds to make each choice.","75","","","2021-07-01 19:20:07.657","","","","","true",""
"casino-comp_q","64","309865","0.0-22.0-0.0","600","false","img/card_backs/set1/red.gif","img/card_backs/set1/green.gif","img/card_backs/set1/purple.gif","img/card_backs/set1/yellow.gif","img/card_backs/set2/orange.gif","img/card_backs/set2/blue.gif","img/card_backs/set2/gray.gif","img/card_backs/set2/pink.gif","""event"",""trial"",""time""
""fullscreenenter"",""1"",""3408""
","
","
","""event"",""trial"",""time""
""fullscreenenter"",""1"",""3408""
","
","","4787.900000095367","True or False: The location of the deck determines how lucky it is.","70","","","2021-07-01 19:20:12.446","","","","","",""
"casino-keyboard-response","65","313185","0.0-22.0-1.0","600","false","img/card_backs/set1/red.gif","img/card_backs/set1/green.gif","img/card_backs/set1/purple.gif","img/card_backs/set1/yellow.gif","img/card_backs/set2/orange.gif","img/card_backs/set2/blue.gif","img/card_backs/set2/gray.gif","img/card_backs/set2/pink.gif","""event"",""trial"",""time""
""fullscreenenter"",""1"",""3408""
","
","
","""event"",""trial"",""time""
""fullscreenenter"",""1"",""3408""
","
","","3318.5999999046326","False is correct! The <i>color</i>  of the deck determines how lucky or unlucky it is.","68","","","2021-07-01 19:20:15.766","","","","","true",""
"casino-keyboard-response","66","317669","0.0-23.0-0.0","600","false","img/card_backs/set1/red.gif","img/card_backs/set1/green.gif","img/card_backs/set1/purple.gif","img/card_backs/set1/yellow.gif","img/card_backs/set2/orange.gif","img/card_backs/set2/blue.gif","img/card_backs/set2/gray.gif","img/card_backs/set2/pink.gif","""event"",""trial"",""time""
""fullscreenenter"",""1"",""3408""
","
","
","""event"",""trial"",""time""
""fullscreenenter"",""1"",""3408""
","
","","4483.5","Great job! Now it's time to start the real game.","82","","instructions","2021-07-01 19:20:20.250","","","","","",""
"casino-keyboard-response","67","323078","0.0-23.0-0.1","600","false","img/card_backs/set1/red.gif","img/card_backs/set1/green.gif","img/card_backs/set1/purple.gif","img/card_backs/set1/yellow.gif","img/card_backs/set2/orange.gif","img/card_backs/set2/blue.gif","img/card_backs/set2/gray.gif","img/card_backs/set2/pink.gif","""event"",""trial"",""time""
""fullscreenenter"",""1"",""3408""
","
","
","""event"",""trial"",""time""
""fullscreenenter"",""1"",""3408""
","
","","5407.699999809265","Before we start, we're going to head into a new room of the casino.","86","","instructions","2021-07-01 19:20:25.659","","","","","",""
"casino-keyboard-response","68","329431","0.0-24.0-0.0","600","false","img/card_backs/set1/red.gif","img/card_backs/set1/green.gif","img/card_backs/set1/purple.gif","img/card_backs/set1/yellow.gif","img/card_backs/set2/orange.gif","img/card_backs/set2/blue.gif","img/card_backs/set2/gray.gif","img/card_backs/set2/pink.gif","""event"",""trial"",""time""
""fullscreenenter"",""1"",""3408""
","
","
","""event"",""trial"",""time""
""fullscreenenter"",""1"",""3408""
","
","","6351","Here we are! The real game will use different cards, but the rules will be the same.","71","","instructions","2021-07-01 19:20:32.012","","","","","",""
"casino-keyboard-response","69","339374","0.0-24.0-0.1","600","false","img/card_backs/set1/red.gif","img/card_backs/set1/green.gif","img/card_backs/set1/purple.gif","img/card_backs/set1/yellow.gif","img/card_backs/set2/orange.gif","img/card_backs/set2/blue.gif","img/card_backs/set2/gray.gif","img/card_backs/set2/pink.gif","""event"",""trial"",""time""
""fullscreenenter"",""1"",""3408""
","
","
","""event"",""trial"",""time""
""fullscreenenter"",""1"",""3408""
","
","","9941.5","Ready? Put your fingers over the '2', '4', 6', and '8' keys so you are ready to play the game. </br> Then press 2 to start.","50","","instructions","2021-07-01 19:20:41.955","","","","","",""
"casino-fixation","70","339883","0.0-25.0-0.0","600","false","img/card_backs/set1/red.gif","img/card_backs/set1/green.gif","img/card_backs/set1/purple.gif","img/card_backs/set1/yellow.gif","img/card_backs/set2/orange.gif","img/card_backs/set2/blue.gif","img/card_backs/set2/gray.gif","img/card_backs/set2/pink.gif","""event"",""trial"",""time""
""fullscreenenter"",""1"",""3408""
","
","
","""event"",""trial"",""time""
""fullscreenenter"",""1"",""3408""
","
","","null","","null","","fixation","2021-07-01 19:20:42.464","","","","","",""
"card-selection-trial","71","343783","0.0-25.0-1.0","600","false","img/card_backs/set1/red.gif","img/card_backs/set1/green.gif","img/card_backs/set1/purple.gif","img/card_backs/set1/yellow.gif","img/card_backs/set2/orange.gif","img/card_backs/set2/blue.gif","img/card_backs/set2/gray.gif","img/card_backs/set2/pink.gif","""event"",""trial"",""time""
""fullscreenenter"",""1"",""3408""
","
","
","""event"",""trial"",""time""
""fullscreenenter"",""1"",""3408""
","
","","1881.7999999523163","","","","real_trial","2021-07-01 19:20:46.365","img/card_backs/set1/yellow.gif","2","120","1","",""
"casino-fixation","72","344303","0.0-25.0-0.1","600","false","img/card_backs/set1/red.gif","img/card_backs/set1/green.gif","img/card_backs/set1/purple.gif","img/card_backs/set1/yellow.gif","img/card_backs/set2/orange.gif","img/card_backs/set2/blue.gif","img/card_backs/set2/gray.gif","img/card_backs/set2/pink.gif","""event"",""trial"",""time""
""fullscreenenter"",""1"",""3408""
","
","
","""event"",""trial"",""time""
""fullscreenenter"",""1"",""3408""
","
","","null","","null","","fixation","2021-07-01 19:20:46.884","","","","","",""
"card-selection-trial","73","348163","0.0-25.0-1.1","600","false","img/card_backs/set1/red.gif","img/card_backs/set1/green.gif","img/card_backs/set1/purple.gif","img/card_backs/set1/yellow.gif","img/card_backs/set2/orange.gif","img/card_backs/set2/blue.gif","img/card_backs/set2/gray.gif","img/card_backs/set2/pink.gif","""event"",""trial"",""time""
""fullscreenenter"",""1"",""3408""
","
","
","""event"",""trial"",""time""
""fullscreenenter"",""1"",""3408""
","
","","1844.5","","","","real_trial","2021-07-01 19:20:50.744","img/card_backs/set1/yellow.gif","2","110","1","",""
"casino-fixation","74","348685","0.0-25.0-0.2","600","false","img/card_backs/set1/red.gif","img/card_backs/set1/green.gif","img/card_backs/set1/purple.gif","img/card_backs/set1/yellow.gif","img/card_backs/set2/orange.gif","img/card_backs/set2/blue.gif","img/card_backs/set2/gray.gif","img/card_backs/set2/pink.gif","""event"",""trial"",""time""
""fullscreenenter"",""1"",""3408""
","
","
","""event"",""trial"",""time""
""fullscreenenter"",""1"",""3408""
","
","","null","","null","","fixation","2021-07-01 19:20:51.266","","","","","",""
"card-selection-trial","75","352183","0.0-25.0-1.2","600","false","img/card_backs/set1/red.gif","img/card_backs/set1/green.gif","img/card_backs/set1/purple.gif","img/card_backs/set1/yellow.gif","img/card_backs/set2/orange.gif","img/card_backs/set2/blue.gif","img/card_backs/set2/gray.gif","img/card_backs/set2/pink.gif","""event"",""trial"",""time""
""fullscreenenter"",""1"",""3408""
","
","
","""event"",""trial"",""time""
""fullscreenenter"",""1"",""3408""
","
","","1482.6000001430511","","","","real_trial","2021-07-01 19:20:54.764","img/card_backs/set1/yellow.gif","2","-60","1","",""
"casino-fixation","76","352703","0.0-25.0-0.3","600","false","img/card_backs/set1/red.gif","img/card_backs/set1/green.gif","img/card_backs/set1/purple.gif","img/card_backs/set1/yellow.gif","img/card_backs/set2/orange.gif","img/card_backs/set2/blue.gif","img/card_backs/set2/gray.gif","img/card_backs/set2/pink.gif","""event"",""trial"",""time""
""fullscreenenter"",""1"",""3408""
","
","
","""event"",""trial"",""time""
""fullscreenenter"",""1"",""3408""
","
","","null","","null","","fixation","2021-07-01 19:20:55.284","","","","","",""
"card-selection-trial","77","356934","0.0-25.0-1.3","600","false","img/card_backs/set1/red.gif","img/card_backs/set1/green.gif","img/card_backs/set1/purple.gif","img/card_backs/set1/yellow.gif","img/card_backs/set2/orange.gif","img/card_backs/set2/blue.gif","img/card_backs/set2/gray.gif","img/card_backs/set2/pink.gif","""event"",""trial"",""time""
""fullscreenenter"",""1"",""3408""
","
","
","""event"",""trial"",""time""
""fullscreenenter"",""1"",""3408""
","
","","2218.4000000953674","","","","real_trial","2021-07-01 19:20:59.515","img/card_backs/set1/green.gif","1","180","1","",""
"casino-fixation","78","357454","0.0-25.0-0.4","600","false","img/card_backs/set1/red.gif","img/card_backs/set1/green.gif","img/card_backs/set1/purple.gif","img/card_backs/set1/yellow.gif","img/card_backs/set2/orange.gif","img/card_backs/set2/blue.gif","img/card_backs/set2/gray.gif","img/card_backs/set2/pink.gif","""event"",""trial"",""time""
""fullscreenenter"",""1"",""3408""
","
","
","""event"",""trial"",""time""
""fullscreenenter"",""1"",""3408""
","
","","null","","null","","fixation","2021-07-01 19:21:00.035","","","","","",""
"card-selection-trial","79","361363","0.0-25.0-1.4","600","false","img/card_backs/set1/red.gif","img/card_backs/set1/green.gif","img/card_backs/set1/purple.gif","img/card_backs/set1/yellow.gif","img/card_backs/set2/orange.gif","img/card_backs/set2/blue.gif","img/card_backs/set2/gray.gif","img/card_backs/set2/pink.gif","""event"",""trial"",""time""
""fullscreenenter"",""1"",""3408""
","
","
","""event"",""trial"",""time""
""fullscreenenter"",""1"",""3408""
","
","","1902","","","","real_trial","2021-07-01 19:21:03.944","img/card_backs/set1/red.gif","1","200","1","",""
"casino-fixation","80","361879","0.0-25.0-0.5","600","false","img/card_backs/set1/red.gif","img/card_backs/set1/green.gif","img/card_backs/set1/purple.gif","img/card_backs/set1/yellow.gif","img/card_backs/set2/orange.gif","img/card_backs/set2/blue.gif","img/card_backs/set2/gray.gif","img/card_backs/set2/pink.gif","""event"",""trial"",""time""
""fullscreenenter"",""1"",""3408""
","
","
","""event"",""trial"",""time""
""fullscreenenter"",""1"",""3408""
","
","","null","","null","","fixation","2021-07-01 19:21:04.460","","","","","",""
"card-selection-trial","81","365433","0.0-25.0-1.5","600","false","img/card_backs/set1/red.gif","img/card_backs/set1/green.gif","img/card_backs/set1/purple.gif","img/card_backs/set1/yellow.gif","img/card_backs/set2/orange.gif","img/card_backs/set2/blue.gif","img/card_backs/set2/gray.gif","img/card_backs/set2/pink.gif","""event"",""trial"",""time""
""fullscreenenter"",""1"",""3408""
","
","
","""event"",""trial"",""time""
""fullscreenenter"",""1"",""3408""
","
","","1536.3999998569489","","","","real_trial","2021-07-01 19:21:08.014","img/card_backs/set1/red.gif","0","180","1","",""
"casino-fixation","82","365952","0.0-25.0-0.6","600","false","img/card_backs/set1/red.gif","img/card_backs/set1/green.gif","img/card_backs/set1/purple.gif","img/card_backs/set1/yellow.gif","img/card_backs/set2/orange.gif","img/card_backs/set2/blue.gif","img/card_backs/set2/gray.gif","img/card_backs/set2/pink.gif","""event"",""trial"",""time""
""fullscreenenter"",""1"",""3408""
","
","
","""event"",""trial"",""time""
""fullscreenenter"",""1"",""3408""
","
","","null","","null","","fixation","2021-07-01 19:21:08.533","","","","","",""
"card-selection-trial","83","369272","0.0-25.0-1.6","600","false","img/card_backs/set1/red.gif","img/card_backs/set1/green.gif","img/card_backs/set1/purple.gif","img/card_backs/set1/yellow.gif","img/card_backs/set2/orange.gif","img/card_backs/set2/blue.gif","img/card_backs/set2/gray.gif","img/card_backs/set2/pink.gif","""event"",""trial"",""time""
""fullscreenenter"",""1"",""3408""
","
","
","""event"",""trial"",""time""
""fullscreenenter"",""1"",""3408""
","
","","1314.7000000476837","","","","real_trial","2021-07-01 19:21:11.853","img/card_backs/set1/yellow.gif","1","110","1","",""
"casino-fixation","84","369783","0.0-25.0-0.7","600","false","img/card_backs/set1/red.gif","img/card_backs/set1/green.gif","img/card_backs/set1/purple.gif","img/card_backs/set1/yellow.gif","img/card_backs/set2/orange.gif","img/card_backs/set2/blue.gif","img/card_backs/set2/gray.gif","img/card_backs/set2/pink.gif","""event"",""trial"",""time""
""fullscreenenter"",""1"",""3408""
","
","
","""event"",""trial"",""time""
""fullscreenenter"",""1"",""3408""
","
","","null","","null","","fixation","2021-07-01 19:21:12.364","","","","","",""
"card-selection-trial","85","373057","0.0-25.0-1.7","600","false","img/card_backs/set1/red.gif","img/card_backs/set1/green.gif","img/card_backs/set1/purple.gif","img/card_backs/set1/yellow.gif","img/card_backs/set2/orange.gif","img/card_backs/set2/blue.gif","img/card_backs/set2/gray.gif","img/card_backs/set2/pink.gif","""event"",""trial"",""time""
""fullscreenenter"",""1"",""3408""
","
","
","""event"",""trial"",""time""
""fullscreenenter"",""1"",""3408""
","
","","1269.9000000953674","","","","real_trial","2021-07-01 19:21:15.638","img/card_backs/set1/red.gif","2","180","1","",""
"casino-fixation","86","373558","0.0-25.0-0.8","600","false","img/card_backs/set1/red.gif","img/card_backs/set1/green.gif","img/card_backs/set1/purple.gif","img/card_backs/set1/yellow.gif","img/card_backs/set2/orange.gif","img/card_backs/set2/blue.gif","img/card_backs/set2/gray.gif","img/card_backs/set2/pink.gif","""event"",""trial"",""time""
""fullscreenenter"",""1"",""3408""
","
","
","""event"",""trial"",""time""
""fullscreenenter"",""1"",""3408""
","
","","null","","null","","fixation","2021-07-01 19:21:16.139","","","","","",""
"card-selection-trial","87","376318","0.0-25.0-1.8","600","false","img/card_backs/set1/red.gif","img/card_backs/set1/green.gif","img/card_backs/set1/purple.gif","img/card_backs/set1/yellow.gif","img/card_backs/set2/orange.gif","img/card_backs/set2/blue.gif","img/card_backs/set2/gray.gif","img/card_backs/set2/pink.gif","""event"",""trial"",""time""
""fullscreenenter"",""1"",""3408""
","
","
","""event"",""trial"",""time""
""fullscreenenter"",""1"",""3408""
","
","","754","","","","real_trial","2021-07-01 19:21:18.899","img/card_backs/set1/green.gif","3","180","1","",""
"casino-fixation","88","376819","0.0-25.0-0.9","600","false","img/card_backs/set1/red.gif","img/card_backs/set1/green.gif","img/card_backs/set1/purple.gif","img/card_backs/set1/yellow.gif","img/card_backs/set2/orange.gif","img/card_backs/set2/blue.gif","img/card_backs/set2/gray.gif","img/card_backs/set2/pink.gif","""event"",""trial"",""time""
""fullscreenenter"",""1"",""3408""
","
","
","""event"",""trial"",""time""
""fullscreenenter"",""1"",""3408""
","
","","null","","null","","fixation","2021-07-01 19:21:19.400","","","","","",""
"card-selection-trial","89","381452","0.0-25.0-1.9","600","false","img/card_backs/set1/red.gif","img/card_backs/set1/green.gif","img/card_backs/set1/purple.gif","img/card_backs/set1/yellow.gif","img/card_backs/set2/orange.gif","img/card_backs/set2/blue.gif","img/card_backs/set2/gray.gif","img/card_backs/set2/pink.gif","""event"",""trial"",""time""
""fullscreenenter"",""1"",""3408""
","
","
","""event"",""trial"",""time""
""fullscreenenter"",""1"",""3408""
","
","","2628.600000143051","","","","real_trial","2021-07-01 19:21:24.033","img/card_backs/set1/green.gif","2","-230","1","",""
"casino-fixation","90","381955","0.0-25.0-0.10","600","false","img/card_backs/set1/red.gif","img/card_backs/set1/green.gif","img/card_backs/set1/purple.gif","img/card_backs/set1/yellow.gif","img/card_backs/set2/orange.gif","img/card_backs/set2/blue.gif","img/card_backs/set2/gray.gif","img/card_backs/set2/pink.gif","""event"",""trial"",""time""
""fullscreenenter"",""1"",""3408""
","
","
","""event"",""trial"",""time""
""fullscreenenter"",""1"",""3408""
","
","","null","","null","","fixation","2021-07-01 19:21:24.536","","","","","",""
"card-selection-trial","91","386177","0.0-25.0-1.10","600","false","img/card_backs/set1/red.gif","img/card_backs/set1/green.gif","img/card_backs/set1/purple.gif","img/card_backs/set1/yellow.gif","img/card_backs/set2/orange.gif","img/card_backs/set2/blue.gif","img/card_backs/set2/gray.gif","img/card_backs/set2/pink.gif","""event"",""trial"",""time""
""fullscreenenter"",""1"",""3408""
","
","
","""event"",""trial"",""time""
""fullscreenenter"",""1"",""3408""
","
","","2217.7999999523163","","","","real_trial","2021-07-01 19:21:28.758","img/card_backs/set1/yellow.gif","3","100","1","",""
"casino-fixation","92","386678","0.0-25.0-0.11","600","false","img/card_backs/set1/red.gif","img/card_backs/set1/green.gif","img/card_backs/set1/purple.gif","img/card_backs/set1/yellow.gif","img/card_backs/set2/orange.gif","img/card_backs/set2/blue.gif","img/card_backs/set2/gray.gif","img/card_backs/set2/pink.gif","""event"",""trial"",""time""
""fullscreenenter"",""1"",""3408""
","
","
","""event"",""trial"",""time""
""fullscreenenter"",""1"",""3408""
","
","","null","","null","","fixation","2021-07-01 19:21:29.259","","","","","",""
"card-selection-trial","93","389903","0.0-25.0-1.11","600","false","img/card_backs/set1/red.gif","img/card_backs/set1/green.gif","img/card_backs/set1/purple.gif","img/card_backs/set1/yellow.gif","img/card_backs/set2/orange.gif","img/card_backs/set2/blue.gif","img/card_backs/set2/gray.gif","img/card_backs/set2/pink.gif","""event"",""trial"",""time""
""fullscreenenter"",""1"",""3408""
","
","
","""event"",""trial"",""time""
""fullscreenenter"",""1"",""3408""
","
","","1219.6000001430511","","","","real_trial","2021-07-01 19:21:32.485","img/card_backs/set1/purple.gif","1","-70","1","",""
"casino-fixation","94","390406","0.0-25.0-0.12","600","false","img/card_backs/set1/red.gif","img/card_backs/set1/green.gif","img/card_backs/set1/purple.gif","img/card_backs/set1/yellow.gif","img/card_backs/set2/orange.gif","img/card_backs/set2/blue.gif","img/card_backs/set2/gray.gif","img/card_backs/set2/pink.gif","""event"",""trial"",""time""
""fullscreenenter"",""1"",""3408""
","
","
","""event"",""trial"",""time""
""fullscreenenter"",""1"",""3408""
","
","","null","","null","","fixation","2021-07-01 19:21:32.988","","","","","",""
"card-selection-trial","95","393599","0.0-25.0-1.12","600","false","img/card_backs/set1/red.gif","img/card_backs/set1/green.gif","img/card_backs/set1/purple.gif","img/card_backs/set1/yellow.gif","img/card_backs/set2/orange.gif","img/card_backs/set2/blue.gif","img/card_backs/set2/gray.gif","img/card_backs/set2/pink.gif","""event"",""trial"",""time""
""fullscreenenter"",""1"",""3408""
","
","
","""event"",""trial"",""time""
""fullscreenenter"",""1"",""3408""
","
","","1187.1999998092651","","","","real_trial","2021-07-01 19:21:36.180","img/card_backs/set1/green.gif","0","180","1","",""
"casino-fixation","96","394101","0.0-25.0-0.13","600","false","img/card_backs/set1/red.gif","img/card_backs/set1/green.gif","img/card_backs/set1/purple.gif","img/card_backs/set1/yellow.gif","img/card_backs/set2/orange.gif","img/card_backs/set2/blue.gif","img/card_backs/set2/gray.gif","img/card_backs/set2/pink.gif","""event"",""trial"",""time""
""fullscreenenter"",""1"",""3408""
","
","
","""event"",""trial"",""time""
""fullscreenenter"",""1"",""3408""
","
","","null","","null","","fixation","2021-07-01 19:21:36.682","","","","","",""
"card-selection-trial","97","396719","0.0-25.0-1.13","600","false","img/card_backs/set1/red.gif","img/card_backs/set1/green.gif","img/card_backs/set1/purple.gif","img/card_backs/set1/yellow.gif","img/card_backs/set2/orange.gif","img/card_backs/set2/blue.gif","img/card_backs/set2/gray.gif","img/card_backs/set2/pink.gif","""event"",""trial"",""time""
""fullscreenenter"",""1"",""3408""
","
","
","""event"",""trial"",""time""
""fullscreenenter"",""1"",""3408""
","
","","613.9000000953674","","","","real_trial","2021-07-01 19:21:39.300","img/card_backs/set1/red.gif","1","190","1","",""
"casino-fixation","98","397221","0.0-25.0-0.14","600","false","img/card_backs/set1/red.gif","img/card_backs/set1/green.gif","img/card_backs/set1/purple.gif","img/card_backs/set1/yellow.gif","img/card_backs/set2/orange.gif","img/card_backs/set2/blue.gif","img/card_backs/set2/gray.gif","img/card_backs/set2/pink.gif","""event"",""trial"",""time""
""fullscreenenter"",""1"",""3408""
","
","
","""event"",""trial"",""time""
""fullscreenenter"",""1"",""3408""
","
","","null","","null","","fixation","2021-07-01 19:21:39.802","","","","","",""
"card-selection-trial","99","399768","0.0-25.0-1.14","600","false","img/card_backs/set1/red.gif","img/card_backs/set1/green.gif","img/card_backs/set1/purple.gif","img/card_backs/set1/yellow.gif","img/card_backs/set2/orange.gif","img/card_backs/set2/blue.gif","img/card_backs/set2/gray.gif","img/card_backs/set2/pink.gif","""event"",""trial"",""time""
""fullscreenenter"",""1"",""3408""
","
","
","""event"",""trial"",""time""
""fullscreenenter"",""1"",""3408""
","
","","542.5","","","","real_trial","2021-07-01 19:21:42.349","img/card_backs/set1/green.gif","2","200","1","",""
"casino-fixation","100","400270","0.0-25.0-0.15","600","false","img/card_backs/set1/red.gif","img/card_backs/set1/green.gif","img/card_backs/set1/purple.gif","img/card_backs/set1/yellow.gif","img/card_backs/set2/orange.gif","img/card_backs/set2/blue.gif","img/card_backs/set2/gray.gif","img/card_backs/set2/pink.gif","""event"",""trial"",""time""
""fullscreenenter"",""1"",""3408""
","
","
","""event"",""trial"",""time""
""fullscreenenter"",""1"",""3408""
","
","","null","","null","","fixation","2021-07-01 19:21:42.851","","","","","",""
"card-selection-trial","101","402786","0.0-25.0-1.15","600","false","img/card_backs/set1/red.gif","img/card_backs/set1/green.gif","img/card_backs/set1/purple.gif","img/card_backs/set1/yellow.gif","img/card_backs/set2/orange.gif","img/card_backs/set2/blue.gif","img/card_backs/set2/gray.gif","img/card_backs/set2/pink.gif","""event"",""trial"",""time""
""fullscreenenter"",""1"",""3408""
","
","
","""event"",""trial"",""time""
""fullscreenenter"",""1"",""3408""
","
","","512.2999999523163","","","","real_trial","2021-07-01 19:21:45.368","img/card_backs/set1/purple.gif","3","120","1","",""
"casino-fixation","102","403289","0.0-25.0-0.16","600","false","img/card_backs/set1/red.gif","img/card_backs/set1/green.gif","img/card_backs/set1/purple.gif","img/card_backs/set1/yellow.gif","img/card_backs/set2/orange.gif","img/card_backs/set2/blue.gif","img/card_backs/set2/gray.gif","img/card_backs/set2/pink.gif","""event"",""trial"",""time""
""fullscreenenter"",""1"",""3408""
","
","
","""event"",""trial"",""time""
""fullscreenenter"",""1"",""3408""
","
","","null","","null","","fixation","2021-07-01 19:21:45.870","","","","","",""
"card-selection-trial","103","406669","0.0-25.0-1.16","600","false","img/card_backs/set1/red.gif","img/card_backs/set1/green.gif","img/card_backs/set1/purple.gif","img/card_backs/set1/yellow.gif","img/card_backs/set2/orange.gif","img/card_backs/set2/blue.gif","img/card_backs/set2/gray.gif","img/card_backs/set2/pink.gif","""event"",""trial"",""time""
""fullscreenenter"",""1"",""3408""
","
","
","""event"",""trial"",""time""
""fullscreenenter"",""1"",""3408""
","
","","1376.0999999046326","","","","real_trial","2021-07-01 19:21:49.250","img/card_backs/set1/purple.gif","1","-70","1","",""
"casino-fixation","104","407172","0.0-25.0-0.17","600","false","img/card_backs/set1/red.gif","img/card_backs/set1/green.gif","img/card_backs/set1/purple.gif","img/card_backs/set1/yellow.gif","img/card_backs/set2/orange.gif","img/card_backs/set2/blue.gif","img/card_backs/set2/gray.gif","img/card_backs/set2/pink.gif","""event"",""trial"",""time""
""fullscreenenter"",""1"",""3408""
","
","
","""event"",""trial"",""time""
""fullscreenenter"",""1"",""3408""
","
","","null","","null","","fixation","2021-07-01 19:21:49.753","","","","","",""
"card-selection-trial","105","409635","0.0-25.0-1.17","600","false","img/card_backs/set1/red.gif","img/card_backs/set1/green.gif","img/card_backs/set1/purple.gif","img/card_backs/set1/yellow.gif","img/card_backs/set2/orange.gif","img/card_backs/set2/blue.gif","img/card_backs/set2/gray.gif","img/card_backs/set2/pink.gif","""event"",""trial"",""time""
""fullscreenenter"",""1"",""3408""
","
","
","""event"",""trial"",""time""
""fullscreenenter"",""1"",""3408""
","
","","459.59999990463257","","","","real_trial","2021-07-01 19:21:52.216","img/card_backs/set1/green.gif","0","180","1","",""
"casino-fixation","106","410138","0.0-25.0-0.18","600","false","img/card_backs/set1/red.gif","img/card_backs/set1/green.gif","img/card_backs/set1/purple.gif","img/card_backs/set1/yellow.gif","img/card_backs/set2/orange.gif","img/card_backs/set2/blue.gif","img/card_backs/set2/gray.gif","img/card_backs/set2/pink.gif","""event"",""trial"",""time""
""fullscreenenter"",""1"",""3408""
","
","
","""event"",""trial"",""time""
""fullscreenenter"",""1"",""3408""
","
","","null","","null","","fixation","2021-07-01 19:21:52.719","","","","","",""
"card-selection-trial","107","412857","0.0-25.0-1.18","600","false","img/card_backs/set1/red.gif","img/card_backs/set1/green.gif","img/card_backs/set1/purple.gif","img/card_backs/set1/yellow.gif","img/card_backs/set2/orange.gif","img/card_backs/set2/blue.gif","img/card_backs/set2/gray.gif","img/card_backs/set2/pink.gif","""event"",""trial"",""time""
""fullscreenenter"",""1"",""3408""
","
","
","""event"",""trial"",""time""
""fullscreenenter"",""1"",""3408""
","
","","713.5","","","","real_trial","2021-07-01 19:21:55.438","img/card_backs/set1/red.gif","1","-230","1","",""
"casino-fixation","108","413359","0.0-25.0-0.19","600","false","img/card_backs/set1/red.gif","img/card_backs/set1/green.gif","img/card_backs/set1/purple.gif","img/card_backs/set1/yellow.gif","img/card_backs/set2/orange.gif","img/card_backs/set2/blue.gif","img/card_backs/set2/gray.gif","img/card_backs/set2/pink.gif","""event"",""trial"",""time""
""fullscreenenter"",""1"",""3408""
","
","
","""event"",""trial"",""time""
""fullscreenenter"",""1"",""3408""
","
","","null","","null","","fixation","2021-07-01 19:21:55.940","","","","","",""
"card-selection-trial","109","415716","0.0-25.0-1.19","600","false","img/card_backs/set1/red.gif","img/card_backs/set1/green.gif","img/card_backs/set1/purple.gif","img/card_backs/set1/yellow.gif","img/card_backs/set2/orange.gif","img/card_backs/set2/blue.gif","img/card_backs/set2/gray.gif","img/card_backs/set2/pink.gif","""event"",""trial"",""time""
""fullscreenenter"",""1"",""3408""
","
","
","""event"",""trial"",""time""
""fullscreenenter"",""1"",""3408""
","
","","351.09999990463257","","","","real_trial","2021-07-01 19:21:58.297","img/card_backs/set1/red.gif","2","200","1","",""
"casino-fixation","110","416218","0.0-25.0-0.20","600","false","img/card_backs/set1/red.gif","img/card_backs/set1/green.gif","img/card_backs/set1/purple.gif","img/card_backs/set1/yellow.gif","img/card_backs/set2/orange.gif","img/card_backs/set2/blue.gif","img/card_backs/set2/gray.gif","img/card_backs/set2/pink.gif","""event"",""trial"",""time""
""fullscreenenter"",""1"",""3408""
","
","
","""event"",""trial"",""time""
""fullscreenenter"",""1"",""3408""
","
","","null","","null","","fixation","2021-07-01 19:21:58.799","","","","","",""
"card-selection-trial","111","419312","0.0-25.0-1.20","600","false","img/card_backs/set1/red.gif","img/card_backs/set1/green.gif","img/card_backs/set1/purple.gif","img/card_backs/set1/yellow.gif","img/card_backs/set2/orange.gif","img/card_backs/set2/blue.gif","img/card_backs/set2/gray.gif","img/card_backs/set2/pink.gif","""event"",""trial"",""time""
""fullscreenenter"",""1"",""3408""
","
","
","""event"",""trial"",""time""
""fullscreenenter"",""1"",""3408""
","
","","1089.7999999523163","","","","real_trial","2021-07-01 19:22:01.893","img/card_backs/set1/purple.gif","3","100","1","",""
"casino-fixation","112","419813","0.0-25.0-0.21","600","false","img/card_backs/set1/red.gif","img/card_backs/set1/green.gif","img/card_backs/set1/purple.gif","img/card_backs/set1/yellow.gif","img/card_backs/set2/orange.gif","img/card_backs/set2/blue.gif","img/card_backs/set2/gray.gif","img/card_backs/set2/pink.gif","""event"",""trial"",""time""
""fullscreenenter"",""1"",""3408""
","
","
","""event"",""trial"",""time""
""fullscreenenter"",""1"",""3408""
","
","","null","","null","","fixation","2021-07-01 19:22:02.395","","","","","",""
"card-selection-trial","113","423568","0.0-25.0-1.21","600","false","img/card_backs/set1/red.gif","img/card_backs/set1/green.gif","img/card_backs/set1/purple.gif","img/card_backs/set1/yellow.gif","img/card_backs/set2/orange.gif","img/card_backs/set2/blue.gif","img/card_backs/set2/gray.gif","img/card_backs/set2/pink.gif","""event"",""trial"",""time""
""fullscreenenter"",""1"",""3408""
","
","
","""event"",""trial"",""time""
""fullscreenenter"",""1"",""3408""
","
","","1749","","","","real_trial","2021-07-01 19:22:06.149","img/card_backs/set1/purple.gif","1","-50","1","",""
"casino-fixation","114","424070","0.0-25.0-0.22","600","false","img/card_backs/set1/red.gif","img/card_backs/set1/green.gif","img/card_backs/set1/purple.gif","img/card_backs/set1/yellow.gif","img/card_backs/set2/orange.gif","img/card_backs/set2/blue.gif","img/card_backs/set2/gray.gif","img/card_backs/set2/pink.gif","""event"",""trial"",""time""
""fullscreenenter"",""1"",""3408""
","
","
","""event"",""trial"",""time""
""fullscreenenter"",""1"",""3408""
","
","","null","","null","","fixation","2021-07-01 19:22:06.651","","","","","",""
"card-selection-trial","115","427134","0.0-25.0-1.22","600","false","img/card_backs/set1/red.gif","img/card_backs/set1/green.gif","img/card_backs/set1/purple.gif","img/card_backs/set1/yellow.gif","img/card_backs/set2/orange.gif","img/card_backs/set2/blue.gif","img/card_backs/set2/gray.gif","img/card_backs/set2/pink.gif","""event"",""trial"",""time""
""fullscreenenter"",""1"",""3408""
","
","
","""event"",""trial"",""time""
""fullscreenenter"",""1"",""3408""
","
","","1060.2000000476837","","","","real_trial","2021-07-01 19:22:09.716","img/card_backs/set1/yellow.gif","2","-70","1","",""
"casino-fixation","116","427636","0.0-25.0-0.23","600","false","img/card_backs/set1/red.gif","img/card_backs/set1/green.gif","img/card_backs/set1/purple.gif","img/card_backs/set1/yellow.gif","img/card_backs/set2/orange.gif","img/card_backs/set2/blue.gif","img/card_backs/set2/gray.gif","img/card_backs/set2/pink.gif","""event"",""trial"",""time""
""fullscreenenter"",""1"",""3408""
","
","
","""event"",""trial"",""time""
""fullscreenenter"",""1"",""3408""
","
","","null","","null","","fixation","2021-07-01 19:22:10.217","","","","","",""
"card-selection-trial","117","431614","0.0-25.0-1.23","600","false","img/card_backs/set1/red.gif","img/card_backs/set1/green.gif","img/card_backs/set1/purple.gif","img/card_backs/set1/yellow.gif","img/card_backs/set2/orange.gif","img/card_backs/set2/blue.gif","img/card_backs/set2/gray.gif","img/card_backs/set2/pink.gif","""event"",""trial"",""time""
""fullscreenenter"",""1"",""3408""
","
","
","""event"",""trial"",""time""
""fullscreenenter"",""1"",""3408""
","
","","1973.9000000953674","","","","real_trial","2021-07-01 19:22:14.195","img/card_backs/set1/green.gif","0","-240","1","",""
"casino-fixation","118","432115","0.0-25.0-0.24","600","false","img/card_backs/set1/red.gif","img/card_backs/set1/green.gif","img/card_backs/set1/purple.gif","img/card_backs/set1/yellow.gif","img/card_backs/set2/orange.gif","img/card_backs/set2/blue.gif","img/card_backs/set2/gray.gif","img/card_backs/set2/pink.gif","""event"",""trial"",""time""
""fullscreenenter"",""1"",""3408""
","
","
","""event"",""trial"",""time""
""fullscreenenter"",""1"",""3408""
","
","","null","","null","","fixation","2021-07-01 19:22:14.696","","","","","",""
"card-selection-trial","119","435728","0.0-25.0-1.24","600","false","img/card_backs/set1/red.gif","img/card_backs/set1/green.gif","img/card_backs/set1/purple.gif","img/card_backs/set1/yellow.gif","img/card_backs/set2/orange.gif","img/card_backs/set2/blue.gif","img/card_backs/set2/gray.gif","img/card_backs/set2/pink.gif","""event"",""trial"",""time""
""fullscreenenter"",""1"",""3408""
","
","
","""event"",""trial"",""time""
""fullscreenenter"",""1"",""3408""
","
","","1609.5","","","","real_trial","2021-07-01 19:22:18.309","img/card_backs/set1/yellow.gif","2","-50","1","",""
"casino-fixation","120","436229","0.0-25.0-0.25","600","false","img/card_backs/set1/red.gif","img/card_backs/set1/green.gif","img/card_backs/set1/purple.gif","img/card_backs/set1/yellow.gif","img/card_backs/set2/orange.gif","img/card_backs/set2/blue.gif","img/card_backs/set2/gray.gif","img/card_backs/set2/pink.gif","""event"",""trial"",""time""
""fullscreenenter"",""1"",""3408""
","
","
","""event"",""trial"",""time""
""fullscreenenter"",""1"",""3408""
","
","","null","","null","","fixation","2021-07-01 19:22:18.810","","","","","",""
"card-selection-trial","121","439381","0.0-25.0-1.25","600","false","img/card_backs/set1/red.gif","img/card_backs/set1/green.gif","img/card_backs/set1/purple.gif","img/card_backs/set1/yellow.gif","img/card_backs/set2/orange.gif","img/card_backs/set2/blue.gif","img/card_backs/set2/gray.gif","img/card_backs/set2/pink.gif","""event"",""trial"",""time""
""fullscreenenter"",""1"",""3408""
","
","
","""event"",""trial"",""time""
""fullscreenenter"",""1"",""3408""
","
","","1147.2000000476837","","","","real_trial","2021-07-01 19:22:21.962","img/card_backs/set1/red.gif","1","-250","1","",""
"casino-fixation","122","439883","0.0-25.0-0.26","600","false","img/card_backs/set1/red.gif","img/card_backs/set1/green.gif","img/card_backs/set1/purple.gif","img/card_backs/set1/yellow.gif","img/card_backs/set2/orange.gif","img/card_backs/set2/blue.gif","img/card_backs/set2/gray.gif","img/card_backs/set2/pink.gif","""event"",""trial"",""time""
""fullscreenenter"",""1"",""3408""
","
","
","""event"",""trial"",""time""
""fullscreenenter"",""1"",""3408""
","
","","null","","null","","fixation","2021-07-01 19:22:22.464","","","","","",""
"card-selection-trial","123","443408","0.0-25.0-1.26","600","false","img/card_backs/set1/red.gif","img/card_backs/set1/green.gif","img/card_backs/set1/purple.gif","img/card_backs/set1/yellow.gif","img/card_backs/set2/orange.gif","img/card_backs/set2/blue.gif","img/card_backs/set2/gray.gif","img/card_backs/set2/pink.gif","""event"",""trial"",""time""
""fullscreenenter"",""1"",""3408""
","
","
","""event"",""trial"",""time""
""fullscreenenter"",""1"",""3408""
","
","","1520.1000001430511","","","","real_trial","2021-07-01 19:22:25.989","img/card_backs/set1/yellow.gif","1","-60","1","",""
"casino-fixation","124","443910","0.0-25.0-0.27","600","false","img/card_backs/set1/red.gif","img/card_backs/set1/green.gif","img/card_backs/set1/purple.gif","img/card_backs/set1/yellow.gif","img/card_backs/set2/orange.gif","img/card_backs/set2/blue.gif","img/card_backs/set2/gray.gif","img/card_backs/set2/pink.gif","""event"",""trial"",""time""
""fullscreenenter"",""1"",""3408""
","
","
","""event"",""trial"",""time""
""fullscreenenter"",""1"",""3408""
","
","","null","","null","","fixation","2021-07-01 19:22:26.491","","","","","",""
"card-selection-trial","125","447332","0.0-25.0-1.27","600","false","img/card_backs/set1/red.gif","img/card_backs/set1/green.gif","img/card_backs/set1/purple.gif","img/card_backs/set1/yellow.gif","img/card_backs/set2/orange.gif","img/card_backs/set2/blue.gif","img/card_backs/set2/gray.gif","img/card_backs/set2/pink.gif","""event"",""trial"",""time""
""fullscreenenter"",""1"",""3408""
","
","
","""event"",""trial"",""time""
""fullscreenenter"",""1"",""3408""
","
","","1418.3999998569489","","","","real_trial","2021-07-01 19:22:29.913","img/card_backs/set1/green.gif","1","-240","1","",""
"casino-fixation","126","447833","0.0-25.0-0.28","600","false","img/card_backs/set1/red.gif","img/card_backs/set1/green.gif","img/card_backs/set1/purple.gif","img/card_backs/set1/yellow.gif","img/card_backs/set2/orange.gif","img/card_backs/set2/blue.gif","img/card_backs/set2/gray.gif","img/card_backs/set2/pink.gif","""event"",""trial"",""time""
""fullscreenenter"",""1"",""3408""
","
","
","""event"",""trial"",""time""
""fullscreenenter"",""1"",""3408""
","
","","null","","null","","fixation","2021-07-01 19:22:30.414","","","","","",""
"card-selection-trial","127","451920","0.0-25.0-1.28","600","false","img/card_backs/set1/red.gif","img/card_backs/set1/green.gif","img/card_backs/set1/purple.gif","img/card_backs/set1/yellow.gif","img/card_backs/set2/orange.gif","img/card_backs/set2/blue.gif","img/card_backs/set2/gray.gif","img/card_backs/set2/pink.gif","""event"",""trial"",""time""
""fullscreenenter"",""1"",""3408""
","
","
","""event"",""trial"",""time""
""fullscreenenter"",""1"",""3408""
","
","","2067.300000190735","","","","real_trial","2021-07-01 19:22:34.501","img/card_backs/set1/purple.gif","1","-60","1","",""
"casino-fixation","128","452421","0.0-25.0-0.29","600","false","img/card_backs/set1/red.gif","img/card_backs/set1/green.gif","img/card_backs/set1/purple.gif","img/card_backs/set1/yellow.gif","img/card_backs/set2/orange.gif","img/card_backs/set2/blue.gif","img/card_backs/set2/gray.gif","img/card_backs/set2/pink.gif","""event"",""trial"",""time""
""fullscreenenter"",""1"",""3408""
","
","
","""event"",""trial"",""time""
""fullscreenenter"",""1"",""3408""
","
","","null","","null","","fixation","2021-07-01 19:22:35.002","","","","","",""
"card-selection-trial","129","456900","0.0-25.0-1.29","600","false","img/card_backs/set1/red.gif","img/card_backs/set1/green.gif","img/card_backs/set1/purple.gif","img/card_backs/set1/yellow.gif","img/card_backs/set2/orange.gif","img/card_backs/set2/blue.gif","img/card_backs/set2/gray.gif","img/card_backs/set2/pink.gif","""event"",""trial"",""time""
""fullscreenenter"",""1"",""3408""
","
","
","""event"",""trial"",""time""
""fullscreenenter"",""1"",""3408""
","
","","2472.9000000953674","","","","real_trial","2021-07-01 19:22:39.481","img/card_backs/set1/purple.gif","0","-60","1","",""
"casino-fixation","130","457401","0.0-25.0-0.30","600","false","img/card_backs/set1/red.gif","img/card_backs/set1/green.gif","img/card_backs/set1/purple.gif","img/card_backs/set1/yellow.gif","img/card_backs/set2/orange.gif","img/card_backs/set2/blue.gif","img/card_backs/set2/gray.gif","img/card_backs/set2/pink.gif","""event"",""trial"",""time""
""fullscreenenter"",""1"",""3408""
","
","
","""event"",""trial"",""time""
""fullscreenenter"",""1"",""3408""
","
","","null","","null","","fixation","2021-07-01 19:22:39.982","","","","","",""
"card-selection-trial","131","460394","0.0-25.0-1.30","600","false","img/card_backs/set1/red.gif","img/card_backs/set1/green.gif","img/card_backs/set1/purple.gif","img/card_backs/set1/yellow.gif","img/card_backs/set2/orange.gif","img/card_backs/set2/blue.gif","img/card_backs/set2/gray.gif","img/card_backs/set2/pink.gif","""event"",""trial"",""time""
""fullscreenenter"",""1"",""3408""
","
","
","""event"",""trial"",""time""
""fullscreenenter"",""1"",""3408""
","
","","988.2999999523163","","","","real_trial","2021-07-01 19:22:42.975","img/card_backs/set1/yellow.gif","1","-60","1","",""
"casino-fixation","132","460896","0.0-25.0-0.31","600","false","img/card_backs/set1/red.gif","img/card_backs/set1/green.gif","img/card_backs/set1/purple.gif","img/card_backs/set1/yellow.gif","img/card_backs/set2/orange.gif","img/card_backs/set2/blue.gif","img/card_backs/set2/gray.gif","img/card_backs/set2/pink.gif","""event"",""trial"",""time""
""fullscreenenter"",""1"",""3408""
","
","
","""event"",""trial"",""time""
""fullscreenenter"",""1"",""3408""
","
","","null","","null","","fixation","2021-07-01 19:22:43.477","","","","","",""
"card-selection-trial","133","464661","0.0-25.0-1.31","600","false","img/card_backs/set1/red.gif","img/card_backs/set1/green.gif","img/card_backs/set1/purple.gif","img/card_backs/set1/yellow.gif","img/card_backs/set2/orange.gif","img/card_backs/set2/blue.gif","img/card_backs/set2/gray.gif","img/card_backs/set2/pink.gif","""event"",""trial"",""time""
""fullscreenenter"",""1"",""3408""
","
","
","""event"",""trial"",""time""
""fullscreenenter"",""1"",""3408""
","
","","1761.0999999046326","","","","real_trial","2021-07-01 19:22:47.242","img/card_backs/set1/green.gif","1","-230","1","",""
"casino-fixation","134","465164","0.0-25.0-0.32","600","false","img/card_backs/set1/red.gif","img/card_backs/set1/green.gif","img/card_backs/set1/purple.gif","img/card_backs/set1/yellow.gif","img/card_backs/set2/orange.gif","img/card_backs/set2/blue.gif","img/card_backs/set2/gray.gif","img/card_backs/set2/pink.gif","""event"",""trial"",""time""
""fullscreenenter"",""1"",""3408""
","
","
","""event"",""trial"",""time""
""fullscreenenter"",""1"",""3408""
","
","","null","","null","","fixation","2021-07-01 19:22:47.745","","","","","",""
"card-selection-trial","135","468656","0.0-25.0-1.32","600","false","img/card_backs/set1/red.gif","img/card_backs/set1/green.gif","img/card_backs/set1/purple.gif","img/card_backs/set1/yellow.gif","img/card_backs/set2/orange.gif","img/card_backs/set2/blue.gif","img/card_backs/set2/gray.gif","img/card_backs/set2/pink.gif","""event"",""trial"",""time""
""fullscreenenter"",""1"",""3408""
","
","
","""event"",""trial"",""time""
""fullscreenenter"",""1"",""3408""
","
","","1485.7000000476837","","","","real_trial","2021-07-01 19:22:51.237","img/card_backs/set1/yellow.gif","2","-70","1","",""
"casino-fixation","136","469158","0.0-25.0-0.33","600","false","img/card_backs/set1/red.gif","img/card_backs/set1/green.gif","img/card_backs/set1/purple.gif","img/card_backs/set1/yellow.gif","img/card_backs/set2/orange.gif","img/card_backs/set2/blue.gif","img/card_backs/set2/gray.gif","img/card_backs/set2/pink.gif","""event"",""trial"",""time""
""fullscreenenter"",""1"",""3408""
","
","
","""event"",""trial"",""time""
""fullscreenenter"",""1"",""3408""
","
","","null","","null","","fixation","2021-07-01 19:22:51.739","","","","","",""
"card-selection-trial","137","472553","0.0-25.0-1.33","600","false","img/card_backs/set1/red.gif","img/card_backs/set1/green.gif","img/card_backs/set1/purple.gif","img/card_backs/set1/yellow.gif","img/card_backs/set2/orange.gif","img/card_backs/set2/blue.gif","img/card_backs/set2/gray.gif","img/card_backs/set2/pink.gif","""event"",""trial"",""time""
""fullscreenenter"",""1"",""3408""
","
","
","""event"",""trial"",""time""
""fullscreenenter"",""1"",""3408""
","
","","1389.7999999523163","","","","real_trial","2021-07-01 19:22:55.134","img/card_backs/set1/purple.gif","3","110","1","",""
"casino-fixation","138","473055","0.0-25.0-0.34","600","false","img/card_backs/set1/red.gif","img/card_backs/set1/green.gif","img/card_backs/set1/purple.gif","img/card_backs/set1/yellow.gif","img/card_backs/set2/orange.gif","img/card_backs/set2/blue.gif","img/card_backs/set2/gray.gif","img/card_backs/set2/pink.gif","""event"",""trial"",""time""
""fullscreenenter"",""1"",""3408""
","
","
","""event"",""trial"",""time""
""fullscreenenter"",""1"",""3408""
","
","","null","","null","","fixation","2021-07-01 19:22:55.636","","","","","",""
"card-selection-trial","139","476237","0.0-25.0-1.34","600","false","img/card_backs/set1/red.gif","img/card_backs/set1/green.gif","img/card_backs/set1/purple.gif","img/card_backs/set1/yellow.gif","img/card_backs/set2/orange.gif","img/card_backs/set2/blue.gif","img/card_backs/set2/gray.gif","img/card_backs/set2/pink.gif","""event"",""trial"",""time""
""fullscreenenter"",""1"",""3408""
","
","
","""event"",""trial"",""time""
""fullscreenenter"",""1"",""3408""
","
","","1177.5","","","","real_trial","2021-07-01 19:22:58.818","img/card_backs/set1/purple.gif","2","-50","1","",""
"casino-fixation","140","476739","0.0-25.0-0.35","600","false","img/card_backs/set1/red.gif","img/card_backs/set1/green.gif","img/card_backs/set1/purple.gif","img/card_backs/set1/yellow.gif","img/card_backs/set2/orange.gif","img/card_backs/set2/blue.gif","img/card_backs/set2/gray.gif","img/card_backs/set2/pink.gif","""event"",""trial"",""time""
""fullscreenenter"",""1"",""3408""
","
","
","""event"",""trial"",""time""
""fullscreenenter"",""1"",""3408""
","
","","null","","null","","fixation","2021-07-01 19:22:59.320","","","","","",""
"card-selection-trial","141","479748","0.0-25.0-1.35","600","false","img/card_backs/set1/red.gif","img/card_backs/set1/green.gif","img/card_backs/set1/purple.gif","img/card_backs/set1/yellow.gif","img/card_backs/set2/orange.gif","img/card_backs/set2/blue.gif","img/card_backs/set2/gray.gif","img/card_backs/set2/pink.gif","""event"",""trial"",""time""
""fullscreenenter"",""1"",""3408""
","
","
","""event"",""trial"",""time""
""fullscreenenter"",""1"",""3408""
","
","","996.4000000953674","","","","real_trial","2021-07-01 19:23:02.329","img/card_backs/set1/yellow.gif","1","110","1","",""
"casino-fixation","142","480250","0.0-25.0-0.36","600","false","img/card_backs/set1/red.gif","img/card_backs/set1/green.gif","img/card_backs/set1/purple.gif","img/card_backs/set1/yellow.gif","img/card_backs/set2/orange.gif","img/card_backs/set2/blue.gif","img/card_backs/set2/gray.gif","img/card_backs/set2/pink.gif","""event"",""trial"",""time""
""fullscreenenter"",""1"",""3408""
","
","
","""event"",""trial"",""time""
""fullscreenenter"",""1"",""3408""
","
","","null","","null","","fixation","2021-07-01 19:23:02.831","","","","","",""
"card-selection-trial","143","483399","0.0-25.0-1.36","600","false","img/card_backs/set1/red.gif","img/card_backs/set1/green.gif","img/card_backs/set1/purple.gif","img/card_backs/set1/yellow.gif","img/card_backs/set2/orange.gif","img/card_backs/set2/blue.gif","img/card_backs/set2/gray.gif","img/card_backs/set2/pink.gif","""event"",""trial"",""time""
""fullscreenenter"",""1"",""3408""
","
","
","""event"",""trial"",""time""
""fullscreenenter"",""1"",""3408""
","
","","1144.7000000476837","","","","real_trial","2021-07-01 19:23:05.980","img/card_backs/set1/green.gif","0","-240","1","",""
"casino-fixation","144","483900","0.0-25.0-0.37","600","false","img/card_backs/set1/red.gif","img/card_backs/set1/green.gif","img/card_backs/set1/purple.gif","img/card_backs/set1/yellow.gif","img/card_backs/set2/orange.gif","img/card_backs/set2/blue.gif","img/card_backs/set2/gray.gif","img/card_backs/set2/pink.gif","""event"",""trial"",""time""
""fullscreenenter"",""1"",""3408""
","
","
","""event"",""trial"",""time""
""fullscreenenter"",""1"",""3408""
","
","","null","","null","","fixation","2021-07-01 19:23:06.481","","","","","",""
"card-selection-trial","145","487961","0.0-25.0-1.37","600","false","img/card_backs/set1/red.gif","img/card_backs/set1/green.gif","img/card_backs/set1/purple.gif","img/card_backs/set1/yellow.gif","img/card_backs/set2/orange.gif","img/card_backs/set2/blue.gif","img/card_backs/set2/gray.gif","img/card_backs/set2/pink.gif","""event"",""trial"",""time""
""fullscreenenter"",""1"",""3408""
","
","
","""event"",""trial"",""time""
""fullscreenenter"",""1"",""3408""
","
","","2056.2000000476837","","","","real_trial","2021-07-01 19:23:10.542","img/card_backs/set1/yellow.gif","2","-50","1","",""
"casino-fixation","146","488463","0.0-25.0-0.38","600","false","img/card_backs/set1/red.gif","img/card_backs/set1/green.gif","img/card_backs/set1/purple.gif","img/card_backs/set1/yellow.gif","img/card_backs/set2/orange.gif","img/card_backs/set2/blue.gif","img/card_backs/set2/gray.gif","img/card_backs/set2/pink.gif","""event"",""trial"",""time""
""fullscreenenter"",""1"",""3408""
","
","
","""event"",""trial"",""time""
""fullscreenenter"",""1"",""3408""
","
","","null","","null","","fixation","2021-07-01 19:23:11.044","","","","","",""
"card-selection-trial","147","491460","0.0-25.0-1.38","600","false","img/card_backs/set1/red.gif","img/card_backs/set1/green.gif","img/card_backs/set1/purple.gif","img/card_backs/set1/yellow.gif","img/card_backs/set2/orange.gif","img/card_backs/set2/blue.gif","img/card_backs/set2/gray.gif","img/card_backs/set2/pink.gif","""event"",""trial"",""time""
""fullscreenenter"",""1"",""3408""
","
","
","""event"",""trial"",""time""
""fullscreenenter"",""1"",""3408""
","
","","991.6999998092651","","","","real_trial","2021-07-01 19:23:14.041","img/card_backs/set1/red.gif","2","-250","1","",""
"casino-fixation","148","491961","0.0-25.0-0.39","600","false","img/card_backs/set1/red.gif","img/card_backs/set1/green.gif","img/card_backs/set1/purple.gif","img/card_backs/set1/yellow.gif","img/card_backs/set2/orange.gif","img/card_backs/set2/blue.gif","img/card_backs/set2/gray.gif","img/card_backs/set2/pink.gif","""event"",""trial"",""time""
""fullscreenenter"",""1"",""3408""
","
","
","""event"",""trial"",""time""
""fullscreenenter"",""1"",""3408""
","
","","null","","null","","fixation","2021-07-01 19:23:14.542","","","","","",""
"card-selection-trial","149","495096","0.0-25.0-1.39","600","false","img/card_backs/set1/red.gif","img/card_backs/set1/green.gif","img/card_backs/set1/purple.gif","img/card_backs/set1/yellow.gif","img/card_backs/set2/orange.gif","img/card_backs/set2/blue.gif","img/card_backs/set2/gray.gif","img/card_backs/set2/pink.gif","""event"",""trial"",""time""
""fullscreenenter"",""1"",""3408""
","
","
","""event"",""trial"",""time""
""fullscreenenter"",""1"",""3408""
","
","","1130.0999999046326","","","","real_trial","2021-07-01 19:23:17.677","img/card_backs/set1/yellow.gif","0","100","1","",""
"casino-fixation","150","495598","0.0-25.0-0.40","600","false","img/card_backs/set1/red.gif","img/card_backs/set1/green.gif","img/card_backs/set1/purple.gif","img/card_backs/set1/yellow.gif","img/card_backs/set2/orange.gif","img/card_backs/set2/blue.gif","img/card_backs/set2/gray.gif","img/card_backs/set2/pink.gif","""event"",""trial"",""time""
""fullscreenenter"",""1"",""3408""
","
","
","""event"",""trial"",""time""
""fullscreenenter"",""1"",""3408""
","
","","null","","null","","fixation","2021-07-01 19:23:18.179","","","","","",""
"card-selection-trial","151","499013","0.0-25.0-1.40","600","false","img/card_backs/set1/red.gif","img/card_backs/set1/green.gif","img/card_backs/set1/purple.gif","img/card_backs/set1/yellow.gif","img/card_backs/set2/orange.gif","img/card_backs/set2/blue.gif","img/card_backs/set2/gray.gif","img/card_backs/set2/pink.gif","""event"",""trial"",""time""
""fullscreenenter"",""1"",""3408""
","
","
","""event"",""trial"",""time""
""fullscreenenter"",""1"",""3408""
","
","","1409.7999999523163","","","","real_trial","2021-07-01 19:23:21.594","img/card_backs/set1/yellow.gif","2","100","1","",""
"casino-fixation","152","499519","0.0-25.0-0.41","600","false","img/card_backs/set1/red.gif","img/card_backs/set1/green.gif","img/card_backs/set1/purple.gif","img/card_backs/set1/yellow.gif","img/card_backs/set2/orange.gif","img/card_backs/set2/blue.gif","img/card_backs/set2/gray.gif","img/card_backs/set2/pink.gif","""event"",""trial"",""time""
""fullscreenenter"",""1"",""3408""
","
","
","""event"",""trial"",""time""
""fullscreenenter"",""1"",""3408""
","
","","null","","null","","fixation","2021-07-01 19:23:22.100","","","","","",""
"card-selection-trial","153","502748","0.0-25.0-1.41","600","false","img/card_backs/set1/red.gif","img/card_backs/set1/green.gif","img/card_backs/set1/purple.gif","img/card_backs/set1/yellow.gif","img/card_backs/set2/orange.gif","img/card_backs/set2/blue.gif","img/card_backs/set2/gray.gif","img/card_backs/set2/pink.gif","""event"",""trial"",""time""
""fullscreenenter"",""1"",""3408""
","
","
","""event"",""trial"",""time""
""fullscreenenter"",""1"",""3408""
","
","","1224.5","","","","real_trial","2021-07-01 19:23:25.330","img/card_backs/set1/yellow.gif","2","110","1","",""
"casino-fixation","154","503251","0.0-25.0-0.42","600","false","img/card_backs/set1/red.gif","img/card_backs/set1/green.gif","img/card_backs/set1/purple.gif","img/card_backs/set1/yellow.gif","img/card_backs/set2/orange.gif","img/card_backs/set2/blue.gif","img/card_backs/set2/gray.gif","img/card_backs/set2/pink.gif","""event"",""trial"",""time""
""fullscreenenter"",""1"",""3408""
","
","
","""event"",""trial"",""time""
""fullscreenenter"",""1"",""3408""
","
","","null","","null","","fixation","2021-07-01 19:23:25.832","","","","","",""
"card-selection-trial","155","506260","0.0-25.0-1.42","600","false","img/card_backs/set1/red.gif","img/card_backs/set1/green.gif","img/card_backs/set1/purple.gif","img/card_backs/set1/yellow.gif","img/card_backs/set2/orange.gif","img/card_backs/set2/blue.gif","img/card_backs/set2/gray.gif","img/card_backs/set2/pink.gif","""event"",""trial"",""time""
""fullscreenenter"",""1"",""3408""
","
","
","""event"",""trial"",""time""
""fullscreenenter"",""1"",""3408""
","
","","991.3999998569489","","","","real_trial","2021-07-01 19:23:28.841","img/card_backs/set1/yellow.gif","1","120","1","",""
"casino-fixation","156","506763","0.0-25.0-0.43","600","false","img/card_backs/set1/red.gif","img/card_backs/set1/green.gif","img/card_backs/set1/purple.gif","img/card_backs/set1/yellow.gif","img/card_backs/set2/orange.gif","img/card_backs/set2/blue.gif","img/card_backs/set2/gray.gif","img/card_backs/set2/pink.gif","""event"",""trial"",""time""
""fullscreenenter"",""1"",""3408""
","
","
","""event"",""trial"",""time""
""fullscreenenter"",""1"",""3408""
","
","","null","","null","","fixation","2021-07-01 19:23:29.344","","","","","",""
"card-selection-trial","157","510124","0.0-25.0-1.43","600","false","img/card_backs/set1/red.gif","img/card_backs/set1/green.gif","img/card_backs/set1/purple.gif","img/card_backs/set1/yellow.gif","img/card_backs/set2/orange.gif","img/card_backs/set2/blue.gif","img/card_backs/set2/gray.gif","img/card_backs/set2/pink.gif","""event"",""trial"",""time""
""fullscreenenter"",""1"",""3408""
","
","
","""event"",""trial"",""time""
""fullscreenenter"",""1"",""3408""
","
","","1356.5999999046326","","","","real_trial","2021-07-01 19:23:32.705","img/card_backs/set1/yellow.gif","3","-70","1","",""
"casino-fixation","158","510626","0.0-25.0-0.44","600","false","img/card_backs/set1/red.gif","img/card_backs/set1/green.gif","img/card_backs/set1/purple.gif","img/card_backs/set1/yellow.gif","img/card_backs/set2/orange.gif","img/card_backs/set2/blue.gif","img/card_backs/set2/gray.gif","img/card_backs/set2/pink.gif","""event"",""trial"",""time""
""fullscreenenter"",""1"",""3408""
","
","
","""event"",""trial"",""time""
""fullscreenenter"",""1"",""3408""
","
","","null","","null","","fixation","2021-07-01 19:23:33.207","","","","","",""
"card-selection-trial","159","513673","0.0-25.0-1.44","600","false","img/card_backs/set1/red.gif","img/card_backs/set1/green.gif","img/card_backs/set1/purple.gif","img/card_backs/set1/yellow.gif","img/card_backs/set2/orange.gif","img/card_backs/set2/blue.gif","img/card_backs/set2/gray.gif","img/card_backs/set2/pink.gif","""event"",""trial"",""time""
""fullscreenenter"",""1"",""3408""
","
","
","""event"",""trial"",""time""
""fullscreenenter"",""1"",""3408""
","
","","1041.5","","","","real_trial","2021-07-01 19:23:36.254","img/card_backs/set1/yellow.gif","3","-50","1","",""
"casino-fixation","160","514176","0.0-25.0-0.45","600","false","img/card_backs/set1/red.gif","img/card_backs/set1/green.gif","img/card_backs/set1/purple.gif","img/card_backs/set1/yellow.gif","img/card_backs/set2/orange.gif","img/card_backs/set2/blue.gif","img/card_backs/set2/gray.gif","img/card_backs/set2/pink.gif","""event"",""trial"",""time""
""fullscreenenter"",""1"",""3408""
","
","
","""event"",""trial"",""time""
""fullscreenenter"",""1"",""3408""
","
","","null","","null","","fixation","2021-07-01 19:23:36.757","","","","","",""
"card-selection-trial","161","517427","0.0-25.0-1.45","600","false","img/card_backs/set1/red.gif","img/card_backs/set1/green.gif","img/card_backs/set1/purple.gif","img/card_backs/set1/yellow.gif","img/card_backs/set2/orange.gif","img/card_backs/set2/blue.gif","img/card_backs/set2/gray.gif","img/card_backs/set2/pink.gif","""event"",""trial"",""time""
""fullscreenenter"",""1"",""3408""
","
","
","""event"",""trial"",""time""
""fullscreenenter"",""1"",""3408""
","
","","1246.2999999523163","","","","real_trial","2021-07-01 19:23:40.008","img/card_backs/set1/yellow.gif","2","-60","1","",""
"casino-fixation","162","517928","0.0-25.0-0.46","600","false","img/card_backs/set1/red.gif","img/card_backs/set1/green.gif","img/card_backs/set1/purple.gif","img/card_backs/set1/yellow.gif","img/card_backs/set2/orange.gif","img/card_backs/set2/blue.gif","img/card_backs/set2/gray.gif","img/card_backs/set2/pink.gif","""event"",""trial"",""time""
""fullscreenenter"",""1"",""3408""
","
","
","""event"",""trial"",""time""
""fullscreenenter"",""1"",""3408""
","
","","null","","null","","fixation","2021-07-01 19:23:40.509","","","","","",""
"card-selection-trial","163","520946","0.0-25.0-1.46","600","false","img/card_backs/set1/red.gif","img/card_backs/set1/green.gif","img/card_backs/set1/purple.gif","img/card_backs/set1/yellow.gif","img/card_backs/set2/orange.gif","img/card_backs/set2/blue.gif","img/card_backs/set2/gray.gif","img/card_backs/set2/pink.gif","""event"",""trial"",""time""
""fullscreenenter"",""1"",""3408""
","
","
","""event"",""trial"",""time""
""fullscreenenter"",""1"",""3408""
","
","","1007.4000000953674","","","","real_trial","2021-07-01 19:23:43.527","img/card_backs/set1/purple.gif","0","-70","1","",""
"casino-fixation","164","521461","0.0-25.0-0.47","600","false","img/card_backs/set1/red.gif","img/card_backs/set1/green.gif","img/card_backs/set1/purple.gif","img/card_backs/set1/yellow.gif","img/card_backs/set2/orange.gif","img/card_backs/set2/blue.gif","img/card_backs/set2/gray.gif","img/card_backs/set2/pink.gif","""event"",""trial"",""time""
""fullscreenenter"",""1"",""3408""
","
","
","""event"",""trial"",""time""
""fullscreenenter"",""1"",""3408""
","
","","null","","null","","fixation","2021-07-01 19:23:44.043","","","","","",""
"card-selection-trial","165","524578","0.0-25.0-1.47","600","false","img/card_backs/set1/red.gif","img/card_backs/set1/green.gif","img/card_backs/set1/purple.gif","img/card_backs/set1/yellow.gif","img/card_backs/set2/orange.gif","img/card_backs/set2/blue.gif","img/card_backs/set2/gray.gif","img/card_backs/set2/pink.gif","""event"",""trial"",""time""
""fullscreenenter"",""1"",""3408""
","
","
","""event"",""trial"",""time""
""fullscreenenter"",""1"",""3408""
","
","","1111.5999999046326","","","","real_trial","2021-07-01 19:23:47.159","img/card_backs/set1/purple.gif","1","100","1","",""
"casino-fixation","166","525079","0.0-25.0-0.48","600","false","img/card_backs/set1/red.gif","img/card_backs/set1/green.gif","img/card_backs/set1/purple.gif","img/card_backs/set1/yellow.gif","img/card_backs/set2/orange.gif","img/card_backs/set2/blue.gif","img/card_backs/set2/gray.gif","img/card_backs/set2/pink.gif","""event"",""trial"",""time""
""fullscreenenter"",""1"",""3408""
","
","
","""event"",""trial"",""time""
""fullscreenenter"",""1"",""3408""
","
","","null","","null","","fixation","2021-07-01 19:23:47.661","","","","","",""
"card-selection-trial","167","528541","0.0-25.0-1.48","600","false","img/card_backs/set1/red.gif","img/card_backs/set1/green.gif","img/card_backs/set1/purple.gif","img/card_backs/set1/yellow.gif","img/card_backs/set2/orange.gif","img/card_backs/set2/blue.gif","img/card_backs/set2/gray.gif","img/card_backs/set2/pink.gif","""event"",""trial"",""time""
""fullscreenenter"",""1"",""3408""
","
","
","""event"",""trial"",""time""
""fullscreenenter"",""1"",""3408""
","
