"trial_type","trial_index","time_elapsed","internal_node_id","sub_id","risk_good_first","block1_A","block1_B","block1_C","block1_D","block2_A","block2_B","block2_C","block2_D","interactions","blur_events","focus_events","fullscreenenter_events","fullscreenexit_events","success","rt","stimulus","key_press","button_pressed","task_part","timestamp","card_choice","choice_position","points_earned","block","correct","response"
"pavlovia","0","6","0.0-0.0","A927","false","img/card_backs/set1/red.gif","img/card_backs/set1/yellow.gif","img/card_backs/set1/purple.gif","img/card_backs/set1/green.gif","img/card_backs/set2/blue.gif","img/card_backs/set2/orange.gif","img/card_backs/set2/pink.gif","img/card_backs/set2/gray.gif","""event"",""trial"",""time""
""fullscreenenter"",""1"",""3916""
","
","
","""event"",""trial"",""time""
""fullscreenenter"",""1"",""3916""
","
","","","","","","","","","","","","",""
"fullscreen","1","4849","0.0-1.0","A927","false","img/card_backs/set1/red.gif","img/card_backs/set1/yellow.gif","img/card_backs/set1/purple.gif","img/card_backs/set1/green.gif","img/card_backs/set2/blue.gif","img/card_backs/set2/orange.gif","img/card_backs/set2/pink.gif","img/card_backs/set2/gray.gif","""event"",""trial"",""time""
""fullscreenenter"",""1"",""3916""
","
","
","""event"",""trial"",""time""
""fullscreenenter"",""1"",""3916""
","
","true","","","","","","","","","","","",""
"audio-keyboard-response","2","6355","0.0-2.0","A927","false","img/card_backs/set1/red.gif","img/card_backs/set1/yellow.gif","img/card_backs/set1/purple.gif","img/card_backs/set1/green.gif","img/card_backs/set2/blue.gif","img/card_backs/set2/orange.gif","img/card_backs/set2/pink.gif","img/card_backs/set2/gray.gif","""event"",""trial"",""time""
""fullscreenenter"",""1"",""3916""
","
","
","""event"",""trial"",""time""
""fullscreenenter"",""1"",""3916""
","
","","0","audio/beep_loop.wav","32","","","","","","","","",""
"audio-button-response","3","8549","0.0-3.0","A927","false","img/card_backs/set1/red.gif","img/card_backs/set1/yellow.gif","img/card_backs/set1/purple.gif","img/card_backs/set1/green.gif","img/card_backs/set2/blue.gif","img/card_backs/set2/orange.gif","img/card_backs/set2/pink.gif","img/card_backs/set2/gray.gif","""event"",""trial"",""time""
""fullscreenenter"",""1"",""3916""
","
","
","""event"",""trial"",""time""
""fullscreenenter"",""1"",""3916""
","
","","NaN","audio/turtle.mp3","","3","","","","","","","",""
"audio-button-response","4","12221","0.0-4.0","A927","false","img/card_backs/set1/red.gif","img/card_backs/set1/yellow.gif","img/card_backs/set1/purple.gif","img/card_backs/set1/green.gif","img/card_backs/set2/blue.gif","img/card_backs/set2/orange.gif","img/card_backs/set2/pink.gif","img/card_backs/set2/gray.gif","""event"",""trial"",""time""
""fullscreenenter"",""1"",""3916""
","
","
","""event"",""trial"",""time""
""fullscreenenter"",""1"",""3916""
","
","","NaN","audio/shark.mp3","","2","","","","","","","",""
"fullscreen","5","15471","0.0-5.0","A927","false","img/card_backs/set1/red.gif","img/card_backs/set1/yellow.gif","img/card_backs/set1/purple.gif","img/card_backs/set1/green.gif","img/card_backs/set2/blue.gif","img/card_backs/set2/orange.gif","img/card_backs/set2/pink.gif","img/card_backs/set2/gray.gif","""event"",""trial"",""time""
""fullscreenenter"",""1"",""3916""
","
","
","""event"",""trial"",""time""
""fullscreenenter"",""1"",""3916""
","
","true","","","","","","","","","","","",""
"casino-keyboard-response","6","18703","0.0-6.0-0.0","A927","false","img/card_backs/set1/red.gif","img/card_backs/set1/yellow.gif","img/card_backs/set1/purple.gif","img/card_backs/set1/green.gif","img/card_backs/set2/blue.gif","img/card_backs/set2/orange.gif","img/card_backs/set2/pink.gif","img/card_backs/set2/gray.gif","""event"",""trial"",""time""
""fullscreenenter"",""1"",""3916""
","
","
","""event"",""trial"",""time""
""fullscreenenter"",""1"",""3916""
","
","","3230","Welcome to the casino!","71","","instructions","2021-07-08 16:26:32.769","","","","","",""
"casino-keyboard-response","7","28463","0.0-6.0-0.1","A927","false","img/card_backs/set1/red.gif","img/card_backs/set1/yellow.gif","img/card_backs/set1/purple.gif","img/card_backs/set1/green.gif","img/card_backs/set2/blue.gif","img/card_backs/set2/orange.gif","img/card_backs/set2/pink.gif","img/card_backs/set2/gray.gif","""event"",""trial"",""time""
""fullscreenenter"",""1"",""3916""
","
","
","""event"",""trial"",""time""
""fullscreenenter"",""1"",""3916""
","
","","9757.999999999996","Today you will be playing a game to earn tokens. </br> At the end of the experiment, you will be paid a bonus based on how many tokens you win. ","69","","instructions","2021-07-08 16:26:42.529","","","","","",""
"casino-keyboard-response","8","37204","0.0-6.0-0.2","A927","false","img/card_backs/set1/red.gif","img/card_backs/set1/yellow.gif","img/card_backs/set1/purple.gif","img/card_backs/set1/green.gif","img/card_backs/set2/blue.gif","img/card_backs/set2/orange.gif","img/card_backs/set2/pink.gif","img/card_backs/set2/gray.gif","""event"",""trial"",""time""
""fullscreenenter"",""1"",""3916""
","
","
","""event"",""trial"",""time""
""fullscreenenter"",""1"",""3916""
","
","","8741","On every turn, you will be shown four different decks of cards. </br> You need to select a card from one of the four decks.  ","75","","instructions","2021-07-08 16:26:51.271","","","","","",""
"casino-keyboard-response","9","41939","0.0-6.0-0.3","A927","false","img/card_backs/set1/red.gif","img/card_backs/set1/yellow.gif","img/card_backs/set1/purple.gif","img/card_backs/set1/green.gif","img/card_backs/set2/blue.gif","img/card_backs/set2/orange.gif","img/card_backs/set2/pink.gif","img/card_backs/set2/gray.gif","""event"",""trial"",""time""
""fullscreenenter"",""1"",""3916""
","
","
","""event"",""trial"",""time""
""fullscreenenter"",""1"",""3916""
","
","","4733","On the next screen, you will see what the decks will look like. ","66","","instructions","2021-07-08 16:26:56.005","","","","","",""
"card-selection-trial","10","45945","0.0-7.0-0.0","A927","false","img/card_backs/set1/red.gif","img/card_backs/set1/yellow.gif","img/card_backs/set1/purple.gif","img/card_backs/set1/green.gif","img/card_backs/set2/blue.gif","img/card_backs/set2/orange.gif","img/card_backs/set2/pink.gif","img/card_backs/set2/gray.gif","""event"",""trial"",""time""
""fullscreenenter"",""1"",""3916""
","
","
","""event"",""trial"",""time""
""fullscreenenter"",""1"",""3916""
","
","","null","","","","practice","2021-07-08 16:27:00.012","null","null","null","0","",""
"casino-keyboard-response","11","53603","0.0-8.0-0.0","A927","false","img/card_backs/set1/red.gif","img/card_backs/set1/yellow.gif","img/card_backs/set1/purple.gif","img/card_backs/set1/green.gif","img/card_backs/set2/blue.gif","img/card_backs/set2/orange.gif","img/card_backs/set2/pink.gif","img/card_backs/set2/gray.gif","""event"",""trial"",""time""
""fullscreenenter"",""1"",""3916""
","
","
","""event"",""trial"",""time""
""fullscreenenter"",""1"",""3916""
","
","","7657","You should pick a card from a deck using the '2', '4', '6', and '8' keys at the top of the keyboard.","85","","instructions","2021-07-08 16:27:07.669","","","","","",""
"casino-keyboard-response","12","60037","0.0-8.0-0.1","A927","false","img/card_backs/set1/red.gif","img/card_backs/set1/yellow.gif","img/card_backs/set1/purple.gif","img/card_backs/set1/green.gif","img/card_backs/set2/blue.gif","img/card_backs/set2/orange.gif","img/card_backs/set2/pink.gif","img/card_backs/set2/gray.gif","""event"",""trial"",""time""
""fullscreenenter"",""1"",""3916""
","
","
","""event"",""trial"",""time""
""fullscreenenter"",""1"",""3916""
","
","","6434","Once you select a card, it will turn over and you will see how many tokens you earned.","83","","instructions","2021-07-08 16:27:14.104","","","","","",""
"casino-keyboard-response","13","74467","0.0-8.0-0.2","A927","false","img/card_backs/set1/red.gif","img/card_backs/set1/yellow.gif","img/card_backs/set1/purple.gif","img/card_backs/set1/green.gif","img/card_backs/set2/blue.gif","img/card_backs/set2/orange.gif","img/card_backs/set2/pink.gif","img/card_backs/set2/gray.gif","""event"",""trial"",""time""
""fullscreenenter"",""1"",""3916""
","
","
","""event"",""trial"",""time""
""fullscreenenter"",""1"",""3916""
","
","","14428","Let's try practicing that! </br> First, try to put your fingers over the '2', '4', '6', and '8' keys. </br>  You can use whatever fingers are most comfortable for you. Try to find a comfortable position now. ","50","","instructions","2021-07-08 16:27:28.533","","","","","",""
"casino-keyboard-response","14","80368","0.0-8.0-0.3","A927","false","img/card_backs/set1/red.gif","img/card_backs/set1/yellow.gif","img/card_backs/set1/purple.gif","img/card_backs/set1/green.gif","img/card_backs/set2/blue.gif","img/card_backs/set2/orange.gif","img/card_backs/set2/pink.gif","img/card_backs/set2/gray.gif","""event"",""trial"",""time""
""fullscreenenter"",""1"",""3916""
","
","
","""event"",""trial"",""time""
""fullscreenenter"",""1"",""3916""
","
","","5900","Okay ready? </br> On the next screen, press '2' to select the left deck. ","50","","instructions","2021-07-08 16:27:34.434","","","","","",""
"card-selection-trial","15","83417","0.0-9.0-0.0","A927","false","img/card_backs/set1/red.gif","img/card_backs/set1/yellow.gif","img/card_backs/set1/purple.gif","img/card_backs/set1/green.gif","img/card_backs/set2/blue.gif","img/card_backs/set2/orange.gif","img/card_backs/set2/pink.gif","img/card_backs/set2/gray.gif","""event"",""trial"",""time""
""fullscreenenter"",""1"",""3916""
","
","
","""event"",""trial"",""time""
""fullscreenenter"",""1"",""3916""
","
","","1033","","","","practice_card_selection","2021-07-08 16:27:37.484","img/practice_cards/backs/dark_green.gif","0","200","","",""
"casino-keyboard-response","16","89784","0.0-10.0-0.0","A927","false","img/card_backs/set1/red.gif","img/card_backs/set1/yellow.gif","img/card_backs/set1/purple.gif","img/card_backs/set1/green.gif","img/card_backs/set2/blue.gif","img/card_backs/set2/orange.gif","img/card_backs/set2/pink.gif","img/card_backs/set2/gray.gif","""event"",""trial"",""time""
""fullscreenenter"",""1"",""3916""
","
","
","""event"",""trial"",""time""
""fullscreenenter"",""1"",""3916""
","
","","6365","Great! Now on the next screen, try pressing '6' to select the third deck.","54","","instructions","2021-07-08 16:27:43.850","","","","","",""
"card-selection-trial","17","92602","0.0-11.0-0.0","A927","false","img/card_backs/set1/red.gif","img/card_backs/set1/yellow.gif","img/card_backs/set1/purple.gif","img/card_backs/set1/green.gif","img/card_backs/set2/blue.gif","img/card_backs/set2/orange.gif","img/card_backs/set2/pink.gif","img/card_backs/set2/gray.gif","""event"",""trial"",""time""
""fullscreenenter"",""1"",""3916""
","
","
","""event"",""trial"",""time""
""fullscreenenter"",""1"",""3916""
","
","","807","","","","practice_card_selection","2021-07-08 16:27:46.669","img/practice_cards/backs/dark_blue.gif","2","200","","",""
"casino-keyboard-response","18","97455","0.0-12.0-0.0","A927","false","img/card_backs/set1/red.gif","img/card_backs/set1/yellow.gif","img/card_backs/set1/purple.gif","img/card_backs/set1/green.gif","img/card_backs/set2/blue.gif","img/card_backs/set2/orange.gif","img/card_backs/set2/pink.gif","img/card_backs/set2/gray.gif","""event"",""trial"",""time""
""fullscreenenter"",""1"",""3916""
","
","
","""event"",""trial"",""time""
""fullscreenenter"",""1"",""3916""
","
","","4852","Now on the next screen, try pressing '4' to select the second deck.","52","","instructions","2021-07-08 16:27:51.521","","","","","",""
"card-selection-trial","19","100789","0.0-13.0-0.0","A927","false","img/card_backs/set1/red.gif","img/card_backs/set1/yellow.gif","img/card_backs/set1/purple.gif","img/card_backs/set1/green.gif","img/card_backs/set2/blue.gif","img/card_backs/set2/orange.gif","img/card_backs/set2/pink.gif","img/card_backs/set2/gray.gif","""event"",""trial"",""time""
""fullscreenenter"",""1"",""3916""
","
","
","""event"",""trial"",""time""
""fullscreenenter"",""1"",""3916""
","
","","1323","","","","practice_card_selection","2021-07-08 16:27:54.856","img/practice_cards/backs/brown.gif","1","-100","","",""
"casino-keyboard-response","20","105181","0.0-14.0-0.0","A927","false","img/card_backs/set1/red.gif","img/card_backs/set1/yellow.gif","img/card_backs/set1/purple.gif","img/card_backs/set1/green.gif","img/card_backs/set2/blue.gif","img/card_backs/set2/orange.gif","img/card_backs/set2/pink.gif","img/card_backs/set2/gray.gif","""event"",""trial"",""time""
""fullscreenenter"",""1"",""3916""
","
","
","""event"",""trial"",""time""
""fullscreenenter"",""1"",""3916""
","
","","4391","Finally, try pressing '8' to select the deck all the way on the right.","56","","instructions","2021-07-08 16:27:59.247","","","","","",""
"card-selection-trial","21","107899","0.0-15.0-0.0","A927","false","img/card_backs/set1/red.gif","img/card_backs/set1/yellow.gif","img/card_backs/set1/purple.gif","img/card_backs/set1/green.gif","img/card_backs/set2/blue.gif","img/card_backs/set2/orange.gif","img/card_backs/set2/pink.gif","img/card_backs/set2/gray.gif","""event"",""trial"",""time""
""fullscreenenter"",""1"",""3916""
","
","
","""event"",""trial"",""time""
""fullscreenenter"",""1"",""3916""
","
","","709","","","","practice_card_selection","2021-07-08 16:28:01.966","img/practice_cards/backs/black.gif","3","100","","",""
"casino-keyboard-response","22","111508","0.0-16.0-0.0","A927","false","img/card_backs/set1/red.gif","img/card_backs/set1/yellow.gif","img/card_backs/set1/purple.gif","img/card_backs/set1/green.gif","img/card_backs/set2/blue.gif","img/card_backs/set2/orange.gif","img/card_backs/set2/pink.gif","img/card_backs/set2/gray.gif","""event"",""trial"",""time""
""fullscreenenter"",""1"",""3916""
","
","
","""event"",""trial"",""time""
""fullscreenenter"",""1"",""3916""
","
","","3607","Great! It seems like you are getting the hang of this.","80","","instructions","2021-07-08 16:28:05.574","","","","","",""
"casino-keyboard-response","23","118919","0.0-16.0-0.1","A927","false","img/card_backs/set1/red.gif","img/card_backs/set1/yellow.gif","img/card_backs/set1/purple.gif","img/card_backs/set1/green.gif","img/card_backs/set2/blue.gif","img/card_backs/set2/orange.gif","img/card_backs/set2/pink.gif","img/card_backs/set2/gray.gif","""event"",""trial"",""time""
""fullscreenenter"",""1"",""3916""
","
","
","""event"",""trial"",""time""
""fullscreenenter"",""1"",""3916""
","
","","7410.000000000015","You may have noticed that some cards will cause you to <b> win </b> tokens while other cards will cause you to <b> lose </b>  tokens.","70","","instructions","2021-07-08 16:28:12.985","","","","","",""
"casino-keyboard-response","24","128411","0.0-16.0-0.2","A927","false","img/card_backs/set1/red.gif","img/card_backs/set1/yellow.gif","img/card_backs/set1/purple.gif","img/card_backs/set1/green.gif","img/card_backs/set2/blue.gif","img/card_backs/set2/orange.gif","img/card_backs/set2/pink.gif","img/card_backs/set2/gray.gif","""event"",""trial"",""time""
""fullscreenenter"",""1"",""3916""
","
","
","""event"",""trial"",""time""
""fullscreenenter"",""1"",""3916""
","
","","9490.999999999985","Each deck has a mix of cards that will cause you to win and lose tokens. </br> However, the cards in each colored deck are different.","73","","instructions","2021-07-08 16:28:22.477","","","","","",""
"casino-keyboard-response","25","138011","0.0-16.0-0.3","A927","false","img/card_backs/set1/red.gif","img/card_backs/set1/yellow.gif","img/card_backs/set1/purple.gif","img/card_backs/set1/green.gif","img/card_backs/set2/blue.gif","img/card_backs/set2/orange.gif","img/card_backs/set2/pink.gif","img/card_backs/set2/gray.gif","""event"",""trial"",""time""
""fullscreenenter"",""1"",""3916""
","
","
","""event"",""trial"",""time""
""fullscreenenter"",""1"",""3916""
","
","","9599","Some colored decks are luckier than others. </br> If you choose the lucky decks, you will earn more tokens than if you choose the unlucky decks.","69","","instructions","2021-07-08 16:28:32.077","","","","","",""
"casino-keyboard-response","26","145965","0.0-16.0-0.4","A927","false","img/card_backs/set1/red.gif","img/card_backs/set1/yellow.gif","img/card_backs/set1/purple.gif","img/card_backs/set1/green.gif","img/card_backs/set2/blue.gif","img/card_backs/set2/orange.gif","img/card_backs/set2/pink.gif","img/card_backs/set2/gray.gif","""event"",""trial"",""time""
""fullscreenenter"",""1"",""3916""
","
","
","""event"",""trial"",""time""
""fullscreenenter"",""1"",""3916""
","
","","7954","You should try to figure out which decks are lucky. </br> Then, try to choose the lucky decks so you can win the most tokens.","87","","instructions","2021-07-08 16:28:40.031","","","","","",""
"casino-keyboard-response","27","157128","0.0-16.0-0.5","A927","false","img/card_backs/set1/red.gif","img/card_backs/set1/yellow.gif","img/card_backs/set1/purple.gif","img/card_backs/set1/green.gif","img/card_backs/set2/blue.gif","img/card_backs/set2/orange.gif","img/card_backs/set2/pink.gif","img/card_backs/set2/gray.gif","""event"",""trial"",""time""
""fullscreenenter"",""1"",""3916""
","
","
","""event"",""trial"",""time""
""fullscreenenter"",""1"",""3916""
","
","","11162","To make it trickier, the casino dealer will switch the locations of the decks on every turn. </br> The color of the deck determines how lucky it is. The location does not matter.","88","","instructions","2021-07-08 16:28:51.194","","","","","",""
"casino-keyboard-response","28","166426","0.0-16.0-0.6","A927","false","img/card_backs/set1/red.gif","img/card_backs/set1/yellow.gif","img/card_backs/set1/purple.gif","img/card_backs/set1/green.gif","img/card_backs/set2/blue.gif","img/card_backs/set2/orange.gif","img/card_backs/set2/pink.gif","img/card_backs/set2/gray.gif","""event"",""trial"",""time""
""fullscreenenter"",""1"",""3916""
","
","
","""event"",""trial"",""time""
""fullscreenenter"",""1"",""3916""
","
","","9297.00000000003","The mix of cards in each colored deck will stay the same throughout the game. </br> That means that a deck that is lucky early on will stay lucky.","79","","instructions","2021-07-08 16:29:00.492","","","","","",""
"casino-keyboard-response","29","174960","0.0-16.0-0.7","A927","false","img/card_backs/set1/red.gif","img/card_backs/set1/yellow.gif","img/card_backs/set1/purple.gif","img/card_backs/set1/green.gif","img/card_backs/set2/blue.gif","img/card_backs/set2/orange.gif","img/card_backs/set2/pink.gif","img/card_backs/set2/gray.gif","""event"",""trial"",""time""
""fullscreenenter"",""1"",""3916""
","
","
","""event"",""trial"",""time""
""fullscreenenter"",""1"",""3916""
","
","","8533","Remember though, all the decks have a <b> mix </b> of both <b> good </b> and <b> bad </b> cards so it may take a couple of turns to figure out if a deck is lucky.","69","","instructions","2021-07-08 16:29:09.027","","","","","",""
"casino-keyboard-response","30","183393","0.0-16.0-0.8","A927","false","img/card_backs/set1/red.gif","img/card_backs/set1/yellow.gif","img/card_backs/set1/purple.gif","img/card_backs/set1/green.gif","img/card_backs/set2/blue.gif","img/card_backs/set2/orange.gif","img/card_backs/set2/pink.gif","img/card_backs/set2/gray.gif","""event"",""trial"",""time""
""fullscreenenter"",""1"",""3916""
","
","
","""event"",""trial"",""time""
""fullscreenenter"",""1"",""3916""
","
","","8430.99999999997","At the end of the game, you will be paid bonus money based on how many tokens you win. </br> If you win more tokens, you will earn more money!","72","","instructions","2021-07-08 16:29:17.459","","","","","",""
"casino-keyboard-response","31","193610","0.0-16.0-0.9","A927","false","img/card_backs/set1/red.gif","img/card_backs/set1/yellow.gif","img/card_backs/set1/purple.gif","img/card_backs/set1/green.gif","img/card_backs/set2/blue.gif","img/card_backs/set2/orange.gif","img/card_backs/set2/pink.gif","img/card_backs/set2/gray.gif","""event"",""trial"",""time""
""fullscreenenter"",""1"",""3916""
","
","
","""event"",""trial"",""time""
""fullscreenenter"",""1"",""3916""
","
","","10215","You will never <b> lose </b> money. </br> If you end up with fewer than 0 tokens, you will earn $0 of bonus money, but you will still be paid for playing the game.","83","","instructions","2021-07-08 16:29:27.677","","","","","",""
"casino-keyboard-response","32","197981","0.0-16.0-0.10","A927","false","img/card_backs/set1/red.gif","img/card_backs/set1/yellow.gif","img/card_backs/set1/purple.gif","img/card_backs/set1/green.gif","img/card_backs/set2/blue.gif","img/card_backs/set2/orange.gif","img/card_backs/set2/pink.gif","img/card_backs/set2/gray.gif","""event"",""trial"",""time""
""fullscreenenter"",""1"",""3916""
","
","
","""event"",""trial"",""time""
""fullscreenenter"",""1"",""3916""
","
","","4369","You will have 10 seconds to make each choice.","82","","instructions","2021-07-08 16:29:32.047","","","","","",""
"casino-keyboard-response","33","206234","0.0-16.0-0.11","A927","false","img/card_backs/set1/red.gif","img/card_backs/set1/yellow.gif","img/card_backs/set1/purple.gif","img/card_backs/set1/green.gif","img/card_backs/set2/blue.gif","img/card_backs/set2/orange.gif","img/card_backs/set2/pink.gif","img/card_backs/set2/gray.gif","""event"",""trial"",""time""
""fullscreenenter"",""1"",""3916""
","
","
","""event"",""trial"",""time""
""fullscreenenter"",""1"",""3916""
","
","","8251","Before you play the game for real, you will play with practice decks. </br> The tokens you earn during practice won't count toward your total.","86","","instructions","2021-07-08 16:29:40.300","","","","","",""
"casino-keyboard-response","34","217733","0.0-16.0-0.12","A927","false","img/card_backs/set1/red.gif","img/card_backs/set1/yellow.gif","img/card_backs/set1/purple.gif","img/card_backs/set1/green.gif","img/card_backs/set2/blue.gif","img/card_backs/set2/orange.gif","img/card_backs/set2/pink.gif","img/card_backs/set2/gray.gif","""event"",""trial"",""time""
""fullscreenenter"",""1"",""3916""
","
","
","""event"",""trial"",""time""
""fullscreenenter"",""1"",""3916""
","
","","11498","Ready? Remember, use the '2', '4', '6', and '8' keys to select the decks. </br> Put your fingers on those keys now and then press '2' to begin.","50","","instructions","2021-07-08 16:29:51.799","","","","","",""
"casino-fixation","35","218236","0.0-17.0-0.0","A927","false","img/card_backs/set1/red.gif","img/card_backs/set1/yellow.gif","img/card_backs/set1/purple.gif","img/card_backs/set1/green.gif","img/card_backs/set2/blue.gif","img/card_backs/set2/orange.gif","img/card_backs/set2/pink.gif","img/card_backs/set2/gray.gif","""event"",""trial"",""time""
""fullscreenenter"",""1"",""3916""
","
","
","""event"",""trial"",""time""
""fullscreenenter"",""1"",""3916""
","
","","null","","null","","fixation","2021-07-08 16:29:52.302","","","","","",""
"card-selection-trial","36","222455","0.0-17.0-1.0","A927","false","img/card_backs/set1/red.gif","img/card_backs/set1/yellow.gif","img/card_backs/set1/purple.gif","img/card_backs/set1/green.gif","img/card_backs/set2/blue.gif","img/card_backs/set2/orange.gif","img/card_backs/set2/pink.gif","img/card_backs/set2/gray.gif","""event"",""trial"",""time""
""fullscreenenter"",""1"",""3916""
","
","
","""event"",""trial"",""time""
""fullscreenenter"",""1"",""3916""
","
","","2212","","","","practice","2021-07-08 16:29:56.521","img/practice_cards/backs/dark_green.gif","1","-200","0","",""
"casino-fixation","37","222956","0.0-17.0-0.1","A927","false","img/card_backs/set1/red.gif","img/card_backs/set1/yellow.gif","img/card_backs/set1/purple.gif","img/card_backs/set1/green.gif","img/card_backs/set2/blue.gif","img/card_backs/set2/orange.gif","img/card_backs/set2/pink.gif","img/card_backs/set2/gray.gif","""event"",""trial"",""time""
""fullscreenenter"",""1"",""3916""
","
","
","""event"",""trial"",""time""
""fullscreenenter"",""1"",""3916""
","
","","null","","null","","fixation","2021-07-08 16:29:57.023","","","","","",""
"card-selection-trial","38","226695","0.0-17.0-1.1","A927","false","img/card_backs/set1/red.gif","img/card_backs/set1/yellow.gif","img/card_backs/set1/purple.gif","img/card_backs/set1/green.gif","img/card_backs/set2/blue.gif","img/card_backs/set2/orange.gif","img/card_backs/set2/pink.gif","img/card_backs/set2/gray.gif","""event"",""trial"",""time""
""fullscreenenter"",""1"",""3916""
","
","
","""event"",""trial"",""time""
""fullscreenenter"",""1"",""3916""
","
","","1731.000000000029","","","","practice","2021-07-08 16:30:00.762","img/practice_cards/backs/brown.gif","2","100","0","",""
"casino-fixation","39","227197","0.0-17.0-0.2","A927","false","img/card_backs/set1/red.gif","img/card_backs/set1/yellow.gif","img/card_backs/set1/purple.gif","img/card_backs/set1/green.gif","img/card_backs/set2/blue.gif","img/card_backs/set2/orange.gif","img/card_backs/set2/pink.gif","img/card_backs/set2/gray.gif","""event"",""trial"",""time""
""fullscreenenter"",""1"",""3916""
","
","
","""event"",""trial"",""time""
""fullscreenenter"",""1"",""3916""
","
","","null","","null","","fixation","2021-07-08 16:30:01.263","","","","","",""
"card-selection-trial","40","230277","0.0-17.0-1.2","A927","false","img/card_backs/set1/red.gif","img/card_backs/set1/yellow.gif","img/card_backs/set1/purple.gif","img/card_backs/set1/green.gif","img/card_backs/set2/blue.gif","img/card_backs/set2/orange.gif","img/card_backs/set2/pink.gif","img/card_backs/set2/gray.gif","""event"",""trial"",""time""
""fullscreenenter"",""1"",""3916""
","
","
","""event"",""trial"",""time""
""fullscreenenter"",""1"",""3916""
","
","","1072","","","","practice","2021-07-08 16:30:04.343","img/practice_cards/backs/black.gif","0","100","0","",""
"casino-fixation","41","230778","0.0-17.0-0.3","A927","false","img/card_backs/set1/red.gif","img/card_backs/set1/yellow.gif","img/card_backs/set1/purple.gif","img/card_backs/set1/green.gif","img/card_backs/set2/blue.gif","img/card_backs/set2/orange.gif","img/card_backs/set2/pink.gif","img/card_backs/set2/gray.gif","""event"",""trial"",""time""
""fullscreenenter"",""1"",""3916""
","
","
","""event"",""trial"",""time""
""fullscreenenter"",""1"",""3916""
","
","","null","","null","","fixation","2021-07-08 16:30:04.844","","","","","",""
"card-selection-trial","42","234015","0.0-17.0-1.3","A927","false","img/card_backs/set1/red.gif","img/card_backs/set1/yellow.gif","img/card_backs/set1/purple.gif","img/card_backs/set1/green.gif","img/card_backs/set2/blue.gif","img/card_backs/set2/orange.gif","img/card_backs/set2/pink.gif","img/card_backs/set2/gray.gif","""event"",""trial"",""time""
""fullscreenenter"",""1"",""3916""
","
","
","""event"",""trial"",""time""
""fullscreenenter"",""1"",""3916""
","
","","1231","","","","practice","2021-07-08 16:30:08.081","img/practice_cards/backs/dark_blue.gif","1","-200","0","",""
"casino-fixation","43","234517","0.0-17.0-0.4","A927","false","img/card_backs/set1/red.gif","img/card_backs/set1/yellow.gif","img/card_backs/set1/purple.gif","img/card_backs/set1/green.gif","img/card_backs/set2/blue.gif","img/card_backs/set2/orange.gif","img/card_backs/set2/pink.gif","img/card_backs/set2/gray.gif","""event"",""trial"",""time""
""fullscreenenter"",""1"",""3916""
","
","
","""event"",""trial"",""time""
""fullscreenenter"",""1"",""3916""
","
","","null","","null","","fixation","2021-07-08 16:30:08.583","","","","","",""
"card-selection-trial","44","237980","0.0-17.0-1.4","A927","false","img/card_backs/set1/red.gif","img/card_backs/set1/yellow.gif","img/card_backs/set1/purple.gif","img/card_backs/set1/green.gif","img/card_backs/set2/blue.gif","img/card_backs/set2/orange.gif","img/card_backs/set2/pink.gif","img/card_backs/set2/gray.gif","""event"",""trial"",""time""
""fullscreenenter"",""1"",""3916""
","
","
","""event"",""trial"",""time""
""fullscreenenter"",""1"",""3916""
","
","","1456.999999999971","","","","practice","2021-07-08 16:30:12.046","img/practice_cards/backs/dark_green.gif","3","-200","0","",""
"casino-fixation","45","238482","0.0-17.0-0.5","A927","false","img/card_backs/set1/red.gif","img/card_backs/set1/yellow.gif","img/card_backs/set1/purple.gif","img/card_backs/set1/green.gif","img/card_backs/set2/blue.gif","img/card_backs/set2/orange.gif","img/card_backs/set2/pink.gif","img/card_backs/set2/gray.gif","""event"",""trial"",""time""
""fullscreenenter"",""1"",""3916""
","
","
","""event"",""trial"",""time""
""fullscreenenter"",""1"",""3916""
","
","","null","","null","","fixation","2021-07-08 16:30:12.548","","","","","",""
"card-selection-trial","46","241500","0.0-17.0-1.5","A927","false","img/card_backs/set1/red.gif","img/card_backs/set1/yellow.gif","img/card_backs/set1/purple.gif","img/card_backs/set1/green.gif","img/card_backs/set2/blue.gif","img/card_backs/set2/orange.gif","img/card_backs/set2/pink.gif","img/card_backs/set2/gray.gif","""event"",""trial"",""time""
""fullscreenenter"",""1"",""3916""
","
","
","""event"",""trial"",""time""
""fullscreenenter"",""1"",""3916""
","
","","1010","","","","practice","2021-07-08 16:30:15.566","img/practice_cards/backs/brown.gif","2","100","0","",""
"casino-fixation","47","242001","0.0-17.0-0.6","A927","false","img/card_backs/set1/red.gif","img/card_backs/set1/yellow.gif","img/card_backs/set1/purple.gif","img/card_backs/set1/green.gif","img/card_backs/set2/blue.gif","img/card_backs/set2/orange.gif","img/card_backs/set2/pink.gif","img/card_backs/set2/gray.gif","""event"",""trial"",""time""
""fullscreenenter"",""1"",""3916""
","
","
","""event"",""trial"",""time""
""fullscreenenter"",""1"",""3916""
","
","","null","","null","","fixation","2021-07-08 16:30:16.067","","","","","",""
"card-selection-trial","48","244558","0.0-17.0-1.6","A927","false","img/card_backs/set1/red.gif","img/card_backs/set1/yellow.gif","img/card_backs/set1/purple.gif","img/card_backs/set1/green.gif","img/card_backs/set2/blue.gif","img/card_backs/set2/orange.gif","img/card_backs/set2/pink.gif","img/card_backs/set2/gray.gif","""event"",""trial"",""time""
""fullscreenenter"",""1"",""3916""
","
","
","""event"",""trial"",""time""
""fullscreenenter"",""1"",""3916""
","
","","550","","","","practice","2021-07-08 16:30:18.624","img/practice_cards/backs/dark_green.gif","2","-200","0","",""
"casino-fixation","49","245061","0.0-17.0-0.7","A927","false","img/card_backs/set1/red.gif","img/card_backs/set1/yellow.gif","img/card_backs/set1/purple.gif","img/card_backs/set1/green.gif","img/card_backs/set2/blue.gif","img/card_backs/set2/orange.gif","img/card_backs/set2/pink.gif","img/card_backs/set2/gray.gif","""event"",""trial"",""time""
""fullscreenenter"",""1"",""3916""
","
","
","""event"",""trial"",""time""
""fullscreenenter"",""1"",""3916""
","
","","null","","null","","fixation","2021-07-08 16:30:19.127","","","","","",""
"card-selection-trial","50","248168","0.0-17.0-1.7","A927","false","img/card_backs/set1/red.gif","img/card_backs/set1/yellow.gif","img/card_backs/set1/purple.gif","img/card_backs/set1/green.gif","img/card_backs/set2/blue.gif","img/card_backs/set2/orange.gif","img/card_backs/set2/pink.gif","img/card_backs/set2/gray.gif","""event"",""trial"",""time""
""fullscreenenter"",""1"",""3916""
","
","
","""event"",""trial"",""time""
""fullscreenenter"",""1"",""3916""
","
","","1101","","","","practice","2021-07-08 16:30:22.234","img/practice_cards/backs/brown.gif","1","100","0","",""
"casino-fixation","51","248670","0.0-17.0-0.8","A927","false","img/card_backs/set1/red.gif","img/card_backs/set1/yellow.gif","img/card_backs/set1/purple.gif","img/card_backs/set1/green.gif","img/card_backs/set2/blue.gif","img/card_backs/set2/orange.gif","img/card_backs/set2/pink.gif","img/card_backs/set2/gray.gif","""event"",""trial"",""time""
""fullscreenenter"",""1"",""3916""
","
","
","""event"",""trial"",""time""
""fullscreenenter"",""1"",""3916""
","
","","null","","null","","fixation","2021-07-08 16:30:22.736","","","","","",""
"card-selection-trial","52","251994","0.0-17.0-1.8","A927","false","img/card_backs/set1/red.gif","img/card_backs/set1/yellow.gif","img/card_backs/set1/purple.gif","img/card_backs/set1/green.gif","img/card_backs/set2/blue.gif","img/card_backs/set2/orange.gif","img/card_backs/set2/pink.gif","img/card_backs/set2/gray.gif","""event"",""trial"",""time""
""fullscreenenter"",""1"",""3916""
","
","
","""event"",""trial"",""time""
""fullscreenenter"",""1"",""3916""
","
","","1318.0000000000582","","","","practice","2021-07-08 16:30:26.060","img/practice_cards/backs/brown.gif","0","-100","0","",""
"casino-fixation","53","252495","0.0-17.0-0.9","A927","false","img/card_backs/set1/red.gif","img/card_backs/set1/yellow.gif","img/card_backs/set1/purple.gif","img/card_backs/set1/green.gif","img/card_backs/set2/blue.gif","img/card_backs/set2/orange.gif","img/card_backs/set2/pink.gif","img/card_backs/set2/gray.gif","""event"",""trial"",""time""
""fullscreenenter"",""1"",""3916""
","
","
","""event"",""trial"",""time""
""fullscreenenter"",""1"",""3916""
","
","","null","","null","","fixation","2021-07-08 16:30:26.561","","","","","",""
"card-selection-trial","54","258436","0.0-17.0-1.9","A927","false","img/card_backs/set1/red.gif","img/card_backs/set1/yellow.gif","img/card_backs/set1/purple.gif","img/card_backs/set1/green.gif","img/card_backs/set2/blue.gif","img/card_backs/set2/orange.gif","img/card_backs/set2/pink.gif","img/card_backs/set2/gray.gif","""event"",""trial"",""time""
""fullscreenenter"",""1"",""3916""
","
","
","""event"",""trial"",""time""
""fullscreenenter"",""1"",""3916""
","
","","3934.999999999971","","","","practice","2021-07-08 16:30:32.503","img/practice_cards/backs/dark_green.gif","0","200","0","",""
"casino-keyboard-response","55","261303","0.0-18.0","A927","false","img/card_backs/set1/red.gif","img/card_backs/set1/yellow.gif","img/card_backs/set1/purple.gif","img/card_backs/set1/green.gif","img/card_backs/set2/blue.gif","img/card_backs/set2/orange.gif","img/card_backs/set2/pink.gif","img/card_backs/set2/gray.gif","""event"",""trial"",""time""
""fullscreenenter"",""1"",""3916""
","
","
","""event"",""trial"",""time""
""fullscreenenter"",""1"",""3916""
","
","","2865","You earned -300 tokens during the practice round!","82","","","2021-07-08 16:30:35.369","","","","","",""
"casino-keyboard-response","56","266212","0.0-19.0-0.0","A927","false","img/card_backs/set1/red.gif","img/card_backs/set1/yellow.gif","img/card_backs/set1/purple.gif","img/card_backs/set1/green.gif","img/card_backs/set2/blue.gif","img/card_backs/set2/orange.gif","img/card_backs/set2/pink.gif","img/card_backs/set2/gray.gif","""event"",""trial"",""time""
""fullscreenenter"",""1"",""3916""
","
","
","""event"",""trial"",""time""
""fullscreenenter"",""1"",""3916""
","
","","4909","Nice job! You are almost ready to play the real game.","86","","instructions","2021-07-08 16:30:40.278","","","","","",""
"casino-keyboard-response","57","273070","0.0-19.0-0.1","A927","false","img/card_backs/set1/red.gif","img/card_backs/set1/yellow.gif","img/card_backs/set1/purple.gif","img/card_backs/set1/green.gif","img/card_backs/set2/blue.gif","img/card_backs/set2/orange.gif","img/card_backs/set2/pink.gif","img/card_backs/set2/gray.gif","""event"",""trial"",""time""
""fullscreenenter"",""1"",""3916""
","
","
","""event"",""trial"",""time""
""fullscreenenter"",""1"",""3916""
","
","","6856","You will play two rounds of the real game. In each round, you will pick 100 cards in total.","73","","instructions","2021-07-08 16:30:47.136","","","","","",""
"casino-keyboard-response","58","277745","0.0-19.0-0.2","A927","false","img/card_backs/set1/red.gif","img/card_backs/set1/yellow.gif","img/card_backs/set1/purple.gif","img/card_backs/set1/green.gif","img/card_backs/set2/blue.gif","img/card_backs/set2/orange.gif","img/card_backs/set2/pink.gif","img/card_backs/set2/gray.gif","""event"",""trial"",""time""
""fullscreenenter"",""1"",""3916""
","
","
","""event"",""trial"",""time""
""fullscreenenter"",""1"",""3916""
","
","","4674","We are now going to ask you some questions about how the game works.","66","","instructions","2021-07-08 16:30:51.811","","","","","",""
"casino-keyboard-response","59","283968","0.0-19.0-0.3","A927","false","img/card_backs/set1/red.gif","img/card_backs/set1/yellow.gif","img/card_backs/set1/purple.gif","img/card_backs/set1/green.gif","img/card_backs/set2/blue.gif","img/card_backs/set2/orange.gif","img/card_backs/set2/pink.gif","img/card_backs/set2/gray.gif","""event"",""trial"",""time""
""fullscreenenter"",""1"",""3916""
","
","
","""event"",""trial"",""time""
""fullscreenenter"",""1"",""3916""
","
","","6223","Answer carefully. You will not be able to begin the game until you answer them correctly.","67","","instructions","2021-07-08 16:30:58.034","","","","","",""
"casino-comp_q","60","291344","0.0-20.0-0.0","A927","false","img/card_backs/set1/red.gif","img/card_backs/set1/yellow.gif","img/card_backs/set1/purple.gif","img/card_backs/set1/green.gif","img/card_backs/set2/blue.gif","img/card_backs/set2/orange.gif","img/card_backs/set2/pink.gif","img/card_backs/set2/gray.gif","""event"",""trial"",""time""
""fullscreenenter"",""1"",""3916""
","
","
","""event"",""trial"",""time""
""fullscreenenter"",""1"",""3916""
","
","","7375","True or False: All the decks have some cards that cause you to win tokens and some cards that cause you to lose tokens.","84","","","2021-07-08 16:31:05.410","","","","","",""
"casino-keyboard-response","61","294365","0.0-20.0-1.0","A927","false","img/card_backs/set1/red.gif","img/card_backs/set1/yellow.gif","img/card_backs/set1/purple.gif","img/card_backs/set1/green.gif","img/card_backs/set2/blue.gif","img/card_backs/set2/orange.gif","img/card_backs/set2/pink.gif","img/card_backs/set2/gray.gif","""event"",""trial"",""time""
""fullscreenenter"",""1"",""3916""
","
","
","""event"",""trial"",""time""
""fullscreenenter"",""1"",""3916""
","
","","3020.000000000058","True is correct! All the decks have a mix of winning and losing cards.","77","","","2021-07-08 16:31:08.433","","","","","true",""
"casino-comp_q","62","297399","0.0-21.0-0.0","A927","false","img/card_backs/set1/red.gif","img/card_backs/set1/yellow.gif","img/card_backs/set1/purple.gif","img/card_backs/set1/green.gif","img/card_backs/set2/blue.gif","img/card_backs/set2/orange.gif","img/card_backs/set2/pink.gif","img/card_backs/set2/gray.gif","""event"",""trial"",""time""
""fullscreenenter"",""1"",""3916""
","
","
","""event"",""trial"",""time""
""fullscreenenter"",""1"",""3916""
","
","","3032","True or False: You will have as much time as you want to make your response.","70","","","2021-07-08 16:31:11.465","","","","","",""
"casino-keyboard-response","63","300192","0.0-21.0-1.0","A927","false","img/card_backs/set1/red.gif","img/card_backs/set1/yellow.gif","img/card_backs/set1/purple.gif","img/card_backs/set1/green.gif","img/card_backs/set2/blue.gif","img/card_backs/set2/orange.gif","img/card_backs/set2/pink.gif","img/card_backs/set2/gray.gif","""event"",""trial"",""time""
""fullscreenenter"",""1"",""3916""
","
","
","""event"",""trial"",""time""
""fullscreenenter"",""1"",""3916""
","
","","2791","False is correct! You will only have 10 seconds to make each choice.","75","","","2021-07-08 16:31:14.258","","","","","true",""
"casino-comp_q","64","304632","0.0-22.0-0.0","A927","false","img/card_backs/set1/red.gif","img/card_backs/set1/yellow.gif","img/card_backs/set1/purple.gif","img/card_backs/set1/green.gif","img/card_backs/set2/blue.gif","img/card_backs/set2/orange.gif","img/card_backs/set2/pink.gif","img/card_backs/set2/gray.gif","""event"",""trial"",""time""
""fullscreenenter"",""1"",""3916""
","
","
","""event"",""trial"",""time""
""fullscreenenter"",""1"",""3916""
","
","","4438","True or False: The location of the deck determines how lucky it is.","70","","","2021-07-08 16:31:18.698","","","","","",""
"casino-keyboard-response","65","307551","0.0-22.0-1.0","A927","false","img/card_backs/set1/red.gif","img/card_backs/set1/yellow.gif","img/card_backs/set1/purple.gif","img/card_backs/set1/green.gif","img/card_backs/set2/blue.gif","img/card_backs/set2/orange.gif","img/card_backs/set2/pink.gif","img/card_backs/set2/gray.gif","""event"",""trial"",""time""
""fullscreenenter"",""1"",""3916""
","
","
","""event"",""trial"",""time""
""fullscreenenter"",""1"",""3916""
","
","","2918.000000000058","False is correct! The <i>color</i>  of the deck determines how lucky or unlucky it is.","68","","","2021-07-08 16:31:21.617","","","","","true",""
"casino-keyboard-response","66","311839","0.0-23.0-0.0","A927","false","img/card_backs/set1/red.gif","img/card_backs/set1/yellow.gif","img/card_backs/set1/purple.gif","img/card_backs/set1/green.gif","img/card_backs/set2/blue.gif","img/card_backs/set2/orange.gif","img/card_backs/set2/pink.gif","img/card_backs/set2/gray.gif","""event"",""trial"",""time""
""fullscreenenter"",""1"",""3916""
","
","
","""event"",""trial"",""time""
""fullscreenenter"",""1"",""3916""
","
","","4288","Great job! Now it's time to start the real game.","82","","instructions","2021-07-08 16:31:25.905","","","","","",""
"casino-keyboard-response","67","317025","0.0-23.0-0.1","A927","false","img/card_backs/set1/red.gif","img/card_backs/set1/yellow.gif","img/card_backs/set1/purple.gif","img/card_backs/set1/green.gif","img/card_backs/set2/blue.gif","img/card_backs/set2/orange.gif","img/card_backs/set2/pink.gif","img/card_backs/set2/gray.gif","""event"",""trial"",""time""
""fullscreenenter"",""1"",""3916""
","
","
","""event"",""trial"",""time""
""fullscreenenter"",""1"",""3916""
","
","","5185","Before we start, we're going to head into a new room of the casino.","86","","instructions","2021-07-08 16:31:31.091","","","","","",""
"casino-keyboard-response","68","323310","0.0-24.0-0.0","A927","false","img/card_backs/set1/red.gif","img/card_backs/set1/yellow.gif","img/card_backs/set1/purple.gif","img/card_backs/set1/green.gif","img/card_backs/set2/blue.gif","img/card_backs/set2/orange.gif","img/card_backs/set2/pink.gif","img/card_backs/set2/gray.gif","""event"",""trial"",""time""
""fullscreenenter"",""1"",""3916""
","
","
","""event"",""trial"",""time""
""fullscreenenter"",""1"",""3916""
","
","","6284","Here we are! The real game will use different cards, but the rules will be the same.","71","","instructions","2021-07-08 16:31:37.376","","","","","",""
"casino-keyboard-response","69","325911","0.0-24.0-0.1","A927","false","img/card_backs/set1/red.gif","img/card_backs/set1/yellow.gif","img/card_backs/set1/purple.gif","img/card_backs/set1/green.gif","img/card_backs/set2/blue.gif","img/card_backs/set2/orange.gif","img/card_backs/set2/pink.gif","img/card_backs/set2/gray.gif","""event"",""trial"",""time""
""fullscreenenter"",""1"",""3916""
","
","
","""event"",""trial"",""time""
""fullscreenenter"",""1"",""3916""
","
","","2601","Ready? Put your fingers over the '2', '4', 6', and '8' keys so you are ready to play the game. </br> Then press 2 to start.","50","","instructions","2021-07-08 16:31:39.977","","","","","",""
"casino-fixation","70","326413","0.0-25.0-0.0","A927","false","img/card_backs/set1/red.gif","img/card_backs/set1/yellow.gif","img/card_backs/set1/purple.gif","img/card_backs/set1/green.gif","img/card_backs/set2/blue.gif","img/card_backs/set2/orange.gif","img/card_backs/set2/pink.gif","img/card_backs/set2/gray.gif","""event"",""trial"",""time""
""fullscreenenter"",""1"",""3916""
","
","
","""event"",""trial"",""time""
""fullscreenenter"",""1"",""3916""
","
","","null","","null","","fixation","2021-07-08 16:31:40.479","","","","","",""
"card-selection-trial","71","330002","0.0-25.0-1.0","A927","false","img/card_backs/set1/red.gif","img/card_backs/set1/yellow.gif","img/card_backs/set1/purple.gif","img/card_backs/set1/green.gif","img/card_backs/set2/blue.gif","img/card_backs/set2/orange.gif","img/card_backs/set2/pink.gif","img/card_backs/set2/gray.gif","""event"",""trial"",""time""
""fullscreenenter"",""1"",""3916""
","
","
","""event"",""trial"",""time""
""fullscreenenter"",""1"",""3916""
","
","","1582.9999999999418","","","","real_trial","2021-07-08 16:31:44.069","img/card_backs/set1/red.gif","1","-240","1","",""
"casino-fixation","72","330504","0.0-25.0-0.1","A927","false","img/card_backs/set1/red.gif","img/card_backs/set1/yellow.gif","img/card_backs/set1/purple.gif","img/card_backs/set1/green.gif","img/card_backs/set2/blue.gif","img/card_backs/set2/orange.gif","img/card_backs/set2/pink.gif","img/card_backs/set2/gray.gif","""event"",""trial"",""time""
""fullscreenenter"",""1"",""3916""
","
","
","""event"",""trial"",""time""
""fullscreenenter"",""1"",""3916""
","
","","null","","null","","fixation","2021-07-08 16:31:44.570","","","","","",""
"card-selection-trial","73","335368","0.0-25.0-1.1","A927","false","img/card_backs/set1/red.gif","img/card_backs/set1/yellow.gif","img/card_backs/set1/purple.gif","img/card_backs/set1/green.gif","img/card_backs/set2/blue.gif","img/card_backs/set2/orange.gif","img/card_backs/set2/pink.gif","img/card_backs/set2/gray.gif","""event"",""trial"",""time""
""fullscreenenter"",""1"",""3916""
","
","
","""event"",""trial"",""time""
""fullscreenenter"",""1"",""3916""
","
","","2856","","","","real_trial","2021-07-08 16:31:49.435","img/card_backs/set1/yellow.gif","2","-240","1","",""
"casino-fixation","74","335872","0.0-25.0-0.2","A927","false","img/card_backs/set1/red.gif","img/card_backs/set1/yellow.gif","img/card_backs/set1/purple.gif","img/card_backs/set1/green.gif","img/card_backs/set2/blue.gif","img/card_backs/set2/orange.gif","img/card_backs/set2/pink.gif","img/card_backs/set2/gray.gif","""event"",""trial"",""time""
""fullscreenenter"",""1"",""3916""
","
","
","""event"",""trial"",""time""
""fullscreenenter"",""1"",""3916""
","
","","null","","null","","fixation","2021-07-08 16:31:49.938","","","","","",""
"card-selection-trial","75","340182","0.0-25.0-1.2","A927","false","img/card_backs/set1/red.gif","img/card_backs/set1/yellow.gif","img/card_backs/set1/purple.gif","img/card_backs/set1/green.gif","img/card_backs/set2/blue.gif","img/card_backs/set2/orange.gif","img/card_backs/set2/pink.gif","img/card_backs/set2/gray.gif","""event"",""trial"",""time""
""fullscreenenter"",""1"",""3916""
","
","
","""event"",""trial"",""time""
""fullscreenenter"",""1"",""3916""
","
","","2304.000000000058","","","","real_trial","2021-07-08 16:31:54.248","img/card_backs/set1/green.gif","3","110","1","",""
"casino-fixation","76","340684","0.0-25.0-0.3","A927","false","img/card_backs/set1/red.gif","img/card_backs/set1/yellow.gif","img/card_backs/set1/purple.gif","img/card_backs/set1/green.gif","img/card_backs/set2/blue.gif","img/card_backs/set2/orange.gif","img/card_backs/set2/pink.gif","img/card_backs/set2/gray.gif","""event"",""trial"",""time""
""fullscreenenter"",""1"",""3916""
","
","
","""event"",""trial"",""time""
""fullscreenenter"",""1"",""3916""
","
","","null","","null","","fixation","2021-07-08 16:31:54.750","","","","","",""
"card-selection-trial","77","343820","0.0-25.0-1.3","A927","false","img/card_backs/set1/red.gif","img/card_backs/set1/yellow.gif","img/card_backs/set1/purple.gif","img/card_backs/set1/green.gif","img/card_backs/set2/blue.gif","img/card_backs/set2/orange.gif","img/card_backs/set2/pink.gif","img/card_backs/set2/gray.gif","""event"",""trial"",""time""
""fullscreenenter"",""1"",""3916""
","
","
","""event"",""trial"",""time""
""fullscreenenter"",""1"",""3916""
","
","","1127.0000000000582","","","","real_trial","2021-07-08 16:31:57.886","img/card_backs/set1/green.gif","1","-60","1","",""
"casino-fixation","78","344322","0.0-25.0-0.4","A927","false","img/card_backs/set1/red.gif","img/card_backs/set1/yellow.gif","img/card_backs/set1/purple.gif","img/card_backs/set1/green.gif","img/card_backs/set2/blue.gif","img/card_backs/set2/orange.gif","img/card_backs/set2/pink.gif","img/card_backs/set2/gray.gif","""event"",""trial"",""time""
""fullscreenenter"",""1"",""3916""
","
","
","""event"",""trial"",""time""
""fullscreenenter"",""1"",""3916""
","
","","null","","null","","fixation","2021-07-08 16:31:58.388","","","","","",""
"card-selection-trial","79","347899","0.0-25.0-1.4","A927","false","img/card_backs/set1/red.gif","img/card_backs/set1/yellow.gif","img/card_backs/set1/purple.gif","img/card_backs/set1/green.gif","img/card_backs/set2/blue.gif","img/card_backs/set2/orange.gif","img/card_backs/set2/pink.gif","img/card_backs/set2/gray.gif","""event"",""trial"",""time""
""fullscreenenter"",""1"",""3916""
","
","
","""event"",""trial"",""time""
""fullscreenenter"",""1"",""3916""
","
","","1571","","","","real_trial","2021-07-08 16:32:01.965","img/card_backs/set1/yellow.gif","3","-230","1","",""
"casino-fixation","80","348401","0.0-25.0-0.5","A927","false","img/card_backs/set1/red.gif","img/card_backs/set1/yellow.gif","img/card_backs/set1/purple.gif","img/card_backs/set1/green.gif","img/card_backs/set2/blue.gif","img/card_backs/set2/orange.gif","img/card_backs/set2/pink.gif","img/card_backs/set2/gray.gif","""event"",""trial"",""time""
""fullscreenenter"",""1"",""3916""
","
","
","""event"",""trial"",""time""
""fullscreenenter"",""1"",""3916""
","
","","null","","null","","fixation","2021-07-08 16:32:02.467","","","","","",""
"card-selection-trial","81","352037","0.0-25.0-1.5","A927","false","img/card_backs/set1/red.gif","img/card_backs/set1/yellow.gif","img/card_backs/set1/purple.gif","img/card_backs/set1/green.gif","img/card_backs/set2/blue.gif","img/card_backs/set2/orange.gif","img/card_backs/set2/pink.gif","img/card_backs/set2/gray.gif","""event"",""trial"",""time""
""fullscreenenter"",""1"",""3916""
","
","
","""event"",""trial"",""time""
""fullscreenenter"",""1"",""3916""
","
","","1628","","","","real_trial","2021-07-08 16:32:06.103","img/card_backs/set1/yellow.gif","0","180","1","",""
"casino-fixation","82","352539","0.0-25.0-0.6","A927","false","img/card_backs/set1/red.gif","img/card_backs/set1/yellow.gif","img/card_backs/set1/purple.gif","img/card_backs/set1/green.gif","img/card_backs/set2/blue.gif","img/card_backs/set2/orange.gif","img/card_backs/set2/pink.gif","img/card_backs/set2/gray.gif","""event"",""trial"",""time""
""fullscreenenter"",""1"",""3916""
","
","
","""event"",""trial"",""time""
""fullscreenenter"",""1"",""3916""
","
","","null","","null","","fixation","2021-07-08 16:32:06.605","","","","","",""
"card-selection-trial","83","355746","0.0-25.0-1.6","A927","false","img/card_backs/set1/red.gif","img/card_backs/set1/yellow.gif","img/card_backs/set1/purple.gif","img/card_backs/set1/green.gif","img/card_backs/set2/blue.gif","img/card_backs/set2/orange.gif","img/card_backs/set2/pink.gif","img/card_backs/set2/gray.gif","""event"",""trial"",""time""
""fullscreenenter"",""1"",""3916""
","
","
","""event"",""trial"",""time""
""fullscreenenter"",""1"",""3916""
","
","","1201.9999999999418","","","","real_trial","2021-07-08 16:32:09.812","img/card_backs/set1/yellow.gif","2","190","1","",""
"casino-fixation","84","356248","0.0-25.0-0.7","A927","false","img/card_backs/set1/red.gif","img/card_backs/set1/yellow.gif","img/card_backs/set1/purple.gif","img/card_backs/set1/green.gif","img/card_backs/set2/blue.gif","img/card_backs/set2/orange.gif","img/card_backs/set2/pink.gif","img/card_backs/set2/gray.gif","""event"",""trial"",""time""
""fullscreenenter"",""1"",""3916""
","
","
","""event"",""trial"",""time""
""fullscreenenter"",""1"",""3916""
","
","","null","","null","","fixation","2021-07-08 16:32:10.314","","","","","",""
"card-selection-trial","85","359404","0.0-25.0-1.7","A927","false","img/card_backs/set1/red.gif","img/card_backs/set1/yellow.gif","img/card_backs/set1/purple.gif","img/card_backs/set1/green.gif","img/card_backs/set2/blue.gif","img/card_backs/set2/orange.gif","img/card_backs/set2/pink.gif","img/card_backs/set2/gray.gif","""event"",""trial"",""time""
""fullscreenenter"",""1"",""3916""
","
","
","""event"",""trial"",""time""
""fullscreenenter"",""1"",""3916""
","
","","1149.9999999999418","","","","real_trial","2021-07-08 16:32:13.470","img/card_backs/set1/yellow.gif","0","-240","1","",""
"casino-fixation","86","359906","0.0-25.0-0.8","A927","false","img/card_backs/set1/red.gif","img/card_backs/set1/yellow.gif","img/card_backs/set1/purple.gif","img/card_backs/set1/green.gif","img/card_backs/set2/blue.gif","img/card_backs/set2/orange.gif","img/card_backs/set2/pink.gif","img/card_backs/set2/gray.gif","""event"",""trial"",""time""
""fullscreenenter"",""1"",""3916""
","
","
","""event"",""trial"",""time""
""fullscreenenter"",""1"",""3916""
","
","","null","","null","","fixation","2021-07-08 16:32:13.972","","","","","",""
"card-selection-trial","87","363034","0.0-25.0-1.8","A927","false","img/card_backs/set1/red.gif","img/card_backs/set1/yellow.gif","img/card_backs/set1/purple.gif","img/card_backs/set1/green.gif","img/card_backs/set2/blue.gif","img/card_backs/set2/orange.gif","img/card_backs/set2/pink.gif","img/card_backs/set2/gray.gif","""event"",""trial"",""time""
""fullscreenenter"",""1"",""3916""
","
","
","""event"",""trial"",""time""
""fullscreenenter"",""1"",""3916""
","
","","1121","","","","real_trial","2021-07-08 16:32:17.102","img/card_backs/set1/yellow.gif","3","-230","1","",""
"casino-fixation","88","363538","0.0-25.0-0.9","A927","false","img/card_backs/set1/red.gif","img/card_backs/set1/yellow.gif","img/card_backs/set1/purple.gif","img/card_backs/set1/green.gif","img/card_backs/set2/blue.gif","img/card_backs/set2/orange.gif","img/card_backs/set2/pink.gif","img/card_backs/set2/gray.gif","""event"",""trial"",""time""
""fullscreenenter"",""1"",""3916""
","
","
","""event"",""trial"",""time""
""fullscreenenter"",""1"",""3916""
","
","","null","","null","","fixation","2021-07-08 16:32:17.604","","","","","",""
"card-selection-trial","89","368714","0.0-25.0-1.9","A927","false","img/card_backs/set1/red.gif","img/card_backs/set1/yellow.gif","img/card_backs/set1/purple.gif","img/card_backs/set1/green.gif","img/card_backs/set2/blue.gif","img/card_backs/set2/orange.gif","img/card_backs/set2/pink.gif","img/card_backs/set2/gray.gif","""event"",""trial"",""time""
""fullscreenenter"",""1"",""3916""
","
","
","""event"",""trial"",""time""
""fullscreenenter"",""1"",""3916""
","
","","3170","","","","real_trial","2021-07-08 16:32:22.783","img/card_backs/set1/green.gif","2","100","1","",""
"casino-fixation","90","369218","0.0-25.0-0.10","A927","false","img/card_backs/set1/red.gif","img/card_backs/set1/yellow.gif","img/card_backs/set1/purple.gif","img/card_backs/set1/green.gif","img/card_backs/set2/blue.gif","img/card_backs/set2/orange.gif","img/card_backs/set2/pink.gif","img/card_backs/set2/gray.gif","""event"",""trial"",""time""
""fullscreenenter"",""1"",""3916""
","
","
","""event"",""trial"",""time""
""fullscreenenter"",""1"",""3916""
","
","","null","","null","","fixation","2021-07-08 16:32:23.285","","","","","",""
"card-selection-trial","91","372175","0.0-25.0-1.10","A927","false","img/card_backs/set1/red.gif","img/card_backs/set1/yellow.gif","img/card_backs/set1/purple.gif","img/card_backs/set1/green.gif","img/card_backs/set2/blue.gif","img/card_backs/set2/orange.gif","img/card_backs/set2/pink.gif","img/card_backs/set2/gray.gif","""event"",""trial"",""time""
""fullscreenenter"",""1"",""3916""
","
","
","""event"",""trial"",""time""
""fullscreenenter"",""1"",""3916""
","
","","951","","","","real_trial","2021-07-08 16:32:26.241","img/card_backs/set1/red.gif","2","200","1","",""
"casino-fixation","92","372677","0.0-25.0-0.11","A927","false","img/card_backs/set1/red.gif","img/card_backs/set1/yellow.gif","img/card_backs/set1/purple.gif","img/card_backs/set1/green.gif","img/card_backs/set2/blue.gif","img/card_backs/set2/orange.gif","img/card_backs/set2/pink.gif","img/card_backs/set2/gray.gif","""event"",""trial"",""time""
""fullscreenenter"",""1"",""3916""
","
","
","""event"",""trial"",""time""
""fullscreenenter"",""1"",""3916""
","
","","null","","null","","fixation","2021-07-08 16:32:26.743","","","","","",""
"card-selection-trial","93","375755","0.0-25.0-1.11","A927","false","img/card_backs/set1/red.gif","img/card_backs/set1/yellow.gif","img/card_backs/set1/purple.gif","img/card_backs/set1/green.gif","img/card_backs/set2/blue.gif","img/card_backs/set2/orange.gif","img/card_backs/set2/pink.gif","img/card_backs/set2/gray.gif","""event"",""trial"",""time""
""fullscreenenter"",""1"",""3916""
","
","
","""event"",""trial"",""time""
""fullscreenenter"",""1"",""3916""
","
","","1072","","","","real_trial","2021-07-08 16:32:29.821","img/card_backs/set1/red.gif","0","-230","1","",""
"casino-fixation","94","376256","0.0-25.0-0.12","A927","false","img/card_backs/set1/red.gif","img/card_backs/set1/yellow.gif","img/card_backs/set1/purple.gif","img/card_backs/set1/green.gif","img/card_backs/set2/blue.gif","img/card_backs/set2/orange.gif","img/card_backs/set2/pink.gif","img/card_backs/set2/gray.gif","""event"",""trial"",""time""
""fullscreenenter"",""1"",""3916""
","
","
","""event"",""trial"",""time""
""fullscreenenter"",""1"",""3916""
","
","","null","","null","","fixation","2021-07-08 16:32:30.322","","","","","",""
"card-selection-trial","95","379610","0.0-25.0-1.12","A927","false","img/card_backs/set1/red.gif","img/card_backs/set1/yellow.gif","img/card_backs/set1/purple.gif","img/card_backs/set1/green.gif","img/card_backs/set2/blue.gif","img/card_backs/set2/orange.gif","img/card_backs/set2/pink.gif","img/card_backs/set2/gray.gif","""event"",""trial"",""time""
""fullscreenenter"",""1"",""3916""
","
","
","""event"",""trial"",""time""
""fullscreenenter"",""1"",""3916""
","
","","1347","","","","real_trial","2021-07-08 16:32:33.676","img/card_backs/set1/purple.gif","1","-50","1","",""
"casino-fixation","96","380112","0.0-25.0-0.13","A927","false","img/card_backs/set1/red.gif","img/card_backs/set1/yellow.gif","img/card_backs/set1/purple.gif","img/card_backs/set1/green.gif","img/card_backs/set2/blue.gif","img/card_backs/set2/orange.gif","img/card_backs/set2/pink.gif","img/card_backs/set2/gray.gif","""event"",""trial"",""time""
""fullscreenenter"",""1"",""3916""
","
","
","""event"",""trial"",""time""
""fullscreenenter"",""1"",""3916""
","
","","null","","null","","fixation","2021-07-08 16:32:34.178","","","","","",""
"card-selection-trial","97","383635","0.0-25.0-1.13","A927","false","img/card_backs/set1/red.gif","img/card_backs/set1/yellow.gif","img/card_backs/set1/purple.gif","img/card_backs/set1/green.gif","img/card_backs/set2/blue.gif","img/card_backs/set2/orange.gif","img/card_backs/set2/pink.gif","img/card_backs/set2/gray.gif","""event"",""trial"",""time""
""fullscreenenter"",""1"",""3916""
","
","
","""event"",""trial"",""time""
""fullscreenenter"",""1"",""3916""
","
","","1516","","","","real_trial","2021-07-08 16:32:37.701","img/card_backs/set1/red.gif","2","-240","1","",""
"casino-fixation","98","384136","0.0-25.0-0.14","A927","false","img/card_backs/set1/red.gif","img/card_backs/set1/yellow.gif","img/card_backs/set1/purple.gif","img/card_backs/set1/green.gif","img/card_backs/set2/blue.gif","img/card_backs/set2/orange.gif","img/card_backs/set2/pink.gif","img/card_backs/set2/gray.gif","""event"",""trial"",""time""
""fullscreenenter"",""1"",""3916""
","
","
","""event"",""trial"",""time""
""fullscreenenter"",""1"",""3916""
","
","","null","","null","","fixation","2021-07-08 16:32:38.202","","","","","",""
"card-selection-trial","99","387144","0.0-25.0-1.14","A927","false","img/card_backs/set1/red.gif","img/card_backs/set1/yellow.gif","img/card_backs/set1/purple.gif","img/card_backs/set1/green.gif","img/card_backs/set2/blue.gif","img/card_backs/set2/orange.gif","img/card_backs/set2/pink.gif","img/card_backs/set2/gray.gif","""event"",""trial"",""time""
""fullscreenenter"",""1"",""3916""
","
","
","""event"",""trial"",""time""
""fullscreenenter"",""1"",""3916""
","
","","999","","","","real_trial","2021-07-08 16:32:41.210","img/card_backs/set1/yellow.gif","3","-240","1","",""
"casino-fixation","100","387645","0.0-25.0-0.15","A927","false","img/card_backs/set1/red.gif","img/card_backs/set1/yellow.gif","img/card_backs/set1/purple.gif","img/card_backs/set1/green.gif","img/card_backs/set2/blue.gif","img/card_backs/set2/orange.gif","img/card_backs/set2/pink.gif","img/card_backs/set2/gray.gif","""event"",""trial"",""time""
""fullscreenenter"",""1"",""3916""
","
","
","""event"",""trial"",""time""
""fullscreenenter"",""1"",""3916""
","
","","null","","null","","fixation","2021-07-08 16:32:41.711","","","","","",""
"card-selection-trial","101","392332","0.0-25.0-1.15","A927","false","img/card_backs/set1/red.gif","img/card_backs/set1/yellow.gif","img/card_backs/set1/purple.gif","img/card_backs/set1/green.gif","img/card_backs/set2/blue.gif","img/card_backs/set2/orange.gif","img/card_backs/set2/pink.gif","img/card_backs/set2/gray.gif","""event"",""trial"",""time""
""fullscreenenter"",""1"",""3916""
","
","
","""event"",""trial"",""time""
""fullscreenenter"",""1"",""3916""
","
","","2678","","","","real_trial","2021-07-08 16:32:46.398","img/card_backs/set1/green.gif","3","110","1","",""
"casino-fixation","102","392834","0.0-25.0-0.16","A927","false","img/card_backs/set1/red.gif","img/card_backs/set1/yellow.gif","img/card_backs/set1/purple.gif","img/card_backs/set1/green.gif","img/card_backs/set2/blue.gif","img/card_backs/set2/orange.gif","img/card_backs/set2/pink.gif","img/card_backs/set2/gray.gif","""event"",""trial"",""time""
""fullscreenenter"",""1"",""3916""
","
","
","""event"",""trial"",""time""
""fullscreenenter"",""1"",""3916""
","
","","null","","null","","fixation","2021-07-08 16:32:46.900","","","","","",""
"card-selection-trial","103","396122","0.0-25.0-1.16","A927","false","img/card_backs/set1/red.gif","img/card_backs/set1/yellow.gif","img/card_backs/set1/purple.gif","img/card_backs/set1/green.gif","img/card_backs/set2/blue.gif","img/card_backs/set2/orange.gif","img/card_backs/set2/pink.gif","img/card_backs/set2/gray.gif","""event"",""trial"",""time""
""fullscreenenter"",""1"",""3916""
","
","
","""event"",""trial"",""time""
""fullscreenenter"",""1"",""3916""
","
","","1281","","","","real_trial","2021-07-08 16:32:50.188","img/card_backs/set1/yellow.gif","1","200","1","",""
"casino-fixation","104","396624","0.0-25.0-0.17","A927","false","img/card_backs/set1/red.gif","img/card_backs/set1/yellow.gif","img/card_backs/set1/purple.gif","img/card_backs/set1/green.gif","img/card_backs/set2/blue.gif","img/card_backs/set2/orange.gif","img/card_backs/set2/pink.gif","img/card_backs/set2/gray.gif","""event"",""trial"",""time""
""fullscreenenter"",""1"",""3916""
","
","
","""event"",""trial"",""time""
""fullscreenenter"",""1"",""3916""
","
","","null","","null","","fixation","2021-07-08 16:32:50.690","","","","","",""
"card-selection-trial","105","401510","0.0-25.0-1.17","A927","false","img/card_backs/set1/red.gif","img/card_backs/set1/yellow.gif","img/card_backs/set1/purple.gif","img/card_backs/set1/green.gif","img/card_backs/set2/blue.gif","img/card_backs/set2/orange.gif","img/card_backs/set2/pink.gif","img/card_backs/set2/gray.gif","""event"",""trial"",""time""
""fullscreenenter"",""1"",""3916""
","
","
","""event"",""trial"",""time""
""fullscreenenter"",""1"",""3916""
","
","","2878","","","","real_trial","2021-07-08 16:32:55.576","img/card_backs/set1/green.gif","2","-70","1","",""
"casino-fixation","106","402012","0.0-25.0-0.18","A927","false","img/card_backs/set1/red.gif","img/card_backs/set1/yellow.gif","img/card_backs/set1/purple.gif","img/card_backs/set1/green.gif","img/card_backs/set2/blue.gif","img/card_backs/set2/orange.gif","img/card_backs/set2/pink.gif","img/card_backs/set2/gray.gif","""event"",""trial"",""time""
""fullscreenenter"",""1"",""3916""
","
","
","""event"",""trial"",""time""
""fullscreenenter"",""1"",""3916""
","
","","null","","null","","fixation","2021-07-08 16:32:56.078","","","","","",""
"card-selection-trial","107","405248","0.0-25.0-1.18","A927","false","img/card_backs/set1/red.gif","img/card_backs/set1/yellow.gif","img/card_backs/set1/purple.gif","img/card_backs/set1/green.gif","img/card_backs/set2/blue.gif","img/card_backs/set2/orange.gif","img/card_backs/set2/pink.gif","img/card_backs/set2/gray.gif","""event"",""trial"",""time""
""fullscreenenter"",""1"",""3916""
","
","
","""event"",""trial"",""time""
""fullscreenenter"",""1"",""3916""
","
","","1229","","","","real_trial","2021-07-08 16:32:59.314","img/card_backs/set1/yellow.gif","0","-250","1","",""
"casino-fixation","108","405749","0.0-25.0-0.19","A927","false","img/card_backs/set1/red.gif","img/card_backs/set1/yellow.gif","img/card_backs/set1/purple.gif","img/card_backs/set1/green.gif","img/card_backs/set2/blue.gif","img/card_backs/set2/orange.gif","img/card_backs/set2/pink.gif","img/card_backs/set2/gray.gif","""event"",""trial"",""time""
""fullscreenenter"",""1"",""3916""
","
","
","""event"",""trial"",""time""
""fullscreenenter"",""1"",""3916""
","
","","null","","null","","fixation","2021-07-08 16:32:59.815","","","","","",""
"card-selection-trial","109","408964","0.0-25.0-1.19","A927","false","img/card_backs/set1/red.gif","img/card_backs/set1/yellow.gif","img/card_backs/set1/purple.gif","img/card_backs/set1/green.gif","img/card_backs/set2/blue.gif","img/card_backs/set2/orange.gif","img/card_backs/set2/pink.gif","img/card_backs/set2/gray.gif","""event"",""trial"",""time""
""fullscreenenter"",""1"",""3916""
","
","
","""event"",""trial"",""time""
""fullscreenenter"",""1"",""3916""
","
","","1208.0000000000582","","","","real_trial","2021-07-08 16:33:03.030","img/card_backs/set1/purple.gif","0","-50","1","",""
"casino-fixation","110","409466","0.0-25.0-0.20","A927","false","img/card_backs/set1/red.gif","img/card_backs/set1/yellow.gif","img/card_backs/set1/purple.gif","img/card_backs/set1/green.gif","img/card_backs/set2/blue.gif","img/card_backs/set2/orange.gif","img/card_backs/set2/pink.gif","img/card_backs/set2/gray.gif","""event"",""trial"",""time""
""fullscreenenter"",""1"",""3916""
","
","
","""event"",""trial"",""time""
""fullscreenenter"",""1"",""3916""
","
","","null","","null","","fixation","2021-07-08 16:33:03.532","","","","","",""
"card-selection-trial","111","412617","0.0-25.0-1.20","A927","false","img/card_backs/set1/red.gif","img/card_backs/set1/yellow.gif","img/card_backs/set1/purple.gif","img/card_backs/set1/green.gif","img/card_backs/set2/blue.gif","img/card_backs/set2/orange.gif","img/card_backs/set2/pink.gif","img/card_backs/set2/gray.gif","""event"",""trial"",""time""
""fullscreenenter"",""1"",""3916""
","
","
","""event"",""trial"",""time""
""fullscreenenter"",""1"",""3916""
","
","","1143","","","","real_trial","2021-07-08 16:33:06.683","img/card_backs/set1/purple.gif","1","-50","1","",""
"casino-fixation","112","413120","0.0-25.0-0.21","A927","false","img/card_backs/set1/red.gif","img/card_backs/set1/yellow.gif","img/card_backs/set1/purple.gif","img/card_backs/set1/green.gif","img/card_backs/set2/blue.gif","img/card_backs/set2/orange.gif","img/card_backs/set2/pink.gif","img/card_backs/set2/gray.gif","""event"",""trial"",""time""
""fullscreenenter"",""1"",""3916""
","
","
","""event"",""trial"",""time""
""fullscreenenter"",""1"",""3916""
","
","","null","","null","","fixation","2021-07-08 16:33:07.186","","","","","",""
"card-selection-trial","113","416436","0.0-25.0-1.21","A927","false","img/card_backs/set1/red.gif","img/card_backs/set1/yellow.gif","img/card_backs/set1/purple.gif","img/card_backs/set1/green.gif","img/card_backs/set2/blue.gif","img/card_backs/set2/orange.gif","img/card_backs/set2/pink.gif","img/card_backs/set2/gray.gif","""event"",""trial"",""time""
""fullscreenenter"",""1"",""3916""
","
","
","""event"",""trial"",""time""
""fullscreenenter"",""1"",""3916""
","
","","1310","","","","real_trial","2021-07-08 16:33:10.504","img/card_backs/set1/purple.gif","3","-70","1","",""
"casino-fixation","114","416939","0.0-25.0-0.22","A927","false","img/card_backs/set1/red.gif","img/card_backs/set1/yellow.gif","img/card_backs/set1/purple.gif","img/card_backs/set1/green.gif","img/card_backs/set2/blue.gif","img/card_backs/set2/orange.gif","img/card_backs/set2/pink.gif","img/card_backs/set2/gray.gif","""event"",""trial"",""time""
""fullscreenenter"",""1"",""3916""
","
","
","""event"",""trial"",""time""
""fullscreenenter"",""1"",""3916""
","
","","null","","null","","fixation","2021-07-08 16:33:11.006","","","","","",""
"card-selection-trial","115","419925","0.0-25.0-1.22","A927","false","img/card_backs/set1/red.gif","img/card_backs/set1/yellow.gif","img/card_backs/set1/purple.gif","img/card_backs/set1/green.gif","img/card_backs/set2/blue.gif","img/card_backs/set2/orange.gif","img/card_backs/set2/pink.gif","img/card_backs/set2/gray.gif","""event"",""trial"",""time""
""fullscreenenter"",""1"",""3916""
","
","
","""event"",""trial"",""time""
""fullscreenenter"",""1"",""3916""
","
","","977","","","","real_trial","2021-07-08 16:33:13.991","img/card_backs/set1/red.gif","2","200","1","",""
"casino-fixation","116","420427","0.0-25.0-0.23","A927","false","img/card_backs/set1/red.gif","img/card_backs/set1/yellow.gif","img/card_backs/set1/purple.gif","img/card_backs/set1/green.gif","img/card_backs/set2/blue.gif","img/card_backs/set2/orange.gif","img/card_backs/set2/pink.gif","img/card_backs/set2/gray.gif","""event"",""trial"",""time""
""fullscreenenter"",""1"",""3916""
","
","
","""event"",""trial"",""time""
""fullscreenenter"",""1"",""3916""
","
","","null","","null","","fixation","2021-07-08 16:33:14.493","","","","","",""
"card-selection-trial","117","424768","0.0-25.0-1.23","A927","false","img/card_backs/set1/red.gif","img/card_backs/set1/yellow.gif","img/card_backs/set1/purple.gif","img/card_backs/set1/green.gif","img/card_backs/set2/blue.gif","img/card_backs/set2/orange.gif","img/card_backs/set2/pink.gif","img/card_backs/set2/gray.gif","""event"",""trial"",""time""
""fullscreenenter"",""1"",""3916""
","
","
","""event"",""trial"",""time""
""fullscreenenter"",""1"",""3916""
","
","","2334","","","","real_trial","2021-07-08 16:33:18.834","img/card_backs/set1/red.gif","1","180","1","",""
"casino-fixation","118","425269","0.0-25.0-0.24","A927","false","img/card_backs/set1/red.gif","img/card_backs/set1/yellow.gif","img/card_backs/set1/purple.gif","img/card_backs/set1/green.gif","img/card_backs/set2/blue.gif","img/card_backs/set2/orange.gif","img/card_backs/set2/pink.gif","img/card_backs/set2/gray.gif","""event"",""trial"",""time""
""fullscreenenter"",""1"",""3916""
","
","
","""event"",""trial"",""time""
""fullscreenenter"",""1"",""3916""
","
","","null","","null","","fixation","2021-07-08 16:33:19.335","","","","","",""
"card-selection-trial","119","428930","0.0-25.0-1.24","A927","false","img/card_backs/set1/red.gif","img/card_backs/set1/yellow.gif","img/card_backs/set1/purple.gif","img/card_backs/set1/green.gif","img/card_backs/set2/blue.gif","img/card_backs/set2/orange.gif","img/card_backs/set2/pink.gif","img/card_backs/set2/gray.gif","""event"",""trial"",""time""
""fullscreenenter"",""1"",""3916""
","
","
","""event"",""trial"",""time""
""fullscreenenter"",""1"",""3916""
","
","","1654","","","","real_trial","2021-07-08 16:33:22.997","img/card_backs/set1/green.gif","3","100","1","",""
"casino-fixation","120","429433","0.0-25.0-0.25","A927","false","img/card_backs/set1/red.gif","img/card_backs/set1/yellow.gif","img/card_backs/set1/purple.gif","img/card_backs/set1/green.gif","img/card_backs/set2/blue.gif","img/card_backs/set2/orange.gif","img/card_backs/set2/pink.gif","img/card_backs/set2/gray.gif","""event"",""trial"",""time""
""fullscreenenter"",""1"",""3916""
","
","
","""event"",""trial"",""time""
""fullscreenenter"",""1"",""3916""
","
","","null","","null","","fixation","2021-07-08 16:33:23.499","","","","","",""
"card-selection-trial","121","435288","0.0-25.0-1.25","A927","false","img/card_backs/set1/red.gif","img/card_backs/set1/yellow.gif","img/card_backs/set1/purple.gif","img/card_backs/set1/green.gif","img/card_backs/set2/blue.gif","img/card_backs/set2/orange.gif","img/card_backs/set2/pink.gif","img/card_backs/set2/gray.gif","""event"",""trial"",""time""
""fullscreenenter"",""1"",""3916""
","
","
","""event"",""trial"",""time""
""fullscreenenter"",""1"",""3916""
","
","","3847","","","","real_trial","2021-07-08 16:33:29.354","img/card_backs/set1/red.gif","1","-240","1","",""
"casino-fixation","122","435789","0.0-25.0-0.26","A927","false","img/card_backs/set1/red.gif","img/card_backs/set1/yellow.gif","img/card_backs/set1/purple.gif","img/card_backs/set1/green.gif","img/card_backs/set2/blue.gif","img/card_backs/set2/orange.gif","img/card_backs/set2/pink.gif","img/card_backs/set2/gray.gif","""event"",""trial"",""time""
""fullscreenenter"",""1"",""3916""
","
","
","""event"",""trial"",""time""
""fullscreenenter"",""1"",""3916""
","
","","null","","null","","fixation","2021-07-08 16:33:29.855","","","","","",""
"card-selection-trial","123","438477","0.0-25.0-1.26","A927","false","img/card_backs/set1/red.gif","img/card_backs/set1/yellow.gif","img/card_backs/set1/purple.gif","img/card_backs/set1/green.gif","img/card_backs/set2/blue.gif","img/card_backs/set2/orange.gif","img/card_backs/set2/pink.gif","img/card_backs/set2/gray.gif","""event"",""trial"",""time""
""fullscreenenter"",""1"",""3916""
","
","
","""event"",""trial"",""time""
""fullscreenenter"",""1"",""3916""
","
","","680.9999999999418","","","","real_trial","2021-07-08 16:33:32.543","img/card_backs/set1/green.gif","2","120","1","",""
"casino-fixation","124","438979","0.0-25.0-0.27","A927","false","img/card_backs/set1/red.gif","img/card_backs/set1/yellow.gif","img/card_backs/set1/purple.gif","img/card_backs/set1/green.gif","img/card_backs/set2/blue.gif","img/card_backs/set2/orange.gif","img/card_backs/set2/pink.gif","img/card_backs/set2/gray.gif","""event"",""trial"",""time""
""fullscreenenter"",""1"",""3916""
","
","
","""event"",""trial"",""time""
""fullscreenenter"",""1"",""3916""
","
","","null","","null","","fixation","2021-07-08 16:33:33.045","","","","","",""
"card-selection-trial","125","442507","0.0-25.0-1.27","A927","false","img/card_backs/set1/red.gif","img/card_backs/set1/yellow.gif","img/card_backs/set1/purple.gif","img/card_backs/set1/green.gif","img/card_backs/set2/blue.gif","img/card_backs/set2/orange.gif","img/card_backs/set2/pink.gif","img/card_backs/set2/gray.gif","""event"",""trial"",""time""
""fullscreenenter"",""1"",""3916""
","
","
","""event"",""trial"",""time""
""fullscreenenter"",""1"",""3916""
","
","","1521","","","","real_trial","2021-07-08 16:33:36.573","img/card_backs/set1/green.gif","1","-70","1","",""
"casino-fixation","126","443008","0.0-25.0-0.28","A927","false","img/card_backs/set1/red.gif","img/card_backs/set1/yellow.gif","img/card_backs/set1/purple.gif","img/card_backs/set1/green.gif","img/card_backs/set2/blue.gif","img/card_backs/set2/orange.gif","img/card_backs/set2/pink.gif","img/card_backs/set2/gray.gif","""event"",""trial"",""time""
""fullscreenenter"",""1"",""3916""
","
","
","""event"",""trial"",""time""
""fullscreenenter"",""1"",""3916""
","
","","null","","null","","fixation","2021-07-08 16:33:37.074","","","","","",""
"card-selection-trial","127","445559","0.0-25.0-1.28","A927","false","img/card_backs/set1/red.gif","img/card_backs/set1/yellow.gif","img/card_backs/set1/purple.gif","img/card_backs/set1/green.gif","img/card_backs/set2/blue.gif","img/card_backs/set2/orange.gif","img/card_backs/set2/pink.gif","img/card_backs/set2/gray.gif","""event"",""trial"",""time""
""fullscreenenter"",""1"",""3916""
","
","
","""event"",""trial"",""time""
""fullscreenenter"",""1"",""3916""
","
","","545","","","","real_trial","2021-07-08 16:33:39.625","img/card_backs/set1/green.gif","3","-60","1","",""
"casino-fixation","128","446061","0.0-25.0-0.29","A927","false","img/card_backs/set1/red.gif","img/card_backs/set1/yellow.gif","img/card_backs/set1/purple.gif","img/card_backs/set1/green.gif","img/card_backs/set2/blue.gif","img/card_backs/set2/orange.gif","img/card_backs/set2/pink.gif","img/card_backs/set2/gray.gif","""event"",""trial"",""time""
""fullscreenenter"",""1"",""3916""
","
","
","""event"",""trial"",""time""
""fullscreenenter"",""1"",""3916""
","
","","null","","null","","fixation","2021-07-08 16:33:40.127","","","","","",""
"card-selection-trial","129","450621","0.0-25.0-1.29","A927","false","img/card_backs/set1/red.gif","img/card_backs/set1/yellow.gif","img/card_backs/set1/purple.gif","img/card_backs/set1/green.gif","img/card_backs/set2/blue.gif","img/card_backs/set2/orange.gif","img/card_backs/set2/pink.gif","img/card_backs/set2/gray.gif","""event"",""trial"",""time""
""fullscreenenter"",""1"",""3916""
","
","
","""event"",""trial"",""time""
""fullscreenenter"",""1"",""3916""
","
","","2552","","","","real_trial","2021-07-08 16:33:44.687","img/card_backs/set1/purple.gif","0","-50","1","",""
"casino-fixation","130","451125","0.0-25.0-0.30","A927","false","img/card_backs/set1/red.gif","img/card_backs/set1/yellow.gif","img/card_backs/set1/purple.gif","img/card_backs/set1/green.gif","img/card_backs/set2/blue.gif","img/card_backs/set2/orange.gif","img/card_backs/set2/pink.gif","img/card_backs/set2/gray.gif","""event"",""trial"",""time""
""fullscreenenter"",""1"",""3916""
","
","
","""event"",""trial"",""time""
""fullscreenenter"",""1"",""3916""
","
","","null","","null","","fixation","2021-07-08 16:33:45.191","","","","","",""
"card-selection-trial","131","454984","0.0-25.0-1.30","A927","false","img/card_backs/set1/red.gif","img/card_backs/set1/yellow.gif","img/card_backs/set1/purple.gif","img/card_backs/set1/green.gif","img/card_backs/set2/blue.gif","img/card_backs/set2/orange.gif","img/card_backs/set2/pink.gif","img/card_backs/set2/gray.gif","""event"",""trial"",""time""
""fullscreenenter"",""1"",""3916""
","
","
","""event"",""trial"",""time""
""fullscreenenter"",""1"",""3916""
","
","","1851","","","","real_trial","2021-07-08 16:33:49.050","img/card_backs/set1/purple.gif","0","110","1","",""
"casino-fixation","132","455485","0.0-25.0-0.31","A927","false","img/card_backs/set1/red.gif","img/card_backs/set1/yellow.gif","img/card_backs/set1/purple.gif","img/card_backs/set1/green.gif","img/card_backs/set2/blue.gif","img/card_backs/set2/orange.gif","img/card_backs/set2/pink.gif","img/card_backs/set2/gray.gif","""event"",""trial"",""time""
""fullscreenenter"",""1"",""3916""
","
","
","""event"",""trial"",""time""
""fullscreenenter"",""1"",""3916""
","
","","null","","null","","fixation","2021-07-08 16:33:49.551","","","","","",""
"card-selection-trial","133","458802","0.0-25.0-1.31","A927","false","img/card_backs/set1/red.gif","img/card_backs/set1/yellow.gif","img/card_backs/set1/purple.gif","img/card_backs/set1/green.gif","img/card_backs/set2/blue.gif","img/card_backs/set2/orange.gif","img/card_backs/set2/pink.gif","img/card_backs/set2/gray.gif","""event"",""trial"",""time""
""fullscreenenter"",""1"",""3916""
","
","
","""event"",""trial"",""time""
""fullscreenenter"",""1"",""3916""
","
","","1309","","","","real_trial","2021-07-08 16:33:52.868","img/card_backs/set1/purple.gif","0","-70","1","",""
"casino-fixation","134","459304","0.0-25.0-0.32","A927","false","img/card_backs/set1/red.gif","img/card_backs/set1/yellow.gif","img/card_backs/set1/purple.gif","img/card_backs/set1/green.gif","img/card_backs/set2/blue.gif","img/card_backs/set2/orange.gif","img/card_backs/set2/pink.gif","img/card_backs/set2/gray.gif","""event"",""trial"",""time""
""fullscreenenter"",""1"",""3916""
","
","
","""event"",""trial"",""time""
""fullscreenenter"",""1"",""3916""
","
","","null","","null","","fixation","2021-07-08 16:33:53.370","","","","","",""
"card-selection-trial","135","463908","0.0-25.0-1.32","A927","false","img/card_backs/set1/red.gif","img/card_backs/set1/yellow.gif","img/card_backs/set1/purple.gif","img/card_backs/set1/green.gif","img/card_backs/set2/blue.gif","img/card_backs/set2/orange.gif","img/card_backs/set2/pink.gif","img/card_backs/set2/gray.gif","""event"",""trial"",""time""
""fullscreenenter"",""1"",""3916""
","
","
","""event"",""trial"",""time""
""fullscreenenter"",""1"",""3916""
","
","","2596","","","","real_trial","2021-07-08 16:33:57.974","img/card_backs/set1/red.gif","3","190","1","",""
"casino-fixation","136","464410","0.0-25.0-0.33","A927","false","img/card_backs/set1/red.gif","img/card_backs/set1/yellow.gif","img/card_backs/set1/purple.gif","img/card_backs/set1/green.gif","img/card_backs/set2/blue.gif","img/card_backs/set2/orange.gif","img/card_backs/set2/pink.gif","img/card_backs/set2/gray.gif","""event"",""trial"",""time""
""fullscreenenter"",""1"",""3916""
","
","
","""event"",""trial"",""time""
""fullscreenenter"",""1"",""3916""
","
","","null","","null","","fixation","2021-07-08 16:33:58.476","","","","","",""
"card-selection-trial","137","468320","0.0-25.0-1.33","A927","false","img/card_backs/set1/red.gif","img/card_backs/set1/yellow.gif","img/card_backs/set1/purple.gif","img/card_backs/set1/green.gif","img/card_backs/set2/blue.gif","img/card_backs/set2/orange.gif","img/card_backs/set2/pink.gif","img/card_backs/set2/gray.gif","""event"",""trial"",""time""
""fullscreenenter"",""1"",""3916""
","
","
","""event"",""trial"",""time""
""fullscreenenter"",""1"",""3916""
","
","","1902","","","","real_trial","2021-07-08 16:34:02.386","img/card_backs/set1/yellow.gif","2","-250","1","",""
"casino-fixation","138","468821","0.0-25.0-0.34","A927","false","img/card_backs/set1/red.gif","img/card_backs/set1/yellow.gif","img/card_backs/set1/purple.gif","img/card_backs/set1/green.gif","img/card_backs/set2/blue.gif","img/card_backs/set2/orange.gif","img/card_backs/set2/pink.gif","img/card_backs/set2/gray.gif","""event"",""trial"",""time""
""fullscreenenter"",""1"",""3916""
","
","
","""event"",""trial"",""time""
""fullscreenenter"",""1"",""3916""
","
","","null","","null","","fixation","2021-07-08 16:34:02.887","","","","","",""
"card-selection-trial","139","472001","0.0-25.0-1.34","A927","false","img/card_backs/set1/red.gif","img/card_backs/set1/yellow.gif","img/card_backs/set1/purple.gif","img/card_backs/set1/green.gif","img/card_backs/set2/blue.gif","img/card_backs/set2/orange.gif","img/card_backs/set2/pink.gif","img/card_backs/set2/gray.gif","""event"",""trial"",""time""
""fullscreenenter"",""1"",""3916""
","
","
","""event"",""trial"",""time""
""fullscreenenter"",""1"",""3916""
","
","","1172.0000000000582","","","","real_trial","2021-07-08 16:34:06.067","img/card_backs/set1/green.gif","3","-60","1","",""
"casino-fixation","140","472503","0.0-25.0-0.35","A927","false","img/card_backs/set1/red.gif","img/card_backs/set1/yellow.gif","img/card_backs/set1/purple.gif","img/card_backs/set1/green.gif","img/card_backs/set2/blue.gif","img/card_backs/set2/orange.gif","img/card_backs/set2/pink.gif","img/card_backs/set2/gray.gif","""event"",""trial"",""time""
""fullscreenenter"",""1"",""3916""
","
","
","""event"",""trial"",""time""
""fullscreenenter"",""1"",""3916""
","
","","null","","null","","fixation","2021-07-08 16:34:06.569","","","","","",""
"card-selection-trial","141","475346","0.0-25.0-1.35","A927","false","img/card_backs/set1/red.gif","img/card_backs/set1/yellow.gif","img/card_backs/set1/purple.gif","img/card_backs/set1/green.gif","img/card_backs/set2/blue.gif","img/card_backs/set2/orange.gif","img/card_backs/set2/pink.gif","img/card_backs/set2/gray.gif","""event"",""trial"",""time""
""fullscreenenter"",""1"",""3916""
","
","
","""event"",""trial"",""time""
""fullscreenenter"",""1"",""3916""
","
","","837","","","","real_trial","2021-07-08 16:34:09.413","img/card_backs/set1/red.gif","1","-250","1","",""
"casino-fixation","142","475849","0.0-25.0-0.36","A927","false","img/card_backs/set1/red.gif","img/card_backs/set1/yellow.gif","img/card_backs/set1/purple.gif","img/card_backs/set1/green.gif","img/card_backs/set2/blue.gif","img/card_backs/set2/orange.gif","img/card_backs/set2/pink.gif","img/card_backs/set2/gray.gif","""event"",""trial"",""time""
""fullscreenenter"",""1"",""3916""
","
","
","""event"",""trial"",""time""
""fullscreenenter"",""1"",""3916""
","
","","null","","null","","fixation","2021-07-08 16:34:09.915","","","","","",""
"card-selection-trial","143","478832","0.0-25.0-1.36","A927","false","img/card_backs/set1/red.gif","img/card_backs/set1/yellow.gif","img/card_backs/set1/purple.gif","img/card_backs/set1/green.gif","img/card_backs/set2/blue.gif","img/card_backs/set2/orange.gif","img/card_backs/set2/pink.gif","img/card_backs/set2/gray.gif","""event"",""trial"",""time""
""fullscreenenter"",""1"",""3916""
","
","
","""event"",""trial"",""time""
""fullscreenenter"",""1"",""3916""
","
","","976.9999999999418","","","","real_trial","2021-07-08 16:34:12.898","img/card_backs/set1/green.gif","2","-50","1","",""
"casino-fixation","144","479334","0.0-25.0-0.37","A927","false","img/card_backs/set1/red.gif","img/card_backs/set1/yellow.gif","img/card_backs/set1/purple.gif","img/card_backs/set1/green.gif","img/card_backs/set2/blue.gif","img/card_backs/set2/orange.gif","img/card_backs/set2/pink.gif","img/card_backs/set2/gray.gif","""event"",""trial"",""time""
""fullscreenenter"",""1"",""3916""
","
","
","""event"",""trial"",""time""
""fullscreenenter"",""1"",""3916""
","
","","null","","null","","fixation","2021-07-08 16:34:13.400","","","","","",""
"card-selection-trial","145","482317","0.0-25.0-1.37","A927","false","img/card_backs/set1/red.gif","img/card_backs/set1/yellow.gif","img/card_backs/set1/purple.gif","img/card_backs/set1/green.gif","img/card_backs/set2/blue.gif","img/card_backs/set2/orange.gif","img/card_backs/set2/pink.gif","img/card_backs/set2/gray.gif","""event"",""trial"",""time""
""fullscreenenter"",""1"",""3916""
","
","
","""event"",""trial"",""time""
""fullscreenenter"",""1"",""3916""
","
","","975","","","","real_trial","2021-07-08 16:34:16.383","img/card_backs/set1/red.gif","3","190","1","",""
"casino-fixation","146","482819","0.0-25.0-0.38","A927","false","img/card_backs/set1/red.gif","img/card_backs/set1/yellow.gif","img/card_backs/set1/purple.gif","img/card_backs/set1/green.gif","img/card_backs/set2/blue.gif","img/card_backs/set2/orange.gif","img/card_backs/set2/pink.gif","img/card_backs/set2/gray.gif","""event"",""trial"",""time""
""fullscreenenter"",""1"",""3916""
","
","
","""event"",""trial"",""time""
""fullscreenenter"",""1"",""3916""
","
","","null","","null","","fixation","2021-07-08 16:34:16.885","","","","","",""
"card-selection-trial","147","485904","0.0-25.0-1.38","A927","false","img/card_backs/set1/red.gif","img/card_backs/set1/yellow.gif","img/card_backs/set1/purple.gif","img/card_backs/set1/green.gif","img/card_backs/set2/blue.gif","img/card_backs/set2/orange.gif","img/card_backs/set2/pink.gif","img/card_backs/set2/gray.gif","""event"",""trial"",""time""
""fullscreenenter"",""1"",""3916""
","
","
","""event"",""trial"",""time""
""fullscreenenter"",""1"",""3916""
","
","","1079.0000000000582","","","","real_trial","2021-07-08 16:34:19.970","img/card_backs/set1/red.gif","0","200","1","",""
"casino-fixation","148","486406","0.0-25.0-0.39","A927","false","img/card_backs/set1/red.gif","img/card_backs/set1/yellow.gif","img/card_backs/set1/purple.gif","img/card_backs/set1/green.gif","img/card_backs/set2/blue.gif","img/card_backs/set2/orange.gif","img/card_backs/set2/pink.gif","img/card_backs/set2/gray.gif","""event"",""trial"",""time""
""fullscreenenter"",""1"",""3916""
","
","
","""event"",""trial"",""time""
""fullscreenenter"",""1"",""3916""
","
","","null","","null","","fixation","2021-07-08 16:34:20.472","","","","","",""
"card-selection-trial","149","489462","0.0-25.0-1.39","A927","false","img/card_backs/set1/red.gif","img/card_backs/set1/yellow.gif","img/card_backs/set1/purple.gif","img/card_backs/set1/green.gif","img/card_backs/set2/blue.gif","img/card_backs/set2/orange.gif","img/card_backs/set2/pink.gif","img/card_backs/set2/gray.gif","""event"",""trial"",""time""
""fullscreenenter"",""1"",""3916""
","
","
","""event"",""trial"",""time""
""fullscreenenter"",""1"",""3916""
","
","","1049","","","","real_trial","2021-07-08 16:34:23.529","img/card_backs/set1/red.gif","1","200","1","",""
"casino-fixation","150","489964","0.0-25.0-0.40","A927","false","img/card_backs/set1/red.gif","img/card_backs/set1/yellow.gif","img/card_backs/set1/purple.gif","img/card_backs/set1/green.gif","img/card_backs/set2/blue.gif","img/card_backs/set2/orange.gif","img/card_backs/set2/pink.gif","img/card_backs/set2/gray.gif","""event"",""trial"",""time""
""fullscreenenter"",""1"",""3916""
","
","
","""event"",""trial"",""time""
""fullscreenenter"",""1"",""3916""
","
","","null","","null","","fixation","2021-07-08 16:34:24.030","","","","","",""
"card-selection-trial","151","492932","0.0-25.0-1.40","A927","false","img/card_backs/set1/red.gif","img/card_backs/set1/yellow.gif","img/card_backs/set1/purple.gif","img/card_backs/set1/green.gif","img/card_backs/set2/blue.gif","img/card_backs/set2/orange.gif","img/card_backs/set2/pink.gif","img/card_backs/set2/gray.gif","""event"",""trial"",""time""
""fullscreenenter"",""1"",""3916""
","
","
","""event"",""trial"",""time""
""fullscreenenter"",""1"",""3916""
","
","","962","","","","real_trial","2021-07-08 16:34:26.998","img/card_backs/set1/red.gif","0","180","1","",""
"casino-fixation","152","493434","0.0-25.0-0.41","A927","false","img/card_backs/set1/red.gif","img/card_backs/set1/yellow.gif","img/card_backs/set1/purple.gif","img/card_backs/set1/green.gif","img/card_backs/set2/blue.gif","img/card_backs/set2/orange.gif","img/card_backs/set2/pink.gif","img/card_backs/set2/gray.gif","""event"",""trial"",""time""
""fullscreenenter"",""1"",""3916""
","
","
","""event"",""trial"",""time""
""fullscreenenter"",""1"",""3916""
","
","","null","","null","","fixation","2021-07-08 16:34:27.500","","","","","",""
"card-selection-trial","153","496344","0.0-25.0-1.41","A927","false","img/card_backs/set1/red.gif","img/card_backs/set1/yellow.gif","img/card_backs/set1/purple.gif","img/card_backs/set1/green.gif","img/card_backs/set2/blue.gif","img/card_backs/set2/orange.gif","img/card_backs/set2/pink.gif","img/card_backs/set2/gray.gif","""event"",""trial"",""time""
""fullscreenenter"",""1"",""3916""
","
","
","""event"",""trial"",""time""
""fullscreenenter"",""1"",""3916""
","
","","903.0000000000582","","","","real_trial","2021-07-08 16:34:30.410","img/card_backs/set1/red.gif","1","180","1","",""
"casino-fixation","154","496846","0.0-25.0-0.42","A927","false","img/card_backs/set1/red.gif","img/card_backs/set1/yellow.gif","img/card_backs/set1/purple.gif","img/card_backs/set1/green.gif","img/card_backs/set2/blue.gif","img/card_backs/set2/orange.gif","img/card_backs/set2/pink.gif","img/card_backs/set2/gray.gif","""event"",""trial"",""time""
""fullscreenenter"",""1"",""3916""
","
","
","""event"",""trial"",""time""
""fullscreenenter"",""1"",""3916""
","
","","null","","null","","fixation","2021-07-08 16:34:30.912","","","","","",""
"card-selection-trial","155","499828","0.0-25.0-1.42","A927","false","img/card_backs/set1/red.gif","img/card_backs/set1/yellow.gif","img/card_backs/set1/purple.gif","img/card_backs/set1/green.gif","img/card_backs/set2/blue.gif","img/card_backs/set2/orange.gif","img/card_backs/set2/pink.gif","img/card_backs/set2/gray.gif","""event"",""trial"",""time""
""fullscreenenter"",""1"",""3916""
","
","
","""event"",""trial"",""time""
""fullscreenenter"",""1"",""3916""
","
","","976","","","","real_trial","2021-07-08 16:34:33.894","img/card_backs/set1/red.gif","2","-240","1","",""
"casino-fixation","156","500329","0.0-25.0-0.43","A927","false","img/card_backs/set1/red.gif","img/card_backs/set1/yellow.gif","img/card_backs/set1/purple.gif","img/card_backs/set1/green.gif","img/card_backs/set2/blue.gif","img/card_backs/set2/orange.gif","img/card_backs/set2/pink.gif","img/card_backs/set2/gray.gif","""event"",""trial"",""time""
""fullscreenenter"",""1"",""3916""
","
","
","""event"",""trial"",""time""
""fullscreenenter"",""1"",""3916""
","
","","null","","null","","fixation","2021-07-08 16:34:34.395","","","","","",""
"card-selection-trial","157","503964","0.0-25.0-1.43","A927","false","img/card_backs/set1/red.gif","img/card_backs/set1/yellow.gif","img/card_backs/set1/purple.gif","img/card_backs/set1/green.gif","img/card_backs/set2/blue.gif","img/card_backs/set2/orange.gif","img/card_backs/set2/pink.gif","img/card_backs/set2/gray.gif","""event"",""trial"",""time""
""fullscreenenter"",""1"",""3916""
","
","
","""event"",""trial"",""time""
""fullscreenenter"",""1"",""3916""
","
","","1628","","","","real_trial","2021-07-08 16:34:38.030","img/card_backs/set1/yellow.gif","0","200","1","",""
"casino-fixation","158","504466","0.0-25.0-0.44","A927","false","img/card_backs/set1/red.gif","img/card_backs/set1/yellow.gif","img/card_backs/set1/purple.gif","img/card_backs/set1/green.gif","img/card_backs/set2/blue.gif","img/card_backs/set2/orange.gif","img/card_backs/set2/pink.gif","img/card_backs/set2/gray.gif","""event"",""trial"",""time""
""fullscreenenter"",""1"",""3916""
","
","
","""event"",""trial"",""time""
""fullscreenenter"",""1"",""3916""
","
","","null","","null","","fixation","2021-07-08 16:34:38.532","","","","","",""
"card-selection-trial","159","507459","0.0-25.0-1.44","A927","false","img/card_backs/set1/red.gif","img/card_backs/set1/yellow.gif","img/card_backs/set1/purple.gif","img/card_backs/set1/green.gif","img/card_backs/set2/blue.gif","img/card_backs/set2/orange.gif","img/card_backs/set2/pink.gif","img/card_backs/set2/gray.gif","""event"",""trial"",""time""
""fullscreenenter"",""1"",""3916""
","
","
","""event"",""trial"",""time""
""fullscreenenter"",""1"",""3916""
","
","","986.0000000001164","","","","real_trial","2021-07-08 16:34:41.525","img/card_backs/set1/yellow.gif","2","180","1","",""
"casino-fixation","160","507962","0.0-25.0-0.45","A927","false","img/card_backs/set1/red.gif","img/card_backs/set1/yellow.gif","img/card_backs/set1/purple.gif","img/card_backs/set1/green.gif","img/card_backs/set2/blue.gif","img/card_backs/set2/orange.gif","img/card_backs/set2/pink.gif","img/card_backs/set2/gray.gif","""event"",""trial"",""time""
""fullscreenenter"",""1"",""3916""
","
","
","""event"",""trial"",""time""
""fullscreenenter"",""1"",""3916""
","
","","null","","null","","fixation","2021-07-08 16:34:42.028","","","","","",""
"card-selection-trial","161","510857","0.0-25.0-1.45","A927","false","img/card_backs/set1/red.gif","img/card_backs/set1/yellow.gif","img/card_backs/set1/purple.gif","img/card_backs/set1/green.gif","img/card_backs/set2/blue.gif","img/card_backs/set2/orange.gif","img/card_backs/set2/pink.gif","img/card_backs/set2/gray.gif","""event"",""trial"",""time""
""fullscreenenter"",""1"",""3916""
","
","
","""event"",""trial"",""time""
""fullscreenenter"",""1"",""3916""
","
","","887.9999999999418","","","","real_trial","2021-07-08 16:34:44.923","img/card_backs/set1/yellow.gif","1","-240","1","",""
"casino-fixation","162","511359","0.0-25.0-0.46","A927","false","img/card_backs/set1/red.gif","img/card_backs/set1/yellow.gif","img/card_backs/set1/purple.gif","img/card_backs/set1/green.gif","img/card_backs/set2/blue.gif","img/card_backs/set2/orange.gif","img/card_backs/set2/pink.gif","img/card_backs/set2/gray.gif","""event"",""trial"",""time""
""fullscreenenter"",""1"",""3916""
","
","
","""event"",""trial"",""time""
""fullscreenenter"",""1"",""3916""
","
","","null","","null","","fixation","2021-07-08 16:34:45.425","","","","","",""
"card-selection-trial","163","515792","0.0-25.0-1.46","A927","false","img/card_backs/set1/red.gif","img/card_backs/set1/yellow.gif","img/card_backs/set1/purple.gif","img/card_backs/set1/green.gif","img/card_backs/set2/blue.gif","img/card_backs/set2/orange.gif","img/card_backs/set2/pink.gif","img/card_backs/set2/gray.gif","""event"",""trial"",""time""
""fullscreenenter"",""1"",""3916""
","
","
","""event"",""trial"",""time""
""fullscreenenter"",""1"",""3916""
","
","","2427.000000000058","","","","real_trial","2021-07-08 16:34:49.858","img/card_backs/set1/purple.gif","2","-60","1","",""
"casino-fixation","164","516294","0.0-25.0-0.47","A927","false","img/card_backs/set1/red.gif","img/card_backs/set1/yellow.gif","img/card_backs/set1/purple.gif","img/card_backs/set1/green.gif","img/card_backs/set2/blue.gif","img/card_backs/set2/orange.gif","img/card_backs/set2/pink.gif","img/card_backs/set2/gray.gif","""event"",""trial"",""time""
""fullscreenenter"",""1"",""3916""
","
","
","""event"",""trial"",""time""
""fullscreenenter"",""1"",""3916""
","
","","null","","null","","fixation","2021-07-08 16:34:50.360","","","","","",""
"card-selection-trial","165","519262","0.0-25.0-1.47","A927","false","img/card_backs/set1/red.gif","img/card_backs/set1/yellow.gif","img/card_backs/set1/purple.gif","img/card_backs/set1/green.gif","img/card_backs/set2/blue.gif","img/card_backs/set2/orange.gif","img/card_backs/set2/pink.gif","img/card_backs/set2/gray.gif","""event"",""trial"",""time""
""fullscreenenter"",""1"",""3916""
","
","
","""event"",""trial"",""time""
""fullscreenenter"",""1"",""3916""
","
","","962.0000000001164","","","","real_trial","2021-07-08 16:34:53.328","img/card_backs/set1/yellow.gif","3","-240","1","",""
"casino-fixation","166","519764","0.0-25.0-0.48","A927","false","img/card_backs/set1/red.gif","img/card_backs/set1/yellow.gif","img/card_backs/set1/purple.gif","img/card_backs/set1/green.gif","img/card_backs/set2/blue.gif","img/card_backs/set2/orange.gif","img/card_backs/set2/pink.gif","img/card_backs/set2/gray.gif","""event"",""trial"",""time""
""fullscreenenter"",""1"",""3916""
","
","
","""event"",""trial"",""time""
""fullscreenenter"",""1"",""3916""
","
","","null","","null","","fixation","2021-07-08 16:34:53.830","","","","","",""
"card-selection-trial","167","522872","0.0-25.0-1.48","A927","false","img/card_backs/set1/red.gif","img/card_backs/set1/yellow.gif","img/card_backs/set1/purple.gif","img/card_backs/set1/green.gif","img/card_backs/set2/blue.gif","img/card_backs/set2/orange.gif","img/card_backs/set2/pink.gif","img/card_backs/set2/gray.gif","""event"",""trial"",""time""
""fullscreenenter"",""1"",""3916""
","
","
","""event"",""trial"",""time""
""fullscreenenter"",""1"",""3916""
","
","","1101","","","","real_trial","2021-07-08 16:34:56.938","img/card_backs/set1/red.gif","0","-240","1","",""
"casino-fixation","168","523374","0.0-25.0-0.49","A927","false","img/card_backs/set1/red.gif","img/card_backs/set1/yellow.gif","img/card_backs/set1/purple.gif","img/card_backs/set1/green.gif","img/card_backs/set2/blue.gif","img/card_backs/set2/orange.gif","img/card_backs/set2/pink.gif","img/card_backs/set2/gray.gif","""event"",""trial"",""time""
""fullscreenenter"",""1"",""3916""
","
","
","""event"",""trial"",""time""
""fullscreenenter"",""1"",""3916""
","
","","null","","null","","fixation","2021-07-08 16:34:57.440","","","","","",""
