"trial_type","trial_index","time_elapsed","internal_node_id","sub_id","risk_good_first","block1_A","block1_B","block1_C","block1_D","block2_A","block2_B","block2_C","block2_D","interactions","blur_events","focus_events","fullscreenenter_events","fullscreenexit_events","success","rt","stimulus","key_press","button_pressed","task_part","timestamp","card_choice","choice_position","points_earned","block","correct","response"
"pavlovia","0","3","0.0-0.0","A121","true","img/card_backs/set1/purple.gif","img/card_backs/set1/green.gif","img/card_backs/set1/red.gif","img/card_backs/set1/yellow.gif","img/card_backs/set2/blue.gif","img/card_backs/set2/pink.gif","img/card_backs/set2/orange.gif","img/card_backs/set2/gray.gif","""event"",""trial"",""time""
""fullscreenenter"",""1"",""7821""
","
","
","""event"",""trial"",""time""
""fullscreenenter"",""1"",""7821""
","
","","","","","","","","","","","","",""
"fullscreen","1","8763","0.0-1.0","A121","true","img/card_backs/set1/purple.gif","img/card_backs/set1/green.gif","img/card_backs/set1/red.gif","img/card_backs/set1/yellow.gif","img/card_backs/set2/blue.gif","img/card_backs/set2/pink.gif","img/card_backs/set2/orange.gif","img/card_backs/set2/gray.gif","""event"",""trial"",""time""
""fullscreenenter"",""1"",""7821""
","
","
","""event"",""trial"",""time""
""fullscreenenter"",""1"",""7821""
","
","true","","","","","","","","","","","",""
"audio-keyboard-response","2","14729","0.0-2.0","A121","true","img/card_backs/set1/purple.gif","img/card_backs/set1/green.gif","img/card_backs/set1/red.gif","img/card_backs/set1/yellow.gif","img/card_backs/set2/blue.gif","img/card_backs/set2/pink.gif","img/card_backs/set2/orange.gif","img/card_backs/set2/gray.gif","""event"",""trial"",""time""
""fullscreenenter"",""1"",""7821""
","
","
","""event"",""trial"",""time""
""fullscreenenter"",""1"",""7821""
","
","","5840","audio/beep_loop.wav","32","","","","","","","","",""
"audio-button-response","3","16799","0.0-3.0","A121","true","img/card_backs/set1/purple.gif","img/card_backs/set1/green.gif","img/card_backs/set1/red.gif","img/card_backs/set1/yellow.gif","img/card_backs/set2/blue.gif","img/card_backs/set2/pink.gif","img/card_backs/set2/orange.gif","img/card_backs/set2/gray.gif","""event"",""trial"",""time""
""fullscreenenter"",""1"",""7821""
","
","
","""event"",""trial"",""time""
""fullscreenenter"",""1"",""7821""
","
","","NaN","audio/turtle.mp3","","3","","","","","","","",""
"audio-button-response","4","19500","0.0-4.0","A121","true","img/card_backs/set1/purple.gif","img/card_backs/set1/green.gif","img/card_backs/set1/red.gif","img/card_backs/set1/yellow.gif","img/card_backs/set2/blue.gif","img/card_backs/set2/pink.gif","img/card_backs/set2/orange.gif","img/card_backs/set2/gray.gif","""event"",""trial"",""time""
""fullscreenenter"",""1"",""7821""
","
","
","""event"",""trial"",""time""
""fullscreenenter"",""1"",""7821""
","
","","NaN","audio/shark.mp3","","2","","","","","","","",""
"fullscreen","5","22919","0.0-5.0","A121","true","img/card_backs/set1/purple.gif","img/card_backs/set1/green.gif","img/card_backs/set1/red.gif","img/card_backs/set1/yellow.gif","img/card_backs/set2/blue.gif","img/card_backs/set2/pink.gif","img/card_backs/set2/orange.gif","img/card_backs/set2/gray.gif","""event"",""trial"",""time""
""fullscreenenter"",""1"",""7821""
","
","
","""event"",""trial"",""time""
""fullscreenenter"",""1"",""7821""
","
","true","","","","","","","","","","","",""
"casino-keyboard-response","6","25809","0.0-6.0-0.0","A121","true","img/card_backs/set1/purple.gif","img/card_backs/set1/green.gif","img/card_backs/set1/red.gif","img/card_backs/set1/yellow.gif","img/card_backs/set2/blue.gif","img/card_backs/set2/pink.gif","img/card_backs/set2/orange.gif","img/card_backs/set2/gray.gif","""event"",""trial"",""time""
""fullscreenenter"",""1"",""7821""
","
","
","""event"",""trial"",""time""
""fullscreenenter"",""1"",""7821""
","
","","2887.300000000745","Welcome to the casino!","71","","instructions","2021-07-14 05:36:03.141","","","","","",""
"casino-keyboard-response","7","39483","0.0-6.0-0.1","A121","true","img/card_backs/set1/purple.gif","img/card_backs/set1/green.gif","img/card_backs/set1/red.gif","img/card_backs/set1/yellow.gif","img/card_backs/set2/blue.gif","img/card_backs/set2/pink.gif","img/card_backs/set2/orange.gif","img/card_backs/set2/gray.gif","""event"",""trial"",""time""
""fullscreenenter"",""1"",""7821""
","
","
","""event"",""trial"",""time""
""fullscreenenter"",""1"",""7821""
","
","","13672.800000000745","Today you will be playing a game to earn tokens. </br> At the end of the experiment, you will be paid a bonus based on how many tokens you win. ","69","","instructions","2021-07-14 05:36:16.815","","","","","",""
"casino-keyboard-response","8","50310","0.0-6.0-0.2","A121","true","img/card_backs/set1/purple.gif","img/card_backs/set1/green.gif","img/card_backs/set1/red.gif","img/card_backs/set1/yellow.gif","img/card_backs/set2/blue.gif","img/card_backs/set2/pink.gif","img/card_backs/set2/orange.gif","img/card_backs/set2/gray.gif","""event"",""trial"",""time""
""fullscreenenter"",""1"",""7821""
","
","
","""event"",""trial"",""time""
""fullscreenenter"",""1"",""7821""
","
","","10826.400000000373","On every turn, you will be shown four different decks of cards. </br> You need to select a card from one of the four decks.  ","75","","instructions","2021-07-14 05:36:27.642","","","","","",""
"casino-keyboard-response","9","55046","0.0-6.0-0.3","A121","true","img/card_backs/set1/purple.gif","img/card_backs/set1/green.gif","img/card_backs/set1/red.gif","img/card_backs/set1/yellow.gif","img/card_backs/set2/blue.gif","img/card_backs/set2/pink.gif","img/card_backs/set2/orange.gif","img/card_backs/set2/gray.gif","""event"",""trial"",""time""
""fullscreenenter"",""1"",""7821""
","
","
","""event"",""trial"",""time""
""fullscreenenter"",""1"",""7821""
","
","","4734.5","On the next screen, you will see what the decks will look like. ","66","","instructions","2021-07-14 05:36:32.378","","","","","",""
"card-selection-trial","10","59054","0.0-7.0-0.0","A121","true","img/card_backs/set1/purple.gif","img/card_backs/set1/green.gif","img/card_backs/set1/red.gif","img/card_backs/set1/yellow.gif","img/card_backs/set2/blue.gif","img/card_backs/set2/pink.gif","img/card_backs/set2/orange.gif","img/card_backs/set2/gray.gif","""event"",""trial"",""time""
""fullscreenenter"",""1"",""7821""
","
","
","""event"",""trial"",""time""
""fullscreenenter"",""1"",""7821""
","
","","null","","","","practice","2021-07-14 05:36:36.386","null","null","null","0","",""
"casino-keyboard-response","11","66837","0.0-8.0-0.0","A121","true","img/card_backs/set1/purple.gif","img/card_backs/set1/green.gif","img/card_backs/set1/red.gif","img/card_backs/set1/yellow.gif","img/card_backs/set2/blue.gif","img/card_backs/set2/pink.gif","img/card_backs/set2/orange.gif","img/card_backs/set2/gray.gif","""event"",""trial"",""time""
""fullscreenenter"",""1"",""7821""
","
","
","""event"",""trial"",""time""
""fullscreenenter"",""1"",""7821""
","
","","7781.800000000745","You should pick a card from a deck using the '2', '4', '6', and '8' keys at the top of the keyboard.","85","","instructions","2021-07-14 05:36:44.169","","","","","",""
"casino-keyboard-response","12","72679","0.0-8.0-0.1","A121","true","img/card_backs/set1/purple.gif","img/card_backs/set1/green.gif","img/card_backs/set1/red.gif","img/card_backs/set1/yellow.gif","img/card_backs/set2/blue.gif","img/card_backs/set2/pink.gif","img/card_backs/set2/orange.gif","img/card_backs/set2/gray.gif","""event"",""trial"",""time""
""fullscreenenter"",""1"",""7821""
","
","
","""event"",""trial"",""time""
""fullscreenenter"",""1"",""7821""
","
","","5840.700000001118","Once you select a card, it will turn over and you will see how many tokens you earned.","83","","instructions","2021-07-14 05:36:50.011","","","","","",""
"casino-keyboard-response","13","90005","0.0-8.0-0.2","A121","true","img/card_backs/set1/purple.gif","img/card_backs/set1/green.gif","img/card_backs/set1/red.gif","img/card_backs/set1/yellow.gif","img/card_backs/set2/blue.gif","img/card_backs/set2/pink.gif","img/card_backs/set2/orange.gif","img/card_backs/set2/gray.gif","""event"",""trial"",""time""
""fullscreenenter"",""1"",""7821""
","
","
","""event"",""trial"",""time""
""fullscreenenter"",""1"",""7821""
","
","","17324.599999999627","Let's try practicing that! </br> First, try to put your fingers over the '2', '4', '6', and '8' keys. </br>  You can use whatever fingers are most comfortable for you. Try to find a comfortable position now. ","50","","instructions","2021-07-14 05:37:07.337","","","","","",""
"casino-keyboard-response","14","95742","0.0-8.0-0.3","A121","true","img/card_backs/set1/purple.gif","img/card_backs/set1/green.gif","img/card_backs/set1/red.gif","img/card_backs/set1/yellow.gif","img/card_backs/set2/blue.gif","img/card_backs/set2/pink.gif","img/card_backs/set2/orange.gif","img/card_backs/set2/gray.gif","""event"",""trial"",""time""
""fullscreenenter"",""1"",""7821""
","
","
","""event"",""trial"",""time""
""fullscreenenter"",""1"",""7821""
","
","","5736.60000000149","Okay ready? </br> On the next screen, press '2' to select the left deck. ","50","","instructions","2021-07-14 05:37:13.074","","","","","",""
"card-selection-trial","15","98509","0.0-9.0-0.0","A121","true","img/card_backs/set1/purple.gif","img/card_backs/set1/green.gif","img/card_backs/set1/red.gif","img/card_backs/set1/yellow.gif","img/card_backs/set2/blue.gif","img/card_backs/set2/pink.gif","img/card_backs/set2/orange.gif","img/card_backs/set2/gray.gif","""event"",""trial"",""time""
""fullscreenenter"",""1"",""7821""
","
","
","""event"",""trial"",""time""
""fullscreenenter"",""1"",""7821""
","
","","747.0999999996275","","","","practice_card_selection","2021-07-14 05:37:15.841","img/practice_cards/backs/dark_green.gif","0","200","","",""
"casino-keyboard-response","16","105940","0.0-10.0-0.0","A121","true","img/card_backs/set1/purple.gif","img/card_backs/set1/green.gif","img/card_backs/set1/red.gif","img/card_backs/set1/yellow.gif","img/card_backs/set2/blue.gif","img/card_backs/set2/pink.gif","img/card_backs/set2/orange.gif","img/card_backs/set2/gray.gif","""event"",""trial"",""time""
""fullscreenenter"",""1"",""7821""
","
","
","""event"",""trial"",""time""
""fullscreenenter"",""1"",""7821""
","
","","7429.299999998882","Great! Now on the next screen, try pressing '6' to select the third deck.","54","","instructions","2021-07-14 05:37:23.272","","","","","",""
"card-selection-trial","17","108842","0.0-11.0-0.0","A121","true","img/card_backs/set1/purple.gif","img/card_backs/set1/green.gif","img/card_backs/set1/red.gif","img/card_backs/set1/yellow.gif","img/card_backs/set2/blue.gif","img/card_backs/set2/pink.gif","img/card_backs/set2/orange.gif","img/card_backs/set2/gray.gif","""event"",""trial"",""time""
""fullscreenenter"",""1"",""7821""
","
","
","""event"",""trial"",""time""
""fullscreenenter"",""1"",""7821""
","
","","895.8000000007451","","","","practice_card_selection","2021-07-14 05:37:26.174","img/practice_cards/backs/dark_blue.gif","2","200","","",""
"casino-keyboard-response","18","114956","0.0-12.0-0.0","A121","true","img/card_backs/set1/purple.gif","img/card_backs/set1/green.gif","img/card_backs/set1/red.gif","img/card_backs/set1/yellow.gif","img/card_backs/set2/blue.gif","img/card_backs/set2/pink.gif","img/card_backs/set2/orange.gif","img/card_backs/set2/gray.gif","""event"",""trial"",""time""
""fullscreenenter"",""1"",""7821""
","
","
","""event"",""trial"",""time""
""fullscreenenter"",""1"",""7821""
","
","","6112.5999999996275","Now on the next screen, try pressing '4' to select the second deck.","52","","instructions","2021-07-14 05:37:32.288","","","","","",""
"card-selection-trial","19","117793","0.0-13.0-0.0","A121","true","img/card_backs/set1/purple.gif","img/card_backs/set1/green.gif","img/card_backs/set1/red.gif","img/card_backs/set1/yellow.gif","img/card_backs/set2/blue.gif","img/card_backs/set2/pink.gif","img/card_backs/set2/orange.gif","img/card_backs/set2/gray.gif","""event"",""trial"",""time""
""fullscreenenter"",""1"",""7821""
","
","
","""event"",""trial"",""time""
""fullscreenenter"",""1"",""7821""
","
","","831.6999999992549","","","","practice_card_selection","2021-07-14 05:37:35.125","img/practice_cards/backs/brown.gif","1","100","","",""
"casino-keyboard-response","20","122484","0.0-14.0-0.0","A121","true","img/card_backs/set1/purple.gif","img/card_backs/set1/green.gif","img/card_backs/set1/red.gif","img/card_backs/set1/yellow.gif","img/card_backs/set2/blue.gif","img/card_backs/set2/pink.gif","img/card_backs/set2/orange.gif","img/card_backs/set2/gray.gif","""event"",""trial"",""time""
""fullscreenenter"",""1"",""7821""
","
","
","""event"",""trial"",""time""
""fullscreenenter"",""1"",""7821""
","
","","4689.699999999255","Finally, try pressing '8' to select the deck all the way on the right.","56","","instructions","2021-07-14 05:37:39.816","","","","","",""
"card-selection-trial","21","124881","0.0-15.0-0.0","A121","true","img/card_backs/set1/purple.gif","img/card_backs/set1/green.gif","img/card_backs/set1/red.gif","img/card_backs/set1/yellow.gif","img/card_backs/set2/blue.gif","img/card_backs/set2/pink.gif","img/card_backs/set2/orange.gif","img/card_backs/set2/gray.gif","""event"",""trial"",""time""
""fullscreenenter"",""1"",""7821""
","
","
","""event"",""trial"",""time""
""fullscreenenter"",""1"",""7821""
","
","","389.80000000074506","","","","practice_card_selection","2021-07-14 05:37:42.213","img/practice_cards/backs/dark_blue.gif","3","200","","",""
"casino-keyboard-response","22","128492","0.0-16.0-0.0","A121","true","img/card_backs/set1/purple.gif","img/card_backs/set1/green.gif","img/card_backs/set1/red.gif","img/card_backs/set1/yellow.gif","img/card_backs/set2/blue.gif","img/card_backs/set2/pink.gif","img/card_backs/set2/orange.gif","img/card_backs/set2/gray.gif","""event"",""trial"",""time""
""fullscreenenter"",""1"",""7821""
","
","
","""event"",""trial"",""time""
""fullscreenenter"",""1"",""7821""
","
","","3609.9000000003725","Great! It seems like you are getting the hang of this.","80","","instructions","2021-07-14 05:37:45.824","","","","","",""
"casino-keyboard-response","23","136203","0.0-16.0-0.1","A121","true","img/card_backs/set1/purple.gif","img/card_backs/set1/green.gif","img/card_backs/set1/red.gif","img/card_backs/set1/yellow.gif","img/card_backs/set2/blue.gif","img/card_backs/set2/pink.gif","img/card_backs/set2/orange.gif","img/card_backs/set2/gray.gif","""event"",""trial"",""time""
""fullscreenenter"",""1"",""7821""
","
","
","""event"",""trial"",""time""
""fullscreenenter"",""1"",""7821""
","
","","7710","You may have noticed that some cards will cause you to <b> win </b> tokens while other cards will cause you to <b> lose </b>  tokens.","70","","instructions","2021-07-14 05:37:53.535","","","","","",""
"casino-keyboard-response","24","144683","0.0-16.0-0.2","A121","true","img/card_backs/set1/purple.gif","img/card_backs/set1/green.gif","img/card_backs/set1/red.gif","img/card_backs/set1/yellow.gif","img/card_backs/set2/blue.gif","img/card_backs/set2/pink.gif","img/card_backs/set2/orange.gif","img/card_backs/set2/gray.gif","""event"",""trial"",""time""
""fullscreenenter"",""1"",""7821""
","
","
","""event"",""trial"",""time""
""fullscreenenter"",""1"",""7821""
","
","","8478.900000000373","Each deck has a mix of cards that will cause you to win and lose tokens. </br> However, the cards in each colored deck are different.","73","","instructions","2021-07-14 05:38:02.015","","","","","",""
"casino-keyboard-response","25","152922","0.0-16.0-0.3","A121","true","img/card_backs/set1/purple.gif","img/card_backs/set1/green.gif","img/card_backs/set1/red.gif","img/card_backs/set1/yellow.gif","img/card_backs/set2/blue.gif","img/card_backs/set2/pink.gif","img/card_backs/set2/orange.gif","img/card_backs/set2/gray.gif","""event"",""trial"",""time""
""fullscreenenter"",""1"",""7821""
","
","
","""event"",""trial"",""time""
""fullscreenenter"",""1"",""7821""
","
","","8238","Some colored decks are luckier than others. </br> If you choose the lucky decks, you will earn more tokens than if you choose the unlucky decks.","69","","instructions","2021-07-14 05:38:10.254","","","","","",""
"casino-keyboard-response","26","160195","0.0-16.0-0.4","A121","true","img/card_backs/set1/purple.gif","img/card_backs/set1/green.gif","img/card_backs/set1/red.gif","img/card_backs/set1/yellow.gif","img/card_backs/set2/blue.gif","img/card_backs/set2/pink.gif","img/card_backs/set2/orange.gif","img/card_backs/set2/gray.gif","""event"",""trial"",""time""
""fullscreenenter"",""1"",""7821""
","
","
","""event"",""trial"",""time""
""fullscreenenter"",""1"",""7821""
","
","","7271.199999999255","You should try to figure out which decks are lucky. </br> Then, try to choose the lucky decks so you can win the most tokens.","87","","instructions","2021-07-14 05:38:17.527","","","","","",""
"casino-keyboard-response","27","172066","0.0-16.0-0.5","A121","true","img/card_backs/set1/purple.gif","img/card_backs/set1/green.gif","img/card_backs/set1/red.gif","img/card_backs/set1/yellow.gif","img/card_backs/set2/blue.gif","img/card_backs/set2/pink.gif","img/card_backs/set2/orange.gif","img/card_backs/set2/gray.gif","""event"",""trial"",""time""
""fullscreenenter"",""1"",""7821""
","
","
","""event"",""trial"",""time""
""fullscreenenter"",""1"",""7821""
","
","","11870.5","To make it trickier, the casino dealer will switch the locations of the decks on every turn. </br> The color of the deck determines how lucky it is. The location does not matter.","88","","instructions","2021-07-14 05:38:29.398","","","","","",""
"casino-keyboard-response","28","190234","0.0-16.0-0.6","A121","true","img/card_backs/set1/purple.gif","img/card_backs/set1/green.gif","img/card_backs/set1/red.gif","img/card_backs/set1/yellow.gif","img/card_backs/set2/blue.gif","img/card_backs/set2/pink.gif","img/card_backs/set2/orange.gif","img/card_backs/set2/gray.gif","""event"",""trial"",""time""
""fullscreenenter"",""1"",""7821""
","
","
","""event"",""trial"",""time""
""fullscreenenter"",""1"",""7821""
","
","","18166.599999999627","The mix of cards in each colored deck will stay the same throughout the game. </br> That means that a deck that is lucky early on will stay lucky.","79","","instructions","2021-07-14 05:38:47.566","","","","","",""
"casino-keyboard-response","29","198569","0.0-16.0-0.7","A121","true","img/card_backs/set1/purple.gif","img/card_backs/set1/green.gif","img/card_backs/set1/red.gif","img/card_backs/set1/yellow.gif","img/card_backs/set2/blue.gif","img/card_backs/set2/pink.gif","img/card_backs/set2/orange.gif","img/card_backs/set2/gray.gif","""event"",""trial"",""time""
""fullscreenenter"",""1"",""7821""
","
","
","""event"",""trial"",""time""
""fullscreenenter"",""1"",""7821""
","
","","8334","Remember though, all the decks have a <b> mix </b> of both <b> good </b> and <b> bad </b> cards so it may take a couple of turns to figure out if a deck is lucky.","69","","instructions","2021-07-14 05:38:55.902","","","","","",""
"casino-keyboard-response","30","206617","0.0-16.0-0.8","A121","true","img/card_backs/set1/purple.gif","img/card_backs/set1/green.gif","img/card_backs/set1/red.gif","img/card_backs/set1/yellow.gif","img/card_backs/set2/blue.gif","img/card_backs/set2/pink.gif","img/card_backs/set2/orange.gif","img/card_backs/set2/gray.gif","""event"",""trial"",""time""
""fullscreenenter"",""1"",""7821""
","
","
","""event"",""trial"",""time""
""fullscreenenter"",""1"",""7821""
","
","","8046","At the end of the game, you will be paid bonus money based on how many tokens you win. </br> If you win more tokens, you will earn more money!","72","","instructions","2021-07-14 05:39:03.949","","","","","",""
"casino-keyboard-response","31","216865","0.0-16.0-0.9","A121","true","img/card_backs/set1/purple.gif","img/card_backs/set1/green.gif","img/card_backs/set1/red.gif","img/card_backs/set1/yellow.gif","img/card_backs/set2/blue.gif","img/card_backs/set2/pink.gif","img/card_backs/set2/orange.gif","img/card_backs/set2/gray.gif","""event"",""trial"",""time""
""fullscreenenter"",""1"",""7821""
","
","
","""event"",""trial"",""time""
""fullscreenenter"",""1"",""7821""
","
","","10247.199999999255","You will never <b> lose </b> money. </br> If you end up with fewer than 0 tokens, you will earn $0 of bonus money, but you will still be paid for playing the game.","83","","instructions","2021-07-14 05:39:14.197","","","","","",""
"casino-keyboard-response","32","221216","0.0-16.0-0.10","A121","true","img/card_backs/set1/purple.gif","img/card_backs/set1/green.gif","img/card_backs/set1/red.gif","img/card_backs/set1/yellow.gif","img/card_backs/set2/blue.gif","img/card_backs/set2/pink.gif","img/card_backs/set2/orange.gif","img/card_backs/set2/gray.gif","""event"",""trial"",""time""
""fullscreenenter"",""1"",""7821""
","
","
","""event"",""trial"",""time""
""fullscreenenter"",""1"",""7821""
","
","","4349.4000000003725","You will have 10 seconds to make each choice.","82","","instructions","2021-07-14 05:39:18.548","","","","","",""
"casino-keyboard-response","33","229105","0.0-16.0-0.11","A121","true","img/card_backs/set1/purple.gif","img/card_backs/set1/green.gif","img/card_backs/set1/red.gif","img/card_backs/set1/yellow.gif","img/card_backs/set2/blue.gif","img/card_backs/set2/pink.gif","img/card_backs/set2/orange.gif","img/card_backs/set2/gray.gif","""event"",""trial"",""time""
""fullscreenenter"",""1"",""7821""
","
","
","""event"",""trial"",""time""
""fullscreenenter"",""1"",""7821""
","
","","7886","Before you play the game for real, you will play with practice decks. </br> The tokens you earn during practice won't count toward your total.","86","","instructions","2021-07-14 05:39:26.437","","","","","",""
"casino-keyboard-response","34","240745","0.0-16.0-0.12","A121","true","img/card_backs/set1/purple.gif","img/card_backs/set1/green.gif","img/card_backs/set1/red.gif","img/card_backs/set1/yellow.gif","img/card_backs/set2/blue.gif","img/card_backs/set2/pink.gif","img/card_backs/set2/orange.gif","img/card_backs/set2/gray.gif","""event"",""trial"",""time""
""fullscreenenter"",""1"",""7821""
","
","
","""event"",""trial"",""time""
""fullscreenenter"",""1"",""7821""
","
","","11638.400000000373","Ready? Remember, use the '2', '4', '6', and '8' keys to select the decks. </br> Put your fingers on those keys now and then press '2' to begin.","50","","instructions","2021-07-14 05:39:38.077","","","","","",""
"casino-fixation","35","241250","0.0-17.0-0.0","A121","true","img/card_backs/set1/purple.gif","img/card_backs/set1/green.gif","img/card_backs/set1/red.gif","img/card_backs/set1/yellow.gif","img/card_backs/set2/blue.gif","img/card_backs/set2/pink.gif","img/card_backs/set2/orange.gif","img/card_backs/set2/gray.gif","""event"",""trial"",""time""
""fullscreenenter"",""1"",""7821""
","
","
","""event"",""trial"",""time""
""fullscreenenter"",""1"",""7821""
","
","","null","","null","","fixation","2021-07-14 05:39:38.582","","","","","",""
"card-selection-trial","36","245627","0.0-17.0-1.0","A121","true","img/card_backs/set1/purple.gif","img/card_backs/set1/green.gif","img/card_backs/set1/red.gif","img/card_backs/set1/yellow.gif","img/card_backs/set2/blue.gif","img/card_backs/set2/pink.gif","img/card_backs/set2/orange.gif","img/card_backs/set2/gray.gif","""event"",""trial"",""time""
""fullscreenenter"",""1"",""7821""
","
","
","""event"",""trial"",""time""
""fullscreenenter"",""1"",""7821""
","
","","2371.7000000011176","","","","practice","2021-07-14 05:39:42.959","img/practice_cards/backs/dark_blue.gif","0","-200","0","",""
"casino-fixation","37","246132","0.0-17.0-0.1","A121","true","img/card_backs/set1/purple.gif","img/card_backs/set1/green.gif","img/card_backs/set1/red.gif","img/card_backs/set1/yellow.gif","img/card_backs/set2/blue.gif","img/card_backs/set2/pink.gif","img/card_backs/set2/orange.gif","img/card_backs/set2/gray.gif","""event"",""trial"",""time""
""fullscreenenter"",""1"",""7821""
","
","
","""event"",""trial"",""time""
""fullscreenenter"",""1"",""7821""
","
","","null","","null","","fixation","2021-07-14 05:39:43.464","","","","","",""
"card-selection-trial","38","249377","0.0-17.0-1.1","A121","true","img/card_backs/set1/purple.gif","img/card_backs/set1/green.gif","img/card_backs/set1/red.gif","img/card_backs/set1/yellow.gif","img/card_backs/set2/blue.gif","img/card_backs/set2/pink.gif","img/card_backs/set2/orange.gif","img/card_backs/set2/gray.gif","""event"",""trial"",""time""
""fullscreenenter"",""1"",""7821""
","
","
","""event"",""trial"",""time""
""fullscreenenter"",""1"",""7821""
","
","","1239","","","","practice","2021-07-14 05:39:46.709","img/practice_cards/backs/dark_blue.gif","3","-200","0","",""
"casino-fixation","39","249881","0.0-17.0-0.2","A121","true","img/card_backs/set1/purple.gif","img/card_backs/set1/green.gif","img/card_backs/set1/red.gif","img/card_backs/set1/yellow.gif","img/card_backs/set2/blue.gif","img/card_backs/set2/pink.gif","img/card_backs/set2/orange.gif","img/card_backs/set2/gray.gif","""event"",""trial"",""time""
""fullscreenenter"",""1"",""7821""
","
","
","""event"",""trial"",""time""
""fullscreenenter"",""1"",""7821""
","
","","null","","null","","fixation","2021-07-14 05:39:47.213","","","","","",""
"card-selection-trial","40","252882","0.0-17.0-1.2","A121","true","img/card_backs/set1/purple.gif","img/card_backs/set1/green.gif","img/card_backs/set1/red.gif","img/card_backs/set1/yellow.gif","img/card_backs/set2/blue.gif","img/card_backs/set2/pink.gif","img/card_backs/set2/orange.gif","img/card_backs/set2/gray.gif","""event"",""trial"",""time""
""fullscreenenter"",""1"",""7821""
","
","
","""event"",""trial"",""time""
""fullscreenenter"",""1"",""7821""
","
","","994.4000000003725","","","","practice","2021-07-14 05:39:50.214","img/practice_cards/backs/brown.gif","2","-100","0","",""
"casino-fixation","41","253388","0.0-17.0-0.3","A121","true","img/card_backs/set1/purple.gif","img/card_backs/set1/green.gif","img/card_backs/set1/red.gif","img/card_backs/set1/yellow.gif","img/card_backs/set2/blue.gif","img/card_backs/set2/pink.gif","img/card_backs/set2/orange.gif","img/card_backs/set2/gray.gif","""event"",""trial"",""time""
""fullscreenenter"",""1"",""7821""
","
","
","""event"",""trial"",""time""
""fullscreenenter"",""1"",""7821""
","
","","null","","null","","fixation","2021-07-14 05:39:50.720","","","","","",""
"card-selection-trial","42","255858","0.0-17.0-1.3","A121","true","img/card_backs/set1/purple.gif","img/card_backs/set1/green.gif","img/card_backs/set1/red.gif","img/card_backs/set1/yellow.gif","img/card_backs/set2/blue.gif","img/card_backs/set2/pink.gif","img/card_backs/set2/orange.gif","img/card_backs/set2/gray.gif","""event"",""trial"",""time""
""fullscreenenter"",""1"",""7821""
","
","
","""event"",""trial"",""time""
""fullscreenenter"",""1"",""7821""
","
","","463.5","","","","practice","2021-07-14 05:39:53.190","img/practice_cards/backs/dark_green.gif","1","-200","0","",""
"casino-fixation","43","256360","0.0-17.0-0.4","A121","true","img/card_backs/set1/purple.gif","img/card_backs/set1/green.gif","img/card_backs/set1/red.gif","img/card_backs/set1/yellow.gif","img/card_backs/set2/blue.gif","img/card_backs/set2/pink.gif","img/card_backs/set2/orange.gif","img/card_backs/set2/gray.gif","""event"",""trial"",""time""
""fullscreenenter"",""1"",""7821""
","
","
","""event"",""trial"",""time""
""fullscreenenter"",""1"",""7821""
","
","","null","","null","","fixation","2021-07-14 05:39:53.692","","","","","",""
"card-selection-trial","44","261579","0.0-17.0-1.4","A121","true","img/card_backs/set1/purple.gif","img/card_backs/set1/green.gif","img/card_backs/set1/red.gif","img/card_backs/set1/yellow.gif","img/card_backs/set2/blue.gif","img/card_backs/set2/pink.gif","img/card_backs/set2/orange.gif","img/card_backs/set2/gray.gif","""event"",""trial"",""time""
""fullscreenenter"",""1"",""7821""
","
","
","""event"",""trial"",""time""
""fullscreenenter"",""1"",""7821""
","
","","3211.300000000745","","","","practice","2021-07-14 05:39:58.911","img/practice_cards/backs/dark_blue.gif","3","200","0","",""
"casino-fixation","45","262083","0.0-17.0-0.5","A121","true","img/card_backs/set1/purple.gif","img/card_backs/set1/green.gif","img/card_backs/set1/red.gif","img/card_backs/set1/yellow.gif","img/card_backs/set2/blue.gif","img/card_backs/set2/pink.gif","img/card_backs/set2/orange.gif","img/card_backs/set2/gray.gif","""event"",""trial"",""time""
""fullscreenenter"",""1"",""7821""
","
","
","""event"",""trial"",""time""
""fullscreenenter"",""1"",""7821""
","
","","null","","null","","fixation","2021-07-14 05:39:59.415","","","","","",""
"card-selection-trial","46","267076","0.0-17.0-1.5","A121","true","img/card_backs/set1/purple.gif","img/card_backs/set1/green.gif","img/card_backs/set1/red.gif","img/card_backs/set1/yellow.gif","img/card_backs/set2/blue.gif","img/card_backs/set2/pink.gif","img/card_backs/set2/orange.gif","img/card_backs/set2/gray.gif","""event"",""trial"",""time""
""fullscreenenter"",""1"",""7821""
","
","
","""event"",""trial"",""time""
""fullscreenenter"",""1"",""7821""
","
","","2984.199999999255","","","","practice","2021-07-14 05:40:04.408","img/practice_cards/backs/dark_blue.gif","0","200","0","",""
"casino-fixation","47","267580","0.0-17.0-0.6","A121","true","img/card_backs/set1/purple.gif","img/card_backs/set1/green.gif","img/card_backs/set1/red.gif","img/card_backs/set1/yellow.gif","img/card_backs/set2/blue.gif","img/card_backs/set2/pink.gif","img/card_backs/set2/orange.gif","img/card_backs/set2/gray.gif","""event"",""trial"",""time""
""fullscreenenter"",""1"",""7821""
","
","
","""event"",""trial"",""time""
""fullscreenenter"",""1"",""7821""
","
","","null","","null","","fixation","2021-07-14 05:40:04.913","","","","","",""
"card-selection-trial","48","271043","0.0-17.0-1.6","A121","true","img/card_backs/set1/purple.gif","img/card_backs/set1/green.gif","img/card_backs/set1/red.gif","img/card_backs/set1/yellow.gif","img/card_backs/set2/blue.gif","img/card_backs/set2/pink.gif","img/card_backs/set2/orange.gif","img/card_backs/set2/gray.gif","""event"",""trial"",""time""
""fullscreenenter"",""1"",""7821""
","
","
","""event"",""trial"",""time""
""fullscreenenter"",""1"",""7821""
","
","","1454.300000000745","","","","practice","2021-07-14 05:40:08.375","img/practice_cards/backs/dark_blue.gif","3","200","0","",""
"casino-fixation","49","271546","0.0-17.0-0.7","A121","true","img/card_backs/set1/purple.gif","img/card_backs/set1/green.gif","img/card_backs/set1/red.gif","img/card_backs/set1/yellow.gif","img/card_backs/set2/blue.gif","img/card_backs/set2/pink.gif","img/card_backs/set2/orange.gif","img/card_backs/set2/gray.gif","""event"",""trial"",""time""
""fullscreenenter"",""1"",""7821""
","
","
","""event"",""trial"",""time""
""fullscreenenter"",""1"",""7821""
","
","","null","","null","","fixation","2021-07-14 05:40:08.878","","","","","",""
"card-selection-trial","50","275035","0.0-17.0-1.7","A121","true","img/card_backs/set1/purple.gif","img/card_backs/set1/green.gif","img/card_backs/set1/red.gif","img/card_backs/set1/yellow.gif","img/card_backs/set2/blue.gif","img/card_backs/set2/pink.gif","img/card_backs/set2/orange.gif","img/card_backs/set2/gray.gif","""event"",""trial"",""time""
""fullscreenenter"",""1"",""7821""
","
","
","""event"",""trial"",""time""
""fullscreenenter"",""1"",""7821""
","
","","1480.5","","","","practice","2021-07-14 05:40:12.367","img/practice_cards/backs/dark_green.gif","1","-200","0","",""
"casino-fixation","51","275540","0.0-17.0-0.8","A121","true","img/card_backs/set1/purple.gif","img/card_backs/set1/green.gif","img/card_backs/set1/red.gif","img/card_backs/set1/yellow.gif","img/card_backs/set2/blue.gif","img/card_backs/set2/pink.gif","img/card_backs/set2/orange.gif","img/card_backs/set2/gray.gif","""event"",""trial"",""time""
""fullscreenenter"",""1"",""7821""
","
","
","""event"",""trial"",""time""
""fullscreenenter"",""1"",""7821""
","
","","null","","null","","fixation","2021-07-14 05:40:12.872","","","","","",""
"card-selection-trial","52","279777","0.0-17.0-1.8","A121","true","img/card_backs/set1/purple.gif","img/card_backs/set1/green.gif","img/card_backs/set1/red.gif","img/card_backs/set1/yellow.gif","img/card_backs/set2/blue.gif","img/card_backs/set2/pink.gif","img/card_backs/set2/orange.gif","img/card_backs/set2/gray.gif","""event"",""trial"",""time""
""fullscreenenter"",""1"",""7821""
","
","
","""event"",""trial"",""time""
""fullscreenenter"",""1"",""7821""
","
","","2231","","","","practice","2021-07-14 05:40:17.110","img/practice_cards/backs/dark_blue.gif","0","200","0","",""
"casino-fixation","53","280282","0.0-17.0-0.9","A121","true","img/card_backs/set1/purple.gif","img/card_backs/set1/green.gif","img/card_backs/set1/red.gif","img/card_backs/set1/yellow.gif","img/card_backs/set2/blue.gif","img/card_backs/set2/pink.gif","img/card_backs/set2/orange.gif","img/card_backs/set2/gray.gif","""event"",""trial"",""time""
""fullscreenenter"",""1"",""7821""
","
","
","""event"",""trial"",""time""
""fullscreenenter"",""1"",""7821""
","
","","null","","null","","fixation","2021-07-14 05:40:17.615","","","","","",""
"card-selection-trial","54","285641","0.0-17.0-1.9","A121","true","img/card_backs/set1/purple.gif","img/card_backs/set1/green.gif","img/card_backs/set1/red.gif","img/card_backs/set1/yellow.gif","img/card_backs/set2/blue.gif","img/card_backs/set2/pink.gif","img/card_backs/set2/orange.gif","img/card_backs/set2/gray.gif","""event"",""trial"",""time""
""fullscreenenter"",""1"",""7821""
","
","
","""event"",""trial"",""time""
""fullscreenenter"",""1"",""7821""
","
","","3351.9000000003725","","","","practice","2021-07-14 05:40:22.973","img/practice_cards/backs/dark_blue.gif","2","200","0","",""
"casino-keyboard-response","55","288407","0.0-18.0","A121","true","img/card_backs/set1/purple.gif","img/card_backs/set1/green.gif","img/card_backs/set1/red.gif","img/card_backs/set1/yellow.gif","img/card_backs/set2/blue.gif","img/card_backs/set2/pink.gif","img/card_backs/set2/orange.gif","img/card_backs/set2/gray.gif","""event"",""trial"",""time""
""fullscreenenter"",""1"",""7821""
","
","
","""event"",""trial"",""time""
""fullscreenenter"",""1"",""7821""
","
","","2765.199999999255","You earned 100 tokens during the practice round!","82","","","2021-07-14 05:40:25.739","","","","","",""
"casino-keyboard-response","56","292606","0.0-19.0-0.0","A121","true","img/card_backs/set1/purple.gif","img/card_backs/set1/green.gif","img/card_backs/set1/red.gif","img/card_backs/set1/yellow.gif","img/card_backs/set2/blue.gif","img/card_backs/set2/pink.gif","img/card_backs/set2/orange.gif","img/card_backs/set2/gray.gif","""event"",""trial"",""time""
""fullscreenenter"",""1"",""7821""
","
","
","""event"",""trial"",""time""
""fullscreenenter"",""1"",""7821""
","
","","4197.700000001118","Nice job! You are almost ready to play the real game.","86","","instructions","2021-07-14 05:40:29.938","","","","","",""
"casino-keyboard-response","57","299455","0.0-19.0-0.1","A121","true","img/card_backs/set1/purple.gif","img/card_backs/set1/green.gif","img/card_backs/set1/red.gif","img/card_backs/set1/yellow.gif","img/card_backs/set2/blue.gif","img/card_backs/set2/pink.gif","img/card_backs/set2/orange.gif","img/card_backs/set2/gray.gif","""event"",""trial"",""time""
""fullscreenenter"",""1"",""7821""
","
","
","""event"",""trial"",""time""
""fullscreenenter"",""1"",""7821""
","
","","6847.0999999996275","You will play two rounds of the real game. In each round, you will pick 100 cards in total.","73","","instructions","2021-07-14 05:40:36.787","","","","","",""
"casino-keyboard-response","58","303630","0.0-19.0-0.2","A121","true","img/card_backs/set1/purple.gif","img/card_backs/set1/green.gif","img/card_backs/set1/red.gif","img/card_backs/set1/yellow.gif","img/card_backs/set2/blue.gif","img/card_backs/set2/pink.gif","img/card_backs/set2/orange.gif","img/card_backs/set2/gray.gif","""event"",""trial"",""time""
""fullscreenenter"",""1"",""7821""
","
","
","""event"",""trial"",""time""
""fullscreenenter"",""1"",""7821""
","
","","4173.799999998882","We are now going to ask you some questions about how the game works.","66","","instructions","2021-07-14 05:40:40.962","","","","","",""
"casino-keyboard-response","59","309855","0.0-19.0-0.3","A121","true","img/card_backs/set1/purple.gif","img/card_backs/set1/green.gif","img/card_backs/set1/red.gif","img/card_backs/set1/yellow.gif","img/card_backs/set2/blue.gif","img/card_backs/set2/pink.gif","img/card_backs/set2/orange.gif","img/card_backs/set2/gray.gif","""event"",""trial"",""time""
""fullscreenenter"",""1"",""7821""
","
","
","""event"",""trial"",""time""
""fullscreenenter"",""1"",""7821""
","
","","6221.800000000745","Answer carefully. You will not be able to begin the game until you answer them correctly.","67","","instructions","2021-07-14 05:40:47.187","","","","","",""
"casino-comp_q","60","329094","0.0-20.0-0.0","A121","true","img/card_backs/set1/purple.gif","img/card_backs/set1/green.gif","img/card_backs/set1/red.gif","img/card_backs/set1/yellow.gif","img/card_backs/set2/blue.gif","img/card_backs/set2/pink.gif","img/card_backs/set2/orange.gif","img/card_backs/set2/gray.gif","""event"",""trial"",""time""
""fullscreenenter"",""1"",""7821""
","
","
","""event"",""trial"",""time""
""fullscreenenter"",""1"",""7821""
","
","","19238.400000000373","True or False: All the decks have some cards that cause you to win tokens and some cards that cause you to lose tokens.","84","","","2021-07-14 05:41:06.427","","","","","",""
"casino-keyboard-response","61","333813","0.0-20.0-1.0","A121","true","img/card_backs/set1/purple.gif","img/card_backs/set1/green.gif","img/card_backs/set1/red.gif","img/card_backs/set1/yellow.gif","img/card_backs/set2/blue.gif","img/card_backs/set2/pink.gif","img/card_backs/set2/orange.gif","img/card_backs/set2/gray.gif","""event"",""trial"",""time""
""fullscreenenter"",""1"",""7821""
","
","
","""event"",""trial"",""time""
""fullscreenenter"",""1"",""7821""
","
","","4717.4000000003725","True is correct! All the decks have a mix of winning and losing cards.","77","","","2021-07-14 05:41:11.146","","","","","true",""
"casino-comp_q","62","338413","0.0-21.0-0.0","A121","true","img/card_backs/set1/purple.gif","img/card_backs/set1/green.gif","img/card_backs/set1/red.gif","img/card_backs/set1/yellow.gif","img/card_backs/set2/blue.gif","img/card_backs/set2/pink.gif","img/card_backs/set2/orange.gif","img/card_backs/set2/gray.gif","""event"",""trial"",""time""
""fullscreenenter"",""1"",""7821""
","
","
","""event"",""trial"",""time""
""fullscreenenter"",""1"",""7821""
","
","","4598","True or False: You will have as much time as you want to make your response.","84","","","2021-07-14 05:41:15.745","","","","","",""
"casino-keyboard-response","63","342310","0.0-21.0-1.0","A121","true","img/card_backs/set1/purple.gif","img/card_backs/set1/green.gif","img/card_backs/set1/red.gif","img/card_backs/set1/yellow.gif","img/card_backs/set2/blue.gif","img/card_backs/set2/pink.gif","img/card_backs/set2/orange.gif","img/card_backs/set2/gray.gif","""event"",""trial"",""time""
""fullscreenenter"",""1"",""7821""
","
","
","""event"",""trial"",""time""
""fullscreenenter"",""1"",""7821""
","
","","3893.7000000011176","True is incorrect. You will only have 10 seconds to make each choice.","75","","","2021-07-14 05:41:19.642","","","","","false",""
"casino-comp_q","64","345949","0.0-21.1-0.1","A121","true","img/card_backs/set1/purple.gif","img/card_backs/set1/green.gif","img/card_backs/set1/red.gif","img/card_backs/set1/yellow.gif","img/card_backs/set2/blue.gif","img/card_backs/set2/pink.gif","img/card_backs/set2/orange.gif","img/card_backs/set2/gray.gif","""event"",""trial"",""time""
""fullscreenenter"",""1"",""7821""
","
","
","""event"",""trial"",""time""
""fullscreenenter"",""1"",""7821""
","
","","3637.699999999255","True or False: You will have as much time as you want to make your response.","70","","","2021-07-14 05:41:23.281","","","","","",""
"casino-keyboard-response","65","349669","0.0-21.1-1.1","A121","true","img/card_backs/set1/purple.gif","img/card_backs/set1/green.gif","img/card_backs/set1/red.gif","img/card_backs/set1/yellow.gif","img/card_backs/set2/blue.gif","img/card_backs/set2/pink.gif","img/card_backs/set2/orange.gif","img/card_backs/set2/gray.gif","""event"",""trial"",""time""
""fullscreenenter"",""1"",""7821""
","
","
","""event"",""trial"",""time""
""fullscreenenter"",""1"",""7821""
","
","","3718.2999999988824","False is correct! You will only have 10 seconds to make each choice.","75","","","2021-07-14 05:41:27.001","","","","","true",""
"casino-comp_q","66","355997","0.0-22.0-0.0","A121","true","img/card_backs/set1/purple.gif","img/card_backs/set1/green.gif","img/card_backs/set1/red.gif","img/card_backs/set1/yellow.gif","img/card_backs/set2/blue.gif","img/card_backs/set2/pink.gif","img/card_backs/set2/orange.gif","img/card_backs/set2/gray.gif","""event"",""trial"",""time""
""fullscreenenter"",""1"",""7821""
","
","
","""event"",""trial"",""time""
""fullscreenenter"",""1"",""7821""
","
","","6326.5","True or False: The location of the deck determines how lucky it is.","70","","","2021-07-14 05:41:33.329","","","","","",""
"casino-keyboard-response","67","360317","0.0-22.0-1.0","A121","true","img/card_backs/set1/purple.gif","img/card_backs/set1/green.gif","img/card_backs/set1/red.gif","img/card_backs/set1/yellow.gif","img/card_backs/set2/blue.gif","img/card_backs/set2/pink.gif","img/card_backs/set2/orange.gif","img/card_backs/set2/gray.gif","""event"",""trial"",""time""
""fullscreenenter"",""1"",""7821""
","
","
","""event"",""trial"",""time""
""fullscreenenter"",""1"",""7821""
","
","","4318.4000000003725","False is correct! The <i>color</i>  of the deck determines how lucky or unlucky it is.","68","","","2021-07-14 05:41:37.649","","","","","true",""
"casino-keyboard-response","68","364917","0.0-23.0-0.0","A121","true","img/card_backs/set1/purple.gif","img/card_backs/set1/green.gif","img/card_backs/set1/red.gif","img/card_backs/set1/yellow.gif","img/card_backs/set2/blue.gif","img/card_backs/set2/pink.gif","img/card_backs/set2/orange.gif","img/card_backs/set2/gray.gif","""event"",""trial"",""time""
""fullscreenenter"",""1"",""7821""
","
","
","""event"",""trial"",""time""
""fullscreenenter"",""1"",""7821""
","
","","4599","Great job! Now it's time to start the real game.","82","","instructions","2021-07-14 05:41:42.249","","","","","",""
"casino-keyboard-response","69","369812","0.0-23.0-0.1","A121","true","img/card_backs/set1/purple.gif","img/card_backs/set1/green.gif","img/card_backs/set1/red.gif","img/card_backs/set1/yellow.gif","img/card_backs/set2/blue.gif","img/card_backs/set2/pink.gif","img/card_backs/set2/orange.gif","img/card_backs/set2/gray.gif","""event"",""trial"",""time""
""fullscreenenter"",""1"",""7821""
","
","
","""event"",""trial"",""time""
""fullscreenenter"",""1"",""7821""
","
","","4893.700000001118","Before we start, we're going to head into a new room of the casino.","86","","instructions","2021-07-14 05:41:47.145","","","","","",""
"casino-keyboard-response","70","376108","0.0-24.0-0.0","A121","true","img/card_backs/set1/purple.gif","img/card_backs/set1/green.gif","img/card_backs/set1/red.gif","img/card_backs/set1/yellow.gif","img/card_backs/set2/blue.gif","img/card_backs/set2/pink.gif","img/card_backs/set2/orange.gif","img/card_backs/set2/gray.gif","""event"",""trial"",""time""
""fullscreenenter"",""1"",""7821""
","
","
","""event"",""trial"",""time""
""fullscreenenter"",""1"",""7821""
","
","","6294.700000001118","Here we are! The real game will use different cards, but the rules will be the same.","71","","instructions","2021-07-14 05:41:53.441","","","","","",""
"casino-keyboard-response","71","385244","0.0-24.0-0.1","A121","true","img/card_backs/set1/purple.gif","img/card_backs/set1/green.gif","img/card_backs/set1/red.gif","img/card_backs/set1/yellow.gif","img/card_backs/set2/blue.gif","img/card_backs/set2/pink.gif","img/card_backs/set2/orange.gif","img/card_backs/set2/gray.gif","""event"",""trial"",""time""
""fullscreenenter"",""1"",""7821""
","
","
","""event"",""trial"",""time""
""fullscreenenter"",""1"",""7821""
","
","","9134.60000000149","Ready? Put your fingers over the '2', '4', 6', and '8' keys so you are ready to play the game. </br> Then press 2 to start.","50","","instructions","2021-07-14 05:42:02.576","","","","","",""
"casino-fixation","72","385749","0.0-25.0-0.0","A121","true","img/card_backs/set1/purple.gif","img/card_backs/set1/green.gif","img/card_backs/set1/red.gif","img/card_backs/set1/yellow.gif","img/card_backs/set2/blue.gif","img/card_backs/set2/pink.gif","img/card_backs/set2/orange.gif","img/card_backs/set2/gray.gif","""event"",""trial"",""time""
""fullscreenenter"",""1"",""7821""
","
","
","""event"",""trial"",""time""
""fullscreenenter"",""1"",""7821""
","
","","null","","null","","fixation","2021-07-14 05:42:03.081","","","","","",""
"card-selection-trial","73","390432","0.0-25.0-1.0","A121","true","img/card_backs/set1/purple.gif","img/card_backs/set1/green.gif","img/card_backs/set1/red.gif","img/card_backs/set1/yellow.gif","img/card_backs/set2/blue.gif","img/card_backs/set2/pink.gif","img/card_backs/set2/orange.gif","img/card_backs/set2/gray.gif","""event"",""trial"",""time""
""fullscreenenter"",""1"",""7821""
","
","
","""event"",""trial"",""time""
""fullscreenenter"",""1"",""7821""
","
","","2674.4000000003725","","","","real_trial","2021-07-14 05:42:07.764","img/card_backs/set1/purple.gif","1","-200","1","",""
"casino-fixation","74","390937","0.0-25.0-0.1","A121","true","img/card_backs/set1/purple.gif","img/card_backs/set1/green.gif","img/card_backs/set1/red.gif","img/card_backs/set1/yellow.gif","img/card_backs/set2/blue.gif","img/card_backs/set2/pink.gif","img/card_backs/set2/orange.gif","img/card_backs/set2/gray.gif","""event"",""trial"",""time""
""fullscreenenter"",""1"",""7821""
","
","
","""event"",""trial"",""time""
""fullscreenenter"",""1"",""7821""
","
","","null","","null","","fixation","2021-07-14 05:42:08.269","","","","","",""
"card-selection-trial","75","397369","0.0-25.0-1.1","A121","true","img/card_backs/set1/purple.gif","img/card_backs/set1/green.gif","img/card_backs/set1/red.gif","img/card_backs/set1/yellow.gif","img/card_backs/set2/blue.gif","img/card_backs/set2/pink.gif","img/card_backs/set2/orange.gif","img/card_backs/set2/gray.gif","""event"",""trial"",""time""
""fullscreenenter"",""1"",""7821""
","
","
","""event"",""trial"",""time""
""fullscreenenter"",""1"",""7821""
","
","","4425","","","","real_trial","2021-07-14 05:42:14.701","img/card_backs/set1/yellow.gif","1","-100","1","",""
"casino-fixation","76","397872","0.0-25.0-0.2","A121","true","img/card_backs/set1/purple.gif","img/card_backs/set1/green.gif","img/card_backs/set1/red.gif","img/card_backs/set1/yellow.gif","img/card_backs/set2/blue.gif","img/card_backs/set2/pink.gif","img/card_backs/set2/orange.gif","img/card_backs/set2/gray.gif","""event"",""trial"",""time""
""fullscreenenter"",""1"",""7821""
","
","
","""event"",""trial"",""time""
""fullscreenenter"",""1"",""7821""
","
","","null","","null","","fixation","2021-07-14 05:42:15.204","","","","","",""
"card-selection-trial","77","401798","0.0-25.0-1.2","A121","true","img/card_backs/set1/purple.gif","img/card_backs/set1/green.gif","img/card_backs/set1/red.gif","img/card_backs/set1/yellow.gif","img/card_backs/set2/blue.gif","img/card_backs/set2/pink.gif","img/card_backs/set2/orange.gif","img/card_backs/set2/gray.gif","""event"",""trial"",""time""
""fullscreenenter"",""1"",""7821""
","
","
","""event"",""trial"",""time""
""fullscreenenter"",""1"",""7821""
","
","","1918.5","","","","real_trial","2021-07-14 05:42:19.130","img/card_backs/set1/red.gif","3","-100","1","",""
"casino-fixation","78","402303","0.0-25.0-0.3","A121","true","img/card_backs/set1/purple.gif","img/card_backs/set1/green.gif","img/card_backs/set1/red.gif","img/card_backs/set1/yellow.gif","img/card_backs/set2/blue.gif","img/card_backs/set2/pink.gif","img/card_backs/set2/orange.gif","img/card_backs/set2/gray.gif","""event"",""trial"",""time""
""fullscreenenter"",""1"",""7821""
","
","
","""event"",""trial"",""time""
""fullscreenenter"",""1"",""7821""
","
","","null","","null","","fixation","2021-07-14 05:42:19.635","","","","","",""
"card-selection-trial","79","408079","0.0-25.0-1.3","A121","true","img/card_backs/set1/purple.gif","img/card_backs/set1/green.gif","img/card_backs/set1/red.gif","img/card_backs/set1/yellow.gif","img/card_backs/set2/blue.gif","img/card_backs/set2/pink.gif","img/card_backs/set2/orange.gif","img/card_backs/set2/gray.gif","""event"",""trial"",""time""
""fullscreenenter"",""1"",""7821""
","
","
","""event"",""trial"",""time""
""fullscreenenter"",""1"",""7821""
","
","","3768.0999999996275","","","","real_trial","2021-07-14 05:42:25.411","img/card_backs/set1/green.gif","1","240","1","",""
"casino-fixation","80","408583","0.0-25.0-0.4","A121","true","img/card_backs/set1/purple.gif","img/card_backs/set1/green.gif","img/card_backs/set1/red.gif","img/card_backs/set1/yellow.gif","img/card_backs/set2/blue.gif","img/card_backs/set2/pink.gif","img/card_backs/set2/orange.gif","img/card_backs/set2/gray.gif","""event"",""trial"",""time""
""fullscreenenter"",""1"",""7821""
","
","
","""event"",""trial"",""time""
""fullscreenenter"",""1"",""7821""
","
","","null","","null","","fixation","2021-07-14 05:42:25.915","","","","","",""
"card-selection-trial","81","411103","0.0-25.0-1.4","A121","true","img/card_backs/set1/purple.gif","img/card_backs/set1/green.gif","img/card_backs/set1/red.gif","img/card_backs/set1/yellow.gif","img/card_backs/set2/blue.gif","img/card_backs/set2/pink.gif","img/card_backs/set2/orange.gif","img/card_backs/set2/gray.gif","""event"",""trial"",""time""
""fullscreenenter"",""1"",""7821""
","
","
","""event"",""trial"",""time""
""fullscreenenter"",""1"",""7821""
","
","","513.7000000011176","","","","real_trial","2021-07-14 05:42:28.435","img/card_backs/set1/green.gif","1","260","1","",""
"casino-fixation","82","411608","0.0-25.0-0.5","A121","true","img/card_backs/set1/purple.gif","img/card_backs/set1/green.gif","img/card_backs/set1/red.gif","img/card_backs/set1/yellow.gif","img/card_backs/set2/blue.gif","img/card_backs/set2/pink.gif","img/card_backs/set2/orange.gif","img/card_backs/set2/gray.gif","""event"",""trial"",""time""
""fullscreenenter"",""1"",""7821""
","
","
","""event"",""trial"",""time""
""fullscreenenter"",""1"",""7821""
","
","","null","","null","","fixation","2021-07-14 05:42:28.940","","","","","",""
"card-selection-trial","83","414481","0.0-25.0-1.5","A121","true","img/card_backs/set1/purple.gif","img/card_backs/set1/green.gif","img/card_backs/set1/red.gif","img/card_backs/set1/yellow.gif","img/card_backs/set2/blue.gif","img/card_backs/set2/pink.gif","img/card_backs/set2/orange.gif","img/card_backs/set2/gray.gif","""event"",""trial"",""time""
""fullscreenenter"",""1"",""7821""
","
","
","""event"",""trial"",""time""
""fullscreenenter"",""1"",""7821""
","
","","863.3000000007451","","","","real_trial","2021-07-14 05:42:31.813","img/card_backs/set1/green.gif","2","260","1","",""
"casino-fixation","84","414986","0.0-25.0-0.6","A121","true","img/card_backs/set1/purple.gif","img/card_backs/set1/green.gif","img/card_backs/set1/red.gif","img/card_backs/set1/yellow.gif","img/card_backs/set2/blue.gif","img/card_backs/set2/pink.gif","img/card_backs/set2/orange.gif","img/card_backs/set2/gray.gif","""event"",""trial"",""time""
""fullscreenenter"",""1"",""7821""
","
","
","""event"",""trial"",""time""
""fullscreenenter"",""1"",""7821""
","
","","null","","null","","fixation","2021-07-14 05:42:32.318","","","","","",""
"card-selection-trial","85","417750","0.0-25.0-1.6","A121","true","img/card_backs/set1/purple.gif","img/card_backs/set1/green.gif","img/card_backs/set1/red.gif","img/card_backs/set1/yellow.gif","img/card_backs/set2/blue.gif","img/card_backs/set2/pink.gif","img/card_backs/set2/orange.gif","img/card_backs/set2/gray.gif","""event"",""trial"",""time""
""fullscreenenter"",""1"",""7821""
","
","
","""event"",""trial"",""time""
""fullscreenenter"",""1"",""7821""
","
","","756.3000000007451","","","","real_trial","2021-07-14 05:42:35.082","img/card_backs/set1/green.gif","1","-190","1","",""
"casino-fixation","86","418255","0.0-25.0-0.7","A121","true","img/card_backs/set1/purple.gif","img/card_backs/set1/green.gif","img/card_backs/set1/red.gif","img/card_backs/set1/yellow.gif","img/card_backs/set2/blue.gif","img/card_backs/set2/pink.gif","img/card_backs/set2/orange.gif","img/card_backs/set2/gray.gif","""event"",""trial"",""time""
""fullscreenenter"",""1"",""7821""
","
","
","""event"",""trial"",""time""
""fullscreenenter"",""1"",""7821""
","
","","null","","null","","fixation","2021-07-14 05:42:35.587","","","","","",""
"card-selection-trial","87","421448","0.0-25.0-1.7","A121","true","img/card_backs/set1/purple.gif","img/card_backs/set1/green.gif","img/card_backs/set1/red.gif","img/card_backs/set1/yellow.gif","img/card_backs/set2/blue.gif","img/card_backs/set2/pink.gif","img/card_backs/set2/orange.gif","img/card_backs/set2/gray.gif","""event"",""trial"",""time""
""fullscreenenter"",""1"",""7821""
","
","
","""event"",""trial"",""time""
""fullscreenenter"",""1"",""7821""
","
","","1183.300000000745","","","","real_trial","2021-07-14 05:42:38.780","img/card_backs/set1/green.gif","0","250","1","",""
"casino-fixation","88","421953","0.0-25.0-0.8","A121","true","img/card_backs/set1/purple.gif","img/card_backs/set1/green.gif","img/card_backs/set1/red.gif","img/card_backs/set1/yellow.gif","img/card_backs/set2/blue.gif","img/card_backs/set2/pink.gif","img/card_backs/set2/orange.gif","img/card_backs/set2/gray.gif","""event"",""trial"",""time""
""fullscreenenter"",""1"",""7821""
","
","
","""event"",""trial"",""time""
""fullscreenenter"",""1"",""7821""
","
","","null","","null","","fixation","2021-07-14 05:42:39.285","","","","","",""
"card-selection-trial","89","424977","0.0-25.0-1.8","A121","true","img/card_backs/set1/purple.gif","img/card_backs/set1/green.gif","img/card_backs/set1/red.gif","img/card_backs/set1/yellow.gif","img/card_backs/set2/blue.gif","img/card_backs/set2/pink.gif","img/card_backs/set2/orange.gif","img/card_backs/set2/gray.gif","""event"",""trial"",""time""
""fullscreenenter"",""1"",""7821""
","
","
","""event"",""trial"",""time""
""fullscreenenter"",""1"",""7821""
","
","","1014","","","","real_trial","2021-07-14 05:42:42.309","img/card_backs/set1/green.gif","3","-190","1","",""
"casino-fixation","90","425482","0.0-25.0-0.9","A121","true","img/card_backs/set1/purple.gif","img/card_backs/set1/green.gif","img/card_backs/set1/red.gif","img/card_backs/set1/yellow.gif","img/card_backs/set2/blue.gif","img/card_backs/set2/pink.gif","img/card_backs/set2/orange.gif","img/card_backs/set2/gray.gif","""event"",""trial"",""time""
""fullscreenenter"",""1"",""7821""
","
","
","""event"",""trial"",""time""
""fullscreenenter"",""1"",""7821""
","
","","null","","null","","fixation","2021-07-14 05:42:42.814","","","","","",""
"card-selection-trial","91","428779","0.0-25.0-1.9","A121","true","img/card_backs/set1/purple.gif","img/card_backs/set1/green.gif","img/card_backs/set1/red.gif","img/card_backs/set1/yellow.gif","img/card_backs/set2/blue.gif","img/card_backs/set2/pink.gif","img/card_backs/set2/orange.gif","img/card_backs/set2/gray.gif","""event"",""trial"",""time""
""fullscreenenter"",""1"",""7821""
","
","
","""event"",""trial"",""time""
""fullscreenenter"",""1"",""7821""
","
","","1286.5999999996275","","","","real_trial","2021-07-14 05:42:46.111","img/card_backs/set1/green.gif","3","-190","1","",""
"casino-fixation","92","429284","0.0-25.0-0.10","A121","true","img/card_backs/set1/purple.gif","img/card_backs/set1/green.gif","img/card_backs/set1/red.gif","img/card_backs/set1/yellow.gif","img/card_backs/set2/blue.gif","img/card_backs/set2/pink.gif","img/card_backs/set2/orange.gif","img/card_backs/set2/gray.gif","""event"",""trial"",""time""
""fullscreenenter"",""1"",""7821""
","
","
","""event"",""trial"",""time""
""fullscreenenter"",""1"",""7821""
","
","","null","","null","","fixation","2021-07-14 05:42:46.616","","","","","",""
"card-selection-trial","93","432924","0.0-25.0-1.10","A121","true","img/card_backs/set1/purple.gif","img/card_backs/set1/green.gif","img/card_backs/set1/red.gif","img/card_backs/set1/yellow.gif","img/card_backs/set2/blue.gif","img/card_backs/set2/pink.gif","img/card_backs/set2/orange.gif","img/card_backs/set2/gray.gif","""event"",""trial"",""time""
""fullscreenenter"",""1"",""7821""
","
","
","""event"",""trial"",""time""
""fullscreenenter"",""1"",""7821""
","
","","1633.9000000003725","","","","real_trial","2021-07-14 05:42:50.256","img/card_backs/set1/purple.gif","2","250","1","",""
"casino-fixation","94","433429","0.0-25.0-0.11","A121","true","img/card_backs/set1/purple.gif","img/card_backs/set1/green.gif","img/card_backs/set1/red.gif","img/card_backs/set1/yellow.gif","img/card_backs/set2/blue.gif","img/card_backs/set2/pink.gif","img/card_backs/set2/orange.gif","img/card_backs/set2/gray.gif","""event"",""trial"",""time""
""fullscreenenter"",""1"",""7821""
","
","
","""event"",""trial"",""time""
""fullscreenenter"",""1"",""7821""
","
","","null","","null","","fixation","2021-07-14 05:42:50.761","","","","","",""
"card-selection-trial","95","436593","0.0-25.0-1.11","A121","true","img/card_backs/set1/purple.gif","img/card_backs/set1/green.gif","img/card_backs/set1/red.gif","img/card_backs/set1/yellow.gif","img/card_backs/set2/blue.gif","img/card_backs/set2/pink.gif","img/card_backs/set2/orange.gif","img/card_backs/set2/gray.gif","""event"",""trial"",""time""
""fullscreenenter"",""1"",""7821""
","
","
","""event"",""trial"",""time""
""fullscreenenter"",""1"",""7821""
","
","","1153.6000000014901","","","","real_trial","2021-07-14 05:42:53.925","img/card_backs/set1/purple.gif","0","-200","1","",""
"casino-fixation","96","437095","0.0-25.0-0.12","A121","true","img/card_backs/set1/purple.gif","img/card_backs/set1/green.gif","img/card_backs/set1/red.gif","img/card_backs/set1/yellow.gif","img/card_backs/set2/blue.gif","img/card_backs/set2/pink.gif","img/card_backs/set2/orange.gif","img/card_backs/set2/gray.gif","""event"",""trial"",""time""
""fullscreenenter"",""1"",""7821""
","
","
","""event"",""trial"",""time""
""fullscreenenter"",""1"",""7821""
","
","","null","","null","","fixation","2021-07-14 05:42:54.427","","","","","",""
"card-selection-trial","97","440110","0.0-25.0-1.12","A121","true","img/card_backs/set1/purple.gif","img/card_backs/set1/green.gif","img/card_backs/set1/red.gif","img/card_backs/set1/yellow.gif","img/card_backs/set2/blue.gif","img/card_backs/set2/pink.gif","img/card_backs/set2/orange.gif","img/card_backs/set2/gray.gif","""event"",""trial"",""time""
""fullscreenenter"",""1"",""7821""
","
","
","""event"",""trial"",""time""
""fullscreenenter"",""1"",""7821""
","
","","1006.3000000007451","","","","real_trial","2021-07-14 05:42:57.444","img/card_backs/set1/green.gif","1","250","1","",""
"casino-fixation","98","440615","0.0-25.0-0.13","A121","true","img/card_backs/set1/purple.gif","img/card_backs/set1/green.gif","img/card_backs/set1/red.gif","img/card_backs/set1/yellow.gif","img/card_backs/set2/blue.gif","img/card_backs/set2/pink.gif","img/card_backs/set2/orange.gif","img/card_backs/set2/gray.gif","""event"",""trial"",""time""
""fullscreenenter"",""1"",""7821""
","
","
","""event"",""trial"",""time""
""fullscreenenter"",""1"",""7821""
","
","","null","","null","","fixation","2021-07-14 05:42:57.947","","","","","",""
"card-selection-trial","99","443077","0.0-25.0-1.13","A121","true","img/card_backs/set1/purple.gif","img/card_backs/set1/green.gif","img/card_backs/set1/red.gif","img/card_backs/set1/yellow.gif","img/card_backs/set2/blue.gif","img/card_backs/set2/pink.gif","img/card_backs/set2/orange.gif","img/card_backs/set2/gray.gif","""event"",""trial"",""time""
""fullscreenenter"",""1"",""7821""
","
","
","""event"",""trial"",""time""
""fullscreenenter"",""1"",""7821""
","
","","456.40000000037253","","","","real_trial","2021-07-14 05:43:00.409","img/card_backs/set1/purple.gif","1","-200","1","",""
"casino-fixation","100","443581","0.0-25.0-0.14","A121","true","img/card_backs/set1/purple.gif","img/card_backs/set1/green.gif","img/card_backs/set1/red.gif","img/card_backs/set1/yellow.gif","img/card_backs/set2/blue.gif","img/card_backs/set2/pink.gif","img/card_backs/set2/orange.gif","img/card_backs/set2/gray.gif","""event"",""trial"",""time""
""fullscreenenter"",""1"",""7821""
","
","
","""event"",""trial"",""time""
""fullscreenenter"",""1"",""7821""
","
","","null","","null","","fixation","2021-07-14 05:43:00.913","","","","","",""
"card-selection-trial","101","446519","0.0-25.0-1.14","A121","true","img/card_backs/set1/purple.gif","img/card_backs/set1/green.gif","img/card_backs/set1/red.gif","img/card_backs/set1/yellow.gif","img/card_backs/set2/blue.gif","img/card_backs/set2/pink.gif","img/card_backs/set2/orange.gif","img/card_backs/set2/gray.gif","""event"",""trial"",""time""
""fullscreenenter"",""1"",""7821""
","
","
","""event"",""trial"",""time""
""fullscreenenter"",""1"",""7821""
","
","","928.0999999996275","","","","real_trial","2021-07-14 05:43:03.851","img/card_backs/set1/green.gif","3","-210","1","",""
"casino-fixation","102","447024","0.0-25.0-0.15","A121","true","img/card_backs/set1/purple.gif","img/card_backs/set1/green.gif","img/card_backs/set1/red.gif","img/card_backs/set1/yellow.gif","img/card_backs/set2/blue.gif","img/card_backs/set2/pink.gif","img/card_backs/set2/orange.gif","img/card_backs/set2/gray.gif","""event"",""trial"",""time""
""fullscreenenter"",""1"",""7821""
","
","
","""event"",""trial"",""time""
""fullscreenenter"",""1"",""7821""
","
","","null","","null","","fixation","2021-07-14 05:43:04.356","","","","","",""
"card-selection-trial","103","450820","0.0-25.0-1.15","A121","true","img/card_backs/set1/purple.gif","img/card_backs/set1/green.gif","img/card_backs/set1/red.gif","img/card_backs/set1/yellow.gif","img/card_backs/set2/blue.gif","img/card_backs/set2/pink.gif","img/card_backs/set2/orange.gif","img/card_backs/set2/gray.gif","""event"",""trial"",""time""
""fullscreenenter"",""1"",""7821""
","
","
","""event"",""trial"",""time""
""fullscreenenter"",""1"",""7821""
","
","","1790.300000000745","","","","real_trial","2021-07-14 05:43:08.152","img/card_backs/set1/green.gif","1","260","1","",""
"casino-fixation","104","451325","0.0-25.0-0.16","A121","true","img/card_backs/set1/purple.gif","img/card_backs/set1/green.gif","img/card_backs/set1/red.gif","img/card_backs/set1/yellow.gif","img/card_backs/set2/blue.gif","img/card_backs/set2/pink.gif","img/card_backs/set2/orange.gif","img/card_backs/set2/gray.gif","""event"",""trial"",""time""
""fullscreenenter"",""1"",""7821""
","
","
","""event"",""trial"",""time""
""fullscreenenter"",""1"",""7821""
","
","","null","","null","","fixation","2021-07-14 05:43:08.657","","","","","",""
"card-selection-trial","105","454413","0.0-25.0-1.16","A121","true","img/card_backs/set1/purple.gif","img/card_backs/set1/green.gif","img/card_backs/set1/red.gif","img/card_backs/set1/yellow.gif","img/card_backs/set2/blue.gif","img/card_backs/set2/pink.gif","img/card_backs/set2/orange.gif","img/card_backs/set2/gray.gif","""event"",""trial"",""time""
""fullscreenenter"",""1"",""7821""
","
","
","""event"",""trial"",""time""
""fullscreenenter"",""1"",""7821""
","
","","1080.300000000745","","","","real_trial","2021-07-14 05:43:11.746","img/card_backs/set1/green.gif","0","240","1","",""
"casino-fixation","106","454918","0.0-25.0-0.17","A121","true","img/card_backs/set1/purple.gif","img/card_backs/set1/green.gif","img/card_backs/set1/red.gif","img/card_backs/set1/yellow.gif","img/card_backs/set2/blue.gif","img/card_backs/set2/pink.gif","img/card_backs/set2/orange.gif","img/card_backs/set2/gray.gif","""event"",""trial"",""time""
""fullscreenenter"",""1"",""7821""
","
","
","""event"",""trial"",""time""
""fullscreenenter"",""1"",""7821""
","
","","null","","null","","fixation","2021-07-14 05:43:12.250","","","","","",""
"card-selection-trial","107","459278","0.0-25.0-1.17","A121","true","img/card_backs/set1/purple.gif","img/card_backs/set1/green.gif","img/card_backs/set1/red.gif","img/card_backs/set1/yellow.gif","img/card_backs/set2/blue.gif","img/card_backs/set2/pink.gif","img/card_backs/set2/orange.gif","img/card_backs/set2/gray.gif","""event"",""trial"",""time""
""fullscreenenter"",""1"",""7821""
","
","
","""event"",""trial"",""time""
""fullscreenenter"",""1"",""7821""
","
","","2350.7999999988824","","","","real_trial","2021-07-14 05:43:16.610","img/card_backs/set1/yellow.gif","1","50","1","",""
"casino-fixation","108","459783","0.0-25.0-0.18","A121","true","img/card_backs/set1/purple.gif","img/card_backs/set1/green.gif","img/card_backs/set1/red.gif","img/card_backs/set1/yellow.gif","img/card_backs/set2/blue.gif","img/card_backs/set2/pink.gif","img/card_backs/set2/orange.gif","img/card_backs/set2/gray.gif","""event"",""trial"",""time""
""fullscreenenter"",""1"",""7821""
","
","
","""event"",""trial"",""time""
""fullscreenenter"",""1"",""7821""
","
","","null","","null","","fixation","2021-07-14 05:43:17.115","","","","","",""
"card-selection-trial","109","463556","0.0-25.0-1.18","A121","true","img/card_backs/set1/purple.gif","img/card_backs/set1/green.gif","img/card_backs/set1/red.gif","img/card_backs/set1/yellow.gif","img/card_backs/set2/blue.gif","img/card_backs/set2/pink.gif","img/card_backs/set2/orange.gif","img/card_backs/set2/gray.gif","""event"",""trial"",""time""
""fullscreenenter"",""1"",""7821""
","
","
","""event"",""trial"",""time""
""fullscreenenter"",""1"",""7821""
","
","","1766.800000000745","","","","real_trial","2021-07-14 05:43:20.888","img/card_backs/set1/green.gif","3","260","1","",""
"casino-fixation","110","464060","0.0-25.0-0.19","A121","true","img/card_backs/set1/purple.gif","img/card_backs/set1/green.gif","img/card_backs/set1/red.gif","img/card_backs/set1/yellow.gif","img/card_backs/set2/blue.gif","img/card_backs/set2/pink.gif","img/card_backs/set2/orange.gif","img/card_backs/set2/gray.gif","""event"",""trial"",""time""
""fullscreenenter"",""1"",""7821""
","
","
","""event"",""trial"",""time""
""fullscreenenter"",""1"",""7821""
","
","","null","","null","","fixation","2021-07-14 05:43:21.392","","","","","",""
"card-selection-trial","111","467325","0.0-25.0-1.19","A121","true","img/card_backs/set1/purple.gif","img/card_backs/set1/green.gif","img/card_backs/set1/red.gif","img/card_backs/set1/yellow.gif","img/card_backs/set2/blue.gif","img/card_backs/set2/pink.gif","img/card_backs/set2/orange.gif","img/card_backs/set2/gray.gif","""event"",""trial"",""time""
""fullscreenenter"",""1"",""7821""
","
","
","""event"",""trial"",""time""
""fullscreenenter"",""1"",""7821""
","
","","1256.9000000003725","","","","real_trial","2021-07-14 05:43:24.657","img/card_backs/set1/red.gif","1","-110","1","",""
"casino-fixation","112","467829","0.0-25.0-0.20","A121","true","img/card_backs/set1/purple.gif","img/card_backs/set1/green.gif","img/card_backs/set1/red.gif","img/card_backs/set1/yellow.gif","img/card_backs/set2/blue.gif","img/card_backs/set2/pink.gif","img/card_backs/set2/orange.gif","img/card_backs/set2/gray.gif","""event"",""trial"",""time""
""fullscreenenter"",""1"",""7821""
","
","
","""event"",""trial"",""time""
""fullscreenenter"",""1"",""7821""
","
","","null","","null","","fixation","2021-07-14 05:43:25.162","","","","","",""
"card-selection-trial","113","473331","0.0-25.0-1.20","A121","true","img/card_backs/set1/purple.gif","img/card_backs/set1/green.gif","img/card_backs/set1/red.gif","img/card_backs/set1/yellow.gif","img/card_backs/set2/blue.gif","img/card_backs/set2/pink.gif","img/card_backs/set2/orange.gif","img/card_backs/set2/gray.gif","""event"",""trial"",""time""
""fullscreenenter"",""1"",""7821""
","
","
","""event"",""trial"",""time""
""fullscreenenter"",""1"",""7821""
","
","","3495.4000000003725","","","","real_trial","2021-07-14 05:43:30.663","img/card_backs/set1/green.gif","2","240","1","",""
"casino-fixation","114","473836","0.0-25.0-0.21","A121","true","img/card_backs/set1/purple.gif","img/card_backs/set1/green.gif","img/card_backs/set1/red.gif","img/card_backs/set1/yellow.gif","img/card_backs/set2/blue.gif","img/card_backs/set2/pink.gif","img/card_backs/set2/orange.gif","img/card_backs/set2/gray.gif","""event"",""trial"",""time""
""fullscreenenter"",""1"",""7821""
","
","
","""event"",""trial"",""time""
""fullscreenenter"",""1"",""7821""
","
","","null","","null","","fixation","2021-07-14 05:43:31.168","","","","","",""
"card-selection-trial","115","477192","0.0-25.0-1.21","A121","true","img/card_backs/set1/purple.gif","img/card_backs/set1/green.gif","img/card_backs/set1/red.gif","img/card_backs/set1/yellow.gif","img/card_backs/set2/blue.gif","img/card_backs/set2/pink.gif","img/card_backs/set2/orange.gif","img/card_backs/set2/gray.gif","""event"",""trial"",""time""
""fullscreenenter"",""1"",""7821""
","
","
","""event"",""trial"",""time""
""fullscreenenter"",""1"",""7821""
","
","","1344.9000000003725","","","","real_trial","2021-07-14 05:43:34.524","img/card_backs/set1/yellow.gif","1","-100","1","",""
"casino-fixation","116","477696","0.0-25.0-0.22","A121","true","img/card_backs/set1/purple.gif","img/card_backs/set1/green.gif","img/card_backs/set1/red.gif","img/card_backs/set1/yellow.gif","img/card_backs/set2/blue.gif","img/card_backs/set2/pink.gif","img/card_backs/set2/orange.gif","img/card_backs/set2/gray.gif","""event"",""trial"",""time""
""fullscreenenter"",""1"",""7821""
","
","
","""event"",""trial"",""time""
""fullscreenenter"",""1"",""7821""
","
","","null","","null","","fixation","2021-07-14 05:43:35.028","","","","","",""
"card-selection-trial","117","481307","0.0-25.0-1.22","A121","true","img/card_backs/set1/purple.gif","img/card_backs/set1/green.gif","img/card_backs/set1/red.gif","img/card_backs/set1/yellow.gif","img/card_backs/set2/blue.gif","img/card_backs/set2/pink.gif","img/card_backs/set2/orange.gif","img/card_backs/set2/gray.gif","""event"",""trial"",""time""
""fullscreenenter"",""1"",""7821""
","
","
","""event"",""trial"",""time""
""fullscreenenter"",""1"",""7821""
","
","","1604.300000000745","","","","real_trial","2021-07-14 05:43:38.639","img/card_backs/set1/red.gif","2","60","1","",""
"casino-fixation","118","481812","0.0-25.0-0.23","A121","true","img/card_backs/set1/purple.gif","img/card_backs/set1/green.gif","img/card_backs/set1/red.gif","img/card_backs/set1/yellow.gif","img/card_backs/set2/blue.gif","img/card_backs/set2/pink.gif","img/card_backs/set2/orange.gif","img/card_backs/set2/gray.gif","""event"",""trial"",""time""
""fullscreenenter"",""1"",""7821""
","
","
","""event"",""trial"",""time""
""fullscreenenter"",""1"",""7821""
","
","","null","","null","","fixation","2021-07-14 05:43:39.144","","","","","",""
"card-selection-trial","119","484802","0.0-25.0-1.23","A121","true","img/card_backs/set1/purple.gif","img/card_backs/set1/green.gif","img/card_backs/set1/red.gif","img/card_backs/set1/yellow.gif","img/card_backs/set2/blue.gif","img/card_backs/set2/pink.gif","img/card_backs/set2/orange.gif","img/card_backs/set2/gray.gif","""event"",""trial"",""time""
""fullscreenenter"",""1"",""7821""
","
","
","""event"",""trial"",""time""
""fullscreenenter"",""1"",""7821""
","
","","983.5999999996275","","","","real_trial","2021-07-14 05:43:42.134","img/card_backs/set1/green.gif","0","250","1","",""
"casino-fixation","120","485307","0.0-25.0-0.24","A121","true","img/card_backs/set1/purple.gif","img/card_backs/set1/green.gif","img/card_backs/set1/red.gif","img/card_backs/set1/yellow.gif","img/card_backs/set2/blue.gif","img/card_backs/set2/pink.gif","img/card_backs/set2/orange.gif","img/card_backs/set2/gray.gif","""event"",""trial"",""time""
""fullscreenenter"",""1"",""7821""
","
","
","""event"",""trial"",""time""
""fullscreenenter"",""1"",""7821""
","
","","null","","null","","fixation","2021-07-14 05:43:42.639","","","","","",""
"card-selection-trial","121","488366","0.0-25.0-1.24","A121","true","img/card_backs/set1/purple.gif","img/card_backs/set1/green.gif","img/card_backs/set1/red.gif","img/card_backs/set1/yellow.gif","img/card_backs/set2/blue.gif","img/card_backs/set2/pink.gif","img/card_backs/set2/orange.gif","img/card_backs/set2/gray.gif","""event"",""trial"",""time""
""fullscreenenter"",""1"",""7821""
","
","
","""event"",""trial"",""time""
""fullscreenenter"",""1"",""7821""
","
","","1051.9000000003725","","","","real_trial","2021-07-14 05:43:45.698","img/card_backs/set1/red.gif","0","-100","1","",""
"casino-fixation","122","488871","0.0-25.0-0.25","A121","true","img/card_backs/set1/purple.gif","img/card_backs/set1/green.gif","img/card_backs/set1/red.gif","img/card_backs/set1/yellow.gif","img/card_backs/set2/blue.gif","img/card_backs/set2/pink.gif","img/card_backs/set2/orange.gif","img/card_backs/set2/gray.gif","""event"",""trial"",""time""
""fullscreenenter"",""1"",""7821""
","
","
","""event"",""trial"",""time""
""fullscreenenter"",""1"",""7821""
","
","","null","","null","","fixation","2021-07-14 05:43:46.203","","","","","",""
"card-selection-trial","123","491541","0.0-25.0-1.25","A121","true","img/card_backs/set1/purple.gif","img/card_backs/set1/green.gif","img/card_backs/set1/red.gif","img/card_backs/set1/yellow.gif","img/card_backs/set2/blue.gif","img/card_backs/set2/pink.gif","img/card_backs/set2/orange.gif","img/card_backs/set2/gray.gif","""event"",""trial"",""time""
""fullscreenenter"",""1"",""7821""
","
","
","""event"",""trial"",""time""
""fullscreenenter"",""1"",""7821""
","
","","661.5999999996275","","","","real_trial","2021-07-14 05:43:48.873","img/card_backs/set1/green.gif","2","-190","1","",""
"casino-fixation","124","492046","0.0-25.0-0.26","A121","true","img/card_backs/set1/purple.gif","img/card_backs/set1/green.gif","img/card_backs/set1/red.gif","img/card_backs/set1/yellow.gif","img/card_backs/set2/blue.gif","img/card_backs/set2/pink.gif","img/card_backs/set2/orange.gif","img/card_backs/set2/gray.gif","""event"",""trial"",""time""
""fullscreenenter"",""1"",""7821""
","
","
","""event"",""trial"",""time""
""fullscreenenter"",""1"",""7821""
","
","","null","","null","","fixation","2021-07-14 05:43:49.378","","","","","",""
"card-selection-trial","125","495262","0.0-25.0-1.26","A121","true","img/card_backs/set1/purple.gif","img/card_backs/set1/green.gif","img/card_backs/set1/red.gif","img/card_backs/set1/yellow.gif","img/card_backs/set2/blue.gif","img/card_backs/set2/pink.gif","img/card_backs/set2/orange.gif","img/card_backs/set2/gray.gif","""event"",""trial"",""time""
""fullscreenenter"",""1"",""7821""
","
","
","""event"",""trial"",""time""
""fullscreenenter"",""1"",""7821""
","
","","1208.699999999255","","","","real_trial","2021-07-14 05:43:52.594","img/card_backs/set1/red.gif","2","-110","1","",""
"casino-fixation","126","495767","0.0-25.0-0.27","A121","true","img/card_backs/set1/purple.gif","img/card_backs/set1/green.gif","img/card_backs/set1/red.gif","img/card_backs/set1/yellow.gif","img/card_backs/set2/blue.gif","img/card_backs/set2/pink.gif","img/card_backs/set2/orange.gif","img/card_backs/set2/gray.gif","""event"",""trial"",""time""
""fullscreenenter"",""1"",""7821""
","
","
","""event"",""trial"",""time""
""fullscreenenter"",""1"",""7821""
","
","","null","","null","","fixation","2021-07-14 05:43:53.099","","","","","",""
"card-selection-trial","127","500899","0.0-25.0-1.27","A121","true","img/card_backs/set1/purple.gif","img/card_backs/set1/green.gif","img/card_backs/set1/red.gif","img/card_backs/set1/yellow.gif","img/card_backs/set2/blue.gif","img/card_backs/set2/pink.gif","img/card_backs/set2/orange.gif","img/card_backs/set2/gray.gif","""event"",""trial"",""time""
""fullscreenenter"",""1"",""7821""
","
","
","""event"",""trial"",""time""
""fullscreenenter"",""1"",""7821""
","
","","3125.7000000011176","","","","real_trial","2021-07-14 05:43:58.231","img/card_backs/set1/green.gif","0","-190","1","",""
"casino-fixation","128","501403","0.0-25.0-0.28","A121","true","img/card_backs/set1/purple.gif","img/card_backs/set1/green.gif","img/card_backs/set1/red.gif","img/card_backs/set1/yellow.gif","img/card_backs/set2/blue.gif","img/card_backs/set2/pink.gif","img/card_backs/set2/orange.gif","img/card_backs/set2/gray.gif","""event"",""trial"",""time""
""fullscreenenter"",""1"",""7821""
","
","
","""event"",""trial"",""time""
""fullscreenenter"",""1"",""7821""
","
","","null","","null","","fixation","2021-07-14 05:43:58.735","","","","","",""
"card-selection-trial","129","506117","0.0-25.0-1.28","A121","true","img/card_backs/set1/purple.gif","img/card_backs/set1/green.gif","img/card_backs/set1/red.gif","img/card_backs/set1/yellow.gif","img/card_backs/set2/blue.gif","img/card_backs/set2/pink.gif","img/card_backs/set2/orange.gif","img/card_backs/set2/gray.gif","""event"",""trial"",""time""
""fullscreenenter"",""1"",""7821""
","
","
","""event"",""trial"",""time""
""fullscreenenter"",""1"",""7821""
","
","","2704.4000000003725","","","","real_trial","2021-07-14 05:44:03.449","img/card_backs/set1/purple.gif","2","260","1","",""
"casino-fixation","130","506621","0.0-25.0-0.29","A121","true","img/card_backs/set1/purple.gif","img/card_backs/set1/green.gif","img/card_backs/set1/red.gif","img/card_backs/set1/yellow.gif","img/card_backs/set2/blue.gif","img/card_backs/set2/pink.gif","img/card_backs/set2/orange.gif","img/card_backs/set2/gray.gif","""event"",""trial"",""time""
""fullscreenenter"",""1"",""7821""
","
","
","""event"",""trial"",""time""
""fullscreenenter"",""1"",""7821""
","
","","null","","null","","fixation","2021-07-14 05:44:03.953","","","","","",""
"card-selection-trial","131","509530","0.0-25.0-1.29","A121","true","img/card_backs/set1/purple.gif","img/card_backs/set1/green.gif","img/card_backs/set1/red.gif","img/card_backs/set1/yellow.gif","img/card_backs/set2/blue.gif","img/card_backs/set2/pink.gif","img/card_backs/set2/orange.gif","img/card_backs/set2/gray.gif","""event"",""trial"",""time""
""fullscreenenter"",""1"",""7821""
","
","
","""event"",""trial"",""time""
""fullscreenenter"",""1"",""7821""
","
","","902.7000000011176","","","","real_trial","2021-07-14 05:44:06.862","img/card_backs/set1/purple.gif","0","-190","1","",""
"casino-fixation","132","510035","0.0-25.0-0.30","A121","true","img/card_backs/set1/purple.gif","img/card_backs/set1/green.gif","img/card_backs/set1/red.gif","img/card_backs/set1/yellow.gif","img/card_backs/set2/blue.gif","img/card_backs/set2/pink.gif","img/card_backs/set2/orange.gif","img/card_backs/set2/gray.gif","""event"",""trial"",""time""
""fullscreenenter"",""1"",""7821""
","
","
","""event"",""trial"",""time""
""fullscreenenter"",""1"",""7821""
","
","","null","","null","","fixation","2021-07-14 05:44:07.367","","","","","",""
"card-selection-trial","133","513605","0.0-25.0-1.30","A121","true","img/card_backs/set1/purple.gif","img/card_backs/set1/green.gif","img/card_backs/set1/red.gif","img/card_backs/set1/yellow.gif","img/card_backs/set2/blue.gif","img/card_backs/set2/pink.gif","img/card_backs/set2/orange.gif","img/card_backs/set2/gray.gif","""event"",""trial"",""time""
""fullscreenenter"",""1"",""7821""
","
","
","""event"",""trial"",""time""
""fullscreenenter"",""1"",""7821""
","
","","1561.0999999996275","","","","real_trial","2021-07-14 05:44:10.937","img/card_backs/set1/green.gif","2","240","1","",""
"casino-fixation","134","514110","0.0-25.0-0.31","A121","true","img/card_backs/set1/purple.gif","img/card_backs/set1/green.gif","img/card_backs/set1/red.gif","img/card_backs/set1/yellow.gif","img/card_backs/set2/blue.gif","img/card_backs/set2/pink.gif","img/card_backs/set2/orange.gif","img/card_backs/set2/gray.gif","""event"",""trial"",""time""
""fullscreenenter"",""1"",""7821""
","
","
","""event"",""trial"",""time""
""fullscreenenter"",""1"",""7821""
","
","","null","","null","","fixation","2021-07-14 05:44:11.442","","","","","",""
"card-selection-trial","135","517036","0.0-25.0-1.31","A121","true","img/card_backs/set1/purple.gif","img/card_backs/set1/green.gif","img/card_backs/set1/red.gif","img/card_backs/set1/yellow.gif","img/card_backs/set2/blue.gif","img/card_backs/set2/pink.gif","img/card_backs/set2/orange.gif","img/card_backs/set2/gray.gif","""event"",""trial"",""time""
""fullscreenenter"",""1"",""7821""
","
","
","""event"",""trial"",""time""
""fullscreenenter"",""1"",""7821""
","
","","916.9000000003725","","","","real_trial","2021-07-14 05:44:14.368","img/card_backs/set1/green.gif","3","-190","1","",""
"casino-fixation","136","517541","0.0-25.0-0.32","A121","true","img/card_backs/set1/purple.gif","img/card_backs/set1/green.gif","img/card_backs/set1/red.gif","img/card_backs/set1/yellow.gif","img/card_backs/set2/blue.gif","img/card_backs/set2/pink.gif","img/card_backs/set2/orange.gif","img/card_backs/set2/gray.gif","""event"",""trial"",""time""
""fullscreenenter"",""1"",""7821""
","
","
","""event"",""trial"",""time""
""fullscreenenter"",""1"",""7821""
","
","","null","","null","","fixation","2021-07-14 05:44:14.873","","","","","",""
"card-selection-trial","137","522707","0.0-25.0-1.32","A121","true","img/card_backs/set1/purple.gif","img/card_backs/set1/green.gif","img/card_backs/set1/red.gif","img/card_backs/set1/yellow.gif","img/card_backs/set2/blue.gif","img/card_backs/set2/pink.gif","img/card_backs/set2/orange.gif","img/card_backs/set2/gray.gif","""event"",""trial"",""time""
""fullscreenenter"",""1"",""7821""
","
","
","""event"",""trial"",""time""
""fullscreenenter"",""1"",""7821""
","
","","3158.5999999996275","","","","real_trial","2021-07-14 05:44:20.039","img/card_backs/set1/red.gif","1","40","1","",""
"casino-fixation","138","523212","0.0-25.0-0.33","A121","true","img/card_backs/set1/purple.gif","img/card_backs/set1/green.gif","img/card_backs/set1/red.gif","img/card_backs/set1/yellow.gif","img/card_backs/set2/blue.gif","img/card_backs/set2/pink.gif","img/card_backs/set2/orange.gif","img/card_backs/set2/gray.gif","""event"",""trial"",""time""
""fullscreenenter"",""1"",""7821""
","
","
","""event"",""trial"",""time""
""fullscreenenter"",""1"",""7821""
","
","","null","","null","","fixation","2021-07-14 05:44:20.544","","","","","",""
"card-selection-trial","139","526596","0.0-25.0-1.33","A121","true","img/card_backs/set1/purple.gif","img/card_backs/set1/green.gif","img/card_backs/set1/red.gif","img/card_backs/set1/yellow.gif","img/card_backs/set2/blue.gif","img/card_backs/set2/pink.gif","img/card_backs/set2/orange.gif","img/card_backs/set2/gray.gif","""event"",""trial"",""time""
""fullscreenenter"",""1"",""7821""
","
","
","""event"",""trial"",""time""
""fullscreenenter"",""1"",""7821""
","
","","1375.800000000745","","","","real_trial","2021-07-14 05:44:23.928","img/card_backs/set1/green.gif","2","260","1","",""
"casino-fixation","140","527101","0.0-25.0-0.34","A121","true","img/card_backs/set1/purple.gif","img/card_backs/set1/green.gif","img/card_backs/set1/red.gif","img/card_backs/set1/yellow.gif","img/card_backs/set2/blue.gif","img/card_backs/set2/pink.gif","img/card_backs/set2/orange.gif","img/card_backs/set2/gray.gif","""event"",""trial"",""time""
""fullscreenenter"",""1"",""7821""
","
","
","""event"",""trial"",""time""
""fullscreenenter"",""1"",""7821""
","
","","null","","null","","fixation","2021-07-14 05:44:24.433","","","","","",""
"card-selection-trial","141","531507","0.0-25.0-1.34","A121","true","img/card_backs/set1/purple.gif","img/card_backs/set1/green.gif","img/card_backs/set1/red.gif","img/card_backs/set1/yellow.gif","img/card_backs/set2/blue.gif","img/card_backs/set2/pink.gif","img/card_backs/set2/orange.gif","img/card_backs/set2/gray.gif","""event"",""trial"",""time""
""fullscreenenter"",""1"",""7821""
","
","
","""event"",""trial"",""time""
""fullscreenenter"",""1"",""7821""
","
","","2398.7000000011176","","","","real_trial","2021-07-14 05:44:28.839","img/card_backs/set1/red.gif","0","-90","1","",""
"casino-fixation","142","532012","0.0-25.0-0.35","A121","true","img/card_backs/set1/purple.gif","img/card_backs/set1/green.gif","img/card_backs/set1/red.gif","img/card_backs/set1/yellow.gif","img/card_backs/set2/blue.gif","img/card_backs/set2/pink.gif","img/card_backs/set2/orange.gif","img/card_backs/set2/gray.gif","""event"",""trial"",""time""
""fullscreenenter"",""1"",""7821""
","
","
","""event"",""trial"",""time""
""fullscreenenter"",""1"",""7821""
","
","","null","","null","","fixation","2021-07-14 05:44:29.344","","","","","",""
"card-selection-trial","143","536534","0.0-25.0-1.35","A121","true","img/card_backs/set1/purple.gif","img/card_backs/set1/green.gif","img/card_backs/set1/red.gif","img/card_backs/set1/yellow.gif","img/card_backs/set2/blue.gif","img/card_backs/set2/pink.gif","img/card_backs/set2/orange.gif","img/card_backs/set2/gray.gif","""event"",""trial"",""time""
""fullscreenenter"",""1"",""7821""
","
","
","""event"",""trial"",""time""
""fullscreenenter"",""1"",""7821""
","
","","2513.4000000003725","","","","real_trial","2021-07-14 05:44:33.866","img/card_backs/set1/yellow.gif","0","-110","1","",""
"casino-fixation","144","537039","0.0-25.0-0.36","A121","true","img/card_backs/set1/purple.gif","img/card_backs/set1/green.gif","img/card_backs/set1/red.gif","img/card_backs/set1/yellow.gif","img/card_backs/set2/blue.gif","img/card_backs/set2/pink.gif","img/card_backs/set2/orange.gif","img/card_backs/set2/gray.gif","""event"",""trial"",""time""
""fullscreenenter"",""1"",""7821""
","
","
","""event"",""trial"",""time""
""fullscreenenter"",""1"",""7821""
","
","","null","","null","","fixation","2021-07-14 05:44:34.371","","","","","",""
"card-selection-trial","145","540546","0.0-25.0-1.36","A121","true","img/card_backs/set1/purple.gif","img/card_backs/set1/green.gif","img/card_backs/set1/red.gif","img/card_backs/set1/yellow.gif","img/card_backs/set2/blue.gif","img/card_backs/set2/pink.gif","img/card_backs/set2/orange.gif","img/card_backs/set2/gray.gif","""event"",""trial"",""time""
""fullscreenenter"",""1"",""7821""
","
","
","""event"",""trial"",""time""
""fullscreenenter"",""1"",""7821""
","
","","1499.9000000003725","","","","real_trial","2021-07-14 05:44:37.878","img/card_backs/set1/green.gif","0","-210","1","",""
"casino-fixation","146","541050","0.0-25.0-0.37","A121","true","img/card_backs/set1/purple.gif","img/card_backs/set1/green.gif","img/card_backs/set1/red.gif","img/card_backs/set1/yellow.gif","img/card_backs/set2/blue.gif","img/card_backs/set2/pink.gif","img/card_backs/set2/orange.gif","img/card_backs/set2/gray.gif","""event"",""trial"",""time""
""fullscreenenter"",""1"",""7821""
","
","
","""event"",""trial"",""time""
""fullscreenenter"",""1"",""7821""
","
","","null","","null","","fixation","2021-07-14 05:44:38.382","","","","","",""
"card-selection-trial","147","546524","0.0-25.0-1.37","A121","true","img/card_backs/set1/purple.gif","img/card_backs/set1/green.gif","img/card_backs/set1/red.gif","img/card_backs/set1/yellow.gif","img/card_backs/set2/blue.gif","img/card_backs/set2/pink.gif","img/card_backs/set2/orange.gif","img/card_backs/set2/gray.gif","""event"",""trial"",""time""
""fullscreenenter"",""1"",""7821""
","
","
","""event"",""trial"",""time""
""fullscreenenter"",""1"",""7821""
","
","","3464.9000000003725","","","","real_trial","2021-07-14 05:44:43.857","img/card_backs/set1/red.gif","3","-110","1","",""
"casino-fixation","148","547029","0.0-25.0-0.38","A121","true","img/card_backs/set1/purple.gif","img/card_backs/set1/green.gif","img/card_backs/set1/red.gif","img/card_backs/set1/yellow.gif","img/card_backs/set2/blue.gif","img/card_backs/set2/pink.gif","img/card_backs/set2/orange.gif","img/card_backs/set2/gray.gif","""event"",""trial"",""time""
""fullscreenenter"",""1"",""7821""
","
","
","""event"",""trial"",""time""
""fullscreenenter"",""1"",""7821""
","
","","null","","null","","fixation","2021-07-14 05:44:44.361","","","","","",""
"card-selection-trial","149","550042","0.0-25.0-1.38","A121","true","img/card_backs/set1/purple.gif","img/card_backs/set1/green.gif","img/card_backs/set1/red.gif","img/card_backs/set1/yellow.gif","img/card_backs/set2/blue.gif","img/card_backs/set2/pink.gif","img/card_backs/set2/orange.gif","img/card_backs/set2/gray.gif","""event"",""trial"",""time""
""fullscreenenter"",""1"",""7821""
","
","
","""event"",""trial"",""time""
""fullscreenenter"",""1"",""7821""
","
","","1005","","","","real_trial","2021-07-14 05:44:47.374","img/card_backs/set1/green.gif","2","260","1","",""
"casino-fixation","150","550547","0.0-25.0-0.39","A121","true","img/card_backs/set1/purple.gif","img/card_backs/set1/green.gif","img/card_backs/set1/red.gif","img/card_backs/set1/yellow.gif","img/card_backs/set2/blue.gif","img/card_backs/set2/pink.gif","img/card_backs/set2/orange.gif","img/card_backs/set2/gray.gif","""event"",""trial"",""time""
""fullscreenenter"",""1"",""7821""
","
","
","""event"",""trial"",""time""
""fullscreenenter"",""1"",""7821""
","
","","null","","null","","fixation","2021-07-14 05:44:47.879","","","","","",""
"card-selection-trial","151","552916","0.0-25.0-1.39","A121","true","img/card_backs/set1/purple.gif","img/card_backs/set1/green.gif","img/card_backs/set1/red.gif","img/card_backs/set1/yellow.gif","img/card_backs/set2/blue.gif","img/card_backs/set2/pink.gif","img/card_backs/set2/orange.gif","img/card_backs/set2/gray.gif","""event"",""trial"",""time""
""fullscreenenter"",""1"",""7821""
","
","
","""event"",""trial"",""time""
""fullscreenenter"",""1"",""7821""
","
","","362.6000000014901","","","","real_trial","2021-07-14 05:44:50.248","img/card_backs/set1/green.gif","2","260","1","",""
"casino-fixation","152","553420","0.0-25.0-0.40","A121","true","img/card_backs/set1/purple.gif","img/card_backs/set1/green.gif","img/card_backs/set1/red.gif","img/card_backs/set1/yellow.gif","img/card_backs/set2/blue.gif","img/card_backs/set2/pink.gif","img/card_backs/set2/orange.gif","img/card_backs/set2/gray.gif","""event"",""trial"",""time""
""fullscreenenter"",""1"",""7821""
","
","
","""event"",""trial"",""time""
""fullscreenenter"",""1"",""7821""
","
","","null","","null","","fixation","2021-07-14 05:44:50.752","","","","","",""
"card-selection-trial","153","555761","0.0-25.0-1.40","A121","true","img/card_backs/set1/purple.gif","img/card_backs/set1/green.gif","img/card_backs/set1/red.gif","img/card_backs/set1/yellow.gif","img/card_backs/set2/blue.gif","img/card_backs/set2/pink.gif","img/card_backs/set2/orange.gif","img/card_backs/set2/gray.gif","""event"",""trial"",""time""
""fullscreenenter"",""1"",""7821""
","
","
","""event"",""trial"",""time""
""fullscreenenter"",""1"",""7821""
","
","","334.09999999962747","","","","real_trial","2021-07-14 05:44:53.093","img/card_backs/set1/green.gif","2","-190","1","",""
"casino-fixation","154","556265","0.0-25.0-0.41","A121","true","img/card_backs/set1/purple.gif","img/card_backs/set1/green.gif","img/card_backs/set1/red.gif","img/card_backs/set1/yellow.gif","img/card_backs/set2/blue.gif","img/card_backs/set2/pink.gif","img/card_backs/set2/orange.gif","img/card_backs/set2/gray.gif","""event"",""trial"",""time""
""fullscreenenter"",""1"",""7821""
","
","
","""event"",""trial"",""time""
""fullscreenenter"",""1"",""7821""
","
","","null","","null","","fixation","2021-07-14 05:44:53.597","","","","","",""
"card-selection-trial","155","560841","0.0-25.0-1.41","A121","true","img/card_backs/set1/purple.gif","img/card_backs/set1/green.gif","img/card_backs/set1/red.gif","img/card_backs/set1/yellow.gif","img/card_backs/set2/blue.gif","img/card_backs/set2/pink.gif","img/card_backs/set2/orange.gif","img/card_backs/set2/gray.gif","""event"",""trial"",""time""
""fullscreenenter"",""1"",""7821""
","
","
","""event"",""trial"",""time""
""fullscreenenter"",""1"",""7821""
","
","","2569.699999999255","","","","real_trial","2021-07-14 05:44:58.174","img/card_backs/set1/yellow.gif","1","40","1","",""
"casino-fixation","156","561344","0.0-25.0-0.42","A121","true","img/card_backs/set1/purple.gif","img/card_backs/set1/green.gif","img/card_backs/set1/red.gif","img/card_backs/set1/yellow.gif","img/card_backs/set2/blue.gif","img/card_backs/set2/pink.gif","img/card_backs/set2/orange.gif","img/card_backs/set2/gray.gif","""event"",""trial"",""time""
""fullscreenenter"",""1"",""7821""
","
","
","""event"",""trial"",""time""
""fullscreenenter"",""1"",""7821""
","
","","null","","null","","fixation","2021-07-14 05:44:58.676","","","","","",""
"card-selection-trial","157","564572","0.0-25.0-1.42","A121","true","img/card_backs/set1/purple.gif","img/card_backs/set1/green.gif","img/card_backs/set1/red.gif","img/card_backs/set1/yellow.gif","img/card_backs/set2/blue.gif","img/card_backs/set2/pink.gif","img/card_backs/set2/orange.gif","img/card_backs/set2/gray.gif","""event"",""trial"",""time""
""fullscreenenter"",""1"",""7821""
","
","
","""event"",""trial"",""time""
""fullscreenenter"",""1"",""7821""
","
","","1218.7000000011176","","","","real_trial","2021-07-14 05:45:01.904","img/card_backs/set1/purple.gif","0","260","1","",""
"casino-fixation","158","565076","0.0-25.0-0.43","A121","true","img/card_backs/set1/purple.gif","img/card_backs/set1/green.gif","img/card_backs/set1/red.gif","img/card_backs/set1/yellow.gif","img/card_backs/set2/blue.gif","img/card_backs/set2/pink.gif","img/card_backs/set2/orange.gif","img/card_backs/set2/gray.gif","""event"",""trial"",""time""
""fullscreenenter"",""1"",""7821""
","
","
","""event"",""trial"",""time""
""fullscreenenter"",""1"",""7821""
","
","","null","","null","","fixation","2021-07-14 05:45:02.409","","","","","",""
"card-selection-trial","159","572629","0.0-25.0-1.43","A121","true","img/card_backs/set1/purple.gif","img/card_backs/set1/green.gif","img/card_backs/set1/red.gif","img/card_backs/set1/yellow.gif","img/card_backs/set2/blue.gif","img/card_backs/set2/pink.gif","img/card_backs/set2/orange.gif","img/card_backs/set2/gray.gif","""event"",""trial"",""time""
""fullscreenenter"",""1"",""7821""
","
","
","""event"",""trial"",""time""
""fullscreenenter"",""1"",""7821""
","
","","5541.699999999255","","","","real_trial","2021-07-14 05:45:09.961","img/card_backs/set1/yellow.gif","3","50","1","",""
"casino-fixation","160","573133","0.0-25.0-0.44","A121","true","img/card_backs/set1/purple.gif","img/card_backs/set1/green.gif","img/card_backs/set1/red.gif","img/card_backs/set1/yellow.gif","img/card_backs/set2/blue.gif","img/card_backs/set2/pink.gif","img/card_backs/set2/orange.gif","img/card_backs/set2/gray.gif","""event"",""trial"",""time""
""fullscreenenter"",""1"",""7821""
","
","
","""event"",""trial"",""time""
""fullscreenenter"",""1"",""7821""
","
","","null","","null","","fixation","2021-07-14 05:45:10.466","","","","","",""
"card-selection-trial","161","576123","0.0-25.0-1.44","A121","true","img/card_backs/set1/purple.gif","img/card_backs/set1/green.gif","img/card_backs/set1/red.gif","img/card_backs/set1/yellow.gif","img/card_backs/set2/blue.gif","img/card_backs/set2/pink.gif","img/card_backs/set2/orange.gif","img/card_backs/set2/gray.gif","""event"",""trial"",""time""
""fullscreenenter"",""1"",""7821""
","
","
","""event"",""trial"",""time""
""fullscreenenter"",""1"",""7821""
","
","","980.7000000011176","","","","real_trial","2021-07-14 05:45:13.455","img/card_backs/set1/green.gif","2","-190","1","",""
"casino-fixation","162","576628","0.0-25.0-0.45","A121","true","img/card_backs/set1/purple.gif","img/card_backs/set1/green.gif","img/card_backs/set1/red.gif","img/card_backs/set1/yellow.gif","img/card_backs/set2/blue.gif","img/card_backs/set2/pink.gif","img/card_backs/set2/orange.gif","img/card_backs/set2/gray.gif","""event"",""trial"",""time""
""fullscreenenter"",""1"",""7821""
","
","
","""event"",""trial"",""time""
""fullscreenenter"",""1"",""7821""
","
","","null","","null","","fixation","2021-07-14 05:45:13.960","","","","","",""
"card-selection-trial","163","580216","0.0-25.0-1.45","A121","true","img/card_backs/set1/purple.gif","img/card_backs/set1/green.gif","img/card_backs/set1/red.gif","img/card_backs/set1/yellow.gif","img/card_backs/set2/blue.gif","img/card_backs/set2/pink.gif","img/card_backs/set2/orange.gif","img/card_backs/set2/gray.gif","""event"",""trial"",""time""
""fullscreenenter"",""1"",""7821""
","
","
","""event"",""trial"",""time""
""fullscreenenter"",""1"",""7821""
","
","","1581.699999999255","","","","real_trial","2021-07-14 05:45:17.548","img/card_backs/set1/red.gif","1","50","1","",""
"casino-fixation","164","580720","0.0-25.0-0.46","A121","true","img/card_backs/set1/purple.gif","img/card_backs/set1/green.gif","img/card_backs/set1/red.gif","img/card_backs/set1/yellow.gif","img/card_backs/set2/blue.gif","img/card_backs/set2/pink.gif","img/card_backs/set2/orange.gif","img/card_backs/set2/gray.gif","""event"",""trial"",""time""
""fullscreenenter"",""1"",""7821""
","
","
","""event"",""trial"",""time""
""fullscreenenter"",""1"",""7821""
","
","","null","","null","","fixation","2021-07-14 05:45:18.052","","","","","",""
"card-selection-trial","165","584848","0.0-25.0-1.46","A121","true","img/card_backs/set1/purple.gif","img/card_backs/set1/green.gif","img/card_backs/set1/red.gif","img/card_backs/set1/yellow.gif","img/card_backs/set2/blue.gif","img/card_backs/set2/pink.gif","img/card_backs/set2/orange.gif","img/card_backs/set2/gray.gif","""event"",""trial"",""time""
""fullscreenenter"",""1"",""7821""
","
","
","""event"",""trial"",""time""
""fullscreenenter"",""1"",""7821""
","
","","2121.300000000745","","","","real_trial","2021-07-14 05:45:22.180","img/card_backs/set1/green.gif","0","-190","1","",""
"casino-fixation","166","585353","0.0-25.0-0.47","A121","true","img/card_backs/set1/purple.gif","img/card_backs/set1/green.gif","img/card_backs/set1/red.gif","img/card_backs/set1/yellow.gif","img/card_backs/set2/blue.gif","img/card_backs/set2/pink.gif","img/card_backs/set2/orange.gif","img/card_backs/set2/gray.gif","""event"",""trial"",""time""
""fullscreenenter"",""1"",""7821""
","
","
","""event"",""trial"",""time""
""fullscreenenter"",""1"",""7821""
","
","","null","","null","","fixation","2021-07-14 05:45:22.685","","","","","",""
"card-selection-trial","167","587872","0.0-25.0-1.47","A121","true","img/card_backs/set1/purple.gif","img/card_backs/set1/green.gif","img/card_backs/set1/red.gif","img/card_backs/set1/yellow.gif","img/card_backs/set2/blue.gif","img/card_backs/set2/pink.gif","img/card_backs/set2/orange.gif","img/card_backs/set2/gray.gif","""event"",""trial"",""time""
