"trial_type","trial_index","time_elapsed","internal_node_id","sub_id","risk_good_first","block1_A","block1_B","block1_C","block1_D","block2_A","block2_B","block2_C","block2_D","interactions","blur_events","focus_events","fullscreenenter_events","fullscreenexit_events","success","rt","stimulus","key_press","button_pressed","task_part","timestamp","card_choice","choice_position","points_earned","block","correct","response"
"pavlovia","0","7","0.0-0.0","979","false","img/card_backs/set1/yellow.gif","img/card_backs/set1/purple.gif","img/card_backs/set1/red.gif","img/card_backs/set1/green.gif","img/card_backs/set2/gray.gif","img/card_backs/set2/blue.gif","img/card_backs/set2/pink.gif","img/card_backs/set2/orange.gif","""event"",""trial"",""time""
""fullscreenenter"",""1"",""4830""
","
","
","""event"",""trial"",""time""
""fullscreenenter"",""1"",""4830""
","
","","","","","","","","","","","","",""
"fullscreen","1","5790","0.0-1.0","979","false","img/card_backs/set1/yellow.gif","img/card_backs/set1/purple.gif","img/card_backs/set1/red.gif","img/card_backs/set1/green.gif","img/card_backs/set2/gray.gif","img/card_backs/set2/blue.gif","img/card_backs/set2/pink.gif","img/card_backs/set2/orange.gif","""event"",""trial"",""time""
""fullscreenenter"",""1"",""4830""
","
","
","""event"",""trial"",""time""
""fullscreenenter"",""1"",""4830""
","
","true","","","","","","","","","","","",""
"audio-keyboard-response","2","7350","0.0-2.0","979","false","img/card_backs/set1/yellow.gif","img/card_backs/set1/purple.gif","img/card_backs/set1/red.gif","img/card_backs/set1/green.gif","img/card_backs/set2/gray.gif","img/card_backs/set2/blue.gif","img/card_backs/set2/pink.gif","img/card_backs/set2/orange.gif","""event"",""trial"",""time""
""fullscreenenter"",""1"",""4830""
","
","
","""event"",""trial"",""time""
""fullscreenenter"",""1"",""4830""
","
","","1501","audio/beep_loop.wav","32","","","","","","","","",""
"audio-button-response","3","9873","0.0-3.0","979","false","img/card_backs/set1/yellow.gif","img/card_backs/set1/purple.gif","img/card_backs/set1/red.gif","img/card_backs/set1/green.gif","img/card_backs/set2/gray.gif","img/card_backs/set2/blue.gif","img/card_backs/set2/pink.gif","img/card_backs/set2/orange.gif","""event"",""trial"",""time""
""fullscreenenter"",""1"",""4830""
","
","
","""event"",""trial"",""time""
""fullscreenenter"",""1"",""4830""
","
","","NaN","audio/turtle.mp3","","3","","","","","","","",""
"audio-button-response","4","12455","0.0-4.0","979","false","img/card_backs/set1/yellow.gif","img/card_backs/set1/purple.gif","img/card_backs/set1/red.gif","img/card_backs/set1/green.gif","img/card_backs/set2/gray.gif","img/card_backs/set2/blue.gif","img/card_backs/set2/pink.gif","img/card_backs/set2/orange.gif","""event"",""trial"",""time""
""fullscreenenter"",""1"",""4830""
","
","
","""event"",""trial"",""time""
""fullscreenenter"",""1"",""4830""
","
","","NaN","audio/shark.mp3","","2","","","","","","","",""
"fullscreen","5","16365","0.0-5.0","979","false","img/card_backs/set1/yellow.gif","img/card_backs/set1/purple.gif","img/card_backs/set1/red.gif","img/card_backs/set1/green.gif","img/card_backs/set2/gray.gif","img/card_backs/set2/blue.gif","img/card_backs/set2/pink.gif","img/card_backs/set2/orange.gif","""event"",""trial"",""time""
""fullscreenenter"",""1"",""4830""
","
","
","""event"",""trial"",""time""
""fullscreenenter"",""1"",""4830""
","
","true","","","","","","","","","","","",""
"casino-keyboard-response","6","20124","0.0-6.0-0.0","979","false","img/card_backs/set1/yellow.gif","img/card_backs/set1/purple.gif","img/card_backs/set1/red.gif","img/card_backs/set1/green.gif","img/card_backs/set2/gray.gif","img/card_backs/set2/blue.gif","img/card_backs/set2/pink.gif","img/card_backs/set2/orange.gif","""event"",""trial"",""time""
""fullscreenenter"",""1"",""4830""
","
","
","""event"",""trial"",""time""
""fullscreenenter"",""1"",""4830""
","
","","3750.100000143051","Welcome to the casino!","71","","instructions","2021-07-15 20:04:10.468","","","","","",""
"casino-keyboard-response","7","29861","0.0-6.0-0.1","979","false","img/card_backs/set1/yellow.gif","img/card_backs/set1/purple.gif","img/card_backs/set1/red.gif","img/card_backs/set1/green.gif","img/card_backs/set2/gray.gif","img/card_backs/set2/blue.gif","img/card_backs/set2/pink.gif","img/card_backs/set2/orange.gif","""event"",""trial"",""time""
""fullscreenenter"",""1"",""4830""
","
","
","""event"",""trial"",""time""
""fullscreenenter"",""1"",""4830""
","
","","9732.200000047684","Today you will be playing a game to earn tokens. </br> At the end of the experiment, you will be paid a bonus based on how many tokens you win. ","69","","instructions","2021-07-15 20:04:20.204","","","","","",""
"casino-keyboard-response","8","37315","0.0-6.0-0.2","979","false","img/card_backs/set1/yellow.gif","img/card_backs/set1/purple.gif","img/card_backs/set1/red.gif","img/card_backs/set1/green.gif","img/card_backs/set2/gray.gif","img/card_backs/set2/blue.gif","img/card_backs/set2/pink.gif","img/card_backs/set2/orange.gif","""event"",""trial"",""time""
""fullscreenenter"",""1"",""4830""
","
","
","""event"",""trial"",""time""
""fullscreenenter"",""1"",""4830""
","
","","7449.400000095367","On every turn, you will be shown four different decks of cards. </br> You need to select a card from one of the four decks.  ","75","","instructions","2021-07-15 20:04:27.659","","","","","",""
"casino-keyboard-response","9","42046","0.0-6.0-0.3","979","false","img/card_backs/set1/yellow.gif","img/card_backs/set1/purple.gif","img/card_backs/set1/red.gif","img/card_backs/set1/green.gif","img/card_backs/set2/gray.gif","img/card_backs/set2/blue.gif","img/card_backs/set2/pink.gif","img/card_backs/set2/orange.gif","""event"",""trial"",""time""
""fullscreenenter"",""1"",""4830""
","
","
","""event"",""trial"",""time""
""fullscreenenter"",""1"",""4830""
","
","","4725.5","On the next screen, you will see what the decks will look like. ","66","","instructions","2021-07-15 20:04:32.389","","","","","",""
"card-selection-trial","10","46058","0.0-7.0-0.0","979","false","img/card_backs/set1/yellow.gif","img/card_backs/set1/purple.gif","img/card_backs/set1/red.gif","img/card_backs/set1/green.gif","img/card_backs/set2/gray.gif","img/card_backs/set2/blue.gif","img/card_backs/set2/pink.gif","img/card_backs/set2/orange.gif","""event"",""trial"",""time""
""fullscreenenter"",""1"",""4830""
","
","
","""event"",""trial"",""time""
""fullscreenenter"",""1"",""4830""
","
","","null","","","","practice","2021-07-15 20:04:36.401","null","null","null","0","",""
"casino-keyboard-response","11","54163","0.0-8.0-0.0","979","false","img/card_backs/set1/yellow.gif","img/card_backs/set1/purple.gif","img/card_backs/set1/red.gif","img/card_backs/set1/green.gif","img/card_backs/set2/gray.gif","img/card_backs/set2/blue.gif","img/card_backs/set2/pink.gif","img/card_backs/set2/orange.gif","""event"",""trial"",""time""
""fullscreenenter"",""1"",""4830""
","
","
","""event"",""trial"",""time""
""fullscreenenter"",""1"",""4830""
","
","","8100.800000190735","You should pick a card from a deck using the '2', '4', '6', and '8' keys at the top of the keyboard.","85","","instructions","2021-07-15 20:04:44.506","","","","","",""
"casino-keyboard-response","12","59905","0.0-8.0-0.1","979","false","img/card_backs/set1/yellow.gif","img/card_backs/set1/purple.gif","img/card_backs/set1/red.gif","img/card_backs/set1/green.gif","img/card_backs/set2/gray.gif","img/card_backs/set2/blue.gif","img/card_backs/set2/pink.gif","img/card_backs/set2/orange.gif","""event"",""trial"",""time""
""fullscreenenter"",""1"",""4830""
","
","
","""event"",""trial"",""time""
""fullscreenenter"",""1"",""4830""
","
","","5741.299999952316","Once you select a card, it will turn over and you will see how many tokens you earned.","83","","instructions","2021-07-15 20:04:50.248","","","","","",""
"casino-keyboard-response","13","75223","0.0-8.0-0.2","979","false","img/card_backs/set1/yellow.gif","img/card_backs/set1/purple.gif","img/card_backs/set1/red.gif","img/card_backs/set1/green.gif","img/card_backs/set2/gray.gif","img/card_backs/set2/blue.gif","img/card_backs/set2/pink.gif","img/card_backs/set2/orange.gif","""event"",""trial"",""time""
""fullscreenenter"",""1"",""4830""
","
","
","""event"",""trial"",""time""
""fullscreenenter"",""1"",""4830""
","
","","15315.099999904633","Let's try practicing that! </br> First, try to put your fingers over the '2', '4', '6', and '8' keys. </br>  You can use whatever fingers are most comfortable for you. Try to find a comfortable position now. ","50","","instructions","2021-07-15 20:05:05.566","","","","","",""
"casino-keyboard-response","14","81136","0.0-8.0-0.3","979","false","img/card_backs/set1/yellow.gif","img/card_backs/set1/purple.gif","img/card_backs/set1/red.gif","img/card_backs/set1/green.gif","img/card_backs/set2/gray.gif","img/card_backs/set2/blue.gif","img/card_backs/set2/pink.gif","img/card_backs/set2/orange.gif","""event"",""trial"",""time""
""fullscreenenter"",""1"",""4830""
","
","
","""event"",""trial"",""time""
""fullscreenenter"",""1"",""4830""
","
","","5908.299999952316","Okay ready? </br> On the next screen, press '2' to select the left deck. ","50","","instructions","2021-07-15 20:05:11.479","","","","","",""
"card-selection-trial","15","84409","0.0-9.0-0.0","979","false","img/card_backs/set1/yellow.gif","img/card_backs/set1/purple.gif","img/card_backs/set1/red.gif","img/card_backs/set1/green.gif","img/card_backs/set2/gray.gif","img/card_backs/set2/blue.gif","img/card_backs/set2/pink.gif","img/card_backs/set2/orange.gif","""event"",""trial"",""time""
""fullscreenenter"",""1"",""4830""
","
","
","""event"",""trial"",""time""
""fullscreenenter"",""1"",""4830""
","
","","1233.2000000476837","","","","practice_card_selection","2021-07-15 20:05:14.753","img/practice_cards/backs/dark_green.gif","0","200","","",""
"casino-keyboard-response","16","90714","0.0-10.0-0.0","979","false","img/card_backs/set1/yellow.gif","img/card_backs/set1/purple.gif","img/card_backs/set1/red.gif","img/card_backs/set1/green.gif","img/card_backs/set2/gray.gif","img/card_backs/set2/blue.gif","img/card_backs/set2/pink.gif","img/card_backs/set2/orange.gif","""event"",""trial"",""time""
""fullscreenenter"",""1"",""4830""
","
","
","""event"",""trial"",""time""
""fullscreenenter"",""1"",""4830""
","
","","6299.5","Great! Now on the next screen, try pressing '6' to select the third deck.","54","","instructions","2021-07-15 20:05:21.057","","","","","",""
"card-selection-trial","17","93606","0.0-11.0-0.0","979","false","img/card_backs/set1/yellow.gif","img/card_backs/set1/purple.gif","img/card_backs/set1/red.gif","img/card_backs/set1/green.gif","img/card_backs/set2/gray.gif","img/card_backs/set2/blue.gif","img/card_backs/set2/pink.gif","img/card_backs/set2/orange.gif","""event"",""trial"",""time""
""fullscreenenter"",""1"",""4830""
","
","
","""event"",""trial"",""time""
""fullscreenenter"",""1"",""4830""
","
","","868.2000000476837","","","","practice_card_selection","2021-07-15 20:05:23.949","img/practice_cards/backs/brown.gif","2","100","","",""
"casino-keyboard-response","18","98437","0.0-12.0-0.0","979","false","img/card_backs/set1/yellow.gif","img/card_backs/set1/purple.gif","img/card_backs/set1/red.gif","img/card_backs/set1/green.gif","img/card_backs/set2/gray.gif","img/card_backs/set2/blue.gif","img/card_backs/set2/pink.gif","img/card_backs/set2/orange.gif","""event"",""trial"",""time""
""fullscreenenter"",""1"",""4830""
","
","
","""event"",""trial"",""time""
""fullscreenenter"",""1"",""4830""
","
","","4826.799999952316","Now on the next screen, try pressing '4' to select the second deck.","52","","instructions","2021-07-15 20:05:28.780","","","","","",""
"card-selection-trial","19","101435","0.0-13.0-0.0","979","false","img/card_backs/set1/yellow.gif","img/card_backs/set1/purple.gif","img/card_backs/set1/red.gif","img/card_backs/set1/green.gif","img/card_backs/set2/gray.gif","img/card_backs/set2/blue.gif","img/card_backs/set2/pink.gif","img/card_backs/set2/orange.gif","""event"",""trial"",""time""
""fullscreenenter"",""1"",""4830""
","
","
","""event"",""trial"",""time""
""fullscreenenter"",""1"",""4830""
","
","","981.5","","","","practice_card_selection","2021-07-15 20:05:31.778","img/practice_cards/backs/brown.gif","1","-100","","",""
"casino-keyboard-response","20","106026","0.0-14.0-0.0","979","false","img/card_backs/set1/yellow.gif","img/card_backs/set1/purple.gif","img/card_backs/set1/red.gif","img/card_backs/set1/green.gif","img/card_backs/set2/gray.gif","img/card_backs/set2/blue.gif","img/card_backs/set2/pink.gif","img/card_backs/set2/orange.gif","""event"",""trial"",""time""
""fullscreenenter"",""1"",""4830""
","
","
","""event"",""trial"",""time""
""fullscreenenter"",""1"",""4830""
","
","","4586.099999904633","Finally, try pressing '8' to select the deck all the way on the right.","56","","instructions","2021-07-15 20:05:36.369","","","","","",""
"card-selection-trial","21","108582","0.0-15.0-0.0","979","false","img/card_backs/set1/yellow.gif","img/card_backs/set1/purple.gif","img/card_backs/set1/red.gif","img/card_backs/set1/green.gif","img/card_backs/set2/gray.gif","img/card_backs/set2/blue.gif","img/card_backs/set2/pink.gif","img/card_backs/set2/orange.gif","""event"",""trial"",""time""
""fullscreenenter"",""1"",""4830""
","
","
","""event"",""trial"",""time""
""fullscreenenter"",""1"",""4830""
","
","","545.1000001430511","","","","practice_card_selection","2021-07-15 20:05:38.926","img/practice_cards/backs/brown.gif","3","100","","",""
"casino-keyboard-response","22","113828","0.0-16.0-0.0","979","false","img/card_backs/set1/yellow.gif","img/card_backs/set1/purple.gif","img/card_backs/set1/red.gif","img/card_backs/set1/green.gif","img/card_backs/set2/gray.gif","img/card_backs/set2/blue.gif","img/card_backs/set2/pink.gif","img/card_backs/set2/orange.gif","""event"",""trial"",""time""
""fullscreenenter"",""1"",""4830""
","
","
","""event"",""trial"",""time""
""fullscreenenter"",""1"",""4830""
","
","","5242.599999904633","Great! It seems like you are getting the hang of this.","80","","instructions","2021-07-15 20:05:44.171","","","","","",""
"casino-keyboard-response","23","121604","0.0-16.0-0.1","979","false","img/card_backs/set1/yellow.gif","img/card_backs/set1/purple.gif","img/card_backs/set1/red.gif","img/card_backs/set1/green.gif","img/card_backs/set2/gray.gif","img/card_backs/set2/blue.gif","img/card_backs/set2/pink.gif","img/card_backs/set2/orange.gif","""event"",""trial"",""time""
""fullscreenenter"",""1"",""4830""
","
","
","""event"",""trial"",""time""
""fullscreenenter"",""1"",""4830""
","
","","7772.200000047684","You may have noticed that some cards will cause you to <b> win </b> tokens while other cards will cause you to <b> lose </b>  tokens.","70","","instructions","2021-07-15 20:05:51.947","","","","","",""
"casino-keyboard-response","24","130631","0.0-16.0-0.2","979","false","img/card_backs/set1/yellow.gif","img/card_backs/set1/purple.gif","img/card_backs/set1/red.gif","img/card_backs/set1/green.gif","img/card_backs/set2/gray.gif","img/card_backs/set2/blue.gif","img/card_backs/set2/pink.gif","img/card_backs/set2/orange.gif","""event"",""trial"",""time""
""fullscreenenter"",""1"",""4830""
","
","
","""event"",""trial"",""time""
""fullscreenenter"",""1"",""4830""
","
","","9021.600000143051","Each deck has a mix of cards that will cause you to win and lose tokens. </br> However, the cards in each colored deck are different.","73","","instructions","2021-07-15 20:06:00.974","","","","","",""
"casino-keyboard-response","25","148854","0.0-16.0-0.3","979","false","img/card_backs/set1/yellow.gif","img/card_backs/set1/purple.gif","img/card_backs/set1/red.gif","img/card_backs/set1/green.gif","img/card_backs/set2/gray.gif","img/card_backs/set2/blue.gif","img/card_backs/set2/pink.gif","img/card_backs/set2/orange.gif","""event"",""trial"",""time""
""fullscreenenter"",""1"",""4830""
","
","
","""event"",""trial"",""time""
""fullscreenenter"",""1"",""4830""
","
","","18218","Some colored decks are luckier than others. </br> If you choose the lucky decks, you will earn more tokens than if you choose the unlucky decks.","69","","instructions","2021-07-15 20:06:19.197","","","","","",""
"casino-keyboard-response","26","156631","0.0-16.0-0.4","979","false","img/card_backs/set1/yellow.gif","img/card_backs/set1/purple.gif","img/card_backs/set1/red.gif","img/card_backs/set1/green.gif","img/card_backs/set2/gray.gif","img/card_backs/set2/blue.gif","img/card_backs/set2/pink.gif","img/card_backs/set2/orange.gif","""event"",""trial"",""time""
""fullscreenenter"",""1"",""4830""
","
","
","""event"",""trial"",""time""
""fullscreenenter"",""1"",""4830""
","
","","7772.699999809265","You should try to figure out which decks are lucky. </br> Then, try to choose the lucky decks so you can win the most tokens.","87","","instructions","2021-07-15 20:06:26.974","","","","","",""
"casino-keyboard-response","27","169695","0.0-16.0-0.5","979","false","img/card_backs/set1/yellow.gif","img/card_backs/set1/purple.gif","img/card_backs/set1/red.gif","img/card_backs/set1/green.gif","img/card_backs/set2/gray.gif","img/card_backs/set2/blue.gif","img/card_backs/set2/pink.gif","img/card_backs/set2/orange.gif","""event"",""trial"",""time""
""fullscreenenter"",""1"",""4830""
","
","
","""event"",""trial"",""time""
""fullscreenenter"",""1"",""4830""
","
","","13059.799999952316","To make it trickier, the casino dealer will switch the locations of the decks on every turn. </br> The color of the deck determines how lucky it is. The location does not matter.","88","","instructions","2021-07-15 20:06:40.039","","","","","",""
"casino-keyboard-response","28","179670","0.0-16.0-0.6","979","false","img/card_backs/set1/yellow.gif","img/card_backs/set1/purple.gif","img/card_backs/set1/red.gif","img/card_backs/set1/green.gif","img/card_backs/set2/gray.gif","img/card_backs/set2/blue.gif","img/card_backs/set2/pink.gif","img/card_backs/set2/orange.gif","""event"",""trial"",""time""
""fullscreenenter"",""1"",""4830""
","
","
","""event"",""trial"",""time""
""fullscreenenter"",""1"",""4830""
","
","","9969.899999856949","The mix of cards in each colored deck will stay the same throughout the game. </br> That means that a deck that is lucky early on will stay lucky.","79","","instructions","2021-07-15 20:06:50.013","","","","","",""
"casino-keyboard-response","29","188977","0.0-16.0-0.7","979","false","img/card_backs/set1/yellow.gif","img/card_backs/set1/purple.gif","img/card_backs/set1/red.gif","img/card_backs/set1/green.gif","img/card_backs/set2/gray.gif","img/card_backs/set2/blue.gif","img/card_backs/set2/pink.gif","img/card_backs/set2/orange.gif","""event"",""trial"",""time""
""fullscreenenter"",""1"",""4830""
","
","
","""event"",""trial"",""time""
""fullscreenenter"",""1"",""4830""
","
","","9303.700000047684","Remember though, all the decks have a <b> mix </b> of both <b> good </b> and <b> bad </b> cards so it may take a couple of turns to figure out if a deck is lucky.","69","","instructions","2021-07-15 20:06:59.320","","","","","",""
"casino-keyboard-response","30","199341","0.0-16.0-0.8","979","false","img/card_backs/set1/yellow.gif","img/card_backs/set1/purple.gif","img/card_backs/set1/red.gif","img/card_backs/set1/green.gif","img/card_backs/set2/gray.gif","img/card_backs/set2/blue.gif","img/card_backs/set2/pink.gif","img/card_backs/set2/orange.gif","""event"",""trial"",""time""
""fullscreenenter"",""1"",""4830""
","
","
","""event"",""trial"",""time""
""fullscreenenter"",""1"",""4830""
","
","","10359.900000095367","At the end of the game, you will be paid bonus money based on how many tokens you win. </br> If you win more tokens, you will earn more money!","72","","instructions","2021-07-15 20:07:09.685","","","","","",""
"casino-keyboard-response","31","211408","0.0-16.0-0.9","979","false","img/card_backs/set1/yellow.gif","img/card_backs/set1/purple.gif","img/card_backs/set1/red.gif","img/card_backs/set1/green.gif","img/card_backs/set2/gray.gif","img/card_backs/set2/blue.gif","img/card_backs/set2/pink.gif","img/card_backs/set2/orange.gif","""event"",""trial"",""time""
""fullscreenenter"",""1"",""4830""
","
","
","""event"",""trial"",""time""
""fullscreenenter"",""1"",""4830""
","
","","12060.5","You will never <b> lose </b> money. </br> If you end up with fewer than 0 tokens, you will earn $0 of bonus money, but you will still be paid for playing the game.","83","","instructions","2021-07-15 20:07:21.751","","","","","",""
"casino-keyboard-response","32","216335","0.0-16.0-0.10","979","false","img/card_backs/set1/yellow.gif","img/card_backs/set1/purple.gif","img/card_backs/set1/red.gif","img/card_backs/set1/green.gif","img/card_backs/set2/gray.gif","img/card_backs/set2/blue.gif","img/card_backs/set2/pink.gif","img/card_backs/set2/orange.gif","""event"",""trial"",""time""
""fullscreenenter"",""1"",""4830""
","
","
","""event"",""trial"",""time""
""fullscreenenter"",""1"",""4830""
","
","","4922.5","You will have 10 seconds to make each choice.","82","","instructions","2021-07-15 20:07:26.678","","","","","",""
"casino-keyboard-response","33","225900","0.0-16.0-0.11","979","false","img/card_backs/set1/yellow.gif","img/card_backs/set1/purple.gif","img/card_backs/set1/red.gif","img/card_backs/set1/green.gif","img/card_backs/set2/gray.gif","img/card_backs/set2/blue.gif","img/card_backs/set2/pink.gif","img/card_backs/set2/orange.gif","""event"",""trial"",""time""
""fullscreenenter"",""1"",""4830""
","
","
","""event"",""trial"",""time""
""fullscreenenter"",""1"",""4830""
","
","","9555.799999952316","Before you play the game for real, you will play with practice decks. </br> The tokens you earn during practice won't count toward your total.","86","","instructions","2021-07-15 20:07:36.243","","","","","",""
"casino-keyboard-response","34","237622","0.0-16.0-0.12","979","false","img/card_backs/set1/yellow.gif","img/card_backs/set1/purple.gif","img/card_backs/set1/red.gif","img/card_backs/set1/green.gif","img/card_backs/set2/gray.gif","img/card_backs/set2/blue.gif","img/card_backs/set2/pink.gif","img/card_backs/set2/orange.gif","""event"",""trial"",""time""
""fullscreenenter"",""1"",""4830""
","
","
","""event"",""trial"",""time""
""fullscreenenter"",""1"",""4830""
","
","","11717.700000047684","Ready? Remember, use the '2', '4', '6', and '8' keys to select the decks. </br> Put your fingers on those keys now and then press '2' to begin.","50","","instructions","2021-07-15 20:07:47.965","","","","","",""
"casino-fixation","35","238133","0.0-17.0-0.0","979","false","img/card_backs/set1/yellow.gif","img/card_backs/set1/purple.gif","img/card_backs/set1/red.gif","img/card_backs/set1/green.gif","img/card_backs/set2/gray.gif","img/card_backs/set2/blue.gif","img/card_backs/set2/pink.gif","img/card_backs/set2/orange.gif","""event"",""trial"",""time""
""fullscreenenter"",""1"",""4830""
","
","
","""event"",""trial"",""time""
""fullscreenenter"",""1"",""4830""
","
","","null","","null","","fixation","2021-07-15 20:07:48.476","","","","","",""
"card-selection-trial","36","242803","0.0-17.0-1.0","979","false","img/card_backs/set1/yellow.gif","img/card_backs/set1/purple.gif","img/card_backs/set1/red.gif","img/card_backs/set1/green.gif","img/card_backs/set2/gray.gif","img/card_backs/set2/blue.gif","img/card_backs/set2/pink.gif","img/card_backs/set2/orange.gif","""event"",""trial"",""time""
""fullscreenenter"",""1"",""4830""
","
","
","""event"",""trial"",""time""
""fullscreenenter"",""1"",""4830""
","
","","2651","","","","practice","2021-07-15 20:07:53.146","img/practice_cards/backs/dark_green.gif","1","200","0","",""
"casino-fixation","37","243310","0.0-17.0-0.1","979","false","img/card_backs/set1/yellow.gif","img/card_backs/set1/purple.gif","img/card_backs/set1/red.gif","img/card_backs/set1/green.gif","img/card_backs/set2/gray.gif","img/card_backs/set2/blue.gif","img/card_backs/set2/pink.gif","img/card_backs/set2/orange.gif","""event"",""trial"",""time""
""fullscreenenter"",""1"",""4830""
","
","
","""event"",""trial"",""time""
""fullscreenenter"",""1"",""4830""
","
","","null","","null","","fixation","2021-07-15 20:07:53.653","","","","","",""
"card-selection-trial","38","246475","0.0-17.0-1.1","979","false","img/card_backs/set1/yellow.gif","img/card_backs/set1/purple.gif","img/card_backs/set1/red.gif","img/card_backs/set1/green.gif","img/card_backs/set2/gray.gif","img/card_backs/set2/blue.gif","img/card_backs/set2/pink.gif","img/card_backs/set2/orange.gif","""event"",""trial"",""time""
""fullscreenenter"",""1"",""4830""
","
","
","""event"",""trial"",""time""
""fullscreenenter"",""1"",""4830""
","
","","1151.1000001430511","","","","practice","2021-07-15 20:07:56.818","img/practice_cards/backs/black.gif","2","-100","0","",""
"casino-fixation","39","246979","0.0-17.0-0.2","979","false","img/card_backs/set1/yellow.gif","img/card_backs/set1/purple.gif","img/card_backs/set1/red.gif","img/card_backs/set1/green.gif","img/card_backs/set2/gray.gif","img/card_backs/set2/blue.gif","img/card_backs/set2/pink.gif","img/card_backs/set2/orange.gif","""event"",""trial"",""time""
""fullscreenenter"",""1"",""4830""
","
","
","""event"",""trial"",""time""
""fullscreenenter"",""1"",""4830""
","
","","null","","null","","fixation","2021-07-15 20:07:57.323","","","","","",""
"card-selection-trial","40","250413","0.0-17.0-1.2","979","false","img/card_backs/set1/yellow.gif","img/card_backs/set1/purple.gif","img/card_backs/set1/red.gif","img/card_backs/set1/green.gif","img/card_backs/set2/gray.gif","img/card_backs/set2/blue.gif","img/card_backs/set2/pink.gif","img/card_backs/set2/orange.gif","""event"",""trial"",""time""
""fullscreenenter"",""1"",""4830""
","
","
","""event"",""trial"",""time""
""fullscreenenter"",""1"",""4830""
","
","","1418.1000001430511","","","","practice","2021-07-15 20:08:00.756","img/practice_cards/backs/black.gif","1","100","0","",""
"casino-fixation","41","250923","0.0-17.0-0.3","979","false","img/card_backs/set1/yellow.gif","img/card_backs/set1/purple.gif","img/card_backs/set1/red.gif","img/card_backs/set1/green.gif","img/card_backs/set2/gray.gif","img/card_backs/set2/blue.gif","img/card_backs/set2/pink.gif","img/card_backs/set2/orange.gif","""event"",""trial"",""time""
""fullscreenenter"",""1"",""4830""
","
","
","""event"",""trial"",""time""
""fullscreenenter"",""1"",""4830""
","
","","null","","null","","fixation","2021-07-15 20:08:01.266","","","","","",""
"card-selection-trial","42","253709","0.0-17.0-1.3","979","false","img/card_backs/set1/yellow.gif","img/card_backs/set1/purple.gif","img/card_backs/set1/red.gif","img/card_backs/set1/green.gif","img/card_backs/set2/gray.gif","img/card_backs/set2/blue.gif","img/card_backs/set2/pink.gif","img/card_backs/set2/orange.gif","""event"",""trial"",""time""
""fullscreenenter"",""1"",""4830""
","
","
","""event"",""trial"",""time""
""fullscreenenter"",""1"",""4830""
","
","","767.2999999523163","","","","practice","2021-07-15 20:08:04.052","img/practice_cards/backs/dark_blue.gif","1","-200","0","",""
"casino-fixation","43","254218","0.0-17.0-0.4","979","false","img/card_backs/set1/yellow.gif","img/card_backs/set1/purple.gif","img/card_backs/set1/red.gif","img/card_backs/set1/green.gif","img/card_backs/set2/gray.gif","img/card_backs/set2/blue.gif","img/card_backs/set2/pink.gif","img/card_backs/set2/orange.gif","""event"",""trial"",""time""
""fullscreenenter"",""1"",""4830""
","
","
","""event"",""trial"",""time""
""fullscreenenter"",""1"",""4830""
","
","","null","","null","","fixation","2021-07-15 20:08:04.561","","","","","",""
"card-selection-trial","44","257365","0.0-17.0-1.4","979","false","img/card_backs/set1/yellow.gif","img/card_backs/set1/purple.gif","img/card_backs/set1/red.gif","img/card_backs/set1/green.gif","img/card_backs/set2/gray.gif","img/card_backs/set2/blue.gif","img/card_backs/set2/pink.gif","img/card_backs/set2/orange.gif","""event"",""trial"",""time""
""fullscreenenter"",""1"",""4830""
","
","
","""event"",""trial"",""time""
""fullscreenenter"",""1"",""4830""
","
","","1128.2999999523163","","","","practice","2021-07-15 20:08:07.708","img/practice_cards/backs/black.gif","2","100","0","",""
"casino-fixation","45","257870","0.0-17.0-0.5","979","false","img/card_backs/set1/yellow.gif","img/card_backs/set1/purple.gif","img/card_backs/set1/red.gif","img/card_backs/set1/green.gif","img/card_backs/set2/gray.gif","img/card_backs/set2/blue.gif","img/card_backs/set2/pink.gif","img/card_backs/set2/orange.gif","""event"",""trial"",""time""
""fullscreenenter"",""1"",""4830""
","
","
","""event"",""trial"",""time""
""fullscreenenter"",""1"",""4830""
","
","","null","","null","","fixation","2021-07-15 20:08:08.213","","","","","",""
"card-selection-trial","46","261004","0.0-17.0-1.5","979","false","img/card_backs/set1/yellow.gif","img/card_backs/set1/purple.gif","img/card_backs/set1/red.gif","img/card_backs/set1/green.gif","img/card_backs/set2/gray.gif","img/card_backs/set2/blue.gif","img/card_backs/set2/pink.gif","img/card_backs/set2/orange.gif","""event"",""trial"",""time""
""fullscreenenter"",""1"",""4830""
","
","
","""event"",""trial"",""time""
""fullscreenenter"",""1"",""4830""
","
","","1117.7999999523163","","","","practice","2021-07-15 20:08:11.347","img/practice_cards/backs/black.gif","3","100","0","",""
"casino-fixation","47","261508","0.0-17.0-0.6","979","false","img/card_backs/set1/yellow.gif","img/card_backs/set1/purple.gif","img/card_backs/set1/red.gif","img/card_backs/set1/green.gif","img/card_backs/set2/gray.gif","img/card_backs/set2/blue.gif","img/card_backs/set2/pink.gif","img/card_backs/set2/orange.gif","""event"",""trial"",""time""
""fullscreenenter"",""1"",""4830""
","
","
","""event"",""trial"",""time""
""fullscreenenter"",""1"",""4830""
","
","","null","","null","","fixation","2021-07-15 20:08:11.851","","","","","",""
"card-selection-trial","48","264740","0.0-17.0-1.6","979","false","img/card_backs/set1/yellow.gif","img/card_backs/set1/purple.gif","img/card_backs/set1/red.gif","img/card_backs/set1/green.gif","img/card_backs/set2/gray.gif","img/card_backs/set2/blue.gif","img/card_backs/set2/pink.gif","img/card_backs/set2/orange.gif","""event"",""trial"",""time""
""fullscreenenter"",""1"",""4830""
","
","
","""event"",""trial"",""time""
""fullscreenenter"",""1"",""4830""
","
","","1219.8999998569489","","","","practice","2021-07-15 20:08:15.083","img/practice_cards/backs/black.gif","1","100","0","",""
"casino-fixation","49","265247","0.0-17.0-0.7","979","false","img/card_backs/set1/yellow.gif","img/card_backs/set1/purple.gif","img/card_backs/set1/red.gif","img/card_backs/set1/green.gif","img/card_backs/set2/gray.gif","img/card_backs/set2/blue.gif","img/card_backs/set2/pink.gif","img/card_backs/set2/orange.gif","""event"",""trial"",""time""
""fullscreenenter"",""1"",""4830""
","
","
","""event"",""trial"",""time""
""fullscreenenter"",""1"",""4830""
","
","","null","","null","","fixation","2021-07-15 20:08:15.590","","","","","",""
"card-selection-trial","50","268837","0.0-17.0-1.7","979","false","img/card_backs/set1/yellow.gif","img/card_backs/set1/purple.gif","img/card_backs/set1/red.gif","img/card_backs/set1/green.gif","img/card_backs/set2/gray.gif","img/card_backs/set2/blue.gif","img/card_backs/set2/pink.gif","img/card_backs/set2/orange.gif","""event"",""trial"",""time""
""fullscreenenter"",""1"",""4830""
","
","
","""event"",""trial"",""time""
""fullscreenenter"",""1"",""4830""
","
","","1578.5","","","","practice","2021-07-15 20:08:19.180","img/practice_cards/backs/black.gif","2","-100","0","",""
"casino-fixation","51","269342","0.0-17.0-0.8","979","false","img/card_backs/set1/yellow.gif","img/card_backs/set1/purple.gif","img/card_backs/set1/red.gif","img/card_backs/set1/green.gif","img/card_backs/set2/gray.gif","img/card_backs/set2/blue.gif","img/card_backs/set2/pink.gif","img/card_backs/set2/orange.gif","""event"",""trial"",""time""
""fullscreenenter"",""1"",""4830""
","
","
","""event"",""trial"",""time""
""fullscreenenter"",""1"",""4830""
","
","","null","","null","","fixation","2021-07-15 20:08:19.686","","","","","",""
"card-selection-trial","52","272143","0.0-17.0-1.8","979","false","img/card_backs/set1/yellow.gif","img/card_backs/set1/purple.gif","img/card_backs/set1/red.gif","img/card_backs/set1/green.gif","img/card_backs/set2/gray.gif","img/card_backs/set2/blue.gif","img/card_backs/set2/pink.gif","img/card_backs/set2/orange.gif","""event"",""trial"",""time""
""fullscreenenter"",""1"",""4830""
","
","
","""event"",""trial"",""time""
""fullscreenenter"",""1"",""4830""
","
","","788.5","","","","practice","2021-07-15 20:08:22.487","img/practice_cards/backs/brown.gif","0","100","0","",""
"casino-fixation","53","272649","0.0-17.0-0.9","979","false","img/card_backs/set1/yellow.gif","img/card_backs/set1/purple.gif","img/card_backs/set1/red.gif","img/card_backs/set1/green.gif","img/card_backs/set2/gray.gif","img/card_backs/set2/blue.gif","img/card_backs/set2/pink.gif","img/card_backs/set2/orange.gif","""event"",""trial"",""time""
""fullscreenenter"",""1"",""4830""
","
","
","""event"",""trial"",""time""
""fullscreenenter"",""1"",""4830""
","
","","null","","null","","fixation","2021-07-15 20:08:22.992","","","","","",""
"card-selection-trial","54","275968","0.0-17.0-1.9","979","false","img/card_backs/set1/yellow.gif","img/card_backs/set1/purple.gif","img/card_backs/set1/red.gif","img/card_backs/set1/green.gif","img/card_backs/set2/gray.gif","img/card_backs/set2/blue.gif","img/card_backs/set2/pink.gif","img/card_backs/set2/orange.gif","""event"",""trial"",""time""
""fullscreenenter"",""1"",""4830""
","
","
","""event"",""trial"",""time""
""fullscreenenter"",""1"",""4830""
","
","","1306.5999999046326","","","","practice","2021-07-15 20:08:26.311","img/practice_cards/backs/brown.gif","3","100","0","",""
"casino-keyboard-response","55","279583","0.0-18.0","979","false","img/card_backs/set1/yellow.gif","img/card_backs/set1/purple.gif","img/card_backs/set1/red.gif","img/card_backs/set1/green.gif","img/card_backs/set2/gray.gif","img/card_backs/set2/blue.gif","img/card_backs/set2/pink.gif","img/card_backs/set2/orange.gif","""event"",""trial"",""time""
""fullscreenenter"",""1"",""4830""
","
","
","""event"",""trial"",""time""
""fullscreenenter"",""1"",""4830""
","
","","3611.5999999046326","You earned 400 tokens during the practice round!","82","","","2021-07-15 20:08:29.927","","","","","",""
"casino-keyboard-response","56","284334","0.0-19.0-0.0","979","false","img/card_backs/set1/yellow.gif","img/card_backs/set1/purple.gif","img/card_backs/set1/red.gif","img/card_backs/set1/green.gif","img/card_backs/set2/gray.gif","img/card_backs/set2/blue.gif","img/card_backs/set2/pink.gif","img/card_backs/set2/orange.gif","""event"",""trial"",""time""
""fullscreenenter"",""1"",""4830""
","
","
","""event"",""trial"",""time""
""fullscreenenter"",""1"",""4830""
","
","","4745.299999952316","Nice job! You are almost ready to play the real game.","86","","instructions","2021-07-15 20:08:34.677","","","","","",""
"casino-keyboard-response","57","292072","0.0-19.0-0.1","979","false","img/card_backs/set1/yellow.gif","img/card_backs/set1/purple.gif","img/card_backs/set1/red.gif","img/card_backs/set1/green.gif","img/card_backs/set2/gray.gif","img/card_backs/set2/blue.gif","img/card_backs/set2/pink.gif","img/card_backs/set2/orange.gif","""event"",""trial"",""time""
""fullscreenenter"",""1"",""4830""
","
","
","""event"",""trial"",""time""
""fullscreenenter"",""1"",""4830""
","
","","7733.700000047684","You will play two rounds of the real game. In each round, you will pick 100 cards in total.","73","","instructions","2021-07-15 20:08:42.415","","","","","",""
"casino-keyboard-response","58","297119","0.0-19.0-0.2","979","false","img/card_backs/set1/yellow.gif","img/card_backs/set1/purple.gif","img/card_backs/set1/red.gif","img/card_backs/set1/green.gif","img/card_backs/set2/gray.gif","img/card_backs/set2/blue.gif","img/card_backs/set2/pink.gif","img/card_backs/set2/orange.gif","""event"",""trial"",""time""
""fullscreenenter"",""1"",""4830""
","
","
","""event"",""trial"",""time""
""fullscreenenter"",""1"",""4830""
","
","","5042","We are now going to ask you some questions about how the game works.","66","","instructions","2021-07-15 20:08:47.463","","","","","",""
"casino-keyboard-response","59","304216","0.0-19.0-0.3","979","false","img/card_backs/set1/yellow.gif","img/card_backs/set1/purple.gif","img/card_backs/set1/red.gif","img/card_backs/set1/green.gif","img/card_backs/set2/gray.gif","img/card_backs/set2/blue.gif","img/card_backs/set2/pink.gif","img/card_backs/set2/orange.gif","""event"",""trial"",""time""
""fullscreenenter"",""1"",""4830""
","
","
","""event"",""trial"",""time""
""fullscreenenter"",""1"",""4830""
","
","","7089.799999952316","Answer carefully. You will not be able to begin the game until you answer them correctly.","67","","instructions","2021-07-15 20:08:54.559","","","","","",""
"casino-comp_q","60","310951","0.0-20.0-0.0","979","false","img/card_backs/set1/yellow.gif","img/card_backs/set1/purple.gif","img/card_backs/set1/red.gif","img/card_backs/set1/green.gif","img/card_backs/set2/gray.gif","img/card_backs/set2/blue.gif","img/card_backs/set2/pink.gif","img/card_backs/set2/orange.gif","""event"",""trial"",""time""
""fullscreenenter"",""1"",""4830""
","
","
","""event"",""trial"",""time""
""fullscreenenter"",""1"",""4830""
","
","","6733","True or False: All the decks have some cards that cause you to win tokens and some cards that cause you to lose tokens.","84","","","2021-07-15 20:09:01.295","","","","","",""
"casino-keyboard-response","61","314173","0.0-20.0-1.0","979","false","img/card_backs/set1/yellow.gif","img/card_backs/set1/purple.gif","img/card_backs/set1/red.gif","img/card_backs/set1/green.gif","img/card_backs/set2/gray.gif","img/card_backs/set2/blue.gif","img/card_backs/set2/pink.gif","img/card_backs/set2/orange.gif","""event"",""trial"",""time""
""fullscreenenter"",""1"",""4830""
","
","
","""event"",""trial"",""time""
""fullscreenenter"",""1"",""4830""
","
","","3215.9000000953674","True is correct! All the decks have a mix of winning and losing cards.","77","","","2021-07-15 20:09:04.517","","","","","true",""
"casino-comp_q","62","318259","0.0-21.0-0.0","979","false","img/card_backs/set1/yellow.gif","img/card_backs/set1/purple.gif","img/card_backs/set1/red.gif","img/card_backs/set1/green.gif","img/card_backs/set2/gray.gif","img/card_backs/set2/blue.gif","img/card_backs/set2/pink.gif","img/card_backs/set2/orange.gif","""event"",""trial"",""time""
""fullscreenenter"",""1"",""4830""
","
","
","""event"",""trial"",""time""
""fullscreenenter"",""1"",""4830""
","
","","4079.5","True or False: You will have as much time as you want to make your response.","70","","","2021-07-15 20:09:08.602","","","","","",""
"casino-keyboard-response","63","321344","0.0-21.0-1.0","979","false","img/card_backs/set1/yellow.gif","img/card_backs/set1/purple.gif","img/card_backs/set1/red.gif","img/card_backs/set1/green.gif","img/card_backs/set2/gray.gif","img/card_backs/set2/blue.gif","img/card_backs/set2/pink.gif","img/card_backs/set2/orange.gif","""event"",""trial"",""time""
""fullscreenenter"",""1"",""4830""
","
","
","""event"",""trial"",""time""
""fullscreenenter"",""1"",""4830""
","
","","3075.7000000476837","False is correct! You will only have 10 seconds to make each choice.","75","","","2021-07-15 20:09:11.688","","","","","true",""
"casino-comp_q","64","327779","0.0-22.0-0.0","979","false","img/card_backs/set1/yellow.gif","img/card_backs/set1/purple.gif","img/card_backs/set1/red.gif","img/card_backs/set1/green.gif","img/card_backs/set2/gray.gif","img/card_backs/set2/blue.gif","img/card_backs/set2/pink.gif","img/card_backs/set2/orange.gif","""event"",""trial"",""time""
""fullscreenenter"",""1"",""4830""
","
","
","""event"",""trial"",""time""
""fullscreenenter"",""1"",""4830""
","
","","6430.700000047684","True or False: The location of the deck determines how lucky it is.","70","","","2021-07-15 20:09:18.122","","","","","",""
"casino-keyboard-response","65","332321","0.0-22.0-1.0","979","false","img/card_backs/set1/yellow.gif","img/card_backs/set1/purple.gif","img/card_backs/set1/red.gif","img/card_backs/set1/green.gif","img/card_backs/set2/gray.gif","img/card_backs/set2/blue.gif","img/card_backs/set2/pink.gif","img/card_backs/set2/orange.gif","""event"",""trial"",""time""
""fullscreenenter"",""1"",""4830""
","
","
","""event"",""trial"",""time""
""fullscreenenter"",""1"",""4830""
","
","","4537.199999809265","False is correct! The <i>color</i>  of the deck determines how lucky or unlucky it is.","68","","","2021-07-15 20:09:22.664","","","","","true",""
"casino-keyboard-response","66","336804","0.0-23.0-0.0","979","false","img/card_backs/set1/yellow.gif","img/card_backs/set1/purple.gif","img/card_backs/set1/red.gif","img/card_backs/set1/green.gif","img/card_backs/set2/gray.gif","img/card_backs/set2/blue.gif","img/card_backs/set2/pink.gif","img/card_backs/set2/orange.gif","""event"",""trial"",""time""
""fullscreenenter"",""1"",""4830""
","
","
","""event"",""trial"",""time""
""fullscreenenter"",""1"",""4830""
","
","","4477.599999904633","Great job! Now it's time to start the real game.","82","","instructions","2021-07-15 20:09:27.147","","","","","",""
"casino-keyboard-response","67","342139","0.0-23.0-0.1","979","false","img/card_backs/set1/yellow.gif","img/card_backs/set1/purple.gif","img/card_backs/set1/red.gif","img/card_backs/set1/green.gif","img/card_backs/set2/gray.gif","img/card_backs/set2/blue.gif","img/card_backs/set2/pink.gif","img/card_backs/set2/orange.gif","""event"",""trial"",""time""
""fullscreenenter"",""1"",""4830""
","
","
","""event"",""trial"",""time""
""fullscreenenter"",""1"",""4830""
","
","","5330.700000047684","Before we start, we're going to head into a new room of the casino.","86","","instructions","2021-07-15 20:09:32.482","","","","","",""
"casino-keyboard-response","68","349590","0.0-24.0-0.0","979","false","img/card_backs/set1/yellow.gif","img/card_backs/set1/purple.gif","img/card_backs/set1/red.gif","img/card_backs/set1/green.gif","img/card_backs/set2/gray.gif","img/card_backs/set2/blue.gif","img/card_backs/set2/pink.gif","img/card_backs/set2/orange.gif","""event"",""trial"",""time""
""fullscreenenter"",""1"",""4830""
","
","
","""event"",""trial"",""time""
""fullscreenenter"",""1"",""4830""
","
","","7446.900000095367","Here we are! The real game will use different cards, but the rules will be the same.","71","","instructions","2021-07-15 20:09:39.933","","","","","",""
"casino-keyboard-response","69","359130","0.0-24.0-0.1","979","false","img/card_backs/set1/yellow.gif","img/card_backs/set1/purple.gif","img/card_backs/set1/red.gif","img/card_backs/set1/green.gif","img/card_backs/set2/gray.gif","img/card_backs/set2/blue.gif","img/card_backs/set2/pink.gif","img/card_backs/set2/orange.gif","""event"",""trial"",""time""
""fullscreenenter"",""1"",""4830""
","
","
","""event"",""trial"",""time""
""fullscreenenter"",""1"",""4830""
","
","","9535.600000143051","Ready? Put your fingers over the '2', '4', 6', and '8' keys so you are ready to play the game. </br> Then press 2 to start.","50","","instructions","2021-07-15 20:09:49.473","","","","","",""
"casino-fixation","70","359642","0.0-25.0-0.0","979","false","img/card_backs/set1/yellow.gif","img/card_backs/set1/purple.gif","img/card_backs/set1/red.gif","img/card_backs/set1/green.gif","img/card_backs/set2/gray.gif","img/card_backs/set2/blue.gif","img/card_backs/set2/pink.gif","img/card_backs/set2/orange.gif","""event"",""trial"",""time""
""fullscreenenter"",""1"",""4830""
","
","
","""event"",""trial"",""time""
""fullscreenenter"",""1"",""4830""
","
","","null","","null","","fixation","2021-07-15 20:09:49.986","","","","","",""
"card-selection-trial","71","363438","0.0-25.0-1.0","979","false","img/card_backs/set1/yellow.gif","img/card_backs/set1/purple.gif","img/card_backs/set1/red.gif","img/card_backs/set1/green.gif","img/card_backs/set2/gray.gif","img/card_backs/set2/blue.gif","img/card_backs/set2/pink.gif","img/card_backs/set2/orange.gif","""event"",""trial"",""time""
""fullscreenenter"",""1"",""4830""
","
","
","""event"",""trial"",""time""
""fullscreenenter"",""1"",""4830""
","
","","1777.8999998569489","","","","real_trial","2021-07-15 20:09:53.781","img/card_backs/set1/purple.gif","1","-230","1","",""
"casino-fixation","72","363950","0.0-25.0-0.1","979","false","img/card_backs/set1/yellow.gif","img/card_backs/set1/purple.gif","img/card_backs/set1/red.gif","img/card_backs/set1/green.gif","img/card_backs/set2/gray.gif","img/card_backs/set2/blue.gif","img/card_backs/set2/pink.gif","img/card_backs/set2/orange.gif","""event"",""trial"",""time""
""fullscreenenter"",""1"",""4830""
","
","
","""event"",""trial"",""time""
""fullscreenenter"",""1"",""4830""
","
","","null","","null","","fixation","2021-07-15 20:09:54.293","","","","","",""
"card-selection-trial","73","367752","0.0-25.0-1.1","979","false","img/card_backs/set1/yellow.gif","img/card_backs/set1/purple.gif","img/card_backs/set1/red.gif","img/card_backs/set1/green.gif","img/card_backs/set2/gray.gif","img/card_backs/set2/blue.gif","img/card_backs/set2/pink.gif","img/card_backs/set2/orange.gif","""event"",""trial"",""time""
""fullscreenenter"",""1"",""4830""
","
","
","""event"",""trial"",""time""
""fullscreenenter"",""1"",""4830""
","
","","1781.7000000476837","","","","real_trial","2021-07-15 20:09:58.096","img/card_backs/set1/purple.gif","2","200","1","",""
"casino-fixation","74","368261","0.0-25.0-0.2","979","false","img/card_backs/set1/yellow.gif","img/card_backs/set1/purple.gif","img/card_backs/set1/red.gif","img/card_backs/set1/green.gif","img/card_backs/set2/gray.gif","img/card_backs/set2/blue.gif","img/card_backs/set2/pink.gif","img/card_backs/set2/orange.gif","""event"",""trial"",""time""
""fullscreenenter"",""1"",""4830""
","
","
","""event"",""trial"",""time""
""fullscreenenter"",""1"",""4830""
","
","","null","","null","","fixation","2021-07-15 20:09:58.604","","","","","",""
"card-selection-trial","75","371380","0.0-25.0-1.2","979","false","img/card_backs/set1/yellow.gif","img/card_backs/set1/purple.gif","img/card_backs/set1/red.gif","img/card_backs/set1/green.gif","img/card_backs/set2/gray.gif","img/card_backs/set2/blue.gif","img/card_backs/set2/pink.gif","img/card_backs/set2/orange.gif","""event"",""trial"",""time""
""fullscreenenter"",""1"",""4830""
","
","
","""event"",""trial"",""time""
""fullscreenenter"",""1"",""4830""
","
","","1102.1000001430511","","","","real_trial","2021-07-15 20:10:01.723","img/card_backs/set1/purple.gif","3","-230","1","",""
"casino-fixation","76","371893","0.0-25.0-0.3","979","false","img/card_backs/set1/yellow.gif","img/card_backs/set1/purple.gif","img/card_backs/set1/red.gif","img/card_backs/set1/green.gif","img/card_backs/set2/gray.gif","img/card_backs/set2/blue.gif","img/card_backs/set2/pink.gif","img/card_backs/set2/orange.gif","""event"",""trial"",""time""
""fullscreenenter"",""1"",""4830""
","
","
","""event"",""trial"",""time""
""fullscreenenter"",""1"",""4830""
","
","","null","","null","","fixation","2021-07-15 20:10:02.237","","","","","",""
"card-selection-trial","77","374914","0.0-25.0-1.3","979","false","img/card_backs/set1/yellow.gif","img/card_backs/set1/purple.gif","img/card_backs/set1/red.gif","img/card_backs/set1/green.gif","img/card_backs/set2/gray.gif","img/card_backs/set2/blue.gif","img/card_backs/set2/pink.gif","img/card_backs/set2/orange.gif","""event"",""trial"",""time""
""fullscreenenter"",""1"",""4830""
","
","
","""event"",""trial"",""time""
""fullscreenenter"",""1"",""4830""
","
","","1007.2000000476837","","","","real_trial","2021-07-15 20:10:05.257","img/card_backs/set1/yellow.gif","2","200","1","",""
"casino-fixation","78","375421","0.0-25.0-0.4","979","false","img/card_backs/set1/yellow.gif","img/card_backs/set1/purple.gif","img/card_backs/set1/red.gif","img/card_backs/set1/green.gif","img/card_backs/set2/gray.gif","img/card_backs/set2/blue.gif","img/card_backs/set2/pink.gif","img/card_backs/set2/orange.gif","""event"",""trial"",""time""
""fullscreenenter"",""1"",""4830""
","
","
","""event"",""trial"",""time""
""fullscreenenter"",""1"",""4830""
","
","","null","","null","","fixation","2021-07-15 20:10:05.764","","","","","",""
"card-selection-trial","79","378317","0.0-25.0-1.4","979","false","img/card_backs/set1/yellow.gif","img/card_backs/set1/purple.gif","img/card_backs/set1/red.gif","img/card_backs/set1/green.gif","img/card_backs/set2/gray.gif","img/card_backs/set2/blue.gif","img/card_backs/set2/pink.gif","img/card_backs/set2/orange.gif","""event"",""trial"",""time""
""fullscreenenter"",""1"",""4830""
","
","
","""event"",""trial"",""time""
""fullscreenenter"",""1"",""4830""
","
","","875.6000001430511","","","","real_trial","2021-07-15 20:10:08.660","img/card_backs/set1/yellow.gif","3","-250","1","",""
"casino-fixation","80","378825","0.0-25.0-0.5","979","false","img/card_backs/set1/yellow.gif","img/card_backs/set1/purple.gif","img/card_backs/set1/red.gif","img/card_backs/set1/green.gif","img/card_backs/set2/gray.gif","img/card_backs/set2/blue.gif","img/card_backs/set2/pink.gif","img/card_backs/set2/orange.gif","""event"",""trial"",""time""
""fullscreenenter"",""1"",""4830""
","
","
","""event"",""trial"",""time""
""fullscreenenter"",""1"",""4830""
","
","","null","","null","","fixation","2021-07-15 20:10:09.168","","","","","",""
"card-selection-trial","81","381805","0.0-25.0-1.5","979","false","img/card_backs/set1/yellow.gif","img/card_backs/set1/purple.gif","img/card_backs/set1/red.gif","img/card_backs/set1/green.gif","img/card_backs/set2/gray.gif","img/card_backs/set2/blue.gif","img/card_backs/set2/pink.gif","img/card_backs/set2/orange.gif","""event"",""trial"",""time""
""fullscreenenter"",""1"",""4830""
","
","
","""event"",""trial"",""time""
""fullscreenenter"",""1"",""4830""
","
","","965.2000000476837","","","","real_trial","2021-07-15 20:10:12.148","img/card_backs/set1/yellow.gif","2","200","1","",""
"casino-fixation","82","382310","0.0-25.0-0.6","979","false","img/card_backs/set1/yellow.gif","img/card_backs/set1/purple.gif","img/card_backs/set1/red.gif","img/card_backs/set1/green.gif","img/card_backs/set2/gray.gif","img/card_backs/set2/blue.gif","img/card_backs/set2/pink.gif","img/card_backs/set2/orange.gif","""event"",""trial"",""time""
""fullscreenenter"",""1"",""4830""
","
","
","""event"",""trial"",""time""
""fullscreenenter"",""1"",""4830""
","
","","null","","null","","fixation","2021-07-15 20:10:12.653","","","","","",""
"card-selection-trial","83","385233","0.0-25.0-1.6","979","false","img/card_backs/set1/yellow.gif","img/card_backs/set1/purple.gif","img/card_backs/set1/red.gif","img/card_backs/set1/green.gif","img/card_backs/set2/gray.gif","img/card_backs/set2/blue.gif","img/card_backs/set2/pink.gif","img/card_backs/set2/orange.gif","""event"",""trial"",""time""
""fullscreenenter"",""1"",""4830""
","
","
","""event"",""trial"",""time""
""fullscreenenter"",""1"",""4830""
","
","","906.0999999046326","","","","real_trial","2021-07-15 20:10:15.576","img/card_backs/set1/yellow.gif","3","180","1","",""
"casino-fixation","84","385746","0.0-25.0-0.7","979","false","img/card_backs/set1/yellow.gif","img/card_backs/set1/purple.gif","img/card_backs/set1/red.gif","img/card_backs/set1/green.gif","img/card_backs/set2/gray.gif","img/card_backs/set2/blue.gif","img/card_backs/set2/pink.gif","img/card_backs/set2/orange.gif","""event"",""trial"",""time""
""fullscreenenter"",""1"",""4830""
","
","
","""event"",""trial"",""time""
""fullscreenenter"",""1"",""4830""
","
","","null","","null","","fixation","2021-07-15 20:10:16.090","","","","","",""
"card-selection-trial","85","388715","0.0-25.0-1.7","979","false","img/card_backs/set1/yellow.gif","img/card_backs/set1/purple.gif","img/card_backs/set1/red.gif","img/card_backs/set1/green.gif","img/card_backs/set2/gray.gif","img/card_backs/set2/blue.gif","img/card_backs/set2/pink.gif","img/card_backs/set2/orange.gif","""event"",""trial"",""time""
""fullscreenenter"",""1"",""4830""
","
","
","""event"",""trial"",""time""
""fullscreenenter"",""1"",""4830""
","
","","956.6000001430511","","","","real_trial","2021-07-15 20:10:19.058","img/card_backs/set1/purple.gif","2","180","1","",""
"casino-fixation","86","389217","0.0-25.0-0.8","979","false","img/card_backs/set1/yellow.gif","img/card_backs/set1/purple.gif","img/card_backs/set1/red.gif","img/card_backs/set1/green.gif","img/card_backs/set2/gray.gif","img/card_backs/set2/blue.gif","img/card_backs/set2/pink.gif","img/card_backs/set2/orange.gif","""event"",""trial"",""time""
""fullscreenenter"",""1"",""4830""
","
","
","""event"",""trial"",""time""
""fullscreenenter"",""1"",""4830""
","
","","null","","null","","fixation","2021-07-15 20:10:19.560","","","","","",""
"card-selection-trial","87","391985","0.0-25.0-1.8","979","false","img/card_backs/set1/yellow.gif","img/card_backs/set1/purple.gif","img/card_backs/set1/red.gif","img/card_backs/set1/green.gif","img/card_backs/set2/gray.gif","img/card_backs/set2/blue.gif","img/card_backs/set2/pink.gif","img/card_backs/set2/orange.gif","""event"",""trial"",""time""
""fullscreenenter"",""1"",""4830""
","
","
","""event"",""trial"",""time""
""fullscreenenter"",""1"",""4830""
","
","","754.9000000953674","","","","real_trial","2021-07-15 20:10:22.328","img/card_backs/set1/purple.gif","3","180","1","",""
"casino-fixation","88","392488","0.0-25.0-0.9","979","false","img/card_backs/set1/yellow.gif","img/card_backs/set1/purple.gif","img/card_backs/set1/red.gif","img/card_backs/set1/green.gif","img/card_backs/set2/gray.gif","img/card_backs/set2/blue.gif","img/card_backs/set2/pink.gif","img/card_backs/set2/orange.gif","""event"",""trial"",""time""
""fullscreenenter"",""1"",""4830""
","
","
","""event"",""trial"",""time""
""fullscreenenter"",""1"",""4830""
","
","","null","","null","","fixation","2021-07-15 20:10:22.831","","","","","",""
"card-selection-trial","89","395763","0.0-25.0-1.9","979","false","img/card_backs/set1/yellow.gif","img/card_backs/set1/purple.gif","img/card_backs/set1/red.gif","img/card_backs/set1/green.gif","img/card_backs/set2/gray.gif","img/card_backs/set2/blue.gif","img/card_backs/set2/pink.gif","img/card_backs/set2/orange.gif","""event"",""trial"",""time""
""fullscreenenter"",""1"",""4830""
","
","
","""event"",""trial"",""time""
""fullscreenenter"",""1"",""4830""
","
","","1262.5999999046326","","","","real_trial","2021-07-15 20:10:26.106","img/card_backs/set1/purple.gif","2","200","1","",""
"casino-fixation","90","396269","0.0-25.0-0.10","979","false","img/card_backs/set1/yellow.gif","img/card_backs/set1/purple.gif","img/card_backs/set1/red.gif","img/card_backs/set1/green.gif","img/card_backs/set2/gray.gif","img/card_backs/set2/blue.gif","img/card_backs/set2/pink.gif","img/card_backs/set2/orange.gif","""event"",""trial"",""time""
""fullscreenenter"",""1"",""4830""
","
","
","""event"",""trial"",""time""
""fullscreenenter"",""1"",""4830""
","
","","null","","null","","fixation","2021-07-15 20:10:26.612","","","","","",""
"card-selection-trial","91","399503","0.0-25.0-1.10","979","false","img/card_backs/set1/yellow.gif","img/card_backs/set1/purple.gif","img/card_backs/set1/red.gif","img/card_backs/set1/green.gif","img/card_backs/set2/gray.gif","img/card_backs/set2/blue.gif","img/card_backs/set2/pink.gif","img/card_backs/set2/orange.gif","""event"",""trial"",""time""
""fullscreenenter"",""1"",""4830""
","
","
","""event"",""trial"",""time""
""fullscreenenter"",""1"",""4830""
","
","","1221.7000000476837","","","","real_trial","2021-07-15 20:10:29.846","img/card_backs/set1/purple.gif","1","-230","1","",""
"casino-fixation","92","400007","0.0-25.0-0.11","979","false","img/card_backs/set1/yellow.gif","img/card_backs/set1/purple.gif","img/card_backs/set1/red.gif","img/card_backs/set1/green.gif","img/card_backs/set2/gray.gif","img/card_backs/set2/blue.gif","img/card_backs/set2/pink.gif","img/card_backs/set2/orange.gif","""event"",""trial"",""time""
""fullscreenenter"",""1"",""4830""
","
","
","""event"",""trial"",""time""
""fullscreenenter"",""1"",""4830""
","
","","null","","null","","fixation","2021-07-15 20:10:30.350","","","","","",""
"card-selection-trial","93","403323","0.0-25.0-1.11","979","false","img/card_backs/set1/yellow.gif","img/card_backs/set1/purple.gif","img/card_backs/set1/red.gif","img/card_backs/set1/green.gif","img/card_backs/set2/gray.gif","img/card_backs/set2/blue.gif","img/card_backs/set2/pink.gif","img/card_backs/set2/orange.gif","""event"",""trial"",""time""
""fullscreenenter"",""1"",""4830""
","
","
","""event"",""trial"",""time""
""fullscreenenter"",""1"",""4830""
","
","","1303.9000000953674","","","","real_trial","2021-07-15 20:10:33.666","img/card_backs/set1/yellow.gif","1","200","1","",""
"casino-fixation","94","403828","0.0-25.0-0.12","979","false","img/card_backs/set1/yellow.gif","img/card_backs/set1/purple.gif","img/card_backs/set1/red.gif","img/card_backs/set1/green.gif","img/card_backs/set2/gray.gif","img/card_backs/set2/blue.gif","img/card_backs/set2/pink.gif","img/card_backs/set2/orange.gif","""event"",""trial"",""time""
""fullscreenenter"",""1"",""4830""
","
","
","""event"",""trial"",""time""
""fullscreenenter"",""1"",""4830""
","
","","null","","null","","fixation","2021-07-15 20:10:34.172","","","","","",""
"card-selection-trial","95","407127","0.0-25.0-1.12","979","false","img/card_backs/set1/yellow.gif","img/card_backs/set1/purple.gif","img/card_backs/set1/red.gif","img/card_backs/set1/green.gif","img/card_backs/set2/gray.gif","img/card_backs/set2/blue.gif","img/card_backs/set2/pink.gif","img/card_backs/set2/orange.gif","""event"",""trial"",""time""
""fullscreenenter"",""1"",""4830""
","
","
","""event"",""trial"",""time""
""fullscreenenter"",""1"",""4830""
","
","","1286.4000000953674","","","","real_trial","2021-07-15 20:10:37.470","img/card_backs/set1/yellow.gif","2","200","1","",""
"casino-fixation","96","407630","0.0-25.0-0.13","979","false","img/card_backs/set1/yellow.gif","img/card_backs/set1/purple.gif","img/card_backs/set1/red.gif","img/card_backs/set1/green.gif","img/card_backs/set2/gray.gif","img/card_backs/set2/blue.gif","img/card_backs/set2/pink.gif","img/card_backs/set2/orange.gif","""event"",""trial"",""time""
""fullscreenenter"",""1"",""4830""
","
","
","""event"",""trial"",""time""
""fullscreenenter"",""1"",""4830""
","
","","null","","null","","fixation","2021-07-15 20:10:37.974","","","","","",""
"card-selection-trial","97","410490","0.0-25.0-1.13","979","false","img/card_backs/set1/yellow.gif","img/card_backs/set1/purple.gif","img/card_backs/set1/red.gif","img/card_backs/set1/green.gif","img/card_backs/set2/gray.gif","img/card_backs/set2/blue.gif","img/card_backs/set2/pink.gif","img/card_backs/set2/orange.gif","""event"",""trial"",""time""
""fullscreenenter"",""1"",""4830""
","
","
","""event"",""trial"",""time""
""fullscreenenter"",""1"",""4830""
","
","","845.4000000953674","","","","real_trial","2021-07-15 20:10:40.833","img/card_backs/set1/red.gif","0","100","1","",""
"casino-fixation","98","410994","0.0-25.0-0.14","979","false","img/card_backs/set1/yellow.gif","img/card_backs/set1/purple.gif","img/card_backs/set1/red.gif","img/card_backs/set1/green.gif","img/card_backs/set2/gray.gif","img/card_backs/set2/blue.gif","img/card_backs/set2/pink.gif","img/card_backs/set2/orange.gif","""event"",""trial"",""time""
""fullscreenenter"",""1"",""4830""
","
","
","""event"",""trial"",""time""
""fullscreenenter"",""1"",""4830""
","
","","null","","null","","fixation","2021-07-15 20:10:41.337","","","","","",""
"card-selection-trial","99","413952","0.0-25.0-1.14","979","false","img/card_backs/set1/yellow.gif","img/card_backs/set1/purple.gif","img/card_backs/set1/red.gif","img/card_backs/set1/green.gif","img/card_backs/set2/gray.gif","img/card_backs/set2/blue.gif","img/card_backs/set2/pink.gif","img/card_backs/set2/orange.gif","""event"",""trial"",""time""
""fullscreenenter"",""1"",""4830""
","
","
","""event"",""trial"",""time""
""fullscreenenter"",""1"",""4830""
","
","","946.0999999046326","","","","real_trial","2021-07-15 20:10:44.295","img/card_backs/set1/green.gif","1","-70","1","",""
"casino-fixation","100","414457","0.0-25.0-0.15","979","false","img/card_backs/set1/yellow.gif","img/card_backs/set1/purple.gif","img/card_backs/set1/red.gif","img/card_backs/set1/green.gif","img/card_backs/set2/gray.gif","img/card_backs/set2/blue.gif","img/card_backs/set2/pink.gif","img/card_backs/set2/orange.gif","""event"",""trial"",""time""
""fullscreenenter"",""1"",""4830""
","
","
","""event"",""trial"",""time""
""fullscreenenter"",""1"",""4830""
","
","","null","","null","","fixation","2021-07-15 20:10:44.801","","","","","",""
"card-selection-trial","101","417386","0.0-25.0-1.15","979","false","img/card_backs/set1/yellow.gif","img/card_backs/set1/purple.gif","img/card_backs/set1/red.gif","img/card_backs/set1/green.gif","img/card_backs/set2/gray.gif","img/card_backs/set2/blue.gif","img/card_backs/set2/pink.gif","img/card_backs/set2/orange.gif","""event"",""trial"",""time""
""fullscreenenter"",""1"",""4830""
","
","
","""event"",""trial"",""time""
""fullscreenenter"",""1"",""4830""
","
","","916.5","","","","real_trial","2021-07-15 20:10:47.730","img/card_backs/set1/red.gif","1","110","1","",""
"casino-fixation","102","417892","0.0-25.0-0.16","979","false","img/card_backs/set1/yellow.gif","img/card_backs/set1/purple.gif","img/card_backs/set1/red.gif","img/card_backs/set1/green.gif","img/card_backs/set2/gray.gif","img/card_backs/set2/blue.gif","img/card_backs/set2/pink.gif","img/card_backs/set2/orange.gif","""event"",""trial"",""time""
""fullscreenenter"",""1"",""4830""
","
","
","""event"",""trial"",""time""
""fullscreenenter"",""1"",""4830""
","
","","null","","null","","fixation","2021-07-15 20:10:48.235","","","","","",""
"card-selection-trial","103","420697","0.0-25.0-1.16","979","false","img/card_backs/set1/yellow.gif","img/card_backs/set1/purple.gif","img/card_backs/set1/red.gif","img/card_backs/set1/green.gif","img/card_backs/set2/gray.gif","img/card_backs/set2/blue.gif","img/card_backs/set2/pink.gif","img/card_backs/set2/orange.gif","""event"",""trial"",""time""
""fullscreenenter"",""1"",""4830""
","
","
","""event"",""trial"",""time""
""fullscreenenter"",""1"",""4830""
","
","","793.2999999523163","","","","real_trial","2021-07-15 20:10:51.040","img/card_backs/set1/red.gif","0","-70","1","",""
"casino-fixation","104","421200","0.0-25.0-0.17","979","false","img/card_backs/set1/yellow.gif","img/card_backs/set1/purple.gif","img/card_backs/set1/red.gif","img/card_backs/set1/green.gif","img/card_backs/set2/gray.gif","img/card_backs/set2/blue.gif","img/card_backs/set2/pink.gif","img/card_backs/set2/orange.gif","""event"",""trial"",""time""
""fullscreenenter"",""1"",""4830""
","
","
","""event"",""trial"",""time""
""fullscreenenter"",""1"",""4830""
","
","","null","","null","","fixation","2021-07-15 20:10:51.543","","","","","",""
"card-selection-trial","105","424329","0.0-25.0-1.17","979","false","img/card_backs/set1/yellow.gif","img/card_backs/set1/purple.gif","img/card_backs/set1/red.gif","img/card_backs/set1/green.gif","img/card_backs/set2/gray.gif","img/card_backs/set2/blue.gif","img/card_backs/set2/pink.gif","img/card_backs/set2/orange.gif","""event"",""trial"",""time""
""fullscreenenter"",""1"",""4830""
","
","
","""event"",""trial"",""time""
""fullscreenenter"",""1"",""4830""
","
","","1116.6999998092651","","","","real_trial","2021-07-15 20:10:54.672","img/card_backs/set1/purple.gif","0","-250","1","",""
"casino-fixation","106","424833","0.0-25.0-0.18","979","false","img/card_backs/set1/yellow.gif","img/card_backs/set1/purple.gif","img/card_backs/set1/red.gif","img/card_backs/set1/green.gif","img/card_backs/set2/gray.gif","img/card_backs/set2/blue.gif","img/card_backs/set2/pink.gif","img/card_backs/set2/orange.gif","""event"",""trial"",""time""
""fullscreenenter"",""1"",""4830""
","
","
","""event"",""trial"",""time""
""fullscreenenter"",""1"",""4830""
","
","","null","","null","","fixation","2021-07-15 20:10:55.176","","","","","",""
"card-selection-trial","107","428146","0.0-25.0-1.18","979","false","img/card_backs/set1/yellow.gif","img/card_backs/set1/purple.gif","img/card_backs/set1/red.gif","img/card_backs/set1/green.gif","img/card_backs/set2/gray.gif","img/card_backs/set2/blue.gif","img/card_backs/set2/pink.gif","img/card_backs/set2/orange.gif","""event"",""trial"",""time""
""fullscreenenter"",""1"",""4830""
","
","
","""event"",""trial"",""time""
""fullscreenenter"",""1"",""4830""
","
","","1301.0999999046326","","","","real_trial","2021-07-15 20:10:58.489","img/card_backs/set1/yellow.gif","1","-240","1","",""
"casino-fixation","108","428652","0.0-25.0-0.19","979","false","img/card_backs/set1/yellow.gif","img/card_backs/set1/purple.gif","img/card_backs/set1/red.gif","img/card_backs/set1/green.gif","img/card_backs/set2/gray.gif","img/card_backs/set2/blue.gif","img/card_backs/set2/pink.gif","img/card_backs/set2/orange.gif","""event"",""trial"",""time""
""fullscreenenter"",""1"",""4830""
","
","
","""event"",""trial"",""time""
""fullscreenenter"",""1"",""4830""
","
","","null","","null","","fixation","2021-07-15 20:10:58.995","","","","","",""
"card-selection-trial","109","432217","0.0-25.0-1.19","979","false","img/card_backs/set1/yellow.gif","img/card_backs/set1/purple.gif","img/card_backs/set1/red.gif","img/card_backs/set1/green.gif","img/card_backs/set2/gray.gif","img/card_backs/set2/blue.gif","img/card_backs/set2/pink.gif","img/card_backs/set2/orange.gif","""event"",""trial"",""time""
""fullscreenenter"",""1"",""4830""
","
","
","""event"",""trial"",""time""
""fullscreenenter"",""1"",""4830""
","
","","1554.5","","","","real_trial","2021-07-15 20:11:02.560","img/card_backs/set1/purple.gif","1","-250","1","",""
"casino-fixation","110","432722","0.0-25.0-0.20","979","false","img/card_backs/set1/yellow.gif","img/card_backs/set1/purple.gif","img/card_backs/set1/red.gif","img/card_backs/set1/green.gif","img/card_backs/set2/gray.gif","img/card_backs/set2/blue.gif","img/card_backs/set2/pink.gif","img/card_backs/set2/orange.gif","""event"",""trial"",""time""
""fullscreenenter"",""1"",""4830""
","
","
","""event"",""trial"",""time""
""fullscreenenter"",""1"",""4830""
","
","","null","","null","","fixation","2021-07-15 20:11:03.065","","","","","",""
"card-selection-trial","111","435358","0.0-25.0-1.20","979","false","img/card_backs/set1/yellow.gif","img/card_backs/set1/purple.gif","img/card_backs/set1/red.gif","img/card_backs/set1/green.gif","img/card_backs/set2/gray.gif","img/card_backs/set2/blue.gif","img/card_backs/set2/pink.gif","img/card_backs/set2/orange.gif","""event"",""trial"",""time""
""fullscreenenter"",""1"",""4830""
","
","
","""event"",""trial"",""time""
""fullscreenenter"",""1"",""4830""
","
","","624.2000000476837","","","","real_trial","2021-07-15 20:11:05.702","img/card_backs/set1/yellow.gif","0","-250","1","",""
"casino-fixation","112","435864","0.0-25.0-0.21","979","false","img/card_backs/set1/yellow.gif","img/card_backs/set1/purple.gif","img/card_backs/set1/red.gif","img/card_backs/set1/green.gif","img/card_backs/set2/gray.gif","img/card_backs/set2/blue.gif","img/card_backs/set2/pink.gif","img/card_backs/set2/orange.gif","""event"",""trial"",""time""
""fullscreenenter"",""1"",""4830""
","
","
","""event"",""trial"",""time""
""fullscreenenter"",""1"",""4830""
","
","","null","","null","","fixation","2021-07-15 20:11:06.207","","","","","",""
"card-selection-trial","113","438748","0.0-25.0-1.21","979","false","img/card_backs/set1/yellow.gif","img/card_backs/set1/purple.gif","img/card_backs/set1/red.gif","img/card_backs/set1/green.gif","img/card_backs/set2/gray.gif","img/card_backs/set2/blue.gif","img/card_backs/set2/pink.gif","img/card_backs/set2/orange.gif","""event"",""trial"",""time""
""fullscreenenter"",""1"",""4830""
","
","
","""event"",""trial"",""time""
""fullscreenenter"",""1"",""4830""
","
","","871.7000000476837","","","","real_trial","2021-07-15 20:11:09.091","img/card_backs/set1/purple.gif","3","-250","1","",""
"casino-fixation","114","439251","0.0-25.0-0.22","979","false","img/card_backs/set1/yellow.gif","img/card_backs/set1/purple.gif","img/card_backs/set1/red.gif","img/card_backs/set1/green.gif","img/card_backs/set2/gray.gif","img/card_backs/set2/blue.gif","img/card_backs/set2/pink.gif","img/card_backs/set2/orange.gif","""event"",""trial"",""time""
""fullscreenenter"",""1"",""4830""
","
","
","""event"",""trial"",""time""
""fullscreenenter"",""1"",""4830""
","
","","null","","null","","fixation","2021-07-15 20:11:09.594","","","","","",""
"card-selection-trial","115","442131","0.0-25.0-1.22","979","false","img/card_backs/set1/yellow.gif","img/card_backs/set1/purple.gif","img/card_backs/set1/red.gif","img/card_backs/set1/green.gif","img/card_backs/set2/gray.gif","img/card_backs/set2/blue.gif","img/card_backs/set2/pink.gif","img/card_backs/set2/orange.gif","""event"",""trial"",""time""
""fullscreenenter"",""1"",""4830""
","
","
","""event"",""trial"",""time""
""fullscreenenter"",""1"",""4830""
","
","","867","","","","real_trial","2021-07-15 20:11:12.474","img/card_backs/set1/yellow.gif","2","-250","1","",""
"casino-fixation","116","442634","0.0-25.0-0.23","979","false","img/card_backs/set1/yellow.gif","img/card_backs/set1/purple.gif","img/card_backs/set1/red.gif","img/card_backs/set1/green.gif","img/card_backs/set2/gray.gif","img/card_backs/set2/blue.gif","img/card_backs/set2/pink.gif","img/card_backs/set2/orange.gif","""event"",""trial"",""time""
""fullscreenenter"",""1"",""4830""
","
","
","""event"",""trial"",""time""
""fullscreenenter"",""1"",""4830""
","
","","null","","null","","fixation","2021-07-15 20:11:12.977","","","","","",""
"card-selection-trial","117","446111","0.0-25.0-1.23","979","false","img/card_backs/set1/yellow.gif","img/card_backs/set1/purple.gif","img/card_backs/set1/red.gif","img/card_backs/set1/green.gif","img/card_backs/set2/gray.gif","img/card_backs/set2/blue.gif","img/card_backs/set2/pink.gif","img/card_backs/set2/orange.gif","""event"",""trial"",""time""
""fullscreenenter"",""1"",""4830""
","
","
","""event"",""trial"",""time""
""fullscreenenter"",""1"",""4830""
","
","","1461.2000000476837","","","","real_trial","2021-07-15 20:11:16.455","img/card_backs/set1/green.gif","2","-60","1","",""
"casino-fixation","118","446617","0.0-25.0-0.24","979","false","img/card_backs/set1/yellow.gif","img/card_backs/set1/purple.gif","img/card_backs/set1/red.gif","img/card_backs/set1/green.gif","img/card_backs/set2/gray.gif","img/card_backs/set2/blue.gif","img/card_backs/set2/pink.gif","img/card_backs/set2/orange.gif","""event"",""trial"",""time""
""fullscreenenter"",""1"",""4830""
","
","
","""event"",""trial"",""time""
""fullscreenenter"",""1"",""4830""
","
","","null","","null","","fixation","2021-07-15 20:11:16.960","","","","","",""
"card-selection-trial","119","449278","0.0-25.0-1.24","979","false","img/card_backs/set1/yellow.gif","img/card_backs/set1/purple.gif","img/card_backs/set1/red.gif","img/card_backs/set1/green.gif","img/card_backs/set2/gray.gif","img/card_backs/set2/blue.gif","img/card_backs/set2/pink.gif","img/card_backs/set2/orange.gif","""event"",""trial"",""time""
""fullscreenenter"",""1"",""4830""
","
","
","""event"",""trial"",""time""
""fullscreenenter"",""1"",""4830""
","
","","648.7999999523163","","","","real_trial","2021-07-15 20:11:19.621","img/card_backs/set1/red.gif","3","-60","1","",""
"casino-fixation","120","449783","0.0-25.0-0.25","979","false","img/card_backs/set1/yellow.gif","img/card_backs/set1/purple.gif","img/card_backs/set1/red.gif","img/card_backs/set1/green.gif","img/card_backs/set2/gray.gif","img/card_backs/set2/blue.gif","img/card_backs/set2/pink.gif","img/card_backs/set2/orange.gif","""event"",""trial"",""time""
""fullscreenenter"",""1"",""4830""
","
","
","""event"",""trial"",""time""
""fullscreenenter"",""1"",""4830""
","
","","null","","null","","fixation","2021-07-15 20:11:20.127","","","","","",""
"card-selection-trial","121","452438","0.0-25.0-1.25","979","false","img/card_backs/set1/yellow.gif","img/card_backs/set1/purple.gif","img/card_backs/set1/red.gif","img/card_backs/set1/green.gif","img/card_backs/set2/gray.gif","img/card_backs/set2/blue.gif","img/card_backs/set2/pink.gif","img/card_backs/set2/orange.gif","""event"",""trial"",""time""
""fullscreenenter"",""1"",""4830""
","
","
","""event"",""trial"",""time""
""fullscreenenter"",""1"",""4830""
","
","","641.8000001907349","","","","real_trial","2021-07-15 20:11:22.781","img/card_backs/set1/red.gif","1","-70","1","",""
"casino-fixation","122","452941","0.0-25.0-0.26","979","false","img/card_backs/set1/yellow.gif","img/card_backs/set1/purple.gif","img/card_backs/set1/red.gif","img/card_backs/set1/green.gif","img/card_backs/set2/gray.gif","img/card_backs/set2/blue.gif","img/card_backs/set2/pink.gif","img/card_backs/set2/orange.gif","""event"",""trial"",""time""
""fullscreenenter"",""1"",""4830""
","
","
","""event"",""trial"",""time""
""fullscreenenter"",""1"",""4830""
","
","","null","","null","","fixation","2021-07-15 20:11:23.284","","","","","",""
"card-selection-trial","123","455922","0.0-25.0-1.26","979","false","img/card_backs/set1/yellow.gif","img/card_backs/set1/purple.gif","img/card_backs/set1/red.gif","img/card_backs/set1/green.gif","img/card_backs/set2/gray.gif","img/card_backs/set2/blue.gif","img/card_backs/set2/pink.gif","img/card_backs/set2/orange.gif","""event"",""trial"",""time""
""fullscreenenter"",""1"",""4830""
","
","
","""event"",""trial"",""time""
""fullscreenenter"",""1"",""4830""
","
","","968.0999999046326","","","","real_trial","2021-07-15 20:11:26.265","img/card_backs/set1/green.gif","3","-60","1","",""
"casino-fixation","124","456428","0.0-25.0-0.27","979","false","img/card_backs/set1/yellow.gif","img/card_backs/set1/purple.gif","img/card_backs/set1/red.gif","img/card_backs/set1/green.gif","img/card_backs/set2/gray.gif","img/card_backs/set2/blue.gif","img/card_backs/set2/pink.gif","img/card_backs/set2/orange.gif","""event"",""trial"",""time""
""fullscreenenter"",""1"",""4830""
","
","
","""event"",""trial"",""time""
""fullscreenenter"",""1"",""4830""
","
","","null","","null","","fixation","2021-07-15 20:11:26.771","","","","","",""
"card-selection-trial","125","459200","0.0-25.0-1.27","979","false","img/card_backs/set1/yellow.gif","img/card_backs/set1/purple.gif","img/card_backs/set1/red.gif","img/card_backs/set1/green.gif","img/card_backs/set2/gray.gif","img/card_backs/set2/blue.gif","img/card_backs/set2/pink.gif","img/card_backs/set2/orange.gif","""event"",""trial"",""time""
""fullscreenenter"",""1"",""4830""
","
","
","""event"",""trial"",""time""
""fullscreenenter"",""1"",""4830""
","
","","760.8000001907349","","","","real_trial","2021-07-15 20:11:29.543","img/card_backs/set1/yellow.gif","1","-250","1","",""
"casino-fixation","126","459703","0.0-25.0-0.28","979","false","img/card_backs/set1/yellow.gif","img/card_backs/set1/purple.gif","img/card_backs/set1/red.gif","img/card_backs/set1/green.gif","img/card_backs/set2/gray.gif","img/card_backs/set2/blue.gif","img/card_backs/set2/pink.gif","img/card_backs/set2/orange.gif","""event"",""trial"",""time""
""fullscreenenter"",""1"",""4830""
","
","
","""event"",""trial"",""time""
""fullscreenenter"",""1"",""4830""
","
","","null","","null","","fixation","2021-07-15 20:11:30.047","","","","","",""
"card-selection-trial","127","463145","0.0-25.0-1.28","979","false","img/card_backs/set1/yellow.gif","img/card_backs/set1/purple.gif","img/card_backs/set1/red.gif","img/card_backs/set1/green.gif","img/card_backs/set2/gray.gif","img/card_backs/set2/blue.gif","img/card_backs/set2/pink.gif","img/card_backs/set2/orange.gif","""event"",""trial"",""time""
""fullscreenenter"",""1"",""4830""
","
","
","""event"",""trial"",""time""
""fullscreenenter"",""1"",""4830""
","
","","1428.7000000476837","","","","real_trial","2021-07-15 20:11:33.488","img/card_backs/set1/purple.gif","1","180","1","",""
"casino-fixation","128","463648","0.0-25.0-0.29","979","false","img/card_backs/set1/yellow.gif","img/card_backs/set1/purple.gif","img/card_backs/set1/red.gif","img/card_backs/set1/green.gif","img/card_backs/set2/gray.gif","img/card_backs/set2/blue.gif","img/card_backs/set2/pink.gif","img/card_backs/set2/orange.gif","""event"",""trial"",""time""
""fullscreenenter"",""1"",""4830""
","
","
","""event"",""trial"",""time""
""fullscreenenter"",""1"",""4830""
","
","","null","","null","","fixation","2021-07-15 20:11:33.991","","","","","",""
"card-selection-trial","129","466432","0.0-25.0-1.29","979","false","img/card_backs/set1/yellow.gif","img/card_backs/set1/purple.gif","img/card_backs/set1/red.gif","img/card_backs/set1/green.gif","img/card_backs/set2/gray.gif","img/card_backs/set2/blue.gif","img/card_backs/set2/pink.gif","img/card_backs/set2/orange.gif","""event"",""trial"",""time""
""fullscreenenter"",""1"",""4830""
","
","
","""event"",""trial"",""time""
""fullscreenenter"",""1"",""4830""
","
","","772.0999999046326","","","","real_trial","2021-07-15 20:11:36.775","img/card_backs/set1/purple.gif","1","180","1","",""
"casino-fixation","130","466935","0.0-25.0-0.30","979","false","img/card_backs/set1/yellow.gif","img/card_backs/set1/purple.gif","img/card_backs/set1/red.gif","img/card_backs/set1/green.gif","img/card_backs/set2/gray.gif","img/card_backs/set2/blue.gif","img/card_backs/set2/pink.gif","img/card_backs/set2/orange.gif","""event"",""trial"",""time""
""fullscreenenter"",""1"",""4830""
","
","
","""event"",""trial"",""time""
""fullscreenenter"",""1"",""4830""
","
","","null","","null","","fixation","2021-07-15 20:11:37.279","","","","","",""
"card-selection-trial","131","469670","0.0-25.0-1.30","979","false","img/card_backs/set1/yellow.gif","img/card_backs/set1/purple.gif","img/card_backs/set1/red.gif","img/card_backs/set1/green.gif","img/card_backs/set2/gray.gif","img/card_backs/set2/blue.gif","img/card_backs/set2/pink.gif","img/card_backs/set2/orange.gif","""event"",""trial"",""time""
""fullscreenenter"",""1"",""4830""
","
","
","""event"",""trial"",""time""
""fullscreenenter"",""1"",""4830""
","
","","722.4000000953674","","","","real_trial","2021-07-15 20:11:40.013","img/card_backs/set1/purple.gif","0","-230","1","",""
"casino-fixation","132","470175","0.0-25.0-0.31","979","false","img/card_backs/set1/yellow.gif","img/card_backs/set1/purple.gif","img/card_backs/set1/red.gif","img/card_backs/set1/green.gif","img/card_backs/set2/gray.gif","img/card_backs/set2/blue.gif","img/card_backs/set2/pink.gif","img/card_backs/set2/orange.gif","""event"",""trial"",""time""
""fullscreenenter"",""1"",""4830""
","
","
","""event"",""trial"",""time""
""fullscreenenter"",""1"",""4830""
","
","","null","","null","","fixation","2021-07-15 20:11:40.518","","","","","",""
"card-selection-trial","133","473721","0.0-25.0-1.31","979","false","img/card_backs/set1/yellow.gif","img/card_backs/set1/purple.gif","img/card_backs/set1/red.gif","img/card_backs/set1/green.gif","img/card_backs/set2/gray.gif","img/card_backs/set2/blue.gif","img/card_backs/set2/pink.gif","img/card_backs/set2/orange.gif","""event"",""trial"",""time""
""fullscreenenter"",""1"",""4830""
","
","
","""event"",""trial"",""time""
""fullscreenenter"",""1"",""4830""
","
","","1533","","","","real_trial","2021-07-15 20:11:44.064","img/card_backs/set1/red.gif","1","120","1","",""
"casino-fixation","134","474226","0.0-25.0-0.32","979","false","img/card_backs/set1/yellow.gif","img/card_backs/set1/purple.gif","img/card_backs/set1/red.gif","img/card_backs/set1/green.gif","img/card_backs/set2/gray.gif","img/card_backs/set2/blue.gif","img/card_backs/set2/pink.gif","img/card_backs/set2/orange.gif","""event"",""trial"",""time""
""fullscreenenter"",""1"",""4830""
","
","
","""event"",""trial"",""time""
""fullscreenenter"",""1"",""4830""
","
","","null","","null","","fixation","2021-07-15 20:11:44.569","","","","","",""
"card-selection-trial","135","477140","0.0-25.0-1.32","979","false","img/card_backs/set1/yellow.gif","img/card_backs/set1/purple.gif","img/card_backs/set1/red.gif","img/card_backs/set1/green.gif","img/card_backs/set2/gray.gif","img/card_backs/set2/blue.gif","img/card_backs/set2/pink.gif","img/card_backs/set2/orange.gif","""event"",""trial"",""time""
""fullscreenenter"",""1"",""4830""
","
","
","""event"",""trial"",""time""
""fullscreenenter"",""1"",""4830""
","
","","900.3000001907349","","","","real_trial","2021-07-15 20:11:47.483","img/card_backs/set1/red.gif","2","-70","1","",""
"casino-fixation","136","477645","0.0-25.0-0.33","979","false","img/card_backs/set1/yellow.gif","img/card_backs/set1/purple.gif","img/card_backs/set1/red.gif","img/card_backs/set1/green.gif","img/card_backs/set2/gray.gif","img/card_backs/set2/blue.gif","img/card_backs/set2/pink.gif","img/card_backs/set2/orange.gif","""event"",""trial"",""time""
""fullscreenenter"",""1"",""4830""
","
","
","""event"",""trial"",""time""
""fullscreenenter"",""1"",""4830""
","
","","null","","null","","fixation","2021-07-15 20:11:47.988","","","","","",""
"card-selection-trial","137","480277","0.0-25.0-1.33","979","false","img/card_backs/set1/yellow.gif","img/card_backs/set1/purple.gif","img/card_backs/set1/red.gif","img/card_backs/set1/green.gif","img/card_backs/set2/gray.gif","img/card_backs/set2/blue.gif","img/card_backs/set2/pink.gif","img/card_backs/set2/orange.gif","""event"",""trial"",""time""
""fullscreenenter"",""1"",""4830""
","
","
","""event"",""trial"",""time""
""fullscreenenter"",""1"",""4830""
","
","","620.4000000953674","","","","real_trial","2021-07-15 20:11:50.621","img/card_backs/set1/yellow.gif","2","190","1","",""
"casino-fixation","138","480782","0.0-25.0-0.34","979","false","img/card_backs/set1/yellow.gif","img/card_backs/set1/purple.gif","img/card_backs/set1/red.gif","img/card_backs/set1/green.gif","img/card_backs/set2/gray.gif","img/card_backs/set2/blue.gif","img/card_backs/set2/pink.gif","img/card_backs/set2/orange.gif","""event"",""trial"",""time""
""fullscreenenter"",""1"",""4830""
","
","
","""event"",""trial"",""time""
""fullscreenenter"",""1"",""4830""
","
","","null","","null","","fixation","2021-07-15 20:11:51.125","","","","","",""
"card-selection-trial","139","483251","0.0-25.0-1.34","979","false","img/card_backs/set1/yellow.gif","img/card_backs/set1/purple.gif","img/card_backs/set1/red.gif","img/card_backs/set1/green.gif","img/card_backs/set2/gray.gif","img/card_backs/set2/blue.gif","img/card_backs/set2/pink.gif","img/card_backs/set2/orange.gif","""event"",""trial"",""time""
""fullscreenenter"",""1"",""4830""
","
","
","""event"",""trial"",""time""
""fullscreenenter"",""1"",""4830""
","
","","456.7000000476837","","","","real_trial","2021-07-15 20:11:53.594","img/card_backs/set1/purple.gif","2","-250","1","",""
"casino-fixation","140","483756","0.0-25.0-0.35","979","false","img/card_backs/set1/yellow.gif","img/card_backs/set1/purple.gif","img/card_backs/set1/red.gif","img/card_backs/set1/green.gif","img/card_backs/set2/gray.gif","img/card_backs/set2/blue.gif","img/card_backs/set2/pink.gif","img/card_backs/set2/orange.gif","""event"",""trial"",""time""
""fullscreenenter"",""1"",""4830""
","
","
","""event"",""trial"",""time""
""fullscreenenter"",""1"",""4830""
","
","","null","","null","","fixation","2021-07-15 20:11:54.099","","","","","",""
"card-selection-trial","141","486170","0.0-25.0-1.35","979","false","img/card_backs/set1/yellow.gif","img/card_backs/set1/purple.gif","img/card_backs/set1/red.gif","img/card_backs/set1/green.gif","img/card_backs/set2/gray.gif","img/card_backs/set2/blue.gif","img/card_backs/set2/pink.gif","img/card_backs/set2/orange.gif","""event"",""trial"",""time""
""fullscreenenter"",""1"",""4830""
","
","
","""event"",""trial"",""time""
""fullscreenenter"",""1"",""4830""
","
","","401.5","","","","real_trial","2021-07-15 20:11:56.513","img/card_backs/set1/yellow.gif","2","-230","1","",""
"casino-fixation","142","486673","0.0-25.0-0.36","979","false","img/card_backs/set1/yellow.gif","img/card_backs/set1/purple.gif","img/card_backs/set1/red.gif","img/card_backs/set1/green.gif","img/card_backs/set2/gray.gif","img/card_backs/set2/blue.gif","img/card_backs/set2/pink.gif","img/card_backs/set2/orange.gif","""event"",""trial"",""time""
""fullscreenenter"",""1"",""4830""
","
","
","""event"",""trial"",""time""
""fullscreenenter"",""1"",""4830""
","
","","null","","null","","fixation","2021-07-15 20:11:57.017","","","","","",""
"card-selection-trial","143","488727","0.0-25.0-1.36","979","false","img/card_backs/set1/yellow.gif","img/card_backs/set1/purple.gif","img/card_backs/set1/red.gif","img/card_backs/set1/green.gif","img/card_backs/set2/gray.gif","img/card_backs/set2/blue.gif","img/card_backs/set2/pink.gif","img/card_backs/set2/orange.gif","""event"",""trial"",""time""
""fullscreenenter"",""1"",""4830""
","
","
","""event"",""trial"",""time""
""fullscreenenter"",""1"",""4830""
","
","","39.89999985694885","","","","real_trial","2021-07-15 20:11:59.070","img/card_backs/set1/red.gif","2","110","1","",""
"casino-fixation","144","489230","0.0-25.0-0.37","979","false","img/card_backs/set1/yellow.gif","img/card_backs/set1/purple.gif","img/card_backs/set1/red.gif","img/card_backs/set1/green.gif","img/card_backs/set2/gray.gif","img/card_backs/set2/blue.gif","img/card_backs/set2/pink.gif","img/card_backs/set2/orange.gif","""event"",""trial"",""time""
""fullscreenenter"",""1"",""4830""
","
","
","""event"",""trial"",""time""
""fullscreenenter"",""1"",""4830""
","
","","null","","null","","fixation","2021-07-15 20:11:59.573","","","","","",""
"card-selection-trial","145","492115","0.0-25.0-1.37","979","false","img/card_backs/set1/yellow.gif","img/card_backs/set1/purple.gif","img/card_backs/set1/red.gif","img/card_backs/set1/green.gif","img/card_backs/set2/gray.gif","img/card_backs/set2/blue.gif","img/card_backs/set2/pink.gif","img/card_backs/set2/orange.gif","""event"",""trial"",""time""
""fullscreenenter"",""1"",""4830""
","
","
","""event"",""trial"",""time""
""fullscreenenter"",""1"",""4830""
","
","","874","","","","real_trial","2021-07-15 20:12:02.459","img/card_backs/set1/red.gif","2","100","1","",""
"casino-fixation","146","492619","0.0-25.0-0.38","979","false","img/card_backs/set1/yellow.gif","img/card_backs/set1/purple.gif","img/card_backs/set1/red.gif","img/card_backs/set1/green.gif","img/card_backs/set2/gray.gif","img/card_backs/set2/blue.gif","img/card_backs/set2/pink.gif","img/card_backs/set2/orange.gif","""event"",""trial"",""time""
""fullscreenenter"",""1"",""4830""
","
","
","""event"",""trial"",""time""
""fullscreenenter"",""1"",""4830""
","
","","null","","null","","fixation","2021-07-15 20:12:02.962","","","","","",""
"card-selection-trial","147","495255","0.0-25.0-1.38","979","false","img/card_backs/set1/yellow.gif","img/card_backs/set1/purple.gif","img/card_backs/set1/red.gif","img/card_backs/set1/green.gif","img/card_backs/set2/gray.gif","img/card_backs/set2/blue.gif","img/card_backs/set2/pink.gif","img/card_backs/set2/orange.gif","""event"",""trial"",""time""
""fullscreenenter"",""1"",""4830""
","
","
","""event"",""trial"",""time""
""fullscreenenter"",""1"",""4830""
","
","","622.5999999046326","","","","real_trial","2021-07-15 20:12:05.598","img/card_backs/set1/green.gif","2","-50","1","",""
"casino-fixation","148","495761","0.0-25.0-0.39","979","false","img/card_backs/set1/yellow.gif","img/card_backs/set1/purple.gif","img/card_backs/set1/red.gif","img/card_backs/set1/green.gif","img/card_backs/set2/gray.gif","img/card_backs/set2/blue.gif","img/card_backs/set2/pink.gif","img/card_backs/set2/orange.gif","""event"",""trial"",""time""
""fullscreenenter"",""1"",""4830""
","
","
","""event"",""trial"",""time""
""fullscreenenter"",""1"",""4830""
","
","","null","","null","","fixation","2021-07-15 20:12:06.104","","","","","",""
"card-selection-trial","149","498675","0.0-25.0-1.39","979","false","img/card_backs/set1/yellow.gif","img/card_backs/set1/purple.gif","img/card_backs/set1/red.gif","img/card_backs/set1/green.gif","img/card_backs/set2/gray.gif","img/card_backs/set2/blue.gif","img/card_backs/set2/pink.gif","img/card_backs/set2/orange.gif","""event"",""trial"",""time""
""fullscreenenter"",""1"",""4830""
","
","
","""event"",""trial"",""time""
""fullscreenenter"",""1"",""4830""
","
","","902.2999999523163","","","","real_trial","2021-07-15 20:12:09.019","img/card_backs/set1/yellow.gif","3","200","1","",""
"casino-fixation","150","499179","0.0-25.0-0.40","979","false","img/card_backs/set1/yellow.gif","img/card_backs/set1/purple.gif","img/card_backs/set1/red.gif","img/card_backs/set1/green.gif","img/card_backs/set2/gray.gif","img/card_backs/set2/blue.gif","img/card_backs/set2/pink.gif","img/card_backs/set2/orange.gif","""event"",""trial"",""time""
""fullscreenenter"",""1"",""4830""
","
","
","""event"",""trial"",""time""
""fullscreenenter"",""1"",""4830""
","
","","null","","null","","fixation","2021-07-15 20:12:09.522","","","","","",""
"card-selection-trial","151","502236","0.0-25.0-1.40","979","false","img/card_backs/set1/yellow.gif","img/card_backs/set1/purple.gif","img/card_backs/set1/red.gif","img/card_backs/set1/green.gif","img/card_backs/set2/gray.gif","img/card_backs/set2/blue.gif","img/card_backs/set2/pink.gif","img/card_backs/set2/orange.gif","""event"",""trial"",""time""
""fullscreenenter"",""1"",""4830""
","
","
","""event"",""trial"",""time""
""fullscreenenter"",""1"",""4830""
","
","","1044","","","","real_trial","2021-07-15 20:12:12.580","img/card_backs/set1/red.gif","0","-60","1","",""
"casino-fixation","152","502743","0.0-25.0-0.41","979","false","img/card_backs/set1/yellow.gif","img/card_backs/set1/purple.gif","img/card_backs/set1/red.gif","img/card_backs/set1/green.gif","img/card_backs/set2/gray.gif","img/card_backs/set2/blue.gif","img/card_backs/set2/pink.gif","img/card_backs/set2/orange.gif","""event"",""trial"",""time""
""fullscreenenter"",""1"",""4830""
","
","
","""event"",""trial"",""time""
""fullscreenenter"",""1"",""4830""
","
","","null","","null","","fixation","2021-07-15 20:12:13.086","","","","","",""
"card-selection-trial","153","505267","0.0-25.0-1.41","979","false","img/card_backs/set1/yellow.gif","img/card_backs/set1/purple.gif","img/card_backs/set1/red.gif","img/card_backs/set1/green.gif","img/card_backs/set2/gray.gif","img/card_backs/set2/blue.gif","img/card_backs/set2/pink.gif","img/card_backs/set2/orange.gif","""event"",""trial"",""time""
""fullscreenenter"",""1"",""4830""
","
","
","""event"",""trial"",""time""
""fullscreenenter"",""1"",""4830""
","
","","510","","","","real_trial","2021-07-15 20:12:15.610","img/card_backs/set1/yellow.gif","1","-240","1","",""
"casino-fixation","154","505773","0.0-25.0-0.42","979","false","img/card_backs/set1/yellow.gif","img/card_backs/set1/purple.gif","img/card_backs/set1/red.gif","img/card_backs/set1/green.gif","img/card_backs/set2/gray.gif","img/card_backs/set2/blue.gif","img/card_backs/set2/pink.gif","img/card_backs/set2/orange.gif","""event"",""trial"",""time""
""fullscreenenter"",""1"",""4830""
","
","
","""event"",""trial"",""time""
""fullscreenenter"",""1"",""4830""
","
","","null","","null","","fixation","2021-07-15 20:12:16.117","","","","","",""
"card-selection-trial","155","508587","0.0-25.0-1.42","979","false","img/card_backs/set1/yellow.gif","img/card_backs/set1/purple.gif","img/card_backs/set1/red.gif","img/card_backs/set1/green.gif","img/card_backs/set2/gray.gif","img/card_backs/set2/blue.gif","img/card_backs/set2/pink.gif","img/card_backs/set2/orange.gif","""event"",""trial"",""time""
""fullscreenenter"",""1"",""4830""
","
","
","""event"",""trial"",""time""
""fullscreenenter"",""1"",""4830""
","
","","799.7999999523163","","","","real_trial","2021-07-15 20:12:18.930","img/card_backs/set1/green.gif","0","-70","1","",""
"casino-fixation","156","509090","0.0-25.0-0.43","979","false","img/card_backs/set1/yellow.gif","img/card_backs/set1/purple.gif","img/card_backs/set1/red.gif","img/card_backs/set1/green.gif","img/card_backs/set2/gray.gif","img/card_backs/set2/blue.gif","img/card_backs/set2/pink.gif","img/card_backs/set2/orange.gif","""event"",""trial"",""time""
""fullscreenenter"",""1"",""4830""
","
","
","""event"",""trial"",""time""
""fullscreenenter"",""1"",""4830""
","
","","null","","null","","fixation","2021-07-15 20:12:19.433","","","","","",""
"card-selection-trial","157","511858","0.0-25.0-1.43","979","false","img/card_backs/set1/yellow.gif","img/card_backs/set1/purple.gif","img/card_backs/set1/red.gif","img/card_backs/set1/green.gif","img/card_backs/set2/gray.gif","img/card_backs/set2/blue.gif","img/card_backs/set2/pink.gif","img/card_backs/set2/orange.gif","""event"",""trial"",""time""
""fullscreenenter"",""1"",""4830""
","
","
","""event"",""trial"",""time""
""fullscreenenter"",""1"",""4830""
","
","","754.8000001907349","","","","real_trial","2021-07-15 20:12:22.201","img/card_backs/set1/purple.gif","2","-250","1","",""
"casino-fixation","158","512364","0.0-25.0-0.44","979","false","img/card_backs/set1/yellow.gif","img/card_backs/set1/purple.gif","img/card_backs/set1/red.gif","img/card_backs/set1/green.gif","img/card_backs/set2/gray.gif","img/card_backs/set2/blue.gif","img/card_backs/set2/pink.gif","img/card_backs/set2/orange.gif","""event"",""trial"",""time""
""fullscreenenter"",""1"",""4830""
","
","
","""event"",""trial"",""time""
""fullscreenenter"",""1"",""4830""
","
","","null","","null","","fixation","2021-07-15 20:12:22.707","","","","","",""
"card-selection-trial","159","515177","0.0-25.0-1.44","979","false","img/card_backs/set1/yellow.gif","img/card_backs/set1/purple.gif","img/card_backs/set1/red.gif","img/card_backs/set1/green.gif","img/card_backs/set2/gray.gif","img/card_backs/set2/blue.gif","img/card_backs/set2/pink.gif","img/card_backs/set2/orange.gif","""event"",""trial"",""time""
""fullscreenenter"",""1"",""4830""
","
","
","""event"",""trial"",""time""
""fullscreenenter"",""1"",""4830""
","
","","800.4000000953674","","","","real_trial","2021-07-15 20:12:25.520","img/card_backs/set1/red.gif","1","-60","1","",""
"casino-fixation","160","515681","0.0-25.0-0.45","979","false","img/card_backs/set1/yellow.gif","img/card_backs/set1/purple.gif","img/card_backs/set1/red.gif","img/card_backs/set1/green.gif","img/card_backs/set2/gray.gif","img/card_backs/set2/blue.gif","img/card_backs/set2/pink.gif","img/card_backs/set2/orange.gif","""event"",""trial"",""time""
""fullscreenenter"",""1"",""4830""
","
","
","""event"",""trial"",""time""
""fullscreenenter"",""1"",""4830""
","
","","null","","null","","fixation","2021-07-15 20:12:26.025","","","","","",""
"card-selection-trial","161","518794","0.0-25.0-1.45","979","false","img/card_backs/set1/yellow.gif","img/card_backs/set1/purple.gif","img/card_backs/set1/red.gif","img/card_backs/set1/green.gif","img/card_backs/set2/gray.gif","img/card_backs/set2/blue.gif","img/card_backs/set2/pink.gif","img/card_backs/set2/orange.gif","""event"",""trial"",""time""
""fullscreenenter"",""1"",""4830""
","
","
","""event"",""trial"",""time""
""fullscreenenter"",""1"",""4830""
","
","","1100.0999999046326","","","","real_trial","2021-07-15 20:12:29.137","img/card_backs/set1/yellow.gif","2","180","1","",""
"casino-fixation","162","519298","0.0-25.0-0.46","979","false","img/card_backs/set1/yellow.gif","img/card_backs/set1/purple.gif","img/card_backs/set1/red.gif","img/card_backs/set1/green.gif","img/card_backs/set2/gray.gif","img/card_backs/set2/blue.gif","img/card_backs/set2/pink.gif","img/card_backs/set2/orange.gif","""event"",""trial"",""time""
""fullscreenenter"",""1"",""4830""
","
","
","""event"",""trial"",""time""
""fullscreenenter"",""1"",""4830""
","
","","null","","null","","fixation","2021-07-15 20:12:29.641","","","","","",""
"card-selection-trial","163","522234","0.0-25.0-1.46","979","false","img/card_backs/set1/yellow.gif","img/card_backs/set1/purple.gif","img/card_backs/set1/red.gif","img/card_backs/set1/green.gif","img/card_backs/set2/gray.gif","img/card_backs/set2/blue.gif","img/card_backs/set2/pink.gif","img/card_backs/set2/orange.gif","""event"",""trial"",""time""
""fullscreenenter"",""1"",""4830""
","
","
","""event"",""trial"",""time""
""fullscreenenter"",""1"",""4830""
","
","","922.2000000476837","","","","real_trial","2021-07-15 20:12:32.577","img/card_backs/set1/yellow.gif","2","-250","1","",""
"casino-fixation","164","522737","0.0-25.0-0.47","979","false","img/card_backs/set1/yellow.gif","img/card_backs/set1/purple.gif","img/card_backs/set1/red.gif","img/card_backs/set1/green.gif","img/card_backs/set2/gray.gif","img/card_backs/set2/blue.gif","img/card_backs/set2/pink.gif","img/card_backs/set2/orange.gif","""event"",""trial"",""time""
""fullscreenenter"",""1"",""4830""
","
","
","""event"",""trial"",""time""
""fullscreenenter"",""1"",""4830""
","
","","null","","null","","fixation","2021-07-15 20:12:33.080","","","","","",""
"card-selection-trial","165","525610","0.0-25.0-1.47","979","false","img/card_backs/set1/yellow.gif","img/card_backs/set1/purple.gif","img/card_backs/set1/red.gif","img/card_backs/set1/green.gif","img/card_backs/set2/gray.gif","img/card_backs/set2/blue.gif","img/card_backs/set2/pink.gif","img/card_backs/set2/orange.gif","""event"",""trial"",""time""
""fullscreenenter"",""1"",""4830""
","
","
","""event"",""trial"",""time""
""fullscreenenter"",""1"",""4830""
","
","","860.7000000476837","","","","real_trial","2021-07-15 20:12:35.953","img/card_backs/set1/green.gif","3","100","1","",""
"casino-fixation","166","526115","0.0-25.0-0.48","979","false","img/card_backs/set1/yellow.gif","img/card_backs/set1/purple.gif","img/card_backs/set1/red.gif","img/card_backs/set1/green.gif","img/card_backs/set2/gray.gif","img/card_backs/set2/blue.gif","img/card_backs/set2/pink.gif","img/card_backs/set2/orange.gif","""event"",""trial"",""time""
""fullscreenenter"",""1"",""4830""
","
","
","""event"",""trial"",""time""
""fullscreenenter"",""1"",""4830""
","
","","null","","null","","fixation","2021-07-15 20:12:36.459","","","","","",""
"card-selection-trial","167","528780","0.0-25.0-1.48","979","false","img/card_backs/set1/yellow.gif","img/card_backs/set1/purple.gif","img/card_backs/set1/red.gif","img/card_backs/set1/green.gif","img/card_backs/set2/gray.gif","img/card_backs/set2/blue.gif","img/card_backs/set2/pink.gif","img/card_backs/set2/orange.gif","""event"",""trial"",""time""
""fullscreenenter"",""1"",""4830""
","
","
","""event"",""trial"",""time""
""fullscreenenter"",""1"",""4830""
","
