"trial_type","trial_index","time_elapsed","internal_node_id","sub_id","risk_good_first","block1_A","block1_B","block1_C","block1_D","block2_A","block2_B","block2_C","block2_D","interactions","blur_events","focus_events","fullscreenenter_events","fullscreenexit_events","success","rt","stimulus","key_press","button_pressed","task_part","timestamp","card_choice","choice_position","points_earned","block","correct","response"
"pavlovia","0","3","0.0-0.0","875","true","img/card_backs/set1/purple.gif","img/card_backs/set1/green.gif","img/card_backs/set1/yellow.gif","img/card_backs/set1/red.gif","img/card_backs/set2/orange.gif","img/card_backs/set2/blue.gif","img/card_backs/set2/pink.gif","img/card_backs/set2/gray.gif","""event"",""trial"",""time""
""fullscreenenter"",""1"",""1650""
","
","
","""event"",""trial"",""time""
""fullscreenenter"",""1"",""1650""
","
","","","","","","","","","","","","",""
"fullscreen","1","2626","0.0-1.0","875","true","img/card_backs/set1/purple.gif","img/card_backs/set1/green.gif","img/card_backs/set1/yellow.gif","img/card_backs/set1/red.gif","img/card_backs/set2/orange.gif","img/card_backs/set2/blue.gif","img/card_backs/set2/pink.gif","img/card_backs/set2/gray.gif","""event"",""trial"",""time""
""fullscreenenter"",""1"",""1650""
","
","
","""event"",""trial"",""time""
""fullscreenenter"",""1"",""1650""
","
","true","","","","","","","","","","","",""
"audio-keyboard-response","2","4572","0.0-2.0","875","true","img/card_backs/set1/purple.gif","img/card_backs/set1/green.gif","img/card_backs/set1/yellow.gif","img/card_backs/set1/red.gif","img/card_backs/set2/orange.gif","img/card_backs/set2/blue.gif","img/card_backs/set2/pink.gif","img/card_backs/set2/gray.gif","""event"",""trial"",""time""
""fullscreenenter"",""1"",""1650""
","
","
","""event"",""trial"",""time""
""fullscreenenter"",""1"",""1650""
","
","","1765","audio/beep_loop.wav","32","","","","","","","","",""
"audio-button-response","3","6710","0.0-3.0","875","true","img/card_backs/set1/purple.gif","img/card_backs/set1/green.gif","img/card_backs/set1/yellow.gif","img/card_backs/set1/red.gif","img/card_backs/set2/orange.gif","img/card_backs/set2/blue.gif","img/card_backs/set2/pink.gif","img/card_backs/set2/gray.gif","""event"",""trial"",""time""
""fullscreenenter"",""1"",""1650""
","
","
","""event"",""trial"",""time""
""fullscreenenter"",""1"",""1650""
","
","","NaN","audio/turtle.mp3","","3","","","","","","","",""
"audio-button-response","4","10208","0.0-4.0","875","true","img/card_backs/set1/purple.gif","img/card_backs/set1/green.gif","img/card_backs/set1/yellow.gif","img/card_backs/set1/red.gif","img/card_backs/set2/orange.gif","img/card_backs/set2/blue.gif","img/card_backs/set2/pink.gif","img/card_backs/set2/gray.gif","""event"",""trial"",""time""
""fullscreenenter"",""1"",""1650""
","
","
","""event"",""trial"",""time""
""fullscreenenter"",""1"",""1650""
","
","","NaN","audio/shark.mp3","","2","","","","","","","",""
"fullscreen","5","14318","0.0-5.0","875","true","img/card_backs/set1/purple.gif","img/card_backs/set1/green.gif","img/card_backs/set1/yellow.gif","img/card_backs/set1/red.gif","img/card_backs/set2/orange.gif","img/card_backs/set2/blue.gif","img/card_backs/set2/pink.gif","img/card_backs/set2/gray.gif","""event"",""trial"",""time""
""fullscreenenter"",""1"",""1650""
","
","
","""event"",""trial"",""time""
""fullscreenenter"",""1"",""1650""
","
","true","","","","","","","","","","","",""
"casino-keyboard-response","6","17769","0.0-6.0-0.0","875","true","img/card_backs/set1/purple.gif","img/card_backs/set1/green.gif","img/card_backs/set1/yellow.gif","img/card_backs/set1/red.gif","img/card_backs/set2/orange.gif","img/card_backs/set2/blue.gif","img/card_backs/set2/pink.gif","img/card_backs/set2/gray.gif","""event"",""trial"",""time""
""fullscreenenter"",""1"",""1650""
","
","
","""event"",""trial"",""time""
""fullscreenenter"",""1"",""1650""
","
","","3449.5","Welcome to the casino!","71","","instructions","2021-06-25 22:20:52.126","","","","","",""
"casino-keyboard-response","7","27275","0.0-6.0-0.1","875","true","img/card_backs/set1/purple.gif","img/card_backs/set1/green.gif","img/card_backs/set1/yellow.gif","img/card_backs/set1/red.gif","img/card_backs/set2/orange.gif","img/card_backs/set2/blue.gif","img/card_backs/set2/pink.gif","img/card_backs/set2/gray.gif","""event"",""trial"",""time""
""fullscreenenter"",""1"",""1650""
","
","
","""event"",""trial"",""time""
""fullscreenenter"",""1"",""1650""
","
","","9505","Today you will be playing a game to earn tokens. </br> At the end of the experiment, you will be paid a bonus based on how many tokens you win. ","69","","instructions","2021-06-25 22:21:01.632","","","","","",""
"casino-keyboard-response","8","35072","0.0-6.0-0.2","875","true","img/card_backs/set1/purple.gif","img/card_backs/set1/green.gif","img/card_backs/set1/yellow.gif","img/card_backs/set1/red.gif","img/card_backs/set2/orange.gif","img/card_backs/set2/blue.gif","img/card_backs/set2/pink.gif","img/card_backs/set2/gray.gif","""event"",""trial"",""time""
""fullscreenenter"",""1"",""1650""
","
","
","""event"",""trial"",""time""
""fullscreenenter"",""1"",""1650""
","
","","7796.30000000447","On every turn, you will be shown four different decks of cards. </br> You need to select a card from one of the four decks.  ","75","","instructions","2021-06-25 22:21:09.429","","","","","",""
"casino-keyboard-response","9","40067","0.0-6.0-0.3","875","true","img/card_backs/set1/purple.gif","img/card_backs/set1/green.gif","img/card_backs/set1/yellow.gif","img/card_backs/set1/red.gif","img/card_backs/set2/orange.gif","img/card_backs/set2/blue.gif","img/card_backs/set2/pink.gif","img/card_backs/set2/gray.gif","""event"",""trial"",""time""
""fullscreenenter"",""1"",""1650""
","
","
","""event"",""trial"",""time""
""fullscreenenter"",""1"",""1650""
","
","","4993.79999999702","On the next screen, you will see what the decks will look like. ","66","","instructions","2021-06-25 22:21:14.424","","","","","",""
"card-selection-trial","10","44074","0.0-7.0-0.0","875","true","img/card_backs/set1/purple.gif","img/card_backs/set1/green.gif","img/card_backs/set1/yellow.gif","img/card_backs/set1/red.gif","img/card_backs/set2/orange.gif","img/card_backs/set2/blue.gif","img/card_backs/set2/pink.gif","img/card_backs/set2/gray.gif","""event"",""trial"",""time""
""fullscreenenter"",""1"",""1650""
","
","
","""event"",""trial"",""time""
""fullscreenenter"",""1"",""1650""
","
","","null","","","","practice","2021-06-25 22:21:18.431","null","null","null","0","",""
"casino-keyboard-response","11","52487","0.0-8.0-0.0","875","true","img/card_backs/set1/purple.gif","img/card_backs/set1/green.gif","img/card_backs/set1/yellow.gif","img/card_backs/set1/red.gif","img/card_backs/set2/orange.gif","img/card_backs/set2/blue.gif","img/card_backs/set2/pink.gif","img/card_backs/set2/gray.gif","""event"",""trial"",""time""
""fullscreenenter"",""1"",""1650""
","
","
","""event"",""trial"",""time""
""fullscreenenter"",""1"",""1650""
","
","","8412","You should pick a card from a deck using the '2', '4', '6', and '8' keys at the top of the keyboard.","85","","instructions","2021-06-25 22:21:26.844","","","","","",""
"casino-keyboard-response","12","59226","0.0-8.0-0.1","875","true","img/card_backs/set1/purple.gif","img/card_backs/set1/green.gif","img/card_backs/set1/yellow.gif","img/card_backs/set1/red.gif","img/card_backs/set2/orange.gif","img/card_backs/set2/blue.gif","img/card_backs/set2/pink.gif","img/card_backs/set2/gray.gif","""event"",""trial"",""time""
""fullscreenenter"",""1"",""1650""
","
","
","""event"",""trial"",""time""
""fullscreenenter"",""1"",""1650""
","
","","6737.69999999553","Once you select a card, it will turn over and you will see how many tokens you earned.","83","","instructions","2021-06-25 22:21:33.583","","","","","",""
"casino-keyboard-response","13","74728","0.0-8.0-0.2","875","true","img/card_backs/set1/purple.gif","img/card_backs/set1/green.gif","img/card_backs/set1/yellow.gif","img/card_backs/set1/red.gif","img/card_backs/set2/orange.gif","img/card_backs/set2/blue.gif","img/card_backs/set2/pink.gif","img/card_backs/set2/gray.gif","""event"",""trial"",""time""
""fullscreenenter"",""1"",""1650""
","
","
","""event"",""trial"",""time""
""fullscreenenter"",""1"",""1650""
","
","","15502.20000000298","Let's try practicing that! </br> First, try to put your fingers over the '2', '4', '6', and '8' keys. </br>  You can use whatever fingers are most comfortable for you. Try to find a comfortable position now. ","50","","instructions","2021-06-25 22:21:49.086","","","","","",""
"casino-keyboard-response","14","80354","0.0-8.0-0.3","875","true","img/card_backs/set1/purple.gif","img/card_backs/set1/green.gif","img/card_backs/set1/yellow.gif","img/card_backs/set1/red.gif","img/card_backs/set2/orange.gif","img/card_backs/set2/blue.gif","img/card_backs/set2/pink.gif","img/card_backs/set2/gray.gif","""event"",""trial"",""time""
""fullscreenenter"",""1"",""1650""
","
","
","""event"",""trial"",""time""
""fullscreenenter"",""1"",""1650""
","
","","5624.5999999940395","Okay ready? </br> On the next screen, press '2' to select the left deck. ","50","","instructions","2021-06-25 22:21:54.711","","","","","",""
"card-selection-trial","15","83270","0.0-9.0-0.0","875","true","img/card_backs/set1/purple.gif","img/card_backs/set1/green.gif","img/card_backs/set1/yellow.gif","img/card_backs/set1/red.gif","img/card_backs/set2/orange.gif","img/card_backs/set2/blue.gif","img/card_backs/set2/pink.gif","img/card_backs/set2/gray.gif","""event"",""trial"",""time""
""fullscreenenter"",""1"",""1650""
","
","
","""event"",""trial"",""time""
""fullscreenenter"",""1"",""1650""
","
","","903.7000000029802","","","","practice_card_selection","2021-06-25 22:21:57.627","img/practice_cards/backs/brown.gif","0","100","","",""
"casino-keyboard-response","16","89275","0.0-10.0-0.0","875","true","img/card_backs/set1/purple.gif","img/card_backs/set1/green.gif","img/card_backs/set1/yellow.gif","img/card_backs/set1/red.gif","img/card_backs/set2/orange.gif","img/card_backs/set2/blue.gif","img/card_backs/set2/pink.gif","img/card_backs/set2/gray.gif","""event"",""trial"",""time""
""fullscreenenter"",""1"",""1650""
","
","
","""event"",""trial"",""time""
""fullscreenenter"",""1"",""1650""
","
","","6003.9000000059605","Great! Now on the next screen, try pressing '6' to select the third deck.","54","","instructions","2021-06-25 22:22:03.632","","","","","",""
"card-selection-trial","17","92041","0.0-11.0-0.0","875","true","img/card_backs/set1/purple.gif","img/card_backs/set1/green.gif","img/card_backs/set1/yellow.gif","img/card_backs/set1/red.gif","img/card_backs/set2/orange.gif","img/card_backs/set2/blue.gif","img/card_backs/set2/pink.gif","img/card_backs/set2/gray.gif","""event"",""trial"",""time""
""fullscreenenter"",""1"",""1650""
","
","
","""event"",""trial"",""time""
""fullscreenenter"",""1"",""1650""
","
","","762.6999999955297","","","","practice_card_selection","2021-06-25 22:22:06.398","img/practice_cards/backs/dark_green.gif","2","200","","",""
"casino-keyboard-response","18","96667","0.0-12.0-0.0","875","true","img/card_backs/set1/purple.gif","img/card_backs/set1/green.gif","img/card_backs/set1/yellow.gif","img/card_backs/set1/red.gif","img/card_backs/set2/orange.gif","img/card_backs/set2/blue.gif","img/card_backs/set2/pink.gif","img/card_backs/set2/gray.gif","""event"",""trial"",""time""
""fullscreenenter"",""1"",""1650""
","
","
","""event"",""trial"",""time""
""fullscreenenter"",""1"",""1650""
","
","","4624.79999999702","Now on the next screen, try pressing '4' to select the second deck.","52","","instructions","2021-06-25 22:22:11.024","","","","","",""
"card-selection-trial","19","99514","0.0-13.0-0.0","875","true","img/card_backs/set1/purple.gif","img/card_backs/set1/green.gif","img/card_backs/set1/yellow.gif","img/card_backs/set1/red.gif","img/card_backs/set2/orange.gif","img/card_backs/set2/blue.gif","img/card_backs/set2/pink.gif","img/card_backs/set2/gray.gif","""event"",""trial"",""time""
""fullscreenenter"",""1"",""1650""
","
","
","""event"",""trial"",""time""
""fullscreenenter"",""1"",""1650""
","
","","839.6000000014901","","","","practice_card_selection","2021-06-25 22:22:13.871","img/practice_cards/backs/black.gif","1","100","","",""
"casino-keyboard-response","20","104373","0.0-14.0-0.0","875","true","img/card_backs/set1/purple.gif","img/card_backs/set1/green.gif","img/card_backs/set1/yellow.gif","img/card_backs/set1/red.gif","img/card_backs/set2/orange.gif","img/card_backs/set2/blue.gif","img/card_backs/set2/pink.gif","img/card_backs/set2/gray.gif","""event"",""trial"",""time""
""fullscreenenter"",""1"",""1650""
","
","
","""event"",""trial"",""time""
""fullscreenenter"",""1"",""1650""
","
","","4857.4000000059605","Finally, try pressing '8' to select the deck all the way on the right.","56","","instructions","2021-06-25 22:22:18.730","","","","","",""
"card-selection-trial","21","107142","0.0-15.0-0.0","875","true","img/card_backs/set1/purple.gif","img/card_backs/set1/green.gif","img/card_backs/set1/yellow.gif","img/card_backs/set1/red.gif","img/card_backs/set2/orange.gif","img/card_backs/set2/blue.gif","img/card_backs/set2/pink.gif","img/card_backs/set2/gray.gif","""event"",""trial"",""time""
""fullscreenenter"",""1"",""1650""
","
","
","""event"",""trial"",""time""
""fullscreenenter"",""1"",""1650""
","
","","761.6999999955297","","","","practice_card_selection","2021-06-25 22:22:21.499","img/practice_cards/backs/black.gif","3","100","","",""
"casino-keyboard-response","22","111584","0.0-16.0-0.0","875","true","img/card_backs/set1/purple.gif","img/card_backs/set1/green.gif","img/card_backs/set1/yellow.gif","img/card_backs/set1/red.gif","img/card_backs/set2/orange.gif","img/card_backs/set2/blue.gif","img/card_backs/set2/pink.gif","img/card_backs/set2/gray.gif","""event"",""trial"",""time""
""fullscreenenter"",""1"",""1650""
","
","
","""event"",""trial"",""time""
""fullscreenenter"",""1"",""1650""
","
","","4441.70000000298","Great! It seems like you are getting the hang of this.","80","","instructions","2021-06-25 22:22:25.941","","","","","",""
"casino-keyboard-response","23","119471","0.0-16.0-0.1","875","true","img/card_backs/set1/purple.gif","img/card_backs/set1/green.gif","img/card_backs/set1/yellow.gif","img/card_backs/set1/red.gif","img/card_backs/set2/orange.gif","img/card_backs/set2/blue.gif","img/card_backs/set2/pink.gif","img/card_backs/set2/gray.gif","""event"",""trial"",""time""
""fullscreenenter"",""1"",""1650""
","
","
","""event"",""trial"",""time""
""fullscreenenter"",""1"",""1650""
","
","","7885.5","You may have noticed that some cards will cause you to <b> win </b> tokens while other cards will cause you to <b> lose </b>  tokens.","70","","instructions","2021-06-25 22:22:33.828","","","","","",""
"casino-keyboard-response","24","127899","0.0-16.0-0.2","875","true","img/card_backs/set1/purple.gif","img/card_backs/set1/green.gif","img/card_backs/set1/yellow.gif","img/card_backs/set1/red.gif","img/card_backs/set2/orange.gif","img/card_backs/set2/blue.gif","img/card_backs/set2/pink.gif","img/card_backs/set2/gray.gif","""event"",""trial"",""time""
""fullscreenenter"",""1"",""1650""
","
","
","""event"",""trial"",""time""
""fullscreenenter"",""1"",""1650""
","
","","8426.89999999851","Each deck has a mix of cards that will cause you to win and lose tokens. </br> However, the cards in each colored deck are different.","73","","instructions","2021-06-25 22:22:42.256","","","","","",""
"casino-keyboard-response","25","136515","0.0-16.0-0.3","875","true","img/card_backs/set1/purple.gif","img/card_backs/set1/green.gif","img/card_backs/set1/yellow.gif","img/card_backs/set1/red.gif","img/card_backs/set2/orange.gif","img/card_backs/set2/blue.gif","img/card_backs/set2/pink.gif","img/card_backs/set2/gray.gif","""event"",""trial"",""time""
""fullscreenenter"",""1"",""1650""
","
","
","""event"",""trial"",""time""
""fullscreenenter"",""1"",""1650""
","
","","8615.39999999851","Some colored decks are luckier than others. </br> If you choose the lucky decks, you will earn more tokens than if you choose the unlucky decks.","69","","instructions","2021-06-25 22:22:50.872","","","","","",""
"casino-keyboard-response","26","143930","0.0-16.0-0.4","875","true","img/card_backs/set1/purple.gif","img/card_backs/set1/green.gif","img/card_backs/set1/yellow.gif","img/card_backs/set1/red.gif","img/card_backs/set2/orange.gif","img/card_backs/set2/blue.gif","img/card_backs/set2/pink.gif","img/card_backs/set2/gray.gif","""event"",""trial"",""time""
""fullscreenenter"",""1"",""1650""
","
","
","""event"",""trial"",""time""
""fullscreenenter"",""1"",""1650""
","
","","7414","You should try to figure out which decks are lucky. </br> Then, try to choose the lucky decks so you can win the most tokens.","87","","instructions","2021-06-25 22:22:58.287","","","","","",""
"casino-keyboard-response","27","156360","0.0-16.0-0.5","875","true","img/card_backs/set1/purple.gif","img/card_backs/set1/green.gif","img/card_backs/set1/yellow.gif","img/card_backs/set1/red.gif","img/card_backs/set2/orange.gif","img/card_backs/set2/blue.gif","img/card_backs/set2/pink.gif","img/card_backs/set2/gray.gif","""event"",""trial"",""time""
""fullscreenenter"",""1"",""1650""
","
","
","""event"",""trial"",""time""
""fullscreenenter"",""1"",""1650""
","
","","12429.5","To make it trickier, the casino dealer will switch the locations of the decks on every turn. </br> The color of the deck determines how lucky it is. The location does not matter.","88","","instructions","2021-06-25 22:23:10.717","","","","","",""
"casino-keyboard-response","28","165845","0.0-16.0-0.6","875","true","img/card_backs/set1/purple.gif","img/card_backs/set1/green.gif","img/card_backs/set1/yellow.gif","img/card_backs/set1/red.gif","img/card_backs/set2/orange.gif","img/card_backs/set2/blue.gif","img/card_backs/set2/pink.gif","img/card_backs/set2/gray.gif","""event"",""trial"",""time""
""fullscreenenter"",""1"",""1650""
","
","
","""event"",""trial"",""time""
""fullscreenenter"",""1"",""1650""
","
","","9483.5","The mix of cards in each colored deck will stay the same throughout the game. </br> That means that a deck that is lucky early on will stay lucky.","79","","instructions","2021-06-25 22:23:20.202","","","","","",""
"casino-keyboard-response","29","174046","0.0-16.0-0.7","875","true","img/card_backs/set1/purple.gif","img/card_backs/set1/green.gif","img/card_backs/set1/yellow.gif","img/card_backs/set1/red.gif","img/card_backs/set2/orange.gif","img/card_backs/set2/blue.gif","img/card_backs/set2/pink.gif","img/card_backs/set2/gray.gif","""event"",""trial"",""time""
""fullscreenenter"",""1"",""1650""
","
","
","""event"",""trial"",""time""
""fullscreenenter"",""1"",""1650""
","
","","8200.39999999851","Remember though, all the decks have a <b> mix </b> of both <b> good </b> and <b> bad </b> cards so it may take a couple of turns to figure out if a deck is lucky.","69","","instructions","2021-06-25 22:23:28.403","","","","","",""
"casino-keyboard-response","30","182213","0.0-16.0-0.8","875","true","img/card_backs/set1/purple.gif","img/card_backs/set1/green.gif","img/card_backs/set1/yellow.gif","img/card_backs/set1/red.gif","img/card_backs/set2/orange.gif","img/card_backs/set2/blue.gif","img/card_backs/set2/pink.gif","img/card_backs/set2/gray.gif","""event"",""trial"",""time""
""fullscreenenter"",""1"",""1650""
","
","
","""event"",""trial"",""time""
""fullscreenenter"",""1"",""1650""
","
","","8166","At the end of the game, you will be paid bonus money based on how many tokens you win. </br> If you win more tokens, you will earn more money!","72","","instructions","2021-06-25 22:23:36.570","","","","","",""
"casino-keyboard-response","31","192530","0.0-16.0-0.9","875","true","img/card_backs/set1/purple.gif","img/card_backs/set1/green.gif","img/card_backs/set1/yellow.gif","img/card_backs/set1/red.gif","img/card_backs/set2/orange.gif","img/card_backs/set2/blue.gif","img/card_backs/set2/pink.gif","img/card_backs/set2/gray.gif","""event"",""trial"",""time""
""fullscreenenter"",""1"",""1650""
","
","
","""event"",""trial"",""time""
""fullscreenenter"",""1"",""1650""
","
","","10315.79999999702","You will never <b> lose </b> money. </br> If you end up with fewer than 0 tokens, you will earn $0 of bonus money, but you will still be paid for playing the game.","83","","instructions","2021-06-25 22:23:46.887","","","","","",""
"casino-keyboard-response","32","197784","0.0-16.0-0.10","875","true","img/card_backs/set1/purple.gif","img/card_backs/set1/green.gif","img/card_backs/set1/yellow.gif","img/card_backs/set1/red.gif","img/card_backs/set2/orange.gif","img/card_backs/set2/blue.gif","img/card_backs/set2/pink.gif","img/card_backs/set2/gray.gif","""event"",""trial"",""time""
""fullscreenenter"",""1"",""1650""
","
","
","""event"",""trial"",""time""
""fullscreenenter"",""1"",""1650""
","
","","5252.89999999851","You will have 10 seconds to make each choice.","82","","instructions","2021-06-25 22:23:52.141","","","","","",""
"casino-keyboard-response","33","206019","0.0-16.0-0.11","875","true","img/card_backs/set1/purple.gif","img/card_backs/set1/green.gif","img/card_backs/set1/yellow.gif","img/card_backs/set1/red.gif","img/card_backs/set2/orange.gif","img/card_backs/set2/blue.gif","img/card_backs/set2/pink.gif","img/card_backs/set2/gray.gif","""event"",""trial"",""time""
""fullscreenenter"",""1"",""1650""
","
","
","""event"",""trial"",""time""
""fullscreenenter"",""1"",""1650""
","
","","8233.60000000149","Before you play the game for real, you will play with practice decks. </br> The tokens you earn during practice won't count toward your total.","86","","instructions","2021-06-25 22:24:00.376","","","","","",""
"casino-keyboard-response","34","217078","0.0-16.0-0.12","875","true","img/card_backs/set1/purple.gif","img/card_backs/set1/green.gif","img/card_backs/set1/yellow.gif","img/card_backs/set1/red.gif","img/card_backs/set2/orange.gif","img/card_backs/set2/blue.gif","img/card_backs/set2/pink.gif","img/card_backs/set2/gray.gif","""event"",""trial"",""time""
""fullscreenenter"",""1"",""1650""
","
","
","""event"",""trial"",""time""
""fullscreenenter"",""1"",""1650""
","
","","11057.80000000447","Ready? Remember, use the '2', '4', '6', and '8' keys to select the decks. </br> Put your fingers on those keys now and then press '2' to begin.","50","","instructions","2021-06-25 22:24:11.435","","","","","",""
"casino-fixation","35","217579","0.0-17.0-0.0","875","true","img/card_backs/set1/purple.gif","img/card_backs/set1/green.gif","img/card_backs/set1/yellow.gif","img/card_backs/set1/red.gif","img/card_backs/set2/orange.gif","img/card_backs/set2/blue.gif","img/card_backs/set2/pink.gif","img/card_backs/set2/gray.gif","""event"",""trial"",""time""
""fullscreenenter"",""1"",""1650""
","
","
","""event"",""trial"",""time""
""fullscreenenter"",""1"",""1650""
","
","","null","","null","","fixation","2021-06-25 22:24:11.936","","","","","",""
"card-selection-trial","36","220631","0.0-17.0-1.0","875","true","img/card_backs/set1/purple.gif","img/card_backs/set1/green.gif","img/card_backs/set1/yellow.gif","img/card_backs/set1/red.gif","img/card_backs/set2/orange.gif","img/card_backs/set2/blue.gif","img/card_backs/set2/pink.gif","img/card_backs/set2/gray.gif","""event"",""trial"",""time""
""fullscreenenter"",""1"",""1650""
","
","
","""event"",""trial"",""time""
""fullscreenenter"",""1"",""1650""
","
","","1047.5","","","","practice","2021-06-25 22:24:14.988","img/practice_cards/backs/dark_blue.gif","0","-200","0","",""
"casino-fixation","37","221133","0.0-17.0-0.1","875","true","img/card_backs/set1/purple.gif","img/card_backs/set1/green.gif","img/card_backs/set1/yellow.gif","img/card_backs/set1/red.gif","img/card_backs/set2/orange.gif","img/card_backs/set2/blue.gif","img/card_backs/set2/pink.gif","img/card_backs/set2/gray.gif","""event"",""trial"",""time""
""fullscreenenter"",""1"",""1650""
","
","
","""event"",""trial"",""time""
""fullscreenenter"",""1"",""1650""
","
","","null","","null","","fixation","2021-06-25 22:24:15.490","","","","","",""
"card-selection-trial","38","225327","0.0-17.0-1.1","875","true","img/card_backs/set1/purple.gif","img/card_backs/set1/green.gif","img/card_backs/set1/yellow.gif","img/card_backs/set1/red.gif","img/card_backs/set2/orange.gif","img/card_backs/set2/blue.gif","img/card_backs/set2/pink.gif","img/card_backs/set2/gray.gif","""event"",""trial"",""time""
""fullscreenenter"",""1"",""1650""
","
","
","""event"",""trial"",""time""
""fullscreenenter"",""1"",""1650""
","
","","2186.10000000149","","","","practice","2021-06-25 22:24:19.684","img/practice_cards/backs/dark_blue.gif","2","200","0","",""
"casino-fixation","39","225829","0.0-17.0-0.2","875","true","img/card_backs/set1/purple.gif","img/card_backs/set1/green.gif","img/card_backs/set1/yellow.gif","img/card_backs/set1/red.gif","img/card_backs/set2/orange.gif","img/card_backs/set2/blue.gif","img/card_backs/set2/pink.gif","img/card_backs/set2/gray.gif","""event"",""trial"",""time""
""fullscreenenter"",""1"",""1650""
","
","
","""event"",""trial"",""time""
""fullscreenenter"",""1"",""1650""
","
","","null","","null","","fixation","2021-06-25 22:24:20.186","","","","","",""
"card-selection-trial","40","229509","0.0-17.0-1.2","875","true","img/card_backs/set1/purple.gif","img/card_backs/set1/green.gif","img/card_backs/set1/yellow.gif","img/card_backs/set1/red.gif","img/card_backs/set2/orange.gif","img/card_backs/set2/blue.gif","img/card_backs/set2/pink.gif","img/card_backs/set2/gray.gif","""event"",""trial"",""time""
""fullscreenenter"",""1"",""1650""
","
","
","""event"",""trial"",""time""
""fullscreenenter"",""1"",""1650""
","
","","1674.8000000044703","","","","practice","2021-06-25 22:24:23.866","img/practice_cards/backs/dark_green.gif","2","-200","0","",""
"casino-fixation","41","230015","0.0-17.0-0.3","875","true","img/card_backs/set1/purple.gif","img/card_backs/set1/green.gif","img/card_backs/set1/yellow.gif","img/card_backs/set1/red.gif","img/card_backs/set2/orange.gif","img/card_backs/set2/blue.gif","img/card_backs/set2/pink.gif","img/card_backs/set2/gray.gif","""event"",""trial"",""time""
""fullscreenenter"",""1"",""1650""
","
","
","""event"",""trial"",""time""
""fullscreenenter"",""1"",""1650""
","
","","null","","null","","fixation","2021-06-25 22:24:24.372","","","","","",""
"card-selection-trial","42","232673","0.0-17.0-1.3","875","true","img/card_backs/set1/purple.gif","img/card_backs/set1/green.gif","img/card_backs/set1/yellow.gif","img/card_backs/set1/red.gif","img/card_backs/set2/orange.gif","img/card_backs/set2/blue.gif","img/card_backs/set2/pink.gif","img/card_backs/set2/gray.gif","""event"",""trial"",""time""
""fullscreenenter"",""1"",""1650""
","
","
","""event"",""trial"",""time""
""fullscreenenter"",""1"",""1650""
","
","","649.6999999955297","","","","practice","2021-06-25 22:24:27.030","img/practice_cards/backs/black.gif","3","100","0","",""
"casino-fixation","43","233178","0.0-17.0-0.4","875","true","img/card_backs/set1/purple.gif","img/card_backs/set1/green.gif","img/card_backs/set1/yellow.gif","img/card_backs/set1/red.gif","img/card_backs/set2/orange.gif","img/card_backs/set2/blue.gif","img/card_backs/set2/pink.gif","img/card_backs/set2/gray.gif","""event"",""trial"",""time""
""fullscreenenter"",""1"",""1650""
","
","
","""event"",""trial"",""time""
""fullscreenenter"",""1"",""1650""
","
","","null","","null","","fixation","2021-06-25 22:24:27.535","","","","","",""
"card-selection-trial","44","236701","0.0-17.0-1.4","875","true","img/card_backs/set1/purple.gif","img/card_backs/set1/green.gif","img/card_backs/set1/yellow.gif","img/card_backs/set1/red.gif","img/card_backs/set2/orange.gif","img/card_backs/set2/blue.gif","img/card_backs/set2/pink.gif","img/card_backs/set2/gray.gif","""event"",""trial"",""time""
""fullscreenenter"",""1"",""1650""
","
","
","""event"",""trial"",""time""
""fullscreenenter"",""1"",""1650""
","
","","1514.5","","","","practice","2021-06-25 22:24:31.058","img/practice_cards/backs/dark_blue.gif","1","200","0","",""
"casino-fixation","45","237206","0.0-17.0-0.5","875","true","img/card_backs/set1/purple.gif","img/card_backs/set1/green.gif","img/card_backs/set1/yellow.gif","img/card_backs/set1/red.gif","img/card_backs/set2/orange.gif","img/card_backs/set2/blue.gif","img/card_backs/set2/pink.gif","img/card_backs/set2/gray.gif","""event"",""trial"",""time""
""fullscreenenter"",""1"",""1650""
","
","
","""event"",""trial"",""time""
""fullscreenenter"",""1"",""1650""
","
","","null","","null","","fixation","2021-06-25 22:24:31.564","","","","","",""
"card-selection-trial","46","240353","0.0-17.0-1.5","875","true","img/card_backs/set1/purple.gif","img/card_backs/set1/green.gif","img/card_backs/set1/yellow.gif","img/card_backs/set1/red.gif","img/card_backs/set2/orange.gif","img/card_backs/set2/blue.gif","img/card_backs/set2/pink.gif","img/card_backs/set2/gray.gif","""event"",""trial"",""time""
""fullscreenenter"",""1"",""1650""
","
","
","""event"",""trial"",""time""
""fullscreenenter"",""1"",""1650""
","
","","1143","","","","practice","2021-06-25 22:24:34.710","img/practice_cards/backs/dark_green.gif","2","200","0","",""
"casino-fixation","47","240858","0.0-17.0-0.6","875","true","img/card_backs/set1/purple.gif","img/card_backs/set1/green.gif","img/card_backs/set1/yellow.gif","img/card_backs/set1/red.gif","img/card_backs/set2/orange.gif","img/card_backs/set2/blue.gif","img/card_backs/set2/pink.gif","img/card_backs/set2/gray.gif","""event"",""trial"",""time""
""fullscreenenter"",""1"",""1650""
","
","
","""event"",""trial"",""time""
""fullscreenenter"",""1"",""1650""
","
","","null","","null","","fixation","2021-06-25 22:24:35.215","","","","","",""
"card-selection-trial","48","243854","0.0-17.0-1.6","875","true","img/card_backs/set1/purple.gif","img/card_backs/set1/green.gif","img/card_backs/set1/yellow.gif","img/card_backs/set1/red.gif","img/card_backs/set2/orange.gif","img/card_backs/set2/blue.gif","img/card_backs/set2/pink.gif","img/card_backs/set2/gray.gif","""event"",""trial"",""time""
""fullscreenenter"",""1"",""1650""
","
","
","""event"",""trial"",""time""
""fullscreenenter"",""1"",""1650""
","
","","990","","","","practice","2021-06-25 22:24:38.211","img/practice_cards/backs/black.gif","3","100","0","",""
"casino-fixation","49","244358","0.0-17.0-0.7","875","true","img/card_backs/set1/purple.gif","img/card_backs/set1/green.gif","img/card_backs/set1/yellow.gif","img/card_backs/set1/red.gif","img/card_backs/set2/orange.gif","img/card_backs/set2/blue.gif","img/card_backs/set2/pink.gif","img/card_backs/set2/gray.gif","""event"",""trial"",""time""
""fullscreenenter"",""1"",""1650""
","
","
","""event"",""trial"",""time""
""fullscreenenter"",""1"",""1650""
","
","","null","","null","","fixation","2021-06-25 22:24:38.715","","","","","",""
"card-selection-trial","50","246942","0.0-17.0-1.7","875","true","img/card_backs/set1/purple.gif","img/card_backs/set1/green.gif","img/card_backs/set1/yellow.gif","img/card_backs/set1/red.gif","img/card_backs/set2/orange.gif","img/card_backs/set2/blue.gif","img/card_backs/set2/pink.gif","img/card_backs/set2/gray.gif","""event"",""trial"",""time""
""fullscreenenter"",""1"",""1650""
","
","
","""event"",""trial"",""time""
""fullscreenenter"",""1"",""1650""
","
","","575.7999999970198","","","","practice","2021-06-25 22:24:41.299","img/practice_cards/backs/black.gif","0","-100","0","",""
"casino-fixation","51","247443","0.0-17.0-0.8","875","true","img/card_backs/set1/purple.gif","img/card_backs/set1/green.gif","img/card_backs/set1/yellow.gif","img/card_backs/set1/red.gif","img/card_backs/set2/orange.gif","img/card_backs/set2/blue.gif","img/card_backs/set2/pink.gif","img/card_backs/set2/gray.gif","""event"",""trial"",""time""
""fullscreenenter"",""1"",""1650""
","
","
","""event"",""trial"",""time""
""fullscreenenter"",""1"",""1650""
","
","","null","","null","","fixation","2021-06-25 22:24:41.800","","","","","",""
"card-selection-trial","52","249949","0.0-17.0-1.8","875","true","img/card_backs/set1/purple.gif","img/card_backs/set1/green.gif","img/card_backs/set1/yellow.gif","img/card_backs/set1/red.gif","img/card_backs/set2/orange.gif","img/card_backs/set2/blue.gif","img/card_backs/set2/pink.gif","img/card_backs/set2/gray.gif","""event"",""trial"",""time""
""fullscreenenter"",""1"",""1650""
","
","
","""event"",""trial"",""time""
""fullscreenenter"",""1"",""1650""
","
","","502.1000000014901","","","","practice","2021-06-25 22:24:44.306","img/practice_cards/backs/dark_green.gif","2","-200","0","",""
"casino-fixation","53","250453","0.0-17.0-0.9","875","true","img/card_backs/set1/purple.gif","img/card_backs/set1/green.gif","img/card_backs/set1/yellow.gif","img/card_backs/set1/red.gif","img/card_backs/set2/orange.gif","img/card_backs/set2/blue.gif","img/card_backs/set2/pink.gif","img/card_backs/set2/gray.gif","""event"",""trial"",""time""
""fullscreenenter"",""1"",""1650""
","
","
","""event"",""trial"",""time""
""fullscreenenter"",""1"",""1650""
","
","","null","","null","","fixation","2021-06-25 22:24:44.810","","","","","",""
"card-selection-trial","54","253102","0.0-17.0-1.9","875","true","img/card_backs/set1/purple.gif","img/card_backs/set1/green.gif","img/card_backs/set1/yellow.gif","img/card_backs/set1/red.gif","img/card_backs/set2/orange.gif","img/card_backs/set2/blue.gif","img/card_backs/set2/pink.gif","img/card_backs/set2/gray.gif","""event"",""trial"",""time""
""fullscreenenter"",""1"",""1650""
","
","
","""event"",""trial"",""time""
""fullscreenenter"",""1"",""1650""
","
","","642.3000000044703","","","","practice","2021-06-25 22:24:47.459","img/practice_cards/backs/black.gif","0","-100","0","",""
"casino-keyboard-response","55","256757","0.0-18.0","875","true","img/card_backs/set1/purple.gif","img/card_backs/set1/green.gif","img/card_backs/set1/yellow.gif","img/card_backs/set1/red.gif","img/card_backs/set2/orange.gif","img/card_backs/set2/blue.gif","img/card_backs/set2/pink.gif","img/card_backs/set2/gray.gif","""event"",""trial"",""time""
""fullscreenenter"",""1"",""1650""
","
","
","""event"",""trial"",""time""
""fullscreenenter"",""1"",""1650""
","
","","3654.7999999970198","You earned 0 tokens during the practice round!","82","","","2021-06-25 22:24:51.115","","","","","",""
"casino-keyboard-response","56","264374","0.0-19.0-0.0","875","true","img/card_backs/set1/purple.gif","img/card_backs/set1/green.gif","img/card_backs/set1/yellow.gif","img/card_backs/set1/red.gif","img/card_backs/set2/orange.gif","img/card_backs/set2/blue.gif","img/card_backs/set2/pink.gif","img/card_backs/set2/gray.gif","""event"",""trial"",""time""
""fullscreenenter"",""1"",""1650""
","
","
","""event"",""trial"",""time""
""fullscreenenter"",""1"",""1650""
","
","","7615.20000000298","Nice job! You are almost ready to play the real game.","86","","instructions","2021-06-25 22:24:58.731","","","","","",""
"casino-keyboard-response","57","272969","0.0-19.0-0.1","875","true","img/card_backs/set1/purple.gif","img/card_backs/set1/green.gif","img/card_backs/set1/yellow.gif","img/card_backs/set1/red.gif","img/card_backs/set2/orange.gif","img/card_backs/set2/blue.gif","img/card_backs/set2/pink.gif","img/card_backs/set2/gray.gif","""event"",""trial"",""time""
""fullscreenenter"",""1"",""1650""
","
","
","""event"",""trial"",""time""
""fullscreenenter"",""1"",""1650""
","
","","8594.19999999553","You will play two rounds of the real game. In each round, you will pick 100 cards in total.","73","","instructions","2021-06-25 22:25:07.326","","","","","",""
"casino-keyboard-response","58","277447","0.0-19.0-0.2","875","true","img/card_backs/set1/purple.gif","img/card_backs/set1/green.gif","img/card_backs/set1/yellow.gif","img/card_backs/set1/red.gif","img/card_backs/set2/orange.gif","img/card_backs/set2/blue.gif","img/card_backs/set2/pink.gif","img/card_backs/set2/gray.gif","""event"",""trial"",""time""
""fullscreenenter"",""1"",""1650""
","
","
","""event"",""trial"",""time""
""fullscreenenter"",""1"",""1650""
","
","","4477.10000000149","We are now going to ask you some questions about how the game works.","66","","instructions","2021-06-25 22:25:11.804","","","","","",""
"casino-keyboard-response","59","283657","0.0-19.0-0.3","875","true","img/card_backs/set1/purple.gif","img/card_backs/set1/green.gif","img/card_backs/set1/yellow.gif","img/card_backs/set1/red.gif","img/card_backs/set2/orange.gif","img/card_backs/set2/blue.gif","img/card_backs/set2/pink.gif","img/card_backs/set2/gray.gif","""event"",""trial"",""time""
""fullscreenenter"",""1"",""1650""
","
","
","""event"",""trial"",""time""
""fullscreenenter"",""1"",""1650""
","
","","6209","Answer carefully. You will not be able to begin the game until you answer them correctly.","67","","instructions","2021-06-25 22:25:18.014","","","","","",""
"casino-comp_q","60","290666","0.0-20.0-0.0","875","true","img/card_backs/set1/purple.gif","img/card_backs/set1/green.gif","img/card_backs/set1/yellow.gif","img/card_backs/set1/red.gif","img/card_backs/set2/orange.gif","img/card_backs/set2/blue.gif","img/card_backs/set2/pink.gif","img/card_backs/set2/gray.gif","""event"",""trial"",""time""
""fullscreenenter"",""1"",""1650""
","
","
","""event"",""trial"",""time""
""fullscreenenter"",""1"",""1650""
","
","","7007.89999999851","True or False: All the decks have some cards that cause you to win tokens and some cards that cause you to lose tokens.","84","","","2021-06-25 22:25:25.023","","","","","",""
"casino-keyboard-response","61","293827","0.0-20.0-1.0","875","true","img/card_backs/set1/purple.gif","img/card_backs/set1/green.gif","img/card_backs/set1/yellow.gif","img/card_backs/set1/red.gif","img/card_backs/set2/orange.gif","img/card_backs/set2/blue.gif","img/card_backs/set2/pink.gif","img/card_backs/set2/gray.gif","""event"",""trial"",""time""
""fullscreenenter"",""1"",""1650""
","
","
","""event"",""trial"",""time""
""fullscreenenter"",""1"",""1650""
","
","","3159.89999999851","True is correct! All the decks have a mix of winning and losing cards.","77","","","2021-06-25 22:25:28.184","","","","","true",""
"casino-comp_q","62","299002","0.0-21.0-0.0","875","true","img/card_backs/set1/purple.gif","img/card_backs/set1/green.gif","img/card_backs/set1/yellow.gif","img/card_backs/set1/red.gif","img/card_backs/set2/orange.gif","img/card_backs/set2/blue.gif","img/card_backs/set2/pink.gif","img/card_backs/set2/gray.gif","""event"",""trial"",""time""
""fullscreenenter"",""1"",""1650""
","
","
","""event"",""trial"",""time""
""fullscreenenter"",""1"",""1650""
","
","","5173.5","True or False: You will have as much time as you want to make your response.","70","","","2021-06-25 22:25:33.359","","","","","",""
"casino-keyboard-response","63","303997","0.0-21.0-1.0","875","true","img/card_backs/set1/purple.gif","img/card_backs/set1/green.gif","img/card_backs/set1/yellow.gif","img/card_backs/set1/red.gif","img/card_backs/set2/orange.gif","img/card_backs/set2/blue.gif","img/card_backs/set2/pink.gif","img/card_backs/set2/gray.gif","""event"",""trial"",""time""
""fullscreenenter"",""1"",""1650""
","
","
","""event"",""trial"",""time""
""fullscreenenter"",""1"",""1650""
","
","","4993.89999999851","False is correct! You will only have 10 seconds to make each choice.","75","","","2021-06-25 22:25:38.355","","","","","true",""
"casino-comp_q","64","308429","0.0-22.0-0.0","875","true","img/card_backs/set1/purple.gif","img/card_backs/set1/green.gif","img/card_backs/set1/yellow.gif","img/card_backs/set1/red.gif","img/card_backs/set2/orange.gif","img/card_backs/set2/blue.gif","img/card_backs/set2/pink.gif","img/card_backs/set2/gray.gif","""event"",""trial"",""time""
""fullscreenenter"",""1"",""1650""
","
","
","""event"",""trial"",""time""
""fullscreenenter"",""1"",""1650""
","
","","4430.89999999851","True or False: The location of the deck determines how lucky it is.","70","","","2021-06-25 22:25:42.786","","","","","",""
"casino-keyboard-response","65","311400","0.0-22.0-1.0","875","true","img/card_backs/set1/purple.gif","img/card_backs/set1/green.gif","img/card_backs/set1/yellow.gif","img/card_backs/set1/red.gif","img/card_backs/set2/orange.gif","img/card_backs/set2/blue.gif","img/card_backs/set2/pink.gif","img/card_backs/set2/gray.gif","""event"",""trial"",""time""
""fullscreenenter"",""1"",""1650""
","
","
","""event"",""trial"",""time""
""fullscreenenter"",""1"",""1650""
","
","","2969.2000000029802","False is correct! The <i>color</i>  of the deck determines how lucky or unlucky it is.","68","","","2021-06-25 22:25:45.757","","","","","true",""
"casino-keyboard-response","66","317891","0.0-23.0-0.0","875","true","img/card_backs/set1/purple.gif","img/card_backs/set1/green.gif","img/card_backs/set1/yellow.gif","img/card_backs/set1/red.gif","img/card_backs/set2/orange.gif","img/card_backs/set2/blue.gif","img/card_backs/set2/pink.gif","img/card_backs/set2/gray.gif","""event"",""trial"",""time""
""fullscreenenter"",""1"",""1650""
","
","
","""event"",""trial"",""time""
""fullscreenenter"",""1"",""1650""
","
","","6490.19999999553","Great job! Now it's time to start the real game.","82","","instructions","2021-06-25 22:25:52.248","","","","","",""
"casino-keyboard-response","67","323527","0.0-23.0-0.1","875","true","img/card_backs/set1/purple.gif","img/card_backs/set1/green.gif","img/card_backs/set1/yellow.gif","img/card_backs/set1/red.gif","img/card_backs/set2/orange.gif","img/card_backs/set2/blue.gif","img/card_backs/set2/pink.gif","img/card_backs/set2/gray.gif","""event"",""trial"",""time""
""fullscreenenter"",""1"",""1650""
","
","
","""event"",""trial"",""time""
""fullscreenenter"",""1"",""1650""
","
","","5635.30000000447","Before we start, we're going to head into a new room of the casino.","86","","instructions","2021-06-25 22:25:57.884","","","","","",""
"casino-keyboard-response","68","329985","0.0-24.0-0.0","875","true","img/card_backs/set1/purple.gif","img/card_backs/set1/green.gif","img/card_backs/set1/yellow.gif","img/card_backs/set1/red.gif","img/card_backs/set2/orange.gif","img/card_backs/set2/blue.gif","img/card_backs/set2/pink.gif","img/card_backs/set2/gray.gif","""event"",""trial"",""time""
""fullscreenenter"",""1"",""1650""
","
","
","""event"",""trial"",""time""
""fullscreenenter"",""1"",""1650""
","
","","6457.60000000149","Here we are! The real game will use different cards, but the rules will be the same.","71","","instructions","2021-06-25 22:26:04.342","","","","","",""
"casino-keyboard-response","69","336657","0.0-24.0-0.1","875","true","img/card_backs/set1/purple.gif","img/card_backs/set1/green.gif","img/card_backs/set1/yellow.gif","img/card_backs/set1/red.gif","img/card_backs/set2/orange.gif","img/card_backs/set2/blue.gif","img/card_backs/set2/pink.gif","img/card_backs/set2/gray.gif","""event"",""trial"",""time""
""fullscreenenter"",""1"",""1650""
","
","
","""event"",""trial"",""time""
""fullscreenenter"",""1"",""1650""
","
","","6670.20000000298","Ready? Put your fingers over the '2', '4', 6', and '8' keys so you are ready to play the game. </br> Then press 2 to start.","50","","instructions","2021-06-25 22:26:11.014","","","","","",""
"casino-fixation","70","337158","0.0-25.0-0.0","875","true","img/card_backs/set1/purple.gif","img/card_backs/set1/green.gif","img/card_backs/set1/yellow.gif","img/card_backs/set1/red.gif","img/card_backs/set2/orange.gif","img/card_backs/set2/blue.gif","img/card_backs/set2/pink.gif","img/card_backs/set2/gray.gif","""event"",""trial"",""time""
""fullscreenenter"",""1"",""1650""
","
","
","""event"",""trial"",""time""
""fullscreenenter"",""1"",""1650""
","
","","null","","null","","fixation","2021-06-25 22:26:11.515","","","","","",""
"card-selection-trial","71","340447","0.0-25.0-1.0","875","true","img/card_backs/set1/purple.gif","img/card_backs/set1/green.gif","img/card_backs/set1/yellow.gif","img/card_backs/set1/red.gif","img/card_backs/set2/orange.gif","img/card_backs/set2/blue.gif","img/card_backs/set2/pink.gif","img/card_backs/set2/gray.gif","""event"",""trial"",""time""
""fullscreenenter"",""1"",""1650""
","
","
","""event"",""trial"",""time""
""fullscreenenter"",""1"",""1650""
","
","","1284","","","","real_trial","2021-06-25 22:26:14.804","img/card_backs/set1/red.gif","2","-110","1","",""
"casino-fixation","72","340950","0.0-25.0-0.1","875","true","img/card_backs/set1/purple.gif","img/card_backs/set1/green.gif","img/card_backs/set1/yellow.gif","img/card_backs/set1/red.gif","img/card_backs/set2/orange.gif","img/card_backs/set2/blue.gif","img/card_backs/set2/pink.gif","img/card_backs/set2/gray.gif","""event"",""trial"",""time""
""fullscreenenter"",""1"",""1650""
","
","
","""event"",""trial"",""time""
""fullscreenenter"",""1"",""1650""
","
","","null","","null","","fixation","2021-06-25 22:26:15.307","","","","","",""
"card-selection-trial","73","343687","0.0-25.0-1.1","875","true","img/card_backs/set1/purple.gif","img/card_backs/set1/green.gif","img/card_backs/set1/yellow.gif","img/card_backs/set1/red.gif","img/card_backs/set2/orange.gif","img/card_backs/set2/blue.gif","img/card_backs/set2/pink.gif","img/card_backs/set2/gray.gif","""event"",""trial"",""time""
""fullscreenenter"",""1"",""1650""
","
","
","""event"",""trial"",""time""
""fullscreenenter"",""1"",""1650""
","
","","731.7999999970198","","","","real_trial","2021-06-25 22:26:18.044","img/card_backs/set1/red.gif","0","-90","1","",""
"casino-fixation","74","344190","0.0-25.0-0.2","875","true","img/card_backs/set1/purple.gif","img/card_backs/set1/green.gif","img/card_backs/set1/yellow.gif","img/card_backs/set1/red.gif","img/card_backs/set2/orange.gif","img/card_backs/set2/blue.gif","img/card_backs/set2/pink.gif","img/card_backs/set2/gray.gif","""event"",""trial"",""time""
""fullscreenenter"",""1"",""1650""
","
","
","""event"",""trial"",""time""
""fullscreenenter"",""1"",""1650""
","
","","null","","null","","fixation","2021-06-25 22:26:18.547","","","","","",""
"card-selection-trial","75","346196","0.0-25.0-1.2","875","true","img/card_backs/set1/purple.gif","img/card_backs/set1/green.gif","img/card_backs/set1/yellow.gif","img/card_backs/set1/red.gif","img/card_backs/set2/orange.gif","img/card_backs/set2/blue.gif","img/card_backs/set2/pink.gif","img/card_backs/set2/gray.gif","""event"",""trial"",""time""
""fullscreenenter"",""1"",""1650""
","
","
","""event"",""trial"",""time""
""fullscreenenter"",""1"",""1650""
","
","","0.10000000149011612","","","","real_trial","2021-06-25 22:26:20.553","img/card_backs/set1/red.gif","2","-90","1","",""
"casino-fixation","76","346699","0.0-25.0-0.3","875","true","img/card_backs/set1/purple.gif","img/card_backs/set1/green.gif","img/card_backs/set1/yellow.gif","img/card_backs/set1/red.gif","img/card_backs/set2/orange.gif","img/card_backs/set2/blue.gif","img/card_backs/set2/pink.gif","img/card_backs/set2/gray.gif","""event"",""trial"",""time""
""fullscreenenter"",""1"",""1650""
","
","
","""event"",""trial"",""time""
""fullscreenenter"",""1"",""1650""
","
","","null","","null","","fixation","2021-06-25 22:26:21.056","","","","","",""
"card-selection-trial","77","349358","0.0-25.0-1.3","875","true","img/card_backs/set1/purple.gif","img/card_backs/set1/green.gif","img/card_backs/set1/yellow.gif","img/card_backs/set1/red.gif","img/card_backs/set2/orange.gif","img/card_backs/set2/blue.gif","img/card_backs/set2/pink.gif","img/card_backs/set2/gray.gif","""event"",""trial"",""time""
""fullscreenenter"",""1"",""1650""
","
","
","""event"",""trial"",""time""
""fullscreenenter"",""1"",""1650""
","
","","653.5","","","","real_trial","2021-06-25 22:26:23.715","img/card_backs/set1/purple.gif","3","240","1","",""
"casino-fixation","78","349863","0.0-25.0-0.4","875","true","img/card_backs/set1/purple.gif","img/card_backs/set1/green.gif","img/card_backs/set1/yellow.gif","img/card_backs/set1/red.gif","img/card_backs/set2/orange.gif","img/card_backs/set2/blue.gif","img/card_backs/set2/pink.gif","img/card_backs/set2/gray.gif","""event"",""trial"",""time""
""fullscreenenter"",""1"",""1650""
","
","
","""event"",""trial"",""time""
""fullscreenenter"",""1"",""1650""
","
","","null","","null","","fixation","2021-06-25 22:26:24.220","","","","","",""
"card-selection-trial","79","352465","0.0-25.0-1.4","875","true","img/card_backs/set1/purple.gif","img/card_backs/set1/green.gif","img/card_backs/set1/yellow.gif","img/card_backs/set1/red.gif","img/card_backs/set2/orange.gif","img/card_backs/set2/blue.gif","img/card_backs/set2/pink.gif","img/card_backs/set2/gray.gif","""event"",""trial"",""time""
""fullscreenenter"",""1"",""1650""
","
","
","""event"",""trial"",""time""
""fullscreenenter"",""1"",""1650""
","
","","595","","","","real_trial","2021-06-25 22:26:26.822","img/card_backs/set1/green.gif","3","250","1","",""
"casino-fixation","80","352970","0.0-25.0-0.5","875","true","img/card_backs/set1/purple.gif","img/card_backs/set1/green.gif","img/card_backs/set1/yellow.gif","img/card_backs/set1/red.gif","img/card_backs/set2/orange.gif","img/card_backs/set2/blue.gif","img/card_backs/set2/pink.gif","img/card_backs/set2/gray.gif","""event"",""trial"",""time""
""fullscreenenter"",""1"",""1650""
","
","
","""event"",""trial"",""time""
""fullscreenenter"",""1"",""1650""
","
","","null","","null","","fixation","2021-06-25 22:26:27.327","","","","","",""
"card-selection-trial","81","356107","0.0-25.0-1.5","875","true","img/card_backs/set1/purple.gif","img/card_backs/set1/green.gif","img/card_backs/set1/yellow.gif","img/card_backs/set1/red.gif","img/card_backs/set2/orange.gif","img/card_backs/set2/blue.gif","img/card_backs/set2/pink.gif","img/card_backs/set2/gray.gif","""event"",""trial"",""time""
""fullscreenenter"",""1"",""1650""
","
","
","""event"",""trial"",""time""
""fullscreenenter"",""1"",""1650""
","
","","1133.5","","","","real_trial","2021-06-25 22:26:30.464","img/card_backs/set1/yellow.gif","3","-110","1","",""
"casino-fixation","82","356613","0.0-25.0-0.6","875","true","img/card_backs/set1/purple.gif","img/card_backs/set1/green.gif","img/card_backs/set1/yellow.gif","img/card_backs/set1/red.gif","img/card_backs/set2/orange.gif","img/card_backs/set2/blue.gif","img/card_backs/set2/pink.gif","img/card_backs/set2/gray.gif","""event"",""trial"",""time""
""fullscreenenter"",""1"",""1650""
","
","
","""event"",""trial"",""time""
""fullscreenenter"",""1"",""1650""
","
","","null","","null","","fixation","2021-06-25 22:26:30.970","","","","","",""
"card-selection-trial","83","359256","0.0-25.0-1.6","875","true","img/card_backs/set1/purple.gif","img/card_backs/set1/green.gif","img/card_backs/set1/yellow.gif","img/card_backs/set1/red.gif","img/card_backs/set2/orange.gif","img/card_backs/set2/blue.gif","img/card_backs/set2/pink.gif","img/card_backs/set2/gray.gif","""event"",""trial"",""time""
""fullscreenenter"",""1"",""1650""
","
","
","""event"",""trial"",""time""
""fullscreenenter"",""1"",""1650""
","
","","640","","","","real_trial","2021-06-25 22:26:33.613","img/card_backs/set1/green.gif","1","-210","1","",""
"casino-fixation","84","359760","0.0-25.0-0.7","875","true","img/card_backs/set1/purple.gif","img/card_backs/set1/green.gif","img/card_backs/set1/yellow.gif","img/card_backs/set1/red.gif","img/card_backs/set2/orange.gif","img/card_backs/set2/blue.gif","img/card_backs/set2/pink.gif","img/card_backs/set2/gray.gif","""event"",""trial"",""time""
""fullscreenenter"",""1"",""1650""
","
","
","""event"",""trial"",""time""
""fullscreenenter"",""1"",""1650""
","
","","null","","null","","fixation","2021-06-25 22:26:34.117","","","","","",""
"card-selection-trial","85","361993","0.0-25.0-1.7","875","true","img/card_backs/set1/purple.gif","img/card_backs/set1/green.gif","img/card_backs/set1/yellow.gif","img/card_backs/set1/red.gif","img/card_backs/set2/orange.gif","img/card_backs/set2/blue.gif","img/card_backs/set2/pink.gif","img/card_backs/set2/gray.gif","""event"",""trial"",""time""
""fullscreenenter"",""1"",""1650""
","
","
","""event"",""trial"",""time""
""fullscreenenter"",""1"",""1650""
","
","","226.69999999552965","","","","real_trial","2021-06-25 22:26:36.350","img/card_backs/set1/red.gif","3","-100","1","",""
"casino-fixation","86","362494","0.0-25.0-0.8","875","true","img/card_backs/set1/purple.gif","img/card_backs/set1/green.gif","img/card_backs/set1/yellow.gif","img/card_backs/set1/red.gif","img/card_backs/set2/orange.gif","img/card_backs/set2/blue.gif","img/card_backs/set2/pink.gif","img/card_backs/set2/gray.gif","""event"",""trial"",""time""
""fullscreenenter"",""1"",""1650""
","
","
","""event"",""trial"",""time""
""fullscreenenter"",""1"",""1650""
","
","","null","","null","","fixation","2021-06-25 22:26:36.851","","","","","",""
"card-selection-trial","87","364849","0.0-25.0-1.8","875","true","img/card_backs/set1/purple.gif","img/card_backs/set1/green.gif","img/card_backs/set1/yellow.gif","img/card_backs/set1/red.gif","img/card_backs/set2/orange.gif","img/card_backs/set2/blue.gif","img/card_backs/set2/pink.gif","img/card_backs/set2/gray.gif","""event"",""trial"",""time""
""fullscreenenter"",""1"",""1650""
","
","
","""event"",""trial"",""time""
""fullscreenenter"",""1"",""1650""
","
","","350.1000000014901","","","","real_trial","2021-06-25 22:26:39.206","img/card_backs/set1/purple.gif","2","-190","1","",""
"casino-fixation","88","365350","0.0-25.0-0.9","875","true","img/card_backs/set1/purple.gif","img/card_backs/set1/green.gif","img/card_backs/set1/yellow.gif","img/card_backs/set1/red.gif","img/card_backs/set2/orange.gif","img/card_backs/set2/blue.gif","img/card_backs/set2/pink.gif","img/card_backs/set2/gray.gif","""event"",""trial"",""time""
""fullscreenenter"",""1"",""1650""
","
","
","""event"",""trial"",""time""
""fullscreenenter"",""1"",""1650""
","
","","null","","null","","fixation","2021-06-25 22:26:39.707","","","","","",""
"card-selection-trial","89","367740","0.0-25.0-1.9","875","true","img/card_backs/set1/purple.gif","img/card_backs/set1/green.gif","img/card_backs/set1/yellow.gif","img/card_backs/set1/red.gif","img/card_backs/set2/orange.gif","img/card_backs/set2/blue.gif","img/card_backs/set2/pink.gif","img/card_backs/set2/gray.gif","""event"",""trial"",""time""
""fullscreenenter"",""1"",""1650""
","
","
","""event"",""trial"",""time""
""fullscreenenter"",""1"",""1650""
","
","","385.6000000014901","","","","real_trial","2021-06-25 22:26:42.097","img/card_backs/set1/green.gif","0","-190","1","",""
"casino-fixation","90","368242","0.0-25.0-0.10","875","true","img/card_backs/set1/purple.gif","img/card_backs/set1/green.gif","img/card_backs/set1/yellow.gif","img/card_backs/set1/red.gif","img/card_backs/set2/orange.gif","img/card_backs/set2/blue.gif","img/card_backs/set2/pink.gif","img/card_backs/set2/gray.gif","""event"",""trial"",""time""
""fullscreenenter"",""1"",""1650""
","
","
","""event"",""trial"",""time""
""fullscreenenter"",""1"",""1650""
","
","","null","","null","","fixation","2021-06-25 22:26:42.599","","","","","",""
"card-selection-trial","91","370440","0.0-25.0-1.10","875","true","img/card_backs/set1/purple.gif","img/card_backs/set1/green.gif","img/card_backs/set1/yellow.gif","img/card_backs/set1/red.gif","img/card_backs/set2/orange.gif","img/card_backs/set2/blue.gif","img/card_backs/set2/pink.gif","img/card_backs/set2/gray.gif","""event"",""trial"",""time""
""fullscreenenter"",""1"",""1650""
","
","
","""event"",""trial"",""time""
""fullscreenenter"",""1"",""1650""
","
","","193.5","","","","real_trial","2021-06-25 22:26:44.797","img/card_backs/set1/purple.gif","1","240","1","",""
"casino-fixation","92","370941","0.0-25.0-0.11","875","true","img/card_backs/set1/purple.gif","img/card_backs/set1/green.gif","img/card_backs/set1/yellow.gif","img/card_backs/set1/red.gif","img/card_backs/set2/orange.gif","img/card_backs/set2/blue.gif","img/card_backs/set2/pink.gif","img/card_backs/set2/gray.gif","""event"",""trial"",""time""
""fullscreenenter"",""1"",""1650""
","
","
","""event"",""trial"",""time""
""fullscreenenter"",""1"",""1650""
","
","","null","","null","","fixation","2021-06-25 22:26:45.299","","","","","",""
"card-selection-trial","93","373431","0.0-25.0-1.11","875","true","img/card_backs/set1/purple.gif","img/card_backs/set1/green.gif","img/card_backs/set1/yellow.gif","img/card_backs/set1/red.gif","img/card_backs/set2/orange.gif","img/card_backs/set2/blue.gif","img/card_backs/set2/pink.gif","img/card_backs/set2/gray.gif","""event"",""trial"",""time""
""fullscreenenter"",""1"",""1650""
","
","
","""event"",""trial"",""time""
""fullscreenenter"",""1"",""1650""
","
","","486.3999999985099","","","","real_trial","2021-06-25 22:26:47.788","img/card_backs/set1/green.gif","3","250","1","",""
"casino-fixation","94","373937","0.0-25.0-0.12","875","true","img/card_backs/set1/purple.gif","img/card_backs/set1/green.gif","img/card_backs/set1/yellow.gif","img/card_backs/set1/red.gif","img/card_backs/set2/orange.gif","img/card_backs/set2/blue.gif","img/card_backs/set2/pink.gif","img/card_backs/set2/gray.gif","""event"",""trial"",""time""
""fullscreenenter"",""1"",""1650""
","
","
","""event"",""trial"",""time""
""fullscreenenter"",""1"",""1650""
","
","","null","","null","","fixation","2021-06-25 22:26:48.294","","","","","",""
"card-selection-trial","95","376334","0.0-25.0-1.12","875","true","img/card_backs/set1/purple.gif","img/card_backs/set1/green.gif","img/card_backs/set1/yellow.gif","img/card_backs/set1/red.gif","img/card_backs/set2/orange.gif","img/card_backs/set2/blue.gif","img/card_backs/set2/pink.gif","img/card_backs/set2/gray.gif","""event"",""trial"",""time""
""fullscreenenter"",""1"",""1650""
","
","
","""event"",""trial"",""time""
""fullscreenenter"",""1"",""1650""
","
","","393.6000000014901","","","","real_trial","2021-06-25 22:26:50.691","img/card_backs/set1/red.gif","2","-100","1","",""
"casino-fixation","96","376839","0.0-25.0-0.13","875","true","img/card_backs/set1/purple.gif","img/card_backs/set1/green.gif","img/card_backs/set1/yellow.gif","img/card_backs/set1/red.gif","img/card_backs/set2/orange.gif","img/card_backs/set2/blue.gif","img/card_backs/set2/pink.gif","img/card_backs/set2/gray.gif","""event"",""trial"",""time""
""fullscreenenter"",""1"",""1650""
","
","
","""event"",""trial"",""time""
""fullscreenenter"",""1"",""1650""
","
","","null","","null","","fixation","2021-06-25 22:26:51.196","","","","","",""
"card-selection-trial","97","378993","0.0-25.0-1.13","875","true","img/card_backs/set1/purple.gif","img/card_backs/set1/green.gif","img/card_backs/set1/yellow.gif","img/card_backs/set1/red.gif","img/card_backs/set2/orange.gif","img/card_backs/set2/blue.gif","img/card_backs/set2/pink.gif","img/card_backs/set2/gray.gif","""event"",""trial"",""time""
""fullscreenenter"",""1"",""1650""
","
","
","""event"",""trial"",""time""
""fullscreenenter"",""1"",""1650""
","
","","145.89999999850988","","","","real_trial","2021-06-25 22:26:53.350","img/card_backs/set1/purple.gif","3","240","1","",""
"casino-fixation","98","379498","0.0-25.0-0.14","875","true","img/card_backs/set1/purple.gif","img/card_backs/set1/green.gif","img/card_backs/set1/yellow.gif","img/card_backs/set1/red.gif","img/card_backs/set2/orange.gif","img/card_backs/set2/blue.gif","img/card_backs/set2/pink.gif","img/card_backs/set2/gray.gif","""event"",""trial"",""time""
""fullscreenenter"",""1"",""1650""
","
","
","""event"",""trial"",""time""
""fullscreenenter"",""1"",""1650""
","
","","null","","null","","fixation","2021-06-25 22:26:53.855","","","","","",""
"card-selection-trial","99","381884","0.0-25.0-1.14","875","true","img/card_backs/set1/purple.gif","img/card_backs/set1/green.gif","img/card_backs/set1/yellow.gif","img/card_backs/set1/red.gif","img/card_backs/set2/orange.gif","img/card_backs/set2/blue.gif","img/card_backs/set2/pink.gif","img/card_backs/set2/gray.gif","""event"",""trial"",""time""
""fullscreenenter"",""1"",""1650""
","
","
","""event"",""trial"",""time""
""fullscreenenter"",""1"",""1650""
","
","","378.3999999985099","","","","real_trial","2021-06-25 22:26:56.241","img/card_backs/set1/purple.gif","3","-200","1","",""
"casino-fixation","100","382389","0.0-25.0-0.15","875","true","img/card_backs/set1/purple.gif","img/card_backs/set1/green.gif","img/card_backs/set1/yellow.gif","img/card_backs/set1/red.gif","img/card_backs/set2/orange.gif","img/card_backs/set2/blue.gif","img/card_backs/set2/pink.gif","img/card_backs/set2/gray.gif","""event"",""trial"",""time""
""fullscreenenter"",""1"",""1650""
","
","
","""event"",""trial"",""time""
""fullscreenenter"",""1"",""1650""
","
","","null","","null","","fixation","2021-06-25 22:26:56.746","","","","","",""
"card-selection-trial","101","384839","0.0-25.0-1.15","875","true","img/card_backs/set1/purple.gif","img/card_backs/set1/green.gif","img/card_backs/set1/yellow.gif","img/card_backs/set1/red.gif","img/card_backs/set2/orange.gif","img/card_backs/set2/blue.gif","img/card_backs/set2/pink.gif","img/card_backs/set2/gray.gif","""event"",""trial"",""time""
""fullscreenenter"",""1"",""1650""
","
","
","""event"",""trial"",""time""
""fullscreenenter"",""1"",""1650""
","
","","446.69999999552965","","","","real_trial","2021-06-25 22:26:59.196","img/card_backs/set1/yellow.gif","0","-100","1","",""
"casino-fixation","102","385340","0.0-25.0-0.16","875","true","img/card_backs/set1/purple.gif","img/card_backs/set1/green.gif","img/card_backs/set1/yellow.gif","img/card_backs/set1/red.gif","img/card_backs/set2/orange.gif","img/card_backs/set2/blue.gif","img/card_backs/set2/pink.gif","img/card_backs/set2/gray.gif","""event"",""trial"",""time""
""fullscreenenter"",""1"",""1650""
","
","
","""event"",""trial"",""time""
""fullscreenenter"",""1"",""1650""
","
","","null","","null","","fixation","2021-06-25 22:26:59.697","","","","","",""
"card-selection-trial","103","387439","0.0-25.0-1.16","875","true","img/card_backs/set1/purple.gif","img/card_backs/set1/green.gif","img/card_backs/set1/yellow.gif","img/card_backs/set1/red.gif","img/card_backs/set2/orange.gif","img/card_backs/set2/blue.gif","img/card_backs/set2/pink.gif","img/card_backs/set2/gray.gif","""event"",""trial"",""time""
""fullscreenenter"",""1"",""1650""
","
","
","""event"",""trial"",""time""
""fullscreenenter"",""1"",""1650""
","
","","93.89999999850988","","","","real_trial","2021-06-25 22:27:01.796","img/card_backs/set1/yellow.gif","2","-110","1","",""
"casino-fixation","104","387940","0.0-25.0-0.17","875","true","img/card_backs/set1/purple.gif","img/card_backs/set1/green.gif","img/card_backs/set1/yellow.gif","img/card_backs/set1/red.gif","img/card_backs/set2/orange.gif","img/card_backs/set2/blue.gif","img/card_backs/set2/pink.gif","img/card_backs/set2/gray.gif","""event"",""trial"",""time""
""fullscreenenter"",""1"",""1650""
","
","
","""event"",""trial"",""time""
""fullscreenenter"",""1"",""1650""
","
","","null","","null","","fixation","2021-06-25 22:27:02.297","","","","","",""
"card-selection-trial","105","391356","0.0-25.0-1.17","875","true","img/card_backs/set1/purple.gif","img/card_backs/set1/green.gif","img/card_backs/set1/yellow.gif","img/card_backs/set1/red.gif","img/card_backs/set2/orange.gif","img/card_backs/set2/blue.gif","img/card_backs/set2/pink.gif","img/card_backs/set2/gray.gif","""event"",""trial"",""time""
""fullscreenenter"",""1"",""1650""
","
","
","""event"",""trial"",""time""
""fullscreenenter"",""1"",""1650""
","
","","1408.8999999985099","","","","real_trial","2021-06-25 22:27:05.713","img/card_backs/set1/green.gif","1","250","1","",""
"casino-fixation","106","391858","0.0-25.0-0.18","875","true","img/card_backs/set1/purple.gif","img/card_backs/set1/green.gif","img/card_backs/set1/yellow.gif","img/card_backs/set1/red.gif","img/card_backs/set2/orange.gif","img/card_backs/set2/blue.gif","img/card_backs/set2/pink.gif","img/card_backs/set2/gray.gif","""event"",""trial"",""time""
""fullscreenenter"",""1"",""1650""
","
","
","""event"",""trial"",""time""
""fullscreenenter"",""1"",""1650""
","
","","null","","null","","fixation","2021-06-25 22:27:06.215","","","","","",""
"card-selection-trial","107","394347","0.0-25.0-1.18","875","true","img/card_backs/set1/purple.gif","img/card_backs/set1/green.gif","img/card_backs/set1/yellow.gif","img/card_backs/set1/red.gif","img/card_backs/set2/orange.gif","img/card_backs/set2/blue.gif","img/card_backs/set2/pink.gif","img/card_backs/set2/gray.gif","""event"",""trial"",""time""
""fullscreenenter"",""1"",""1650""
","
","
","""event"",""trial"",""time""
""fullscreenenter"",""1"",""1650""
","
","","483.5","","","","real_trial","2021-06-25 22:27:08.704","img/card_backs/set1/red.gif","3","-90","1","",""
"casino-fixation","108","394850","0.0-25.0-0.19","875","true","img/card_backs/set1/purple.gif","img/card_backs/set1/green.gif","img/card_backs/set1/yellow.gif","img/card_backs/set1/red.gif","img/card_backs/set2/orange.gif","img/card_backs/set2/blue.gif","img/card_backs/set2/pink.gif","img/card_backs/set2/gray.gif","""event"",""trial"",""time""
""fullscreenenter"",""1"",""1650""
","
","
","""event"",""trial"",""time""
""fullscreenenter"",""1"",""1650""
","
","","null","","null","","fixation","2021-06-25 22:27:09.207","","","","","",""
"card-selection-trial","109","397431","0.0-25.0-1.19","875","true","img/card_backs/set1/purple.gif","img/card_backs/set1/green.gif","img/card_backs/set1/yellow.gif","img/card_backs/set1/red.gif","img/card_backs/set2/orange.gif","img/card_backs/set2/blue.gif","img/card_backs/set2/pink.gif","img/card_backs/set2/gray.gif","""event"",""trial"",""time""
""fullscreenenter"",""1"",""1650""
","
","
","""event"",""trial"",""time""
""fullscreenenter"",""1"",""1650""
","
","","574.1000000014901","","","","real_trial","2021-06-25 22:27:11.788","img/card_backs/set1/green.gif","2","-200","1","",""
"casino-fixation","110","397934","0.0-25.0-0.20","875","true","img/card_backs/set1/purple.gif","img/card_backs/set1/green.gif","img/card_backs/set1/yellow.gif","img/card_backs/set1/red.gif","img/card_backs/set2/orange.gif","img/card_backs/set2/blue.gif","img/card_backs/set2/pink.gif","img/card_backs/set2/gray.gif","""event"",""trial"",""time""
""fullscreenenter"",""1"",""1650""
","
","
","""event"",""trial"",""time""
""fullscreenenter"",""1"",""1650""
","
","","null","","null","","fixation","2021-06-25 22:27:12.291","","","","","",""
"card-selection-trial","111","399995","0.0-25.0-1.20","875","true","img/card_backs/set1/purple.gif","img/card_backs/set1/green.gif","img/card_backs/set1/yellow.gif","img/card_backs/set1/red.gif","img/card_backs/set2/orange.gif","img/card_backs/set2/blue.gif","img/card_backs/set2/pink.gif","img/card_backs/set2/gray.gif","""event"",""trial"",""time""
""fullscreenenter"",""1"",""1650""
","
","
","""event"",""trial"",""time""
""fullscreenenter"",""1"",""1650""
","
","","55.899999998509884","","","","real_trial","2021-06-25 22:27:14.352","img/card_backs/set1/red.gif","1","60","1","",""
"casino-fixation","112","400498","0.0-25.0-0.21","875","true","img/card_backs/set1/purple.gif","img/card_backs/set1/green.gif","img/card_backs/set1/yellow.gif","img/card_backs/set1/red.gif","img/card_backs/set2/orange.gif","img/card_backs/set2/blue.gif","img/card_backs/set2/pink.gif","img/card_backs/set2/gray.gif","""event"",""trial"",""time""
""fullscreenenter"",""1"",""1650""
","
","
","""event"",""trial"",""time""
""fullscreenenter"",""1"",""1650""
","
","","null","","null","","fixation","2021-06-25 22:27:14.855","","","","","",""
"card-selection-trial","113","404001","0.0-25.0-1.21","875","true","img/card_backs/set1/purple.gif","img/card_backs/set1/green.gif","img/card_backs/set1/yellow.gif","img/card_backs/set1/red.gif","img/card_backs/set2/orange.gif","img/card_backs/set2/blue.gif","img/card_backs/set2/pink.gif","img/card_backs/set2/gray.gif","""event"",""trial"",""time""
""fullscreenenter"",""1"",""1650""
","
","
","""event"",""trial"",""time""
""fullscreenenter"",""1"",""1650""
","
","","1496.8000000044703","","","","real_trial","2021-06-25 22:27:18.358","img/card_backs/set1/yellow.gif","0","40","1","",""
"casino-fixation","114","404505","0.0-25.0-0.22","875","true","img/card_backs/set1/purple.gif","img/card_backs/set1/green.gif","img/card_backs/set1/yellow.gif","img/card_backs/set1/red.gif","img/card_backs/set2/orange.gif","img/card_backs/set2/blue.gif","img/card_backs/set2/pink.gif","img/card_backs/set2/gray.gif","""event"",""trial"",""time""
""fullscreenenter"",""1"",""1650""
","
","
","""event"",""trial"",""time""
""fullscreenenter"",""1"",""1650""
","
","","null","","null","","fixation","2021-06-25 22:27:18.863","","","","","",""
"card-selection-trial","115","407635","0.0-25.0-1.22","875","true","img/card_backs/set1/purple.gif","img/card_backs/set1/green.gif","img/card_backs/set1/yellow.gif","img/card_backs/set1/red.gif","img/card_backs/set2/orange.gif","img/card_backs/set2/blue.gif","img/card_backs/set2/pink.gif","img/card_backs/set2/gray.gif","""event"",""trial"",""time""
""fullscreenenter"",""1"",""1650""
","
","
","""event"",""trial"",""time""
""fullscreenenter"",""1"",""1650""
","
","","1122.9000000059605","","","","real_trial","2021-06-25 22:27:21.992","img/card_backs/set1/yellow.gif","0","50","1","",""
"casino-fixation","116","408139","0.0-25.0-0.23","875","true","img/card_backs/set1/purple.gif","img/card_backs/set1/green.gif","img/card_backs/set1/yellow.gif","img/card_backs/set1/red.gif","img/card_backs/set2/orange.gif","img/card_backs/set2/blue.gif","img/card_backs/set2/pink.gif","img/card_backs/set2/gray.gif","""event"",""trial"",""time""
""fullscreenenter"",""1"",""1650""
","
","
","""event"",""trial"",""time""
""fullscreenenter"",""1"",""1650""
","
","","null","","null","","fixation","2021-06-25 22:27:22.496","","","","","",""
"card-selection-trial","117","411113","0.0-25.0-1.23","875","true","img/card_backs/set1/purple.gif","img/card_backs/set1/green.gif","img/card_backs/set1/yellow.gif","img/card_backs/set1/red.gif","img/card_backs/set2/orange.gif","img/card_backs/set2/blue.gif","img/card_backs/set2/pink.gif","img/card_backs/set2/gray.gif","""event"",""trial"",""time""
""fullscreenenter"",""1"",""1650""
","
","
","""event"",""trial"",""time""
""fullscreenenter"",""1"",""1650""
","
","","965.6000000014901","","","","real_trial","2021-06-25 22:27:25.470","img/card_backs/set1/green.gif","0","260","1","",""
"casino-fixation","118","411616","0.0-25.0-0.24","875","true","img/card_backs/set1/purple.gif","img/card_backs/set1/green.gif","img/card_backs/set1/yellow.gif","img/card_backs/set1/red.gif","img/card_backs/set2/orange.gif","img/card_backs/set2/blue.gif","img/card_backs/set2/pink.gif","img/card_backs/set2/gray.gif","""event"",""trial"",""time""
""fullscreenenter"",""1"",""1650""
","
","
","""event"",""trial"",""time""
""fullscreenenter"",""1"",""1650""
","
","","null","","null","","fixation","2021-06-25 22:27:25.973","","","","","",""
"card-selection-trial","119","414386","0.0-25.0-1.24","875","true","img/card_backs/set1/purple.gif","img/card_backs/set1/green.gif","img/card_backs/set1/yellow.gif","img/card_backs/set1/red.gif","img/card_backs/set2/orange.gif","img/card_backs/set2/blue.gif","img/card_backs/set2/pink.gif","img/card_backs/set2/gray.gif","""event"",""trial"",""time""
""fullscreenenter"",""1"",""1650""
","
","
","""event"",""trial"",""time""
""fullscreenenter"",""1"",""1650""
","
","","761.7999999970198","","","","real_trial","2021-06-25 22:27:28.743","img/card_backs/set1/yellow.gif","3","60","1","",""
"casino-fixation","120","414891","0.0-25.0-0.25","875","true","img/card_backs/set1/purple.gif","img/card_backs/set1/green.gif","img/card_backs/set1/yellow.gif","img/card_backs/set1/red.gif","img/card_backs/set2/orange.gif","img/card_backs/set2/blue.gif","img/card_backs/set2/pink.gif","img/card_backs/set2/gray.gif","""event"",""trial"",""time""
""fullscreenenter"",""1"",""1650""
","
","
","""event"",""trial"",""time""
""fullscreenenter"",""1"",""1650""
","
","","null","","null","","fixation","2021-06-25 22:27:29.248","","","","","",""
"card-selection-trial","121","418275","0.0-25.0-1.25","875","true","img/card_backs/set1/purple.gif","img/card_backs/set1/green.gif","img/card_backs/set1/yellow.gif","img/card_backs/set1/red.gif","img/card_backs/set2/orange.gif","img/card_backs/set2/blue.gif","img/card_backs/set2/pink.gif","img/card_backs/set2/gray.gif","""event"",""trial"",""time""
""fullscreenenter"",""1"",""1650""
","
","
","""event"",""trial"",""time""
""fullscreenenter"",""1"",""1650""
","
","","1380.5","","","","real_trial","2021-06-25 22:27:32.632","img/card_backs/set1/purple.gif","3","-200","1","",""
"casino-fixation","122","418780","0.0-25.0-0.26","875","true","img/card_backs/set1/purple.gif","img/card_backs/set1/green.gif","img/card_backs/set1/yellow.gif","img/card_backs/set1/red.gif","img/card_backs/set2/orange.gif","img/card_backs/set2/blue.gif","img/card_backs/set2/pink.gif","img/card_backs/set2/gray.gif","""event"",""trial"",""time""
""fullscreenenter"",""1"",""1650""
","
","
","""event"",""trial"",""time""
""fullscreenenter"",""1"",""1650""
","
","","null","","null","","fixation","2021-06-25 22:27:33.137","","","","","",""
"card-selection-trial","123","422664","0.0-25.0-1.26","875","true","img/card_backs/set1/purple.gif","img/card_backs/set1/green.gif","img/card_backs/set1/yellow.gif","img/card_backs/set1/red.gif","img/card_backs/set2/orange.gif","img/card_backs/set2/blue.gif","img/card_backs/set2/pink.gif","img/card_backs/set2/gray.gif","""event"",""trial"",""time""
""fullscreenenter"",""1"",""1650""
","
","
","""event"",""trial"",""time""
""fullscreenenter"",""1"",""1650""
","
","","1878.8000000044703","","","","real_trial","2021-06-25 22:27:37.021","img/card_backs/set1/yellow.gif","2","-90","1","",""
"casino-fixation","124","423168","0.0-25.0-0.27","875","true","img/card_backs/set1/purple.gif","img/card_backs/set1/green.gif","img/card_backs/set1/yellow.gif","img/card_backs/set1/red.gif","img/card_backs/set2/orange.gif","img/card_backs/set2/blue.gif","img/card_backs/set2/pink.gif","img/card_backs/set2/gray.gif","""event"",""trial"",""time""
""fullscreenenter"",""1"",""1650""
","
","
","""event"",""trial"",""time""
""fullscreenenter"",""1"",""1650""
","
","","null","","null","","fixation","2021-06-25 22:27:37.525","","","","","",""
"card-selection-trial","125","426975","0.0-25.0-1.27","875","true","img/card_backs/set1/purple.gif","img/card_backs/set1/green.gif","img/card_backs/set1/yellow.gif","img/card_backs/set1/red.gif","img/card_backs/set2/orange.gif","img/card_backs/set2/blue.gif","img/card_backs/set2/pink.gif","img/card_backs/set2/gray.gif","""event"",""trial"",""time""
""fullscreenenter"",""1"",""1650""
","
","
","""event"",""trial"",""time""
""fullscreenenter"",""1"",""1650""
","
","","1799.7999999970198","","","","real_trial","2021-06-25 22:27:41.333","img/card_backs/set1/green.gif","1","-200","1","",""
"casino-fixation","126","427481","0.0-25.0-0.28","875","true","img/card_backs/set1/purple.gif","img/card_backs/set1/green.gif","img/card_backs/set1/yellow.gif","img/card_backs/set1/red.gif","img/card_backs/set2/orange.gif","img/card_backs/set2/blue.gif","img/card_backs/set2/pink.gif","img/card_backs/set2/gray.gif","""event"",""trial"",""time""
""fullscreenenter"",""1"",""1650""
","
","
","""event"",""trial"",""time""
""fullscreenenter"",""1"",""1650""
","
","","null","","null","","fixation","2021-06-25 22:27:41.838","","","","","",""
"card-selection-trial","127","430551","0.0-25.0-1.28","875","true","img/card_backs/set1/purple.gif","img/card_backs/set1/green.gif","img/card_backs/set1/yellow.gif","img/card_backs/set1/red.gif","img/card_backs/set2/orange.gif","img/card_backs/set2/blue.gif","img/card_backs/set2/pink.gif","img/card_backs/set2/gray.gif","""event"",""trial"",""time""
""fullscreenenter"",""1"",""1650""
","
","
","""event"",""trial"",""time""
""fullscreenenter"",""1"",""1650""
","
","","1063.5","","","","real_trial","2021-06-25 22:27:44.908","img/card_backs/set1/green.gif","0","240","1","",""
"casino-fixation","128","431056","0.0-25.0-0.29","875","true","img/card_backs/set1/purple.gif","img/card_backs/set1/green.gif","img/card_backs/set1/yellow.gif","img/card_backs/set1/red.gif","img/card_backs/set2/orange.gif","img/card_backs/set2/blue.gif","img/card_backs/set2/pink.gif","img/card_backs/set2/gray.gif","""event"",""trial"",""time""
""fullscreenenter"",""1"",""1650""
","
","
","""event"",""trial"",""time""
""fullscreenenter"",""1"",""1650""
","
","","null","","null","","fixation","2021-06-25 22:27:45.413","","","","","",""
"card-selection-trial","129","434422","0.0-25.0-1.29","875","true","img/card_backs/set1/purple.gif","img/card_backs/set1/green.gif","img/card_backs/set1/yellow.gif","img/card_backs/set1/red.gif","img/card_backs/set2/orange.gif","img/card_backs/set2/blue.gif","img/card_backs/set2/pink.gif","img/card_backs/set2/gray.gif","""event"",""trial"",""time""
""fullscreenenter"",""1"",""1650""
","
","
","""event"",""trial"",""time""
""fullscreenenter"",""1"",""1650""
","
","","1359.3999999985099","","","","real_trial","2021-06-25 22:27:48.779","img/card_backs/set1/purple.gif","3","250","1","",""
"casino-fixation","130","434927","0.0-25.0-0.30","875","true","img/card_backs/set1/purple.gif","img/card_backs/set1/green.gif","img/card_backs/set1/yellow.gif","img/card_backs/set1/red.gif","img/card_backs/set2/orange.gif","img/card_backs/set2/blue.gif","img/card_backs/set2/pink.gif","img/card_backs/set2/gray.gif","""event"",""trial"",""time""
""fullscreenenter"",""1"",""1650""
","
","
","""event"",""trial"",""time""
""fullscreenenter"",""1"",""1650""
","
","","null","","null","","fixation","2021-06-25 22:27:49.284","","","","","",""
"card-selection-trial","131","437751","0.0-25.0-1.30","875","true","img/card_backs/set1/purple.gif","img/card_backs/set1/green.gif","img/card_backs/set1/yellow.gif","img/card_backs/set1/red.gif","img/card_backs/set2/orange.gif","img/card_backs/set2/blue.gif","img/card_backs/set2/pink.gif","img/card_backs/set2/gray.gif","""event"",""trial"",""time""
""fullscreenenter"",""1"",""1650""
","
","
","""event"",""trial"",""time""
""fullscreenenter"",""1"",""1650""
","
","","818.5","","","","real_trial","2021-06-25 22:27:52.108","img/card_backs/set1/yellow.gif","2","-110","1","",""
"casino-fixation","132","438255","0.0-25.0-0.31","875","true","img/card_backs/set1/purple.gif","img/card_backs/set1/green.gif","img/card_backs/set1/yellow.gif","img/card_backs/set1/red.gif","img/card_backs/set2/orange.gif","img/card_backs/set2/blue.gif","img/card_backs/set2/pink.gif","img/card_backs/set2/gray.gif","""event"",""trial"",""time""
""fullscreenenter"",""1"",""1650""
","
","
","""event"",""trial"",""time""
""fullscreenenter"",""1"",""1650""
","
","","null","","null","","fixation","2021-06-25 22:27:52.612","","","","","",""
"card-selection-trial","133","441262","0.0-25.0-1.31","875","true","img/card_backs/set1/purple.gif","img/card_backs/set1/green.gif","img/card_backs/set1/yellow.gif","img/card_backs/set1/red.gif","img/card_backs/set2/orange.gif","img/card_backs/set2/blue.gif","img/card_backs/set2/pink.gif","img/card_backs/set2/gray.gif","""event"",""trial"",""time""
""fullscreenenter"",""1"",""1650""
","
","
","""event"",""trial"",""time""
""fullscreenenter"",""1"",""1650""
","
","","1000.1000000014901","","","","real_trial","2021-06-25 22:27:55.619","img/card_backs/set1/red.gif","3","50","1","",""
"casino-fixation","134","441767","0.0-25.0-0.32","875","true","img/card_backs/set1/purple.gif","img/card_backs/set1/green.gif","img/card_backs/set1/yellow.gif","img/card_backs/set1/red.gif","img/card_backs/set2/orange.gif","img/card_backs/set2/blue.gif","img/card_backs/set2/pink.gif","img/card_backs/set2/gray.gif","""event"",""trial"",""time""
""fullscreenenter"",""1"",""1650""
","
","
","""event"",""trial"",""time""
""fullscreenenter"",""1"",""1650""
","
","","null","","null","","fixation","2021-06-25 22:27:56.124","","","","","",""
"card-selection-trial","135","445773","0.0-25.0-1.32","875","true","img/card_backs/set1/purple.gif","img/card_backs/set1/green.gif","img/card_backs/set1/yellow.gif","img/card_backs/set1/red.gif","img/card_backs/set2/orange.gif","img/card_backs/set2/blue.gif","img/card_backs/set2/pink.gif","img/card_backs/set2/gray.gif","""event"",""trial"",""time""
""fullscreenenter"",""1"",""1650""
","
","
","""event"",""trial"",""time""
""fullscreenenter"",""1"",""1650""
","
","","1999.1999999955297","","","","real_trial","2021-06-25 22:28:00.130","img/card_backs/set1/yellow.gif","0","-110","1","",""
"casino-fixation","136","446277","0.0-25.0-0.33","875","true","img/card_backs/set1/purple.gif","img/card_backs/set1/green.gif","img/card_backs/set1/yellow.gif","img/card_backs/set1/red.gif","img/card_backs/set2/orange.gif","img/card_backs/set2/blue.gif","img/card_backs/set2/pink.gif","img/card_backs/set2/gray.gif","""event"",""trial"",""time""
""fullscreenenter"",""1"",""1650""
","
","
","""event"",""trial"",""time""
""fullscreenenter"",""1"",""1650""
","
","","null","","null","","fixation","2021-06-25 22:28:00.634","","","","","",""
"card-selection-trial","137","449104","0.0-25.0-1.33","875","true","img/card_backs/set1/purple.gif","img/card_backs/set1/green.gif","img/card_backs/set1/yellow.gif","img/card_backs/set1/red.gif","img/card_backs/set2/orange.gif","img/card_backs/set2/blue.gif","img/card_backs/set2/pink.gif","img/card_backs/set2/gray.gif","""event"",""trial"",""time""
""fullscreenenter"",""1"",""1650""
","
","
","""event"",""trial"",""time""
""fullscreenenter"",""1"",""1650""
","
","","819.5","","","","real_trial","2021-06-25 22:28:03.462","img/card_backs/set1/red.gif","3","-90","1","",""
"casino-fixation","138","449610","0.0-25.0-0.34","875","true","img/card_backs/set1/purple.gif","img/card_backs/set1/green.gif","img/card_backs/set1/yellow.gif","img/card_backs/set1/red.gif","img/card_backs/set2/orange.gif","img/card_backs/set2/blue.gif","img/card_backs/set2/pink.gif","img/card_backs/set2/gray.gif","""event"",""trial"",""time""
""fullscreenenter"",""1"",""1650""
","
","
","""event"",""trial"",""time""
""fullscreenenter"",""1"",""1650""
","
","","null","","null","","fixation","2021-06-25 22:28:03.967","","","","","",""
"card-selection-trial","139","452199","0.0-25.0-1.34","875","true","img/card_backs/set1/purple.gif","img/card_backs/set1/green.gif","img/card_backs/set1/yellow.gif","img/card_backs/set1/red.gif","img/card_backs/set2/orange.gif","img/card_backs/set2/blue.gif","img/card_backs/set2/pink.gif","img/card_backs/set2/gray.gif","""event"",""trial"",""time""
""fullscreenenter"",""1"",""1650""
","
","
","""event"",""trial"",""time""
""fullscreenenter"",""1"",""1650""
","
","","580.7999999970198","","","","real_trial","2021-06-25 22:28:06.556","img/card_backs/set1/yellow.gif","2","40","1","",""
"casino-fixation","140","452704","0.0-25.0-0.35","875","true","img/card_backs/set1/purple.gif","img/card_backs/set1/green.gif","img/card_backs/set1/yellow.gif","img/card_backs/set1/red.gif","img/card_backs/set2/orange.gif","img/card_backs/set2/blue.gif","img/card_backs/set2/pink.gif","img/card_backs/set2/gray.gif","""event"",""trial"",""time""
""fullscreenenter"",""1"",""1650""
","
","
","""event"",""trial"",""time""
""fullscreenenter"",""1"",""1650""
","
","","null","","null","","fixation","2021-06-25 22:28:07.061","","","","","",""
"card-selection-trial","141","455200","0.0-25.0-1.35","875","true","img/card_backs/set1/purple.gif","img/card_backs/set1/green.gif","img/card_backs/set1/yellow.gif","img/card_backs/set1/red.gif","img/card_backs/set2/orange.gif","img/card_backs/set2/blue.gif","img/card_backs/set2/pink.gif","img/card_backs/set2/gray.gif","""event"",""trial"",""time""
""fullscreenenter"",""1"",""1650""
","
","
","""event"",""trial"",""time""
""fullscreenenter"",""1"",""1650""
","
","","490.79999999701977","","","","real_trial","2021-06-25 22:28:09.557","img/card_backs/set1/red.gif","1","40","1","",""
"casino-fixation","142","455705","0.0-25.0-0.36","875","true","img/card_backs/set1/purple.gif","img/card_backs/set1/green.gif","img/card_backs/set1/yellow.gif","img/card_backs/set1/red.gif","img/card_backs/set2/orange.gif","img/card_backs/set2/blue.gif","img/card_backs/set2/pink.gif","img/card_backs/set2/gray.gif","""event"",""trial"",""time""
""fullscreenenter"",""1"",""1650""
","
","
","""event"",""trial"",""time""
""fullscreenenter"",""1"",""1650""
","
","","null","","null","","fixation","2021-06-25 22:28:10.062","","","","","",""
"card-selection-trial","143","458735","0.0-25.0-1.36","875","true","img/card_backs/set1/purple.gif","img/card_backs/set1/green.gif","img/card_backs/set1/yellow.gif","img/card_backs/set1/red.gif","img/card_backs/set2/orange.gif","img/card_backs/set2/blue.gif","img/card_backs/set2/pink.gif","img/card_backs/set2/gray.gif","""event"",""trial"",""time""
""fullscreenenter"",""1"",""1650""
","
","
","""event"",""trial"",""time""
""fullscreenenter"",""1"",""1650""
","
","","1021.8999999985099","","","","real_trial","2021-06-25 22:28:13.092","img/card_backs/set1/red.gif","3","-110","1","",""
"casino-fixation","144","459239","0.0-25.0-0.37","875","true","img/card_backs/set1/purple.gif","img/card_backs/set1/green.gif","img/card_backs/set1/yellow.gif","img/card_backs/set1/red.gif","img/card_backs/set2/orange.gif","img/card_backs/set2/blue.gif","img/card_backs/set2/pink.gif","img/card_backs/set2/gray.gif","""event"",""trial"",""time""
""fullscreenenter"",""1"",""1650""
","
","
","""event"",""trial"",""time""
""fullscreenenter"",""1"",""1650""
","
","","null","","null","","fixation","2021-06-25 22:28:13.596","","","","","",""
"card-selection-trial","145","463939","0.0-25.0-1.37","875","true","img/card_backs/set1/purple.gif","img/card_backs/set1/green.gif","img/card_backs/set1/yellow.gif","img/card_backs/set1/red.gif","img/card_backs/set2/orange.gif","img/card_backs/set2/blue.gif","img/card_backs/set2/pink.gif","img/card_backs/set2/gray.gif","""event"",""trial"",""time""
""fullscreenenter"",""1"",""1650""
","
","
","""event"",""trial"",""time""
""fullscreenenter"",""1"",""1650""
","
","","2696.7000000029802","","","","real_trial","2021-06-25 22:28:18.296","img/card_backs/set1/purple.gif","1","-190","1","",""
"casino-fixation","146","464441","0.0-25.0-0.38","875","true","img/card_backs/set1/purple.gif","img/card_backs/set1/green.gif","img/card_backs/set1/yellow.gif","img/card_backs/set1/red.gif","img/card_backs/set2/orange.gif","img/card_backs/set2/blue.gif","img/card_backs/set2/pink.gif","img/card_backs/set2/gray.gif","""event"",""trial"",""time""
""fullscreenenter"",""1"",""1650""
","
","
","""event"",""trial"",""time""
""fullscreenenter"",""1"",""1650""
","
","","null","","null","","fixation","2021-06-25 22:28:18.798","","","","","",""
"card-selection-trial","147","468139","0.0-25.0-1.38","875","true","img/card_backs/set1/purple.gif","img/card_backs/set1/green.gif","img/card_backs/set1/yellow.gif","img/card_backs/set1/red.gif","img/card_backs/set2/orange.gif","img/card_backs/set2/blue.gif","img/card_backs/set2/pink.gif","img/card_backs/set2/gray.gif","""event"",""trial"",""time""
""fullscreenenter"",""1"",""1650""
","
","
","""event"",""trial"",""time""
""fullscreenenter"",""1"",""1650""
","
","","1691.2999999970198","","","","real_trial","2021-06-25 22:28:22.496","img/card_backs/set1/red.gif","2","60","1","",""
"casino-fixation","148","468641","0.0-25.0-0.39","875","true","img/card_backs/set1/purple.gif","img/card_backs/set1/green.gif","img/card_backs/set1/yellow.gif","img/card_backs/set1/red.gif","img/card_backs/set2/orange.gif","img/card_backs/set2/blue.gif","img/card_backs/set2/pink.gif","img/card_backs/set2/gray.gif","""event"",""trial"",""time""
""fullscreenenter"",""1"",""1650""
","
","
","""event"",""trial"",""time""
""fullscreenenter"",""1"",""1650""
","
","","null","","null","","fixation","2021-06-25 22:28:22.998","","","","","",""
"card-selection-trial","149","472213","0.0-25.0-1.39","875","true","img/card_backs/set1/purple.gif","img/card_backs/set1/green.gif","img/card_backs/set1/yellow.gif","img/card_backs/set1/red.gif","img/card_backs/set2/orange.gif","img/card_backs/set2/blue.gif","img/card_backs/set2/pink.gif","img/card_backs/set2/gray.gif","""event"",""trial"",""time""
""fullscreenenter"",""1"",""1650""
","
","
","""event"",""trial"",""time""
""fullscreenenter"",""1"",""1650""
","
","","1563.3999999985099","","","","real_trial","2021-06-25 22:28:26.570","img/card_backs/set1/yellow.gif","0","40","1","",""
"casino-fixation","150","472719","0.0-25.0-0.40","875","true","img/card_backs/set1/purple.gif","img/card_backs/set1/green.gif","img/card_backs/set1/yellow.gif","img/card_backs/set1/red.gif","img/card_backs/set2/orange.gif","img/card_backs/set2/blue.gif","img/card_backs/set2/pink.gif","img/card_backs/set2/gray.gif","""event"",""trial"",""time""
""fullscreenenter"",""1"",""1650""
","
","
","""event"",""trial"",""time""
""fullscreenenter"",""1"",""1650""
","
","","null","","null","","fixation","2021-06-25 22:28:27.076","","","","","",""
"card-selection-trial","151","475271","0.0-25.0-1.40","875","true","img/card_backs/set1/purple.gif","img/card_backs/set1/green.gif","img/card_backs/set1/yellow.gif","img/card_backs/set1/red.gif","img/card_backs/set2/orange.gif","img/card_backs/set2/blue.gif","img/card_backs/set2/pink.gif","img/card_backs/set2/gray.gif","""event"",""trial"",""time""
""fullscreenenter"",""1"",""1650""
","
","
","""event"",""trial"",""time""
""fullscreenenter"",""1"",""1650""
","
","","545.5999999940395","","","","real_trial","2021-06-25 22:28:29.628","img/card_backs/set1/yellow.gif","0","40","1","",""
"casino-fixation","152","475772","0.0-25.0-0.41","875","true","img/card_backs/set1/purple.gif","img/card_backs/set1/green.gif","img/card_backs/set1/yellow.gif","img/card_backs/set1/red.gif","img/card_backs/set2/orange.gif","img/card_backs/set2/blue.gif","img/card_backs/set2/pink.gif","img/card_backs/set2/gray.gif","""event"",""trial"",""time""
""fullscreenenter"",""1"",""1650""
","
","
","""event"",""trial"",""time""
""fullscreenenter"",""1"",""1650""
","
","","null","","null","","fixation","2021-06-25 22:28:30.129","","","","","",""
"card-selection-trial","153","478432","0.0-25.0-1.41","875","true","img/card_backs/set1/purple.gif","img/card_backs/set1/green.gif","img/card_backs/set1/yellow.gif","img/card_backs/set1/red.gif","img/card_backs/set2/orange.gif","img/card_backs/set2/blue.gif","img/card_backs/set2/pink.gif","img/card_backs/set2/gray.gif","""event"",""trial"",""time""
""fullscreenenter"",""1"",""1650""
","
","
","""event"",""trial"",""time""
""fullscreenenter"",""1"",""1650""
","
","","653.7000000029802","","","","real_trial","2021-06-25 22:28:32.789","img/card_backs/set1/yellow.gif","0","60","1","",""
"casino-fixation","154","478937","0.0-25.0-0.42","875","true","img/card_backs/set1/purple.gif","img/card_backs/set1/green.gif","img/card_backs/set1/yellow.gif","img/card_backs/set1/red.gif","img/card_backs/set2/orange.gif","img/card_backs/set2/blue.gif","img/card_backs/set2/pink.gif","img/card_backs/set2/gray.gif","""event"",""trial"",""time""
""fullscreenenter"",""1"",""1650""
","
","
","""event"",""trial"",""time""
""fullscreenenter"",""1"",""1650""
","
","","null","","null","","fixation","2021-06-25 22:28:33.294","","","","","",""
"card-selection-trial","155","481502","0.0-25.0-1.42","875","true","img/card_backs/set1/purple.gif","img/card_backs/set1/green.gif","img/card_backs/set1/yellow.gif","img/card_backs/set1/red.gif","img/card_backs/set2/orange.gif","img/card_backs/set2/blue.gif","img/card_backs/set2/pink.gif","img/card_backs/set2/gray.gif","""event"",""trial"",""time""
""fullscreenenter"",""1"",""1650""
","
","
","""event"",""trial"",""time""
""fullscreenenter"",""1"",""1650""
","
","","560.7000000029802","","","","real_trial","2021-06-25 22:28:35.859","img/card_backs/set1/yellow.gif","0","-110","1","",""
"casino-fixation","156","482007","0.0-25.0-0.43","875","true","img/card_backs/set1/purple.gif","img/card_backs/set1/green.gif","img/card_backs/set1/yellow.gif","img/card_backs/set1/red.gif","img/card_backs/set2/orange.gif","img/card_backs/set2/blue.gif","img/card_backs/set2/pink.gif","img/card_backs/set2/gray.gif","""event"",""trial"",""time""
""fullscreenenter"",""1"",""1650""
","
","
","""event"",""trial"",""time""
""fullscreenenter"",""1"",""1650""
","
","","null","","null","","fixation","2021-06-25 22:28:36.364","","","","","",""
"card-selection-trial","157","485183","0.0-25.0-1.43","875","true","img/card_backs/set1/purple.gif","img/card_backs/set1/green.gif","img/card_backs/set1/yellow.gif","img/card_backs/set1/red.gif","img/card_backs/set2/orange.gif","img/card_backs/set2/blue.gif","img/card_backs/set2/pink.gif","img/card_backs/set2/gray.gif","""event"",""trial"",""time""
""fullscreenenter"",""1"",""1650""
","
","
","""event"",""trial"",""time""
""fullscreenenter"",""1"",""1650""
","
","","1169.5","","","","real_trial","2021-06-25 22:28:39.540","img/card_backs/set1/green.gif","3","-210","1","",""
"casino-fixation","158","485687","0.0-25.0-0.44","875","true","img/card_backs/set1/purple.gif","img/card_backs/set1/green.gif","img/card_backs/set1/yellow.gif","img/card_backs/set1/red.gif","img/card_backs/set2/orange.gif","img/card_backs/set2/blue.gif","img/card_backs/set2/pink.gif","img/card_backs/set2/gray.gif","""event"",""trial"",""time""
""fullscreenenter"",""1"",""1650""
","
","
","""event"",""trial"",""time""
""fullscreenenter"",""1"",""1650""
","
","","null","","null","","fixation","2021-06-25 22:28:40.044","","","","","",""
"card-selection-trial","159","487725","0.0-25.0-1.44","875","true","img/card_backs/set1/purple.gif","img/card_backs/set1/green.gif","img/card_backs/set1/yellow.gif","img/card_backs/set1/red.gif","img/card_backs/set2/orange.gif","img/card_backs/set2/blue.gif","img/card_backs/set2/pink.gif","img/card_backs/set2/gray.gif","""event"",""trial"",""time""
""fullscreenenter"",""1"",""1650""
","
","
","""event"",""trial"",""time""
""fullscreenenter"",""1"",""1650""
","
","","31.799999997019768","","","","real_trial","2021-06-25 22:28:42.082","img/card_backs/set1/purple.gif","2","-190","1","",""
"casino-fixation","160","488230","0.0-25.0-0.45","875","true","img/card_backs/set1/purple.gif","img/card_backs/set1/green.gif","img/card_backs/set1/yellow.gif","img/card_backs/set1/red.gif","img/card_backs/set2/orange.gif","img/card_backs/set2/blue.gif","img/card_backs/set2/pink.gif","img/card_backs/set2/gray.gif","""event"",""trial"",""time""
""fullscreenenter"",""1"",""1650""
","
","
","""event"",""trial"",""time""
""fullscreenenter"",""1"",""1650""
","
","","null","","null","","fixation","2021-06-25 22:28:42.587","","","","","",""
"card-selection-trial","161","492427","0.0-25.0-1.45","875","true","img/card_backs/set1/purple.gif","img/card_backs/set1/green.gif","img/card_backs/set1/yellow.gif","img/card_backs/set1/red.gif","img/card_backs/set2/orange.gif","img/card_backs/set2/blue.gif","img/card_backs/set2/pink.gif","img/card_backs/set2/gray.gif","""event"",""trial"",""time""
""fullscreenenter"",""1"",""1650""
","
","
","""event"",""trial"",""time""
""fullscreenenter"",""1"",""1650""
","
","","2191.2000000029802","","","","real_trial","2021-06-25 22:28:46.784","img/card_backs/set1/green.gif","0","250","1","",""
"casino-fixation","162","492932","0.0-25.0-0.46","875","true","img/card_backs/set1/purple.gif","img/card_backs/set1/green.gif","img/card_backs/set1/yellow.gif","img/card_backs/set1/red.gif","img/card_backs/set2/orange.gif","img/card_backs/set2/blue.gif","img/card_backs/set2/pink.gif","img/card_backs/set2/gray.gif","""event"",""trial"",""time""
""fullscreenenter"",""1"",""1650""
","
","
","""event"",""trial"",""time""
""fullscreenenter"",""1"",""1650""
","
","","null","","null","","fixation","2021-06-25 22:28:47.289","","","","","",""
"card-selection-trial","163","496636","0.0-25.0-1.46","875","true","img/card_backs/set1/purple.gif","img/card_backs/set1/green.gif","img/card_backs/set1/yellow.gif","img/card_backs/set1/red.gif","img/card_backs/set2/orange.gif","img/card_backs/set2/blue.gif","img/card_backs/set2/pink.gif","img/card_backs/set2/gray.gif","""event"",""trial"",""time""
""fullscreenenter"",""1"",""1650""
","
","
","""event"",""trial"",""time""
""fullscreenenter"",""1"",""1650""
","
","","1697","","","","real_trial","2021-06-25 22:28:50.993","img/card_backs/set1/green.gif","2","240","1","",""
"casino-fixation","164","497137","0.0-25.0-0.47","875","true","img/card_backs/set1/purple.gif","img/card_backs/set1/green.gif","img/card_backs/set1/yellow.gif","img/card_backs/set1/red.gif","img/card_backs/set2/orange.gif","img/card_backs/set2/blue.gif","img/card_backs/set2/pink.gif","img/card_backs/set2/gray.gif","""event"",""trial"",""time""
""fullscreenenter"",""1"",""1650""
","
","
","""event"",""trial"",""time""
""fullscreenenter"",""1"",""1650""
","
","","null","","null","","fixation","2021-06-25 22:28:51.494","","","","","",""
"card-selection-trial","165","500899","0.0-25.0-1.47","875","true","img/card_backs/set1/purple.gif","img/card_backs/set1/green.gif","img/card_backs/set1/yellow.gif","img/card_backs/set1/red.gif","img/card_backs/set2/orange.gif","img/card_backs/set2/blue.gif","img/card_backs/set2/pink.gif","img/card_backs/set2/gray.gif","""event"",""trial"",""time""
""fullscreenenter"",""1"",""1650""
","
","
","""event"",""trial"",""time""
""fullscreenenter"",""1"",""1650""
","
","","1755.6000000014901","","","","real_trial","2021-06-25 22:28:55.256","img/card_backs/set1/green.gif","2","-190","1","",""
"casino-fixation","166","501404","0.0-25.0-0.48","875","true","img/card_backs/set1/purple.gif","img/card_backs/set1/green.gif","img/card_backs/set1/yellow.gif","img/card_backs/set1/red.gif","img/card_backs/set2/orange.gif","img/card_backs/set2/blue.gif","img/card_backs/set2/pink.gif","img/card_backs/set2/gray.gif","""event"",""trial"",""time""
""fullscreenenter"",""1"",""1650""
","
","
","""event"",""trial"",""time""
""fullscreenenter"",""1"",""1650""
","
","","null","","null","","fixation","2021-06-25 22:28:55.761","","","","","",""
"card-selection-trial","167","504554","0.0-25.0-1.48","875","true","img/card_backs/set1/purple.gif","img/card_backs/set1/green.gif","img/card_backs/set1/yellow.gif","img/card_backs/set1/red.gif","img/card_backs/set2/orange.gif","img/card_backs/set2/blue.gif","img/card_backs/set2/pink.gif","img/card_backs/set2/gray.gif","""event"",""trial"",""time""
""fullscreenenter"",""1"",""1650""
","
","
","""event"",""trial"",""time""
""fullscreenenter"",""1"",""1650""
","
","","1145","","","","real_trial","2021-06-25 22:28:58.911","img/card_backs/set1/green.gif","0","240","1","",""
