"trial_type","trial_index","time_elapsed","internal_node_id","sub_id","risk_good_first","block1_A","block1_B","block1_C","block1_D","block2_A","block2_B","block2_C","block2_D","interactions","blur_events","focus_events","fullscreenenter_events","fullscreenexit_events","success","rt","stimulus","key_press","button_pressed","task_part","timestamp","card_choice","choice_position","points_earned","block","correct","response"
"pavlovia","0","3","0.0-0.0","543","true","img/card_backs/set1/red.gif","img/card_backs/set1/purple.gif","img/card_backs/set1/green.gif","img/card_backs/set1/yellow.gif","img/card_backs/set2/gray.gif","img/card_backs/set2/pink.gif","img/card_backs/set2/blue.gif","img/card_backs/set2/orange.gif","""event"",""trial"",""time""
""fullscreenenter"",""1"",""4903""
","
","
","""event"",""trial"",""time""
""fullscreenenter"",""1"",""4903""
","
","","","","","","","","","","","","",""
"fullscreen","1","5891","0.0-1.0","543","true","img/card_backs/set1/red.gif","img/card_backs/set1/purple.gif","img/card_backs/set1/green.gif","img/card_backs/set1/yellow.gif","img/card_backs/set2/gray.gif","img/card_backs/set2/pink.gif","img/card_backs/set2/blue.gif","img/card_backs/set2/orange.gif","""event"",""trial"",""time""
""fullscreenenter"",""1"",""4903""
","
","
","""event"",""trial"",""time""
""fullscreenenter"",""1"",""4903""
","
","true","","","","","","","","","","","",""
"audio-keyboard-response","2","10379","0.0-2.0","543","true","img/card_backs/set1/red.gif","img/card_backs/set1/purple.gif","img/card_backs/set1/green.gif","img/card_backs/set1/yellow.gif","img/card_backs/set2/gray.gif","img/card_backs/set2/pink.gif","img/card_backs/set2/blue.gif","img/card_backs/set2/orange.gif","""event"",""trial"",""time""
""fullscreenenter"",""1"",""4903""
","
","
","""event"",""trial"",""time""
""fullscreenenter"",""1"",""4903""
","
","","4475","audio/beep_loop.wav","32","","","","","","","","",""
"audio-button-response","3","14020","0.0-3.0","543","true","img/card_backs/set1/red.gif","img/card_backs/set1/purple.gif","img/card_backs/set1/green.gif","img/card_backs/set1/yellow.gif","img/card_backs/set2/gray.gif","img/card_backs/set2/pink.gif","img/card_backs/set2/blue.gif","img/card_backs/set2/orange.gif","""event"",""trial"",""time""
""fullscreenenter"",""1"",""4903""
","
","
","""event"",""trial"",""time""
""fullscreenenter"",""1"",""4903""
","
","","NaN","audio/turtle.mp3","","3","","","","","","","",""
"audio-button-response","4","22667","0.0-4.0","543","true","img/card_backs/set1/red.gif","img/card_backs/set1/purple.gif","img/card_backs/set1/green.gif","img/card_backs/set1/yellow.gif","img/card_backs/set2/gray.gif","img/card_backs/set2/pink.gif","img/card_backs/set2/blue.gif","img/card_backs/set2/orange.gif","""event"",""trial"",""time""
""fullscreenenter"",""1"",""4903""
","
","
","""event"",""trial"",""time""
""fullscreenenter"",""1"",""4903""
","
","","NaN","audio/shark.mp3","","2","","","","","","","",""
"fullscreen","5","26476","0.0-5.0","543","true","img/card_backs/set1/red.gif","img/card_backs/set1/purple.gif","img/card_backs/set1/green.gif","img/card_backs/set1/yellow.gif","img/card_backs/set2/gray.gif","img/card_backs/set2/pink.gif","img/card_backs/set2/blue.gif","img/card_backs/set2/orange.gif","""event"",""trial"",""time""
""fullscreenenter"",""1"",""4903""
","
","
","""event"",""trial"",""time""
""fullscreenenter"",""1"",""4903""
","
","true","","","","","","","","","","","",""
"casino-keyboard-response","6","30552","0.0-6.0-0.0","543","true","img/card_backs/set1/red.gif","img/card_backs/set1/purple.gif","img/card_backs/set1/green.gif","img/card_backs/set1/yellow.gif","img/card_backs/set2/gray.gif","img/card_backs/set2/pink.gif","img/card_backs/set2/blue.gif","img/card_backs/set2/orange.gif","""event"",""trial"",""time""
""fullscreenenter"",""1"",""4903""
","
","
","""event"",""trial"",""time""
""fullscreenenter"",""1"",""4903""
","
","","4069","Welcome to the casino!","71","","instructions","2021-08-19 17:43:46.624","","","","","",""
"casino-keyboard-response","7","41007","0.0-6.0-0.1","543","true","img/card_backs/set1/red.gif","img/card_backs/set1/purple.gif","img/card_backs/set1/green.gif","img/card_backs/set1/yellow.gif","img/card_backs/set2/gray.gif","img/card_backs/set2/pink.gif","img/card_backs/set2/blue.gif","img/card_backs/set2/orange.gif","""event"",""trial"",""time""
""fullscreenenter"",""1"",""4903""
","
","
","""event"",""trial"",""time""
""fullscreenenter"",""1"",""4903""
","
","","10451.5","Today you will be playing a game to earn tokens. </br> At the end of the experiment, you will be paid a bonus based on how many tokens you win. ","69","","instructions","2021-08-19 17:43:57.079","","","","","",""
"casino-keyboard-response","8","49158","0.0-6.0-0.2","543","true","img/card_backs/set1/red.gif","img/card_backs/set1/purple.gif","img/card_backs/set1/green.gif","img/card_backs/set1/yellow.gif","img/card_backs/set2/gray.gif","img/card_backs/set2/pink.gif","img/card_backs/set2/blue.gif","img/card_backs/set2/orange.gif","""event"",""trial"",""time""
""fullscreenenter"",""1"",""4903""
","
","
","""event"",""trial"",""time""
""fullscreenenter"",""1"",""4903""
","
","","8148.5","On every turn, you will be shown four different decks of cards. </br> You need to select a card from one of the four decks.  ","75","","instructions","2021-08-19 17:44:05.230","","","","","",""
"casino-keyboard-response","9","55141","0.0-6.0-0.3","543","true","img/card_backs/set1/red.gif","img/card_backs/set1/purple.gif","img/card_backs/set1/green.gif","img/card_backs/set1/yellow.gif","img/card_backs/set2/gray.gif","img/card_backs/set2/pink.gif","img/card_backs/set2/blue.gif","img/card_backs/set2/orange.gif","""event"",""trial"",""time""
""fullscreenenter"",""1"",""4903""
","
","
","""event"",""trial"",""time""
""fullscreenenter"",""1"",""4903""
","
","","5980.699999988079","On the next screen, you will see what the decks will look like. ","66","","instructions","2021-08-19 17:44:11.213","","","","","",""
"card-selection-trial","10","59147","0.0-7.0-0.0","543","true","img/card_backs/set1/red.gif","img/card_backs/set1/purple.gif","img/card_backs/set1/green.gif","img/card_backs/set1/yellow.gif","img/card_backs/set2/gray.gif","img/card_backs/set2/pink.gif","img/card_backs/set2/blue.gif","img/card_backs/set2/orange.gif","""event"",""trial"",""time""
""fullscreenenter"",""1"",""4903""
","
","
","""event"",""trial"",""time""
""fullscreenenter"",""1"",""4903""
","
","","null","","","","practice","2021-08-19 17:44:15.220","null","null","null","0","",""
"casino-keyboard-response","11","67620","0.0-8.0-0.0","543","true","img/card_backs/set1/red.gif","img/card_backs/set1/purple.gif","img/card_backs/set1/green.gif","img/card_backs/set1/yellow.gif","img/card_backs/set2/gray.gif","img/card_backs/set2/pink.gif","img/card_backs/set2/blue.gif","img/card_backs/set2/orange.gif","""event"",""trial"",""time""
""fullscreenenter"",""1"",""4903""
","
","
","""event"",""trial"",""time""
""fullscreenenter"",""1"",""4903""
","
","","8470.5","You should pick a card from a deck using the '2', '4', '6', and '8' keys at the top of the keyboard.","85","","instructions","2021-08-19 17:44:23.692","","","","","",""
"casino-keyboard-response","12","73492","0.0-8.0-0.1","543","true","img/card_backs/set1/red.gif","img/card_backs/set1/purple.gif","img/card_backs/set1/green.gif","img/card_backs/set1/yellow.gif","img/card_backs/set2/gray.gif","img/card_backs/set2/pink.gif","img/card_backs/set2/blue.gif","img/card_backs/set2/orange.gif","""event"",""trial"",""time""
""fullscreenenter"",""1"",""4903""
","
","
","""event"",""trial"",""time""
""fullscreenenter"",""1"",""4903""
","
","","5869.5","Once you select a card, it will turn over and you will see how many tokens you earned.","83","","instructions","2021-08-19 17:44:29.565","","","","","",""
"casino-keyboard-response","13","88289","0.0-8.0-0.2","543","true","img/card_backs/set1/red.gif","img/card_backs/set1/purple.gif","img/card_backs/set1/green.gif","img/card_backs/set1/yellow.gif","img/card_backs/set2/gray.gif","img/card_backs/set2/pink.gif","img/card_backs/set2/blue.gif","img/card_backs/set2/orange.gif","""event"",""trial"",""time""
""fullscreenenter"",""1"",""4903""
","
","
","""event"",""trial"",""time""
""fullscreenenter"",""1"",""4903""
","
","","14794.09999999404","Let's try practicing that! </br> First, try to put your fingers over the '2', '4', '6', and '8' keys. </br>  You can use whatever fingers are most comfortable for you. Try to find a comfortable position now. ","50","","instructions","2021-08-19 17:44:44.361","","","","","",""
"casino-keyboard-response","14","94465","0.0-8.0-0.3","543","true","img/card_backs/set1/red.gif","img/card_backs/set1/purple.gif","img/card_backs/set1/green.gif","img/card_backs/set1/yellow.gif","img/card_backs/set2/gray.gif","img/card_backs/set2/pink.gif","img/card_backs/set2/blue.gif","img/card_backs/set2/orange.gif","""event"",""trial"",""time""
""fullscreenenter"",""1"",""4903""
","
","
","""event"",""trial"",""time""
""fullscreenenter"",""1"",""4903""
","
","","6172.9000000059605","Okay ready? </br> On the next screen, press '2' to select the left deck. ","50","","instructions","2021-08-19 17:44:50.537","","","","","",""
"card-selection-trial","15","97687","0.0-9.0-0.0","543","true","img/card_backs/set1/red.gif","img/card_backs/set1/purple.gif","img/card_backs/set1/green.gif","img/card_backs/set1/yellow.gif","img/card_backs/set2/gray.gif","img/card_backs/set2/pink.gif","img/card_backs/set2/blue.gif","img/card_backs/set2/orange.gif","""event"",""trial"",""time""
""fullscreenenter"",""1"",""4903""
","
","
","""event"",""trial"",""time""
""fullscreenenter"",""1"",""4903""
","
","","1202.199999988079","","","","practice_card_selection","2021-08-19 17:44:53.759","img/practice_cards/backs/brown.gif","0","-100","","",""
"casino-keyboard-response","16","103896","0.0-10.0-0.0","543","true","img/card_backs/set1/red.gif","img/card_backs/set1/purple.gif","img/card_backs/set1/green.gif","img/card_backs/set1/yellow.gif","img/card_backs/set2/gray.gif","img/card_backs/set2/pink.gif","img/card_backs/set2/blue.gif","img/card_backs/set2/orange.gif","""event"",""trial"",""time""
""fullscreenenter"",""1"",""4903""
","
","
","""event"",""trial"",""time""
""fullscreenenter"",""1"",""4903""
","
","","6206.899999976158","Great! Now on the next screen, try pressing '6' to select the third deck.","54","","instructions","2021-08-19 17:44:59.968","","","","","",""
"card-selection-trial","17","106792","0.0-11.0-0.0","543","true","img/card_backs/set1/red.gif","img/card_backs/set1/purple.gif","img/card_backs/set1/green.gif","img/card_backs/set1/yellow.gif","img/card_backs/set2/gray.gif","img/card_backs/set2/pink.gif","img/card_backs/set2/blue.gif","img/card_backs/set2/orange.gif","""event"",""trial"",""time""
""fullscreenenter"",""1"",""4903""
","
","
","""event"",""trial"",""time""
""fullscreenenter"",""1"",""4903""
","
","","883.4000000059605","","","","practice_card_selection","2021-08-19 17:45:02.864","img/practice_cards/backs/dark_blue.gif","2","-200","","",""
"casino-keyboard-response","18","111719","0.0-12.0-0.0","543","true","img/card_backs/set1/red.gif","img/card_backs/set1/purple.gif","img/card_backs/set1/green.gif","img/card_backs/set1/yellow.gif","img/card_backs/set2/gray.gif","img/card_backs/set2/pink.gif","img/card_backs/set2/blue.gif","img/card_backs/set2/orange.gif","""event"",""trial"",""time""
""fullscreenenter"",""1"",""4903""
","
","
","""event"",""trial"",""time""
""fullscreenenter"",""1"",""4903""
","
","","4922.9000000059605","Now on the next screen, try pressing '4' to select the second deck.","52","","instructions","2021-08-19 17:45:07.791","","","","","",""
"card-selection-trial","19","114549","0.0-13.0-0.0","543","true","img/card_backs/set1/red.gif","img/card_backs/set1/purple.gif","img/card_backs/set1/green.gif","img/card_backs/set1/yellow.gif","img/card_backs/set2/gray.gif","img/card_backs/set2/pink.gif","img/card_backs/set2/blue.gif","img/card_backs/set2/orange.gif","""event"",""trial"",""time""
""fullscreenenter"",""1"",""4903""
","
","
","""event"",""trial"",""time""
""fullscreenenter"",""1"",""4903""
","
","","815.6000000238419","","","","practice_card_selection","2021-08-19 17:45:10.622","img/practice_cards/backs/brown.gif","1","-100","","",""
"casino-keyboard-response","20","119313","0.0-14.0-0.0","543","true","img/card_backs/set1/red.gif","img/card_backs/set1/purple.gif","img/card_backs/set1/green.gif","img/card_backs/set1/yellow.gif","img/card_backs/set2/gray.gif","img/card_backs/set2/pink.gif","img/card_backs/set2/blue.gif","img/card_backs/set2/orange.gif","""event"",""trial"",""time""
""fullscreenenter"",""1"",""4903""
","
","
","""event"",""trial"",""time""
""fullscreenenter"",""1"",""4903""
","
","","4760.0999999940395","Finally, try pressing '8' to select the deck all the way on the right.","56","","instructions","2021-08-19 17:45:15.385","","","","","",""
"card-selection-trial","21","121909","0.0-15.0-0.0","543","true","img/card_backs/set1/red.gif","img/card_backs/set1/purple.gif","img/card_backs/set1/green.gif","img/card_backs/set1/yellow.gif","img/card_backs/set2/gray.gif","img/card_backs/set2/pink.gif","img/card_backs/set2/blue.gif","img/card_backs/set2/orange.gif","""event"",""trial"",""time""
""fullscreenenter"",""1"",""4903""
","
","
","""event"",""trial"",""time""
""fullscreenenter"",""1"",""4903""
","
","","583.2000000178814","","","","practice_card_selection","2021-08-19 17:45:17.981","img/practice_cards/backs/dark_blue.gif","3","-200","","",""
"casino-keyboard-response","22","126124","0.0-16.0-0.0","543","true","img/card_backs/set1/red.gif","img/card_backs/set1/purple.gif","img/card_backs/set1/green.gif","img/card_backs/set1/yellow.gif","img/card_backs/set2/gray.gif","img/card_backs/set2/pink.gif","img/card_backs/set2/blue.gif","img/card_backs/set2/orange.gif","""event"",""trial"",""time""
""fullscreenenter"",""1"",""4903""
","
","
","""event"",""trial"",""time""
""fullscreenenter"",""1"",""4903""
","
","","4212.699999988079","Great! It seems like you are getting the hang of this.","80","","instructions","2021-08-19 17:45:22.196","","","","","",""
"casino-keyboard-response","23","134793","0.0-16.0-0.1","543","true","img/card_backs/set1/red.gif","img/card_backs/set1/purple.gif","img/card_backs/set1/green.gif","img/card_backs/set1/yellow.gif","img/card_backs/set2/gray.gif","img/card_backs/set2/pink.gif","img/card_backs/set2/blue.gif","img/card_backs/set2/orange.gif","""event"",""trial"",""time""
""fullscreenenter"",""1"",""4903""
","
","
","""event"",""trial"",""time""
""fullscreenenter"",""1"",""4903""
","
","","8665.5","You may have noticed that some cards will cause you to <b> win </b> tokens while other cards will cause you to <b> lose </b>  tokens.","70","","instructions","2021-08-19 17:45:30.865","","","","","",""
"casino-keyboard-response","24","143550","0.0-16.0-0.2","543","true","img/card_backs/set1/red.gif","img/card_backs/set1/purple.gif","img/card_backs/set1/green.gif","img/card_backs/set1/yellow.gif","img/card_backs/set2/gray.gif","img/card_backs/set2/pink.gif","img/card_backs/set2/blue.gif","img/card_backs/set2/orange.gif","""event"",""trial"",""time""
""fullscreenenter"",""1"",""4903""
","
","
","""event"",""trial"",""time""
""fullscreenenter"",""1"",""4903""
","
","","8754.799999982119","Each deck has a mix of cards that will cause you to win and lose tokens. </br> However, the cards in each colored deck are different.","73","","instructions","2021-08-19 17:45:39.622","","","","","",""
"casino-keyboard-response","25","152697","0.0-16.0-0.3","543","true","img/card_backs/set1/red.gif","img/card_backs/set1/purple.gif","img/card_backs/set1/green.gif","img/card_backs/set1/yellow.gif","img/card_backs/set2/gray.gif","img/card_backs/set2/pink.gif","img/card_backs/set2/blue.gif","img/card_backs/set2/orange.gif","""event"",""trial"",""time""
""fullscreenenter"",""1"",""4903""
","
","
","""event"",""trial"",""time""
""fullscreenenter"",""1"",""4903""
","
","","9143.799999982119","Some colored decks are luckier than others. </br> If you choose the lucky decks, you will earn more tokens than if you choose the unlucky decks.","69","","instructions","2021-08-19 17:45:48.769","","","","","",""
"casino-keyboard-response","26","160252","0.0-16.0-0.4","543","true","img/card_backs/set1/red.gif","img/card_backs/set1/purple.gif","img/card_backs/set1/green.gif","img/card_backs/set1/yellow.gif","img/card_backs/set2/gray.gif","img/card_backs/set2/pink.gif","img/card_backs/set2/blue.gif","img/card_backs/set2/orange.gif","""event"",""trial"",""time""
""fullscreenenter"",""1"",""4903""
","
","
","""event"",""trial"",""time""
""fullscreenenter"",""1"",""4903""
","
","","7551.5","You should try to figure out which decks are lucky. </br> Then, try to choose the lucky decks so you can win the most tokens.","87","","instructions","2021-08-19 17:45:56.324","","","","","",""
"casino-keyboard-response","27","172662","0.0-16.0-0.5","543","true","img/card_backs/set1/red.gif","img/card_backs/set1/purple.gif","img/card_backs/set1/green.gif","img/card_backs/set1/yellow.gif","img/card_backs/set2/gray.gif","img/card_backs/set2/pink.gif","img/card_backs/set2/blue.gif","img/card_backs/set2/orange.gif","""event"",""trial"",""time""
""fullscreenenter"",""1"",""4903""
","
","
","""event"",""trial"",""time""
""fullscreenenter"",""1"",""4903""
","
","","12407.40000000596","To make it trickier, the casino dealer will switch the locations of the decks on every turn. </br> The color of the deck determines how lucky it is. The location does not matter.","88","","instructions","2021-08-19 17:46:08.735","","","","","",""
"casino-keyboard-response","28","182399","0.0-16.0-0.6","543","true","img/card_backs/set1/red.gif","img/card_backs/set1/purple.gif","img/card_backs/set1/green.gif","img/card_backs/set1/yellow.gif","img/card_backs/set2/gray.gif","img/card_backs/set2/pink.gif","img/card_backs/set2/blue.gif","img/card_backs/set2/orange.gif","""event"",""trial"",""time""
""fullscreenenter"",""1"",""4903""
","
","
","""event"",""trial"",""time""
""fullscreenenter"",""1"",""4903""
","
","","9734.100000023842","The mix of cards in each colored deck will stay the same throughout the game. </br> That means that a deck that is lucky early on will stay lucky.","79","","instructions","2021-08-19 17:46:18.471","","","","","",""
"casino-keyboard-response","29","191023","0.0-16.0-0.7","543","true","img/card_backs/set1/red.gif","img/card_backs/set1/purple.gif","img/card_backs/set1/green.gif","img/card_backs/set1/yellow.gif","img/card_backs/set2/gray.gif","img/card_backs/set2/pink.gif","img/card_backs/set2/blue.gif","img/card_backs/set2/orange.gif","""event"",""trial"",""time""
""fullscreenenter"",""1"",""4903""
","
","
","""event"",""trial"",""time""
""fullscreenenter"",""1"",""4903""
","
","","8621.09999999404","Remember though, all the decks have a <b> mix </b> of both <b> good </b> and <b> bad </b> cards so it may take a couple of turns to figure out if a deck is lucky.","69","","instructions","2021-08-19 17:46:27.095","","","","","",""
"casino-keyboard-response","30","199713","0.0-16.0-0.8","543","true","img/card_backs/set1/red.gif","img/card_backs/set1/purple.gif","img/card_backs/set1/green.gif","img/card_backs/set1/yellow.gif","img/card_backs/set2/gray.gif","img/card_backs/set2/pink.gif","img/card_backs/set2/blue.gif","img/card_backs/set2/orange.gif","""event"",""trial"",""time""
""fullscreenenter"",""1"",""4903""
","
","
","""event"",""trial"",""time""
""fullscreenenter"",""1"",""4903""
","
","","8687.300000011921","At the end of the game, you will be paid bonus money based on how many tokens you win. </br> If you win more tokens, you will earn more money!","72","","instructions","2021-08-19 17:46:35.785","","","","","",""
"casino-keyboard-response","31","210274","0.0-16.0-0.9","543","true","img/card_backs/set1/red.gif","img/card_backs/set1/purple.gif","img/card_backs/set1/green.gif","img/card_backs/set1/yellow.gif","img/card_backs/set2/gray.gif","img/card_backs/set2/pink.gif","img/card_backs/set2/blue.gif","img/card_backs/set2/orange.gif","""event"",""trial"",""time""
""fullscreenenter"",""1"",""4903""
","
","
","""event"",""trial"",""time""
""fullscreenenter"",""1"",""4903""
","
","","10558.300000011921","You will never <b> lose </b> money. </br> If you end up with fewer than 0 tokens, you will earn $0 of bonus money, but you will still be paid for playing the game.","83","","instructions","2021-08-19 17:46:46.346","","","","","",""
"casino-keyboard-response","32","215123","0.0-16.0-0.10","543","true","img/card_backs/set1/red.gif","img/card_backs/set1/purple.gif","img/card_backs/set1/green.gif","img/card_backs/set1/yellow.gif","img/card_backs/set2/gray.gif","img/card_backs/set2/pink.gif","img/card_backs/set2/blue.gif","img/card_backs/set2/orange.gif","""event"",""trial"",""time""
""fullscreenenter"",""1"",""4903""
","
","
","""event"",""trial"",""time""
""fullscreenenter"",""1"",""4903""
","
","","4846.300000011921","You will have 10 seconds to make each choice.","82","","instructions","2021-08-19 17:46:51.195","","","","","",""
"casino-keyboard-response","33","223566","0.0-16.0-0.11","543","true","img/card_backs/set1/red.gif","img/card_backs/set1/purple.gif","img/card_backs/set1/green.gif","img/card_backs/set1/yellow.gif","img/card_backs/set2/gray.gif","img/card_backs/set2/pink.gif","img/card_backs/set2/blue.gif","img/card_backs/set2/orange.gif","""event"",""trial"",""time""
""fullscreenenter"",""1"",""4903""
","
","
","""event"",""trial"",""time""
""fullscreenenter"",""1"",""4903""
","
","","8437.90000000596","Before you play the game for real, you will play with practice decks. </br> The tokens you earn during practice won't count toward your total.","86","","instructions","2021-08-19 17:46:59.638","","","","","",""
"casino-keyboard-response","34","225952","0.0-16.0-0.12","543","true","img/card_backs/set1/red.gif","img/card_backs/set1/purple.gif","img/card_backs/set1/green.gif","img/card_backs/set1/yellow.gif","img/card_backs/set2/gray.gif","img/card_backs/set2/pink.gif","img/card_backs/set2/blue.gif","img/card_backs/set2/orange.gif","""event"",""trial"",""time""
""fullscreenenter"",""1"",""4903""
","
","
","""event"",""trial"",""time""
""fullscreenenter"",""1"",""4903""
","
","","2383.7999999821186","Ready? Remember, use the '2', '4', '6', and '8' keys to select the decks. </br> Put your fingers on those keys now and then press '2' to begin.","50","","instructions","2021-08-19 17:47:02.024","","","","","",""
"casino-fixation","35","226456","0.0-17.0-0.0","543","true","img/card_backs/set1/red.gif","img/card_backs/set1/purple.gif","img/card_backs/set1/green.gif","img/card_backs/set1/yellow.gif","img/card_backs/set2/gray.gif","img/card_backs/set2/pink.gif","img/card_backs/set2/blue.gif","img/card_backs/set2/orange.gif","""event"",""trial"",""time""
""fullscreenenter"",""1"",""4903""
","
","
","""event"",""trial"",""time""
""fullscreenenter"",""1"",""4903""
","
","","null","","null","","fixation","2021-08-19 17:47:02.528","","","","","",""
"card-selection-trial","36","229825","0.0-17.0-1.0","543","true","img/card_backs/set1/red.gif","img/card_backs/set1/purple.gif","img/card_backs/set1/green.gif","img/card_backs/set1/yellow.gif","img/card_backs/set2/gray.gif","img/card_backs/set2/pink.gif","img/card_backs/set2/blue.gif","img/card_backs/set2/orange.gif","""event"",""trial"",""time""
""fullscreenenter"",""1"",""4903""
","
","
","""event"",""trial"",""time""
""fullscreenenter"",""1"",""4903""
","
","","1359.199999988079","","","","practice","2021-08-19 17:47:05.898","img/practice_cards/backs/dark_blue.gif","0","200","0","",""
"casino-fixation","37","230329","0.0-17.0-0.1","543","true","img/card_backs/set1/red.gif","img/card_backs/set1/purple.gif","img/card_backs/set1/green.gif","img/card_backs/set1/yellow.gif","img/card_backs/set2/gray.gif","img/card_backs/set2/pink.gif","img/card_backs/set2/blue.gif","img/card_backs/set2/orange.gif","""event"",""trial"",""time""
""fullscreenenter"",""1"",""4903""
","
","
","""event"",""trial"",""time""
""fullscreenenter"",""1"",""4903""
","
","","null","","null","","fixation","2021-08-19 17:47:06.401","","","","","",""
"card-selection-trial","38","234423","0.0-17.0-1.1","543","true","img/card_backs/set1/red.gif","img/card_backs/set1/purple.gif","img/card_backs/set1/green.gif","img/card_backs/set1/yellow.gif","img/card_backs/set2/gray.gif","img/card_backs/set2/pink.gif","img/card_backs/set2/blue.gif","img/card_backs/set2/orange.gif","""event"",""trial"",""time""
""fullscreenenter"",""1"",""4903""
","
","
","""event"",""trial"",""time""
""fullscreenenter"",""1"",""4903""
","
","","2084.5","","","","practice","2021-08-19 17:47:10.495","img/practice_cards/backs/brown.gif","0","100","0","",""
"casino-fixation","39","234929","0.0-17.0-0.2","543","true","img/card_backs/set1/red.gif","img/card_backs/set1/purple.gif","img/card_backs/set1/green.gif","img/card_backs/set1/yellow.gif","img/card_backs/set2/gray.gif","img/card_backs/set2/pink.gif","img/card_backs/set2/blue.gif","img/card_backs/set2/orange.gif","""event"",""trial"",""time""
""fullscreenenter"",""1"",""4903""
","
","
","""event"",""trial"",""time""
""fullscreenenter"",""1"",""4903""
","
","","null","","null","","fixation","2021-08-19 17:47:11.001","","","","","",""
"card-selection-trial","40","239996","0.0-17.0-1.2","543","true","img/card_backs/set1/red.gif","img/card_backs/set1/purple.gif","img/card_backs/set1/green.gif","img/card_backs/set1/yellow.gif","img/card_backs/set2/gray.gif","img/card_backs/set2/pink.gif","img/card_backs/set2/blue.gif","img/card_backs/set2/orange.gif","""event"",""trial"",""time""
""fullscreenenter"",""1"",""4903""
","
","
","""event"",""trial"",""time""
""fullscreenenter"",""1"",""4903""
","
","","3054.0999999940395","","","","practice","2021-08-19 17:47:16.068","img/practice_cards/backs/brown.gif","2","100","0","",""
"casino-fixation","41","240504","0.0-17.0-0.3","543","true","img/card_backs/set1/red.gif","img/card_backs/set1/purple.gif","img/card_backs/set1/green.gif","img/card_backs/set1/yellow.gif","img/card_backs/set2/gray.gif","img/card_backs/set2/pink.gif","img/card_backs/set2/blue.gif","img/card_backs/set2/orange.gif","""event"",""trial"",""time""
""fullscreenenter"",""1"",""4903""
","
","
","""event"",""trial"",""time""
""fullscreenenter"",""1"",""4903""
","
","","null","","null","","fixation","2021-08-19 17:47:16.576","","","","","",""
"card-selection-trial","42","245198","0.0-17.0-1.3","543","true","img/card_backs/set1/red.gif","img/card_backs/set1/purple.gif","img/card_backs/set1/green.gif","img/card_backs/set1/yellow.gif","img/card_backs/set2/gray.gif","img/card_backs/set2/pink.gif","img/card_backs/set2/blue.gif","img/card_backs/set2/orange.gif","""event"",""trial"",""time""
""fullscreenenter"",""1"",""4903""
","
","
","""event"",""trial"",""time""
""fullscreenenter"",""1"",""4903""
","
","","2681.7000000178814","","","","practice","2021-08-19 17:47:21.270","img/practice_cards/backs/brown.gif","3","100","0","",""
"casino-fixation","43","245703","0.0-17.0-0.4","543","true","img/card_backs/set1/red.gif","img/card_backs/set1/purple.gif","img/card_backs/set1/green.gif","img/card_backs/set1/yellow.gif","img/card_backs/set2/gray.gif","img/card_backs/set2/pink.gif","img/card_backs/set2/blue.gif","img/card_backs/set2/orange.gif","""event"",""trial"",""time""
""fullscreenenter"",""1"",""4903""
","
","
","""event"",""trial"",""time""
""fullscreenenter"",""1"",""4903""
","
","","null","","null","","fixation","2021-08-19 17:47:21.776","","","","","",""
"card-selection-trial","44","249409","0.0-17.0-1.4","543","true","img/card_backs/set1/red.gif","img/card_backs/set1/purple.gif","img/card_backs/set1/green.gif","img/card_backs/set1/yellow.gif","img/card_backs/set2/gray.gif","img/card_backs/set2/pink.gif","img/card_backs/set2/blue.gif","img/card_backs/set2/orange.gif","""event"",""trial"",""time""
""fullscreenenter"",""1"",""4903""
","
","
","""event"",""trial"",""time""
""fullscreenenter"",""1"",""4903""
","
","","1694.7999999821186","","","","practice","2021-08-19 17:47:25.481","img/practice_cards/backs/brown.gif","1","100","0","",""
"casino-fixation","45","249915","0.0-17.0-0.5","543","true","img/card_backs/set1/red.gif","img/card_backs/set1/purple.gif","img/card_backs/set1/green.gif","img/card_backs/set1/yellow.gif","img/card_backs/set2/gray.gif","img/card_backs/set2/pink.gif","img/card_backs/set2/blue.gif","img/card_backs/set2/orange.gif","""event"",""trial"",""time""
""fullscreenenter"",""1"",""4903""
","
","
","""event"",""trial"",""time""
""fullscreenenter"",""1"",""4903""
","
","","null","","null","","fixation","2021-08-19 17:47:25.987","","","","","",""
"card-selection-trial","46","253898","0.0-17.0-1.5","543","true","img/card_backs/set1/red.gif","img/card_backs/set1/purple.gif","img/card_backs/set1/green.gif","img/card_backs/set1/yellow.gif","img/card_backs/set2/gray.gif","img/card_backs/set2/pink.gif","img/card_backs/set2/blue.gif","img/card_backs/set2/orange.gif","""event"",""trial"",""time""
""fullscreenenter"",""1"",""4903""
","
","
","""event"",""trial"",""time""
""fullscreenenter"",""1"",""4903""
","
","","1973.8999999761581","","","","practice","2021-08-19 17:47:29.971","img/practice_cards/backs/brown.gif","0","100","0","",""
"casino-fixation","47","254406","0.0-17.0-0.6","543","true","img/card_backs/set1/red.gif","img/card_backs/set1/purple.gif","img/card_backs/set1/green.gif","img/card_backs/set1/yellow.gif","img/card_backs/set2/gray.gif","img/card_backs/set2/pink.gif","img/card_backs/set2/blue.gif","img/card_backs/set2/orange.gif","""event"",""trial"",""time""
""fullscreenenter"",""1"",""4903""
","
","
","""event"",""trial"",""time""
""fullscreenenter"",""1"",""4903""
","
","","null","","null","","fixation","2021-08-19 17:47:30.479","","","","","",""
"card-selection-trial","48","259118","0.0-17.0-1.6","543","true","img/card_backs/set1/red.gif","img/card_backs/set1/purple.gif","img/card_backs/set1/green.gif","img/card_backs/set1/yellow.gif","img/card_backs/set2/gray.gif","img/card_backs/set2/pink.gif","img/card_backs/set2/blue.gif","img/card_backs/set2/orange.gif","""event"",""trial"",""time""
""fullscreenenter"",""1"",""4903""
","
","
","""event"",""trial"",""time""
""fullscreenenter"",""1"",""4903""
","
","","2700.5999999940395","","","","practice","2021-08-19 17:47:35.190","img/practice_cards/backs/dark_green.gif","1","-200","0","",""
"casino-fixation","49","259624","0.0-17.0-0.7","543","true","img/card_backs/set1/red.gif","img/card_backs/set1/purple.gif","img/card_backs/set1/green.gif","img/card_backs/set1/yellow.gif","img/card_backs/set2/gray.gif","img/card_backs/set2/pink.gif","img/card_backs/set2/blue.gif","img/card_backs/set2/orange.gif","""event"",""trial"",""time""
""fullscreenenter"",""1"",""4903""
","
","
","""event"",""trial"",""time""
""fullscreenenter"",""1"",""4903""
","
","","null","","null","","fixation","2021-08-19 17:47:35.696","","","","","",""
"card-selection-trial","50","262931","0.0-17.0-1.7","543","true","img/card_backs/set1/red.gif","img/card_backs/set1/purple.gif","img/card_backs/set1/green.gif","img/card_backs/set1/yellow.gif","img/card_backs/set2/gray.gif","img/card_backs/set2/pink.gif","img/card_backs/set2/blue.gif","img/card_backs/set2/orange.gif","""event"",""trial"",""time""
""fullscreenenter"",""1"",""4903""
","
","
","""event"",""trial"",""time""
""fullscreenenter"",""1"",""4903""
","
","","1299.4000000059605","","","","practice","2021-08-19 17:47:39.004","img/practice_cards/backs/brown.gif","1","-100","0","",""
"casino-fixation","51","263437","0.0-17.0-0.8","543","true","img/card_backs/set1/red.gif","img/card_backs/set1/purple.gif","img/card_backs/set1/green.gif","img/card_backs/set1/yellow.gif","img/card_backs/set2/gray.gif","img/card_backs/set2/pink.gif","img/card_backs/set2/blue.gif","img/card_backs/set2/orange.gif","""event"",""trial"",""time""
""fullscreenenter"",""1"",""4903""
","
","
","""event"",""trial"",""time""
""fullscreenenter"",""1"",""4903""
","
","","null","","null","","fixation","2021-08-19 17:47:39.509","","","","","",""
"card-selection-trial","52","265963","0.0-17.0-1.8","543","true","img/card_backs/set1/red.gif","img/card_backs/set1/purple.gif","img/card_backs/set1/green.gif","img/card_backs/set1/yellow.gif","img/card_backs/set2/gray.gif","img/card_backs/set2/pink.gif","img/card_backs/set2/blue.gif","img/card_backs/set2/orange.gif","""event"",""trial"",""time""
""fullscreenenter"",""1"",""4903""
","
","
","""event"",""trial"",""time""
""fullscreenenter"",""1"",""4903""
","
","","518.5","","","","practice","2021-08-19 17:47:42.036","img/practice_cards/backs/dark_green.gif","1","-200","0","",""
"casino-fixation","53","266467","0.0-17.0-0.9","543","true","img/card_backs/set1/red.gif","img/card_backs/set1/purple.gif","img/card_backs/set1/green.gif","img/card_backs/set1/yellow.gif","img/card_backs/set2/gray.gif","img/card_backs/set2/pink.gif","img/card_backs/set2/blue.gif","img/card_backs/set2/orange.gif","""event"",""trial"",""time""
""fullscreenenter"",""1"",""4903""
","
","
","""event"",""trial"",""time""
""fullscreenenter"",""1"",""4903""
","
","","null","","null","","fixation","2021-08-19 17:47:42.539","","","","","",""
"card-selection-trial","54","269864","0.0-17.0-1.9","543","true","img/card_backs/set1/red.gif","img/card_backs/set1/purple.gif","img/card_backs/set1/green.gif","img/card_backs/set1/yellow.gif","img/card_backs/set2/gray.gif","img/card_backs/set2/pink.gif","img/card_backs/set2/blue.gif","img/card_backs/set2/orange.gif","""event"",""trial"",""time""
""fullscreenenter"",""1"",""4903""
","
","
","""event"",""trial"",""time""
""fullscreenenter"",""1"",""4903""
","
","","1385.2999999821186","","","","practice","2021-08-19 17:47:45.936","img/practice_cards/backs/brown.gif","3","100","0","",""
"casino-keyboard-response","55","273021","0.0-18.0","543","true","img/card_backs/set1/red.gif","img/card_backs/set1/purple.gif","img/card_backs/set1/green.gif","img/card_backs/set1/yellow.gif","img/card_backs/set2/gray.gif","img/card_backs/set2/pink.gif","img/card_backs/set2/blue.gif","img/card_backs/set2/orange.gif","""event"",""trial"",""time""
""fullscreenenter"",""1"",""4903""
","
","
","""event"",""trial"",""time""
""fullscreenenter"",""1"",""4903""
","
","","3155.199999988079","You earned 300 tokens during the practice round!","82","","","2021-08-19 17:47:49.093","","","","","",""
"casino-keyboard-response","56","278126","0.0-19.0-0.0","543","true","img/card_backs/set1/red.gif","img/card_backs/set1/purple.gif","img/card_backs/set1/green.gif","img/card_backs/set1/yellow.gif","img/card_backs/set2/gray.gif","img/card_backs/set2/pink.gif","img/card_backs/set2/blue.gif","img/card_backs/set2/orange.gif","""event"",""trial"",""time""
""fullscreenenter"",""1"",""4903""
","
","
","""event"",""trial"",""time""
""fullscreenenter"",""1"",""4903""
","
","","5102.0999999940395","Nice job! You are almost ready to play the real game.","86","","instructions","2021-08-19 17:47:54.198","","","","","",""
"casino-keyboard-response","57","286678","0.0-19.0-0.1","543","true","img/card_backs/set1/red.gif","img/card_backs/set1/purple.gif","img/card_backs/set1/green.gif","img/card_backs/set1/yellow.gif","img/card_backs/set2/gray.gif","img/card_backs/set2/pink.gif","img/card_backs/set2/blue.gif","img/card_backs/set2/orange.gif","""event"",""trial"",""time""
""fullscreenenter"",""1"",""4903""
","
","
","""event"",""trial"",""time""
""fullscreenenter"",""1"",""4903""
","
","","8548.59999999404","You will play two rounds of the real game. In each round, you will pick 100 cards in total.","73","","instructions","2021-08-19 17:48:02.750","","","","","",""
"casino-keyboard-response","58","291637","0.0-19.0-0.2","543","true","img/card_backs/set1/red.gif","img/card_backs/set1/purple.gif","img/card_backs/set1/green.gif","img/card_backs/set1/yellow.gif","img/card_backs/set2/gray.gif","img/card_backs/set2/pink.gif","img/card_backs/set2/blue.gif","img/card_backs/set2/orange.gif","""event"",""trial"",""time""
""fullscreenenter"",""1"",""4903""
","
","
","""event"",""trial"",""time""
""fullscreenenter"",""1"",""4903""
","
","","4956.199999988079","We are now going to ask you some questions about how the game works.","66","","instructions","2021-08-19 17:48:07.710","","","","","",""
"casino-keyboard-response","59","297946","0.0-19.0-0.3","543","true","img/card_backs/set1/red.gif","img/card_backs/set1/purple.gif","img/card_backs/set1/green.gif","img/card_backs/set1/yellow.gif","img/card_backs/set2/gray.gif","img/card_backs/set2/pink.gif","img/card_backs/set2/blue.gif","img/card_backs/set2/orange.gif","""event"",""trial"",""time""
""fullscreenenter"",""1"",""4903""
","
","
","""event"",""trial"",""time""
""fullscreenenter"",""1"",""4903""
","
","","6305.699999988079","Answer carefully. You will not be able to begin the game until you answer them correctly.","67","","instructions","2021-08-19 17:48:14.019","","","","","",""
"casino-comp_q","60","306124","0.0-20.0-0.0","543","true","img/card_backs/set1/red.gif","img/card_backs/set1/purple.gif","img/card_backs/set1/green.gif","img/card_backs/set1/yellow.gif","img/card_backs/set2/gray.gif","img/card_backs/set2/pink.gif","img/card_backs/set2/blue.gif","img/card_backs/set2/orange.gif","""event"",""trial"",""time""
""fullscreenenter"",""1"",""4903""
","
","
","""event"",""trial"",""time""
""fullscreenenter"",""1"",""4903""
","
","","8172.100000023842","True or False: All the decks have some cards that cause you to win tokens and some cards that cause you to lose tokens.","84","","","2021-08-19 17:48:22.196","","","","","",""
"casino-keyboard-response","61","309820","0.0-20.0-1.0","543","true","img/card_backs/set1/red.gif","img/card_backs/set1/purple.gif","img/card_backs/set1/green.gif","img/card_backs/set1/yellow.gif","img/card_backs/set2/gray.gif","img/card_backs/set2/pink.gif","img/card_backs/set2/blue.gif","img/card_backs/set2/orange.gif","""event"",""trial"",""time""
""fullscreenenter"",""1"",""4903""
","
","
","""event"",""trial"",""time""
""fullscreenenter"",""1"",""4903""
","
","","3692.9000000059605","True is correct! All the decks have a mix of winning and losing cards.","77","","","2021-08-19 17:48:25.893","","","","","true",""
"casino-comp_q","62","316238","0.0-21.0-0.0","543","true","img/card_backs/set1/red.gif","img/card_backs/set1/purple.gif","img/card_backs/set1/green.gif","img/card_backs/set1/yellow.gif","img/card_backs/set2/gray.gif","img/card_backs/set2/pink.gif","img/card_backs/set2/blue.gif","img/card_backs/set2/orange.gif","""event"",""trial"",""time""
""fullscreenenter"",""1"",""4903""
","
","
","""event"",""trial"",""time""
""fullscreenenter"",""1"",""4903""
","
","","6413.699999988079","True or False: You will have as much time as you want to make your response.","70","","","2021-08-19 17:48:32.310","","","","","",""
"casino-keyboard-response","63","319726","0.0-21.0-1.0","543","true","img/card_backs/set1/red.gif","img/card_backs/set1/purple.gif","img/card_backs/set1/green.gif","img/card_backs/set1/yellow.gif","img/card_backs/set2/gray.gif","img/card_backs/set2/pink.gif","img/card_backs/set2/blue.gif","img/card_backs/set2/orange.gif","""event"",""trial"",""time""
""fullscreenenter"",""1"",""4903""
","
","
","""event"",""trial"",""time""
""fullscreenenter"",""1"",""4903""
","
","","3483.0999999940395","False is correct! You will only have 10 seconds to make each choice.","75","","","2021-08-19 17:48:35.798","","","","","true",""
"casino-comp_q","64","328036","0.0-22.0-0.0","543","true","img/card_backs/set1/red.gif","img/card_backs/set1/purple.gif","img/card_backs/set1/green.gif","img/card_backs/set1/yellow.gif","img/card_backs/set2/gray.gif","img/card_backs/set2/pink.gif","img/card_backs/set2/blue.gif","img/card_backs/set2/orange.gif","""event"",""trial"",""time""
""fullscreenenter"",""1"",""4903""
","
","
","""event"",""trial"",""time""
""fullscreenenter"",""1"",""4903""
","
","","8307","True or False: The location of the deck determines how lucky it is.","70","","","2021-08-19 17:48:44.108","","","","","",""
"casino-keyboard-response","65","332200","0.0-22.0-1.0","543","true","img/card_backs/set1/red.gif","img/card_backs/set1/purple.gif","img/card_backs/set1/green.gif","img/card_backs/set1/yellow.gif","img/card_backs/set2/gray.gif","img/card_backs/set2/pink.gif","img/card_backs/set2/blue.gif","img/card_backs/set2/orange.gif","""event"",""trial"",""time""
""fullscreenenter"",""1"",""4903""
","
","
","""event"",""trial"",""time""
""fullscreenenter"",""1"",""4903""
","
","","4161","False is correct! The <i>color</i>  of the deck determines how lucky or unlucky it is.","68","","","2021-08-19 17:48:48.272","","","","","true",""
"casino-keyboard-response","66","337768","0.0-23.0-0.0","543","true","img/card_backs/set1/red.gif","img/card_backs/set1/purple.gif","img/card_backs/set1/green.gif","img/card_backs/set1/yellow.gif","img/card_backs/set2/gray.gif","img/card_backs/set2/pink.gif","img/card_backs/set2/blue.gif","img/card_backs/set2/orange.gif","""event"",""trial"",""time""
""fullscreenenter"",""1"",""4903""
","
","
","""event"",""trial"",""time""
""fullscreenenter"",""1"",""4903""
","
","","5565.699999988079","Great job! Now it's time to start the real game.","82","","instructions","2021-08-19 17:48:53.840","","","","","",""
"casino-keyboard-response","67","343884","0.0-23.0-0.1","543","true","img/card_backs/set1/red.gif","img/card_backs/set1/purple.gif","img/card_backs/set1/green.gif","img/card_backs/set1/yellow.gif","img/card_backs/set2/gray.gif","img/card_backs/set2/pink.gif","img/card_backs/set2/blue.gif","img/card_backs/set2/orange.gif","""event"",""trial"",""time""
""fullscreenenter"",""1"",""4903""
","
","
","""event"",""trial"",""time""
""fullscreenenter"",""1"",""4903""
","
","","6113.5999999940395","Before we start, we're going to head into a new room of the casino.","86","","instructions","2021-08-19 17:48:59.956","","","","","",""
"casino-keyboard-response","68","350505","0.0-24.0-0.0","543","true","img/card_backs/set1/red.gif","img/card_backs/set1/purple.gif","img/card_backs/set1/green.gif","img/card_backs/set1/yellow.gif","img/card_backs/set2/gray.gif","img/card_backs/set2/pink.gif","img/card_backs/set2/blue.gif","img/card_backs/set2/orange.gif","""event"",""trial"",""time""
""fullscreenenter"",""1"",""4903""
","
","
","""event"",""trial"",""time""
""fullscreenenter"",""1"",""4903""
","
","","6618.300000011921","Here we are! The real game will use different cards, but the rules will be the same.","71","","instructions","2021-08-19 17:49:06.577","","","","","",""
"casino-keyboard-response","69","359435","0.0-24.0-0.1","543","true","img/card_backs/set1/red.gif","img/card_backs/set1/purple.gif","img/card_backs/set1/green.gif","img/card_backs/set1/yellow.gif","img/card_backs/set2/gray.gif","img/card_backs/set2/pink.gif","img/card_backs/set2/blue.gif","img/card_backs/set2/orange.gif","""event"",""trial"",""time""
""fullscreenenter"",""1"",""4903""
","
","
","""event"",""trial"",""time""
""fullscreenenter"",""1"",""4903""
","
","","8927.5","Ready? Put your fingers over the '2', '4', 6', and '8' keys so you are ready to play the game. </br> Then press 2 to start.","50","","instructions","2021-08-19 17:49:15.507","","","","","",""
"casino-fixation","70","359938","0.0-25.0-0.0","543","true","img/card_backs/set1/red.gif","img/card_backs/set1/purple.gif","img/card_backs/set1/green.gif","img/card_backs/set1/yellow.gif","img/card_backs/set2/gray.gif","img/card_backs/set2/pink.gif","img/card_backs/set2/blue.gif","img/card_backs/set2/orange.gif","""event"",""trial"",""time""
""fullscreenenter"",""1"",""4903""
","
","
","""event"",""trial"",""time""
""fullscreenenter"",""1"",""4903""
","
","","null","","null","","fixation","2021-08-19 17:49:16.010","","","","","",""
"card-selection-trial","71","364221","0.0-25.0-1.0","543","true","img/card_backs/set1/red.gif","img/card_backs/set1/purple.gif","img/card_backs/set1/green.gif","img/card_backs/set1/yellow.gif","img/card_backs/set2/gray.gif","img/card_backs/set2/pink.gif","img/card_backs/set2/blue.gif","img/card_backs/set2/orange.gif","""event"",""trial"",""time""
""fullscreenenter"",""1"",""4903""
","
","
","""event"",""trial"",""time""
""fullscreenenter"",""1"",""4903""
","
","","2273.199999988079","","","","real_trial","2021-08-19 17:49:20.293","img/card_backs/set1/yellow.gif","1","-110","1","",""
"casino-fixation","72","364727","0.0-25.0-0.1","543","true","img/card_backs/set1/red.gif","img/card_backs/set1/purple.gif","img/card_backs/set1/green.gif","img/card_backs/set1/yellow.gif","img/card_backs/set2/gray.gif","img/card_backs/set2/pink.gif","img/card_backs/set2/blue.gif","img/card_backs/set2/orange.gif","""event"",""trial"",""time""
""fullscreenenter"",""1"",""4903""
","
","
","""event"",""trial"",""time""
""fullscreenenter"",""1"",""4903""
","
","","null","","null","","fixation","2021-08-19 17:49:20.799","","","","","",""
"card-selection-trial","73","369496","0.0-25.0-1.1","543","true","img/card_backs/set1/red.gif","img/card_backs/set1/purple.gif","img/card_backs/set1/green.gif","img/card_backs/set1/yellow.gif","img/card_backs/set2/gray.gif","img/card_backs/set2/pink.gif","img/card_backs/set2/blue.gif","img/card_backs/set2/orange.gif","""event"",""trial"",""time""
""fullscreenenter"",""1"",""4903""
","
","
","""event"",""trial"",""time""
""fullscreenenter"",""1"",""4903""
","
","","2759.899999976158","","","","real_trial","2021-08-19 17:49:25.568","img/card_backs/set1/purple.gif","1","250","1","",""
"casino-fixation","74","370002","0.0-25.0-0.2","543","true","img/card_backs/set1/red.gif","img/card_backs/set1/purple.gif","img/card_backs/set1/green.gif","img/card_backs/set1/yellow.gif","img/card_backs/set2/gray.gif","img/card_backs/set2/pink.gif","img/card_backs/set2/blue.gif","img/card_backs/set2/orange.gif","""event"",""trial"",""time""
""fullscreenenter"",""1"",""4903""
","
","
","""event"",""trial"",""time""
""fullscreenenter"",""1"",""4903""
","
","","null","","null","","fixation","2021-08-19 17:49:26.074","","","","","",""
"card-selection-trial","75","373880","0.0-25.0-1.2","543","true","img/card_backs/set1/red.gif","img/card_backs/set1/purple.gif","img/card_backs/set1/green.gif","img/card_backs/set1/yellow.gif","img/card_backs/set2/gray.gif","img/card_backs/set2/pink.gif","img/card_backs/set2/blue.gif","img/card_backs/set2/orange.gif","""event"",""trial"",""time""
""fullscreenenter"",""1"",""4903""
","
","
","""event"",""trial"",""time""
""fullscreenenter"",""1"",""4903""
","
","","1868.0999999940395","","","","real_trial","2021-08-19 17:49:29.952","img/card_backs/set1/purple.gif","2","-210","1","",""
"casino-fixation","76","374386","0.0-25.0-0.3","543","true","img/card_backs/set1/red.gif","img/card_backs/set1/purple.gif","img/card_backs/set1/green.gif","img/card_backs/set1/yellow.gif","img/card_backs/set2/gray.gif","img/card_backs/set2/pink.gif","img/card_backs/set2/blue.gif","img/card_backs/set2/orange.gif","""event"",""trial"",""time""
""fullscreenenter"",""1"",""4903""
","
","
","""event"",""trial"",""time""
""fullscreenenter"",""1"",""4903""
","
","","null","","null","","fixation","2021-08-19 17:49:30.458","","","","","",""
"card-selection-trial","77","377586","0.0-25.0-1.3","543","true","img/card_backs/set1/red.gif","img/card_backs/set1/purple.gif","img/card_backs/set1/green.gif","img/card_backs/set1/yellow.gif","img/card_backs/set2/gray.gif","img/card_backs/set2/pink.gif","img/card_backs/set2/blue.gif","img/card_backs/set2/orange.gif","""event"",""trial"",""time""
""fullscreenenter"",""1"",""4903""
","
","
","""event"",""trial"",""time""
""fullscreenenter"",""1"",""4903""
","
","","1186.800000011921","","","","real_trial","2021-08-19 17:49:33.658","img/card_backs/set1/yellow.gif","3","-90","1","",""
"casino-fixation","78","378092","0.0-25.0-0.4","543","true","img/card_backs/set1/red.gif","img/card_backs/set1/purple.gif","img/card_backs/set1/green.gif","img/card_backs/set1/yellow.gif","img/card_backs/set2/gray.gif","img/card_backs/set2/pink.gif","img/card_backs/set2/blue.gif","img/card_backs/set2/orange.gif","""event"",""trial"",""time""
""fullscreenenter"",""1"",""4903""
","
","
","""event"",""trial"",""time""
""fullscreenenter"",""1"",""4903""
","
","","null","","null","","fixation","2021-08-19 17:49:34.164","","","","","",""
"card-selection-trial","79","381514","0.0-25.0-1.4","543","true","img/card_backs/set1/red.gif","img/card_backs/set1/purple.gif","img/card_backs/set1/green.gif","img/card_backs/set1/yellow.gif","img/card_backs/set2/gray.gif","img/card_backs/set2/pink.gif","img/card_backs/set2/blue.gif","img/card_backs/set2/orange.gif","""event"",""trial"",""time""
""fullscreenenter"",""1"",""4903""
","
","
","""event"",""trial"",""time""
""fullscreenenter"",""1"",""4903""
","
","","1413.4000000059605","","","","real_trial","2021-08-19 17:49:37.586","img/card_backs/set1/green.gif","1","50","1","",""
"casino-fixation","80","382020","0.0-25.0-0.5","543","true","img/card_backs/set1/red.gif","img/card_backs/set1/purple.gif","img/card_backs/set1/green.gif","img/card_backs/set1/yellow.gif","img/card_backs/set2/gray.gif","img/card_backs/set2/pink.gif","img/card_backs/set2/blue.gif","img/card_backs/set2/orange.gif","""event"",""trial"",""time""
""fullscreenenter"",""1"",""4903""
","
","
","""event"",""trial"",""time""
""fullscreenenter"",""1"",""4903""
","
","","null","","null","","fixation","2021-08-19 17:49:38.092","","","","","",""
"card-selection-trial","81","385780","0.0-25.0-1.5","543","true","img/card_backs/set1/red.gif","img/card_backs/set1/purple.gif","img/card_backs/set1/green.gif","img/card_backs/set1/yellow.gif","img/card_backs/set2/gray.gif","img/card_backs/set2/pink.gif","img/card_backs/set2/blue.gif","img/card_backs/set2/orange.gif","""event"",""trial"",""time""
""fullscreenenter"",""1"",""4903""
","
","
","""event"",""trial"",""time""
""fullscreenenter"",""1"",""4903""
","
","","1752.9000000059605","","","","real_trial","2021-08-19 17:49:41.853","img/card_backs/set1/red.gif","0","-210","1","",""
"casino-fixation","82","386285","0.0-25.0-0.6","543","true","img/card_backs/set1/red.gif","img/card_backs/set1/purple.gif","img/card_backs/set1/green.gif","img/card_backs/set1/yellow.gif","img/card_backs/set2/gray.gif","img/card_backs/set2/pink.gif","img/card_backs/set2/blue.gif","img/card_backs/set2/orange.gif","""event"",""trial"",""time""
""fullscreenenter"",""1"",""4903""
","
","
","""event"",""trial"",""time""
""fullscreenenter"",""1"",""4903""
","
","","null","","null","","fixation","2021-08-19 17:49:42.357","","","","","",""
"card-selection-trial","83","389806","0.0-25.0-1.6","543","true","img/card_backs/set1/red.gif","img/card_backs/set1/purple.gif","img/card_backs/set1/green.gif","img/card_backs/set1/yellow.gif","img/card_backs/set2/gray.gif","img/card_backs/set2/pink.gif","img/card_backs/set2/blue.gif","img/card_backs/set2/orange.gif","""event"",""trial"",""time""
""fullscreenenter"",""1"",""4903""
","
","
","""event"",""trial"",""time""
""fullscreenenter"",""1"",""4903""
","
","","1506.0999999940395","","","","real_trial","2021-08-19 17:49:45.878","img/card_backs/set1/green.gif","2","-100","1","",""
"casino-fixation","84","390312","0.0-25.0-0.7","543","true","img/card_backs/set1/red.gif","img/card_backs/set1/purple.gif","img/card_backs/set1/green.gif","img/card_backs/set1/yellow.gif","img/card_backs/set2/gray.gif","img/card_backs/set2/pink.gif","img/card_backs/set2/blue.gif","img/card_backs/set2/orange.gif","""event"",""trial"",""time""
""fullscreenenter"",""1"",""4903""
","
","
","""event"",""trial"",""time""
""fullscreenenter"",""1"",""4903""
","
","","null","","null","","fixation","2021-08-19 17:49:46.384","","","","","",""
"card-selection-trial","85","393725","0.0-25.0-1.7","543","true","img/card_backs/set1/red.gif","img/card_backs/set1/purple.gif","img/card_backs/set1/green.gif","img/card_backs/set1/yellow.gif","img/card_backs/set2/gray.gif","img/card_backs/set2/pink.gif","img/card_backs/set2/blue.gif","img/card_backs/set2/orange.gif","""event"",""trial"",""time""
""fullscreenenter"",""1"",""4903""
","
","
","""event"",""trial"",""time""
""fullscreenenter"",""1"",""4903""
","
","","1403.199999988079","","","","real_trial","2021-08-19 17:49:49.797","img/card_backs/set1/purple.gif","1","260","1","",""
"casino-fixation","86","394232","0.0-25.0-0.8","543","true","img/card_backs/set1/red.gif","img/card_backs/set1/purple.gif","img/card_backs/set1/green.gif","img/card_backs/set1/yellow.gif","img/card_backs/set2/gray.gif","img/card_backs/set2/pink.gif","img/card_backs/set2/blue.gif","img/card_backs/set2/orange.gif","""event"",""trial"",""time""
""fullscreenenter"",""1"",""4903""
","
","
","""event"",""trial"",""time""
""fullscreenenter"",""1"",""4903""
","
","","null","","null","","fixation","2021-08-19 17:49:50.304","","","","","",""
"card-selection-trial","87","397064","0.0-25.0-1.8","543","true","img/card_backs/set1/red.gif","img/card_backs/set1/purple.gif","img/card_backs/set1/green.gif","img/card_backs/set1/yellow.gif","img/card_backs/set2/gray.gif","img/card_backs/set2/pink.gif","img/card_backs/set2/blue.gif","img/card_backs/set2/orange.gif","""event"",""trial"",""time""
""fullscreenenter"",""1"",""4903""
","
","
","""event"",""trial"",""time""
""fullscreenenter"",""1"",""4903""
","
","","823.6999999880791","","","","real_trial","2021-08-19 17:49:53.136","img/card_backs/set1/purple.gif","1","-210","1","",""
"casino-fixation","88","397571","0.0-25.0-0.9","543","true","img/card_backs/set1/red.gif","img/card_backs/set1/purple.gif","img/card_backs/set1/green.gif","img/card_backs/set1/yellow.gif","img/card_backs/set2/gray.gif","img/card_backs/set2/pink.gif","img/card_backs/set2/blue.gif","img/card_backs/set2/orange.gif","""event"",""trial"",""time""
""fullscreenenter"",""1"",""4903""
","
","
","""event"",""trial"",""time""
""fullscreenenter"",""1"",""4903""
","
","","null","","null","","fixation","2021-08-19 17:49:53.643","","","","","",""
"card-selection-trial","89","400632","0.0-25.0-1.9","543","true","img/card_backs/set1/red.gif","img/card_backs/set1/purple.gif","img/card_backs/set1/green.gif","img/card_backs/set1/yellow.gif","img/card_backs/set2/gray.gif","img/card_backs/set2/pink.gif","img/card_backs/set2/blue.gif","img/card_backs/set2/orange.gif","""event"",""trial"",""time""
""fullscreenenter"",""1"",""4903""
","
","
","""event"",""trial"",""time""
""fullscreenenter"",""1"",""4903""
","
","","1051","","","","real_trial","2021-08-19 17:49:56.704","img/card_backs/set1/purple.gif","0","250","1","",""
"casino-fixation","90","401139","0.0-25.0-0.10","543","true","img/card_backs/set1/red.gif","img/card_backs/set1/purple.gif","img/card_backs/set1/green.gif","img/card_backs/set1/yellow.gif","img/card_backs/set2/gray.gif","img/card_backs/set2/pink.gif","img/card_backs/set2/blue.gif","img/card_backs/set2/orange.gif","""event"",""trial"",""time""
""fullscreenenter"",""1"",""4903""
","
","
","""event"",""trial"",""time""
""fullscreenenter"",""1"",""4903""
","
","","null","","null","","fixation","2021-08-19 17:49:57.211","","","","","",""
"card-selection-trial","91","405256","0.0-25.0-1.10","543","true","img/card_backs/set1/red.gif","img/card_backs/set1/purple.gif","img/card_backs/set1/green.gif","img/card_backs/set1/yellow.gif","img/card_backs/set2/gray.gif","img/card_backs/set2/pink.gif","img/card_backs/set2/blue.gif","img/card_backs/set2/orange.gif","""event"",""trial"",""time""
""fullscreenenter"",""1"",""4903""
","
","
","""event"",""trial"",""time""
""fullscreenenter"",""1"",""4903""
","
","","2108.699999988079","","","","real_trial","2021-08-19 17:50:01.328","img/card_backs/set1/purple.gif","3","-190","1","",""
"casino-fixation","92","405757","0.0-25.0-0.11","543","true","img/card_backs/set1/red.gif","img/card_backs/set1/purple.gif","img/card_backs/set1/green.gif","img/card_backs/set1/yellow.gif","img/card_backs/set2/gray.gif","img/card_backs/set2/pink.gif","img/card_backs/set2/blue.gif","img/card_backs/set2/orange.gif","""event"",""trial"",""time""
""fullscreenenter"",""1"",""4903""
","
","
","""event"",""trial"",""time""
""fullscreenenter"",""1"",""4903""
","
","","null","","null","","fixation","2021-08-19 17:50:01.829","","","","","",""
"card-selection-trial","93","408979","0.0-25.0-1.11","543","true","img/card_backs/set1/red.gif","img/card_backs/set1/purple.gif","img/card_backs/set1/green.gif","img/card_backs/set1/yellow.gif","img/card_backs/set2/gray.gif","img/card_backs/set2/pink.gif","img/card_backs/set2/blue.gif","img/card_backs/set2/orange.gif","""event"",""trial"",""time""
""fullscreenenter"",""1"",""4903""
","
","
","""event"",""trial"",""time""
""fullscreenenter"",""1"",""4903""
","
","","1213.2000000178814","","","","real_trial","2021-08-19 17:50:05.051","img/card_backs/set1/purple.gif","2","240","1","",""
"casino-fixation","94","409485","0.0-25.0-0.12","543","true","img/card_backs/set1/red.gif","img/card_backs/set1/purple.gif","img/card_backs/set1/green.gif","img/card_backs/set1/yellow.gif","img/card_backs/set2/gray.gif","img/card_backs/set2/pink.gif","img/card_backs/set2/blue.gif","img/card_backs/set2/orange.gif","""event"",""trial"",""time""
""fullscreenenter"",""1"",""4903""
","
","
","""event"",""trial"",""time""
""fullscreenenter"",""1"",""4903""
","
","","null","","null","","fixation","2021-08-19 17:50:05.557","","","","","",""
"card-selection-trial","95","414072","0.0-25.0-1.12","543","true","img/card_backs/set1/red.gif","img/card_backs/set1/purple.gif","img/card_backs/set1/green.gif","img/card_backs/set1/yellow.gif","img/card_backs/set2/gray.gif","img/card_backs/set2/pink.gif","img/card_backs/set2/blue.gif","img/card_backs/set2/orange.gif","""event"",""trial"",""time""
""fullscreenenter"",""1"",""4903""
","
","
","""event"",""trial"",""time""
""fullscreenenter"",""1"",""4903""
","
","","2576.0999999940395","","","","real_trial","2021-08-19 17:50:10.144","img/card_backs/set1/purple.gif","0","240","1","",""
"casino-fixation","96","414579","0.0-25.0-0.13","543","true","img/card_backs/set1/red.gif","img/card_backs/set1/purple.gif","img/card_backs/set1/green.gif","img/card_backs/set1/yellow.gif","img/card_backs/set2/gray.gif","img/card_backs/set2/pink.gif","img/card_backs/set2/blue.gif","img/card_backs/set2/orange.gif","""event"",""trial"",""time""
""fullscreenenter"",""1"",""4903""
","
","
","""event"",""trial"",""time""
""fullscreenenter"",""1"",""4903""
","
","","null","","null","","fixation","2021-08-19 17:50:10.651","","","","","",""
"card-selection-trial","97","417224","0.0-25.0-1.13","543","true","img/card_backs/set1/red.gif","img/card_backs/set1/purple.gif","img/card_backs/set1/green.gif","img/card_backs/set1/yellow.gif","img/card_backs/set2/gray.gif","img/card_backs/set2/pink.gif","img/card_backs/set2/blue.gif","img/card_backs/set2/orange.gif","""event"",""trial"",""time""
""fullscreenenter"",""1"",""4903""
","
","
","""event"",""trial"",""time""
""fullscreenenter"",""1"",""4903""
","
","","631.8999999761581","","","","real_trial","2021-08-19 17:50:13.296","img/card_backs/set1/purple.gif","0","-200","1","",""
"casino-fixation","98","417731","0.0-25.0-0.14","543","true","img/card_backs/set1/red.gif","img/card_backs/set1/purple.gif","img/card_backs/set1/green.gif","img/card_backs/set1/yellow.gif","img/card_backs/set2/gray.gif","img/card_backs/set2/pink.gif","img/card_backs/set2/blue.gif","img/card_backs/set2/orange.gif","""event"",""trial"",""time""
""fullscreenenter"",""1"",""4903""
","
","
","""event"",""trial"",""time""
""fullscreenenter"",""1"",""4903""
","
","","null","","null","","fixation","2021-08-19 17:50:13.803","","","","","",""
"card-selection-trial","99","421247","0.0-25.0-1.14","543","true","img/card_backs/set1/red.gif","img/card_backs/set1/purple.gif","img/card_backs/set1/green.gif","img/card_backs/set1/yellow.gif","img/card_backs/set2/gray.gif","img/card_backs/set2/pink.gif","img/card_backs/set2/blue.gif","img/card_backs/set2/orange.gif","""event"",""trial"",""time""
""fullscreenenter"",""1"",""4903""
","
","
","""event"",""trial"",""time""
""fullscreenenter"",""1"",""4903""
","
","","1507.2000000178814","","","","real_trial","2021-08-19 17:50:17.320","img/card_backs/set1/purple.gif","2","260","1","",""
"casino-fixation","100","421752","0.0-25.0-0.15","543","true","img/card_backs/set1/red.gif","img/card_backs/set1/purple.gif","img/card_backs/set1/green.gif","img/card_backs/set1/yellow.gif","img/card_backs/set2/gray.gif","img/card_backs/set2/pink.gif","img/card_backs/set2/blue.gif","img/card_backs/set2/orange.gif","""event"",""trial"",""time""
""fullscreenenter"",""1"",""4903""
","
","
","""event"",""trial"",""time""
""fullscreenenter"",""1"",""4903""
","
","","null","","null","","fixation","2021-08-19 17:50:17.824","","","","","",""
"card-selection-trial","101","425006","0.0-25.0-1.15","543","true","img/card_backs/set1/red.gif","img/card_backs/set1/purple.gif","img/card_backs/set1/green.gif","img/card_backs/set1/yellow.gif","img/card_backs/set2/gray.gif","img/card_backs/set2/pink.gif","img/card_backs/set2/blue.gif","img/card_backs/set2/orange.gif","""event"",""trial"",""time""
""fullscreenenter"",""1"",""4903""
","
","
","""event"",""trial"",""time""
""fullscreenenter"",""1"",""4903""
","
","","1242.199999988079","","","","real_trial","2021-08-19 17:50:21.078","img/card_backs/set1/purple.gif","2","-200","1","",""
"casino-fixation","102","425512","0.0-25.0-0.16","543","true","img/card_backs/set1/red.gif","img/card_backs/set1/purple.gif","img/card_backs/set1/green.gif","img/card_backs/set1/yellow.gif","img/card_backs/set2/gray.gif","img/card_backs/set2/pink.gif","img/card_backs/set2/blue.gif","img/card_backs/set2/orange.gif","""event"",""trial"",""time""
""fullscreenenter"",""1"",""4903""
","
","
","""event"",""trial"",""time""
""fullscreenenter"",""1"",""4903""
","
","","null","","null","","fixation","2021-08-19 17:50:21.584","","","","","",""
"card-selection-trial","103","428189","0.0-25.0-1.16","543","true","img/card_backs/set1/red.gif","img/card_backs/set1/purple.gif","img/card_backs/set1/green.gif","img/card_backs/set1/yellow.gif","img/card_backs/set2/gray.gif","img/card_backs/set2/pink.gif","img/card_backs/set2/blue.gif","img/card_backs/set2/orange.gif","""event"",""trial"",""time""
""fullscreenenter"",""1"",""4903""
","
","
","""event"",""trial"",""time""
""fullscreenenter"",""1"",""4903""
","
","","664.7000000178814","","","","real_trial","2021-08-19 17:50:24.261","img/card_backs/set1/purple.gif","2","-200","1","",""
"casino-fixation","104","428696","0.0-25.0-0.17","543","true","img/card_backs/set1/red.gif","img/card_backs/set1/purple.gif","img/card_backs/set1/green.gif","img/card_backs/set1/yellow.gif","img/card_backs/set2/gray.gif","img/card_backs/set2/pink.gif","img/card_backs/set2/blue.gif","img/card_backs/set2/orange.gif","""event"",""trial"",""time""
""fullscreenenter"",""1"",""4903""
","
","
","""event"",""trial"",""time""
""fullscreenenter"",""1"",""4903""
","
","","null","","null","","fixation","2021-08-19 17:50:24.768","","","","","",""
"card-selection-trial","105","432392","0.0-25.0-1.17","543","true","img/card_backs/set1/red.gif","img/card_backs/set1/purple.gif","img/card_backs/set1/green.gif","img/card_backs/set1/yellow.gif","img/card_backs/set2/gray.gif","img/card_backs/set2/pink.gif","img/card_backs/set2/blue.gif","img/card_backs/set2/orange.gif","""event"",""trial"",""time""
""fullscreenenter"",""1"",""4903""
","
","
","""event"",""trial"",""time""
""fullscreenenter"",""1"",""4903""
","
","","1684.300000011921","","","","real_trial","2021-08-19 17:50:28.464","img/card_backs/set1/purple.gif","1","240","1","",""
"casino-fixation","106","432898","0.0-25.0-0.18","543","true","img/card_backs/set1/red.gif","img/card_backs/set1/purple.gif","img/card_backs/set1/green.gif","img/card_backs/set1/yellow.gif","img/card_backs/set2/gray.gif","img/card_backs/set2/pink.gif","img/card_backs/set2/blue.gif","img/card_backs/set2/orange.gif","""event"",""trial"",""time""
""fullscreenenter"",""1"",""4903""
","
","
","""event"",""trial"",""time""
""fullscreenenter"",""1"",""4903""
","
","","null","","null","","fixation","2021-08-19 17:50:28.970","","","","","",""
"card-selection-trial","107","435819","0.0-25.0-1.18","543","true","img/card_backs/set1/red.gif","img/card_backs/set1/purple.gif","img/card_backs/set1/green.gif","img/card_backs/set1/yellow.gif","img/card_backs/set2/gray.gif","img/card_backs/set2/pink.gif","img/card_backs/set2/blue.gif","img/card_backs/set2/orange.gif","""event"",""trial"",""time""
""fullscreenenter"",""1"",""4903""
","
","
","""event"",""trial"",""time""
""fullscreenenter"",""1"",""4903""
","
","","910.3000000119209","","","","real_trial","2021-08-19 17:50:31.891","img/card_backs/set1/red.gif","3","260","1","",""
"casino-fixation","108","436322","0.0-25.0-0.19","543","true","img/card_backs/set1/red.gif","img/card_backs/set1/purple.gif","img/card_backs/set1/green.gif","img/card_backs/set1/yellow.gif","img/card_backs/set2/gray.gif","img/card_backs/set2/pink.gif","img/card_backs/set2/blue.gif","img/card_backs/set2/orange.gif","""event"",""trial"",""time""
""fullscreenenter"",""1"",""4903""
","
","
","""event"",""trial"",""time""
""fullscreenenter"",""1"",""4903""
","
","","null","","null","","fixation","2021-08-19 17:50:32.394","","","","","",""
"card-selection-trial","109","440963","0.0-25.0-1.19","543","true","img/card_backs/set1/red.gif","img/card_backs/set1/purple.gif","img/card_backs/set1/green.gif","img/card_backs/set1/yellow.gif","img/card_backs/set2/gray.gif","img/card_backs/set2/pink.gif","img/card_backs/set2/blue.gif","img/card_backs/set2/orange.gif","""event"",""trial"",""time""
""fullscreenenter"",""1"",""4903""
","
","
","""event"",""trial"",""time""
""fullscreenenter"",""1"",""4903""
","
","","2630.699999988079","","","","real_trial","2021-08-19 17:50:37.035","img/card_backs/set1/red.gif","2","-200","1","",""
"casino-fixation","110","441469","0.0-25.0-0.20","543","true","img/card_backs/set1/red.gif","img/card_backs/set1/purple.gif","img/card_backs/set1/green.gif","img/card_backs/set1/yellow.gif","img/card_backs/set2/gray.gif","img/card_backs/set2/pink.gif","img/card_backs/set2/blue.gif","img/card_backs/set2/orange.gif","""event"",""trial"",""time""
""fullscreenenter"",""1"",""4903""
","
","
","""event"",""trial"",""time""
""fullscreenenter"",""1"",""4903""
","
","","null","","null","","fixation","2021-08-19 17:50:37.541","","","","","",""
"card-selection-trial","111","445032","0.0-25.0-1.20","543","true","img/card_backs/set1/red.gif","img/card_backs/set1/purple.gif","img/card_backs/set1/green.gif","img/card_backs/set1/yellow.gif","img/card_backs/set2/gray.gif","img/card_backs/set2/pink.gif","img/card_backs/set2/blue.gif","img/card_backs/set2/orange.gif","""event"",""trial"",""time""
""fullscreenenter"",""1"",""4903""
","
","
","""event"",""trial"",""time""
""fullscreenenter"",""1"",""4903""
","
","","1551.9000000059605","","","","real_trial","2021-08-19 17:50:41.104","img/card_backs/set1/yellow.gif","3","50","1","",""
"casino-fixation","112","445539","0.0-25.0-0.21","543","true","img/card_backs/set1/red.gif","img/card_backs/set1/purple.gif","img/card_backs/set1/green.gif","img/card_backs/set1/yellow.gif","img/card_backs/set2/gray.gif","img/card_backs/set2/pink.gif","img/card_backs/set2/blue.gif","img/card_backs/set2/orange.gif","""event"",""trial"",""time""
""fullscreenenter"",""1"",""4903""
","
","
","""event"",""trial"",""time""
""fullscreenenter"",""1"",""4903""
","
","","null","","null","","fixation","2021-08-19 17:50:41.611","","","","","",""
"card-selection-trial","113","448094","0.0-25.0-1.21","543","true","img/card_backs/set1/red.gif","img/card_backs/set1/purple.gif","img/card_backs/set1/green.gif","img/card_backs/set1/yellow.gif","img/card_backs/set2/gray.gif","img/card_backs/set2/pink.gif","img/card_backs/set2/blue.gif","img/card_backs/set2/orange.gif","""event"",""trial"",""time""
""fullscreenenter"",""1"",""4903""
","
","
","""event"",""trial"",""time""
""fullscreenenter"",""1"",""4903""
","
","","544.8000000119209","","","","real_trial","2021-08-19 17:50:44.166","img/card_backs/set1/red.gif","0","-210","1","",""
"casino-fixation","114","448600","0.0-25.0-0.22","543","true","img/card_backs/set1/red.gif","img/card_backs/set1/purple.gif","img/card_backs/set1/green.gif","img/card_backs/set1/yellow.gif","img/card_backs/set2/gray.gif","img/card_backs/set2/pink.gif","img/card_backs/set2/blue.gif","img/card_backs/set2/orange.gif","""event"",""trial"",""time""
""fullscreenenter"",""1"",""4903""
","
","
","""event"",""trial"",""time""
""fullscreenenter"",""1"",""4903""
","
","","null","","null","","fixation","2021-08-19 17:50:44.672","","","","","",""
"card-selection-trial","115","451021","0.0-25.0-1.22","543","true","img/card_backs/set1/red.gif","img/card_backs/set1/purple.gif","img/card_backs/set1/green.gif","img/card_backs/set1/yellow.gif","img/card_backs/set2/gray.gif","img/card_backs/set2/pink.gif","img/card_backs/set2/blue.gif","img/card_backs/set2/orange.gif","""event"",""trial"",""time""
""fullscreenenter"",""1"",""4903""
","
","
","""event"",""trial"",""time""
""fullscreenenter"",""1"",""4903""
","
","","413.39999997615814","","","","real_trial","2021-08-19 17:50:47.093","img/card_backs/set1/purple.gif","1","-200","1","",""
"casino-fixation","116","451528","0.0-25.0-0.23","543","true","img/card_backs/set1/red.gif","img/card_backs/set1/purple.gif","img/card_backs/set1/green.gif","img/card_backs/set1/yellow.gif","img/card_backs/set2/gray.gif","img/card_backs/set2/pink.gif","img/card_backs/set2/blue.gif","img/card_backs/set2/orange.gif","""event"",""trial"",""time""
""fullscreenenter"",""1"",""4903""
","
","
","""event"",""trial"",""time""
""fullscreenenter"",""1"",""4903""
","
","","null","","null","","fixation","2021-08-19 17:50:47.600","","","","","",""
"card-selection-trial","117","454675","0.0-25.0-1.23","543","true","img/card_backs/set1/red.gif","img/card_backs/set1/purple.gif","img/card_backs/set1/green.gif","img/card_backs/set1/yellow.gif","img/card_backs/set2/gray.gif","img/card_backs/set2/pink.gif","img/card_backs/set2/blue.gif","img/card_backs/set2/orange.gif","""event"",""trial"",""time""
""fullscreenenter"",""1"",""4903""
","
","
","""event"",""trial"",""time""
""fullscreenenter"",""1"",""4903""
","
","","1141.4000000059605","","","","real_trial","2021-08-19 17:50:50.747","img/card_backs/set1/red.gif","0","-200","1","",""
"casino-fixation","118","455181","0.0-25.0-0.24","543","true","img/card_backs/set1/red.gif","img/card_backs/set1/purple.gif","img/card_backs/set1/green.gif","img/card_backs/set1/yellow.gif","img/card_backs/set2/gray.gif","img/card_backs/set2/pink.gif","img/card_backs/set2/blue.gif","img/card_backs/set2/orange.gif","""event"",""trial"",""time""
""fullscreenenter"",""1"",""4903""
","
","
","""event"",""trial"",""time""
""fullscreenenter"",""1"",""4903""
","
","","null","","null","","fixation","2021-08-19 17:50:51.253","","","","","",""
"card-selection-trial","119","457531","0.0-25.0-1.24","543","true","img/card_backs/set1/red.gif","img/card_backs/set1/purple.gif","img/card_backs/set1/green.gif","img/card_backs/set1/yellow.gif","img/card_backs/set2/gray.gif","img/card_backs/set2/pink.gif","img/card_backs/set2/blue.gif","img/card_backs/set2/orange.gif","""event"",""trial"",""time""
""fullscreenenter"",""1"",""4903""
","
","
","""event"",""trial"",""time""
""fullscreenenter"",""1"",""4903""
","
","","340.2000000178814","","","","real_trial","2021-08-19 17:50:53.603","img/card_backs/set1/green.gif","2","-100","1","",""
"casino-fixation","120","458033","0.0-25.0-0.25","543","true","img/card_backs/set1/red.gif","img/card_backs/set1/purple.gif","img/card_backs/set1/green.gif","img/card_backs/set1/yellow.gif","img/card_backs/set2/gray.gif","img/card_backs/set2/pink.gif","img/card_backs/set2/blue.gif","img/card_backs/set2/orange.gif","""event"",""trial"",""time""
""fullscreenenter"",""1"",""4903""
","
","
","""event"",""trial"",""time""
""fullscreenenter"",""1"",""4903""
","
","","null","","null","","fixation","2021-08-19 17:50:54.105","","","","","",""
"card-selection-trial","121","460408","0.0-25.0-1.25","543","true","img/card_backs/set1/red.gif","img/card_backs/set1/purple.gif","img/card_backs/set1/green.gif","img/card_backs/set1/yellow.gif","img/card_backs/set2/gray.gif","img/card_backs/set2/pink.gif","img/card_backs/set2/blue.gif","img/card_backs/set2/orange.gif","""event"",""trial"",""time""
""fullscreenenter"",""1"",""4903""
","
","
","""event"",""trial"",""time""
""fullscreenenter"",""1"",""4903""
","
","","366.69999998807907","","","","real_trial","2021-08-19 17:50:56.480","img/card_backs/set1/red.gif","3","260","1","",""
"casino-fixation","122","460914","0.0-25.0-0.26","543","true","img/card_backs/set1/red.gif","img/card_backs/set1/purple.gif","img/card_backs/set1/green.gif","img/card_backs/set1/yellow.gif","img/card_backs/set2/gray.gif","img/card_backs/set2/pink.gif","img/card_backs/set2/blue.gif","img/card_backs/set2/orange.gif","""event"",""trial"",""time""
""fullscreenenter"",""1"",""4903""
","
","
","""event"",""trial"",""time""
""fullscreenenter"",""1"",""4903""
","
","","null","","null","","fixation","2021-08-19 17:50:56.986","","","","","",""
"card-selection-trial","123","463554","0.0-25.0-1.26","543","true","img/card_backs/set1/red.gif","img/card_backs/set1/purple.gif","img/card_backs/set1/green.gif","img/card_backs/set1/yellow.gif","img/card_backs/set2/gray.gif","img/card_backs/set2/pink.gif","img/card_backs/set2/blue.gif","img/card_backs/set2/orange.gif","""event"",""trial"",""time""
""fullscreenenter"",""1"",""4903""
","
","
","""event"",""trial"",""time""
""fullscreenenter"",""1"",""4903""
","
","","633.3000000119209","","","","real_trial","2021-08-19 17:50:59.626","img/card_backs/set1/purple.gif","0","-190","1","",""
"casino-fixation","124","464061","0.0-25.0-0.27","543","true","img/card_backs/set1/red.gif","img/card_backs/set1/purple.gif","img/card_backs/set1/green.gif","img/card_backs/set1/yellow.gif","img/card_backs/set2/gray.gif","img/card_backs/set2/pink.gif","img/card_backs/set2/blue.gif","img/card_backs/set2/orange.gif","""event"",""trial"",""time""
""fullscreenenter"",""1"",""4903""
","
","
","""event"",""trial"",""time""
""fullscreenenter"",""1"",""4903""
","
","","null","","null","","fixation","2021-08-19 17:51:00.133","","","","","",""
"card-selection-trial","125","466387","0.0-25.0-1.27","543","true","img/card_backs/set1/red.gif","img/card_backs/set1/purple.gif","img/card_backs/set1/green.gif","img/card_backs/set1/yellow.gif","img/card_backs/set2/gray.gif","img/card_backs/set2/pink.gif","img/card_backs/set2/blue.gif","img/card_backs/set2/orange.gif","""event"",""trial"",""time""
""fullscreenenter"",""1"",""4903""
","
","
","""event"",""trial"",""time""
""fullscreenenter"",""1"",""4903""
","
","","317.40000000596046","","","","real_trial","2021-08-19 17:51:02.459","img/card_backs/set1/green.gif","1","60","1","",""
"casino-fixation","126","466893","0.0-25.0-0.28","543","true","img/card_backs/set1/red.gif","img/card_backs/set1/purple.gif","img/card_backs/set1/green.gif","img/card_backs/set1/yellow.gif","img/card_backs/set2/gray.gif","img/card_backs/set2/pink.gif","img/card_backs/set2/blue.gif","img/card_backs/set2/orange.gif","""event"",""trial"",""time""
""fullscreenenter"",""1"",""4903""
","
","
","""event"",""trial"",""time""
""fullscreenenter"",""1"",""4903""
","
","","null","","null","","fixation","2021-08-19 17:51:02.965","","","","","",""
"card-selection-trial","127","470158","0.0-25.0-1.28","543","true","img/card_backs/set1/red.gif","img/card_backs/set1/purple.gif","img/card_backs/set1/green.gif","img/card_backs/set1/yellow.gif","img/card_backs/set2/gray.gif","img/card_backs/set2/pink.gif","img/card_backs/set2/blue.gif","img/card_backs/set2/orange.gif","""event"",""trial"",""time""
""fullscreenenter"",""1"",""4903""
","
","
","""event"",""trial"",""time""
""fullscreenenter"",""1"",""4903""
","
","","1255.0999999940395","","","","real_trial","2021-08-19 17:51:06.230","img/card_backs/set1/red.gif","2","-200","1","",""
"casino-fixation","128","470664","0.0-25.0-0.29","543","true","img/card_backs/set1/red.gif","img/card_backs/set1/purple.gif","img/card_backs/set1/green.gif","img/card_backs/set1/yellow.gif","img/card_backs/set2/gray.gif","img/card_backs/set2/pink.gif","img/card_backs/set2/blue.gif","img/card_backs/set2/orange.gif","""event"",""trial"",""time""
""fullscreenenter"",""1"",""4903""
","
","
","""event"",""trial"",""time""
""fullscreenenter"",""1"",""4903""
","
","","null","","null","","fixation","2021-08-19 17:51:06.736","","","","","",""
"card-selection-trial","129","472979","0.0-25.0-1.29","543","true","img/card_backs/set1/red.gif","img/card_backs/set1/purple.gif","img/card_backs/set1/green.gif","img/card_backs/set1/yellow.gif","img/card_backs/set2/gray.gif","img/card_backs/set2/pink.gif","img/card_backs/set2/blue.gif","img/card_backs/set2/orange.gif","""event"",""trial"",""time""
""fullscreenenter"",""1"",""4903""
","
","
","""event"",""trial"",""time""
""fullscreenenter"",""1"",""4903""
","
","","304.2999999821186","","","","real_trial","2021-08-19 17:51:09.051","img/card_backs/set1/red.gif","3","-210","1","",""
"casino-fixation","130","473485","0.0-25.0-0.30","543","true","img/card_backs/set1/red.gif","img/card_backs/set1/purple.gif","img/card_backs/set1/green.gif","img/card_backs/set1/yellow.gif","img/card_backs/set2/gray.gif","img/card_backs/set2/pink.gif","img/card_backs/set2/blue.gif","img/card_backs/set2/orange.gif","""event"",""trial"",""time""
""fullscreenenter"",""1"",""4903""
","
","
","""event"",""trial"",""time""
""fullscreenenter"",""1"",""4903""
","
","","null","","null","","fixation","2021-08-19 17:51:09.557","","","","","",""
"card-selection-trial","131","476339","0.0-25.0-1.30","543","true","img/card_backs/set1/red.gif","img/card_backs/set1/purple.gif","img/card_backs/set1/green.gif","img/card_backs/set1/yellow.gif","img/card_backs/set2/gray.gif","img/card_backs/set2/pink.gif","img/card_backs/set2/blue.gif","img/card_backs/set2/orange.gif","""event"",""trial"",""time""
""fullscreenenter"",""1"",""4903""
","
","
","""event"",""trial"",""time""
""fullscreenenter"",""1"",""4903""
","
","","847.4000000059605","","","","real_trial","2021-08-19 17:51:12.411","img/card_backs/set1/purple.gif","0","-200","1","",""
"casino-fixation","132","476845","0.0-25.0-0.31","543","true","img/card_backs/set1/red.gif","img/card_backs/set1/purple.gif","img/card_backs/set1/green.gif","img/card_backs/set1/yellow.gif","img/card_backs/set2/gray.gif","img/card_backs/set2/pink.gif","img/card_backs/set2/blue.gif","img/card_backs/set2/orange.gif","""event"",""trial"",""time""
""fullscreenenter"",""1"",""4903""
","
","
","""event"",""trial"",""time""
""fullscreenenter"",""1"",""4903""
","
","","null","","null","","fixation","2021-08-19 17:51:12.917","","","","","",""
"card-selection-trial","133","479240","0.0-25.0-1.31","543","true","img/card_backs/set1/red.gif","img/card_backs/set1/purple.gif","img/card_backs/set1/green.gif","img/card_backs/set1/yellow.gif","img/card_backs/set2/gray.gif","img/card_backs/set2/pink.gif","img/card_backs/set2/blue.gif","img/card_backs/set2/orange.gif","""event"",""trial"",""time""
""fullscreenenter"",""1"",""4903""
","
","
","""event"",""trial"",""time""
""fullscreenenter"",""1"",""4903""
","
","","386","","","","real_trial","2021-08-19 17:51:15.312","img/card_backs/set1/purple.gif","1","-200","1","",""
"casino-fixation","134","479747","0.0-25.0-0.32","543","true","img/card_backs/set1/red.gif","img/card_backs/set1/purple.gif","img/card_backs/set1/green.gif","img/card_backs/set1/yellow.gif","img/card_backs/set2/gray.gif","img/card_backs/set2/pink.gif","img/card_backs/set2/blue.gif","img/card_backs/set2/orange.gif","""event"",""trial"",""time""
""fullscreenenter"",""1"",""4903""
","
","
","""event"",""trial"",""time""
""fullscreenenter"",""1"",""4903""
","
","","null","","null","","fixation","2021-08-19 17:51:15.819","","","","","",""
"card-selection-trial","135","483630","0.0-25.0-1.32","543","true","img/card_backs/set1/red.gif","img/card_backs/set1/purple.gif","img/card_backs/set1/green.gif","img/card_backs/set1/yellow.gif","img/card_backs/set2/gray.gif","img/card_backs/set2/pink.gif","img/card_backs/set2/blue.gif","img/card_backs/set2/orange.gif","""event"",""trial"",""time""
""fullscreenenter"",""1"",""4903""
","
","
","""event"",""trial"",""time""
""fullscreenenter"",""1"",""4903""
","
","","1871","","","","real_trial","2021-08-19 17:51:19.702","img/card_backs/set1/yellow.gif","1","-90","1","",""
"casino-fixation","136","484135","0.0-25.0-0.33","543","true","img/card_backs/set1/red.gif","img/card_backs/set1/purple.gif","img/card_backs/set1/green.gif","img/card_backs/set1/yellow.gif","img/card_backs/set2/gray.gif","img/card_backs/set2/pink.gif","img/card_backs/set2/blue.gif","img/card_backs/set2/orange.gif","""event"",""trial"",""time""
""fullscreenenter"",""1"",""4903""
","
","
","""event"",""trial"",""time""
""fullscreenenter"",""1"",""4903""
","
","","null","","null","","fixation","2021-08-19 17:51:20.207","","","","","",""
"card-selection-trial","137","486952","0.0-25.0-1.33","543","true","img/card_backs/set1/red.gif","img/card_backs/set1/purple.gif","img/card_backs/set1/green.gif","img/card_backs/set1/yellow.gif","img/card_backs/set2/gray.gif","img/card_backs/set2/pink.gif","img/card_backs/set2/blue.gif","img/card_backs/set2/orange.gif","""event"",""trial"",""time""
""fullscreenenter"",""1"",""4903""
","
","
","""event"",""trial"",""time""
""fullscreenenter"",""1"",""4903""
","
","","807.9000000059605","","","","real_trial","2021-08-19 17:51:23.024","img/card_backs/set1/purple.gif","2","250","1","",""
"casino-fixation","138","487453","0.0-25.0-0.34","543","true","img/card_backs/set1/red.gif","img/card_backs/set1/purple.gif","img/card_backs/set1/green.gif","img/card_backs/set1/yellow.gif","img/card_backs/set2/gray.gif","img/card_backs/set2/pink.gif","img/card_backs/set2/blue.gif","img/card_backs/set2/orange.gif","""event"",""trial"",""time""
""fullscreenenter"",""1"",""4903""
","
","
","""event"",""trial"",""time""
""fullscreenenter"",""1"",""4903""
","
","","null","","null","","fixation","2021-08-19 17:51:23.525","","","","","",""
"card-selection-trial","139","490051","0.0-25.0-1.34","543","true","img/card_backs/set1/red.gif","img/card_backs/set1/purple.gif","img/card_backs/set1/green.gif","img/card_backs/set1/yellow.gif","img/card_backs/set2/gray.gif","img/card_backs/set2/pink.gif","img/card_backs/set2/blue.gif","img/card_backs/set2/orange.gif","""event"",""trial"",""time""
""fullscreenenter"",""1"",""4903""
","
","
","""event"",""trial"",""time""
""fullscreenenter"",""1"",""4903""
","
","","587.2000000178814","","","","real_trial","2021-08-19 17:51:26.123","img/card_backs/set1/purple.gif","2","240","1","",""
"casino-fixation","140","490559","0.0-25.0-0.35","543","true","img/card_backs/set1/red.gif","img/card_backs/set1/purple.gif","img/card_backs/set1/green.gif","img/card_backs/set1/yellow.gif","img/card_backs/set2/gray.gif","img/card_backs/set2/pink.gif","img/card_backs/set2/blue.gif","img/card_backs/set2/orange.gif","""event"",""trial"",""time""
""fullscreenenter"",""1"",""4903""
","
","
","""event"",""trial"",""time""
""fullscreenenter"",""1"",""4903""
","
","","null","","null","","fixation","2021-08-19 17:51:26.631","","","","","",""
"card-selection-trial","141","495091","0.0-25.0-1.35","543","true","img/card_backs/set1/red.gif","img/card_backs/set1/purple.gif","img/card_backs/set1/green.gif","img/card_backs/set1/yellow.gif","img/card_backs/set2/gray.gif","img/card_backs/set2/pink.gif","img/card_backs/set2/blue.gif","img/card_backs/set2/orange.gif","""event"",""trial"",""time""
""fullscreenenter"",""1"",""4903""
","
","
","""event"",""trial"",""time""
""fullscreenenter"",""1"",""4903""
","
","","2518.800000011921","","","","real_trial","2021-08-19 17:51:31.163","img/card_backs/set1/yellow.gif","2","50","1","",""
"casino-fixation","142","495597","0.0-25.0-0.36","543","true","img/card_backs/set1/red.gif","img/card_backs/set1/purple.gif","img/card_backs/set1/green.gif","img/card_backs/set1/yellow.gif","img/card_backs/set2/gray.gif","img/card_backs/set2/pink.gif","img/card_backs/set2/blue.gif","img/card_backs/set2/orange.gif","""event"",""trial"",""time""
""fullscreenenter"",""1"",""4903""
","
","
","""event"",""trial"",""time""
""fullscreenenter"",""1"",""4903""
","
","","null","","null","","fixation","2021-08-19 17:51:31.669","","","","","",""
"card-selection-trial","143","498211","0.0-25.0-1.36","543","true","img/card_backs/set1/red.gif","img/card_backs/set1/purple.gif","img/card_backs/set1/green.gif","img/card_backs/set1/yellow.gif","img/card_backs/set2/gray.gif","img/card_backs/set2/pink.gif","img/card_backs/set2/blue.gif","img/card_backs/set2/orange.gif","""event"",""trial"",""time""
""fullscreenenter"",""1"",""4903""
","
","
","""event"",""trial"",""time""
""fullscreenenter"",""1"",""4903""
","
","","601.4000000059605","","","","real_trial","2021-08-19 17:51:34.283","img/card_backs/set1/yellow.gif","2","-90","1","",""
"casino-fixation","144","498717","0.0-25.0-0.37","543","true","img/card_backs/set1/red.gif","img/card_backs/set1/purple.gif","img/card_backs/set1/green.gif","img/card_backs/set1/yellow.gif","img/card_backs/set2/gray.gif","img/card_backs/set2/pink.gif","img/card_backs/set2/blue.gif","img/card_backs/set2/orange.gif","""event"",""trial"",""time""
""fullscreenenter"",""1"",""4903""
","
","
","""event"",""trial"",""time""
""fullscreenenter"",""1"",""4903""
","
","","null","","null","","fixation","2021-08-19 17:51:34.789","","","","","",""
"card-selection-trial","145","501069","0.0-25.0-1.37","543","true","img/card_backs/set1/red.gif","img/card_backs/set1/purple.gif","img/card_backs/set1/green.gif","img/card_backs/set1/yellow.gif","img/card_backs/set2/gray.gif","img/card_backs/set2/pink.gif","img/card_backs/set2/blue.gif","img/card_backs/set2/orange.gif","""event"",""trial"",""time""
""fullscreenenter"",""1"",""4903""
","
","
","""event"",""trial"",""time""
""fullscreenenter"",""1"",""4903""
","
","","341.59999999403954","","","","real_trial","2021-08-19 17:51:37.141","img/card_backs/set1/purple.gif","3","260","1","",""
"casino-fixation","146","501576","0.0-25.0-0.38","543","true","img/card_backs/set1/red.gif","img/card_backs/set1/purple.gif","img/card_backs/set1/green.gif","img/card_backs/set1/yellow.gif","img/card_backs/set2/gray.gif","img/card_backs/set2/pink.gif","img/card_backs/set2/blue.gif","img/card_backs/set2/orange.gif","""event"",""trial"",""time""
""fullscreenenter"",""1"",""4903""
","
","
","""event"",""trial"",""time""
""fullscreenenter"",""1"",""4903""
","
","","null","","null","","fixation","2021-08-19 17:51:37.648","","","","","",""
"card-selection-trial","147","505683","0.0-25.0-1.38","543","true","img/card_backs/set1/red.gif","img/card_backs/set1/purple.gif","img/card_backs/set1/green.gif","img/card_backs/set1/yellow.gif","img/card_backs/set2/gray.gif","img/card_backs/set2/pink.gif","img/card_backs/set2/blue.gif","img/card_backs/set2/orange.gif","""event"",""trial"",""time""
""fullscreenenter"",""1"",""4903""
","
","
","""event"",""trial"",""time""
""fullscreenenter"",""1"",""4903""
","
","","2098","","","","real_trial","2021-08-19 17:51:41.755","img/card_backs/set1/red.gif","2","-190","1","",""
"casino-fixation","148","506189","0.0-25.0-0.39","543","true","img/card_backs/set1/red.gif","img/card_backs/set1/purple.gif","img/card_backs/set1/green.gif","img/card_backs/set1/yellow.gif","img/card_backs/set2/gray.gif","img/card_backs/set2/pink.gif","img/card_backs/set2/blue.gif","img/card_backs/set2/orange.gif","""event"",""trial"",""time""
""fullscreenenter"",""1"",""4903""
","
","
","""event"",""trial"",""time""
""fullscreenenter"",""1"",""4903""
","
","","null","","null","","fixation","2021-08-19 17:51:42.261","","","","","",""
"card-selection-trial","149","509326","0.0-25.0-1.39","543","true","img/card_backs/set1/red.gif","img/card_backs/set1/purple.gif","img/card_backs/set1/green.gif","img/card_backs/set1/yellow.gif","img/card_backs/set2/gray.gif","img/card_backs/set2/pink.gif","img/card_backs/set2/blue.gif","img/card_backs/set2/orange.gif","""event"",""trial"",""time""
""fullscreenenter"",""1"",""4903""
","
","
","""event"",""trial"",""time""
""fullscreenenter"",""1"",""4903""
","
","","1126","","","","real_trial","2021-08-19 17:51:45.398","img/card_backs/set1/purple.gif","1","240","1","",""
"casino-fixation","150","509831","0.0-25.0-0.40","543","true","img/card_backs/set1/red.gif","img/card_backs/set1/purple.gif","img/card_backs/set1/green.gif","img/card_backs/set1/yellow.gif","img/card_backs/set2/gray.gif","img/card_backs/set2/pink.gif","img/card_backs/set2/blue.gif","img/card_backs/set2/orange.gif","""event"",""trial"",""time""
""fullscreenenter"",""1"",""4903""
","
","
","""event"",""trial"",""time""
""fullscreenenter"",""1"",""4903""
","
","","null","","null","","fixation","2021-08-19 17:51:45.904","","","","","",""
"card-selection-trial","151","512686","0.0-25.0-1.40","543","true","img/card_backs/set1/red.gif","img/card_backs/set1/purple.gif","img/card_backs/set1/green.gif","img/card_backs/set1/yellow.gif","img/card_backs/set2/gray.gif","img/card_backs/set2/pink.gif","img/card_backs/set2/blue.gif","img/card_backs/set2/orange.gif","""event"",""trial"",""time""
""fullscreenenter"",""1"",""4903""
","
","
","""event"",""trial"",""time""
""fullscreenenter"",""1"",""4903""
","
","","845.3000000119209","","","","real_trial","2021-08-19 17:51:48.758","img/card_backs/set1/purple.gif","3","260","1","",""
"casino-fixation","152","513192","0.0-25.0-0.41","543","true","img/card_backs/set1/red.gif","img/card_backs/set1/purple.gif","img/card_backs/set1/green.gif","img/card_backs/set1/yellow.gif","img/card_backs/set2/gray.gif","img/card_backs/set2/pink.gif","img/card_backs/set2/blue.gif","img/card_backs/set2/orange.gif","""event"",""trial"",""time""
""fullscreenenter"",""1"",""4903""
","
","
","""event"",""trial"",""time""
""fullscreenenter"",""1"",""4903""
","
","","null","","null","","fixation","2021-08-19 17:51:49.264","","","","","",""
"card-selection-trial","153","516308","0.0-25.0-1.41","543","true","img/card_backs/set1/red.gif","img/card_backs/set1/purple.gif","img/card_backs/set1/green.gif","img/card_backs/set1/yellow.gif","img/card_backs/set2/gray.gif","img/card_backs/set2/pink.gif","img/card_backs/set2/blue.gif","img/card_backs/set2/orange.gif","""event"",""trial"",""time""
""fullscreenenter"",""1"",""4903""
","
","
","""event"",""trial"",""time""
""fullscreenenter"",""1"",""4903""
","
","","1105.4000000059605","","","","real_trial","2021-08-19 17:51:52.380","img/card_backs/set1/purple.gif","1","-200","1","",""
"casino-fixation","154","516813","0.0-25.0-0.42","543","true","img/card_backs/set1/red.gif","img/card_backs/set1/purple.gif","img/card_backs/set1/green.gif","img/card_backs/set1/yellow.gif","img/card_backs/set2/gray.gif","img/card_backs/set2/pink.gif","img/card_backs/set2/blue.gif","img/card_backs/set2/orange.gif","""event"",""trial"",""time""
""fullscreenenter"",""1"",""4903""
","
","
","""event"",""trial"",""time""
""fullscreenenter"",""1"",""4903""
","
","","null","","null","","fixation","2021-08-19 17:51:52.885","","","","","",""
"card-selection-trial","155","520013","0.0-25.0-1.42","543","true","img/card_backs/set1/red.gif","img/card_backs/set1/purple.gif","img/card_backs/set1/green.gif","img/card_backs/set1/yellow.gif","img/card_backs/set2/gray.gif","img/card_backs/set2/pink.gif","img/card_backs/set2/blue.gif","img/card_backs/set2/orange.gif","""event"",""trial"",""time""
""fullscreenenter"",""1"",""4903""
","
","
","""event"",""trial"",""time""
""fullscreenenter"",""1"",""4903""
","
","","1189","","","","real_trial","2021-08-19 17:51:56.085","img/card_backs/set1/green.gif","0","-100","1","",""
"casino-fixation","156","520520","0.0-25.0-0.43","543","true","img/card_backs/set1/red.gif","img/card_backs/set1/purple.gif","img/card_backs/set1/green.gif","img/card_backs/set1/yellow.gif","img/card_backs/set2/gray.gif","img/card_backs/set2/pink.gif","img/card_backs/set2/blue.gif","img/card_backs/set2/orange.gif","""event"",""trial"",""time""
""fullscreenenter"",""1"",""4903""
","
","
","""event"",""trial"",""time""
""fullscreenenter"",""1"",""4903""
","
","","null","","null","","fixation","2021-08-19 17:51:56.592","","","","","",""
"card-selection-trial","157","525175","0.0-25.0-1.43","543","true","img/card_backs/set1/red.gif","img/card_backs/set1/purple.gif","img/card_backs/set1/green.gif","img/card_backs/set1/yellow.gif","img/card_backs/set2/gray.gif","img/card_backs/set2/pink.gif","img/card_backs/set2/blue.gif","img/card_backs/set2/orange.gif","""event"",""trial"",""time""
""fullscreenenter"",""1"",""4903""
","
","
","""event"",""trial"",""time""
""fullscreenenter"",""1"",""4903""
","
","","2646.699999988079","","","","real_trial","2021-08-19 17:52:01.248","img/card_backs/set1/purple.gif","0","260","1","",""
"casino-fixation","158","525683","0.0-25.0-0.44","543","true","img/card_backs/set1/red.gif","img/card_backs/set1/purple.gif","img/card_backs/set1/green.gif","img/card_backs/set1/yellow.gif","img/card_backs/set2/gray.gif","img/card_backs/set2/pink.gif","img/card_backs/set2/blue.gif","img/card_backs/set2/orange.gif","""event"",""trial"",""time""
""fullscreenenter"",""1"",""4903""
","
","
","""event"",""trial"",""time""
""fullscreenenter"",""1"",""4903""
","
","","null","","null","","fixation","2021-08-19 17:52:01.755","","","","","",""
"card-selection-trial","159","529535","0.0-25.0-1.44","543","true","img/card_backs/set1/red.gif","img/card_backs/set1/purple.gif","img/card_backs/set1/green.gif","img/card_backs/set1/yellow.gif","img/card_backs/set2/gray.gif","img/card_backs/set2/pink.gif","img/card_backs/set2/blue.gif","img/card_backs/set2/orange.gif","""event"",""trial"",""time""
""fullscreenenter"",""1"",""4903""
","
","
","""event"",""trial"",""time""
""fullscreenenter"",""1"",""4903""
","
","","1840","","","","real_trial","2021-08-19 17:52:05.607","img/card_backs/set1/purple.gif","2","-210","1","",""
"casino-fixation","160","530041","0.0-25.0-0.45","543","true","img/card_backs/set1/red.gif","img/card_backs/set1/purple.gif","img/card_backs/set1/green.gif","img/card_backs/set1/yellow.gif","img/card_backs/set2/gray.gif","img/card_backs/set2/pink.gif","img/card_backs/set2/blue.gif","img/card_backs/set2/orange.gif","""event"",""trial"",""time""
""fullscreenenter"",""1"",""4903""
","
","
","""event"",""trial"",""time""
""fullscreenenter"",""1"",""4903""
","
","","null","","null","","fixation","2021-08-19 17:52:06.113","","","","","",""
"card-selection-trial","161","533411","0.0-25.0-1.45","543","true","img/card_backs/set1/red.gif","img/card_backs/set1/purple.gif","img/card_backs/set1/green.gif","img/card_backs/set1/yellow.gif","img/card_backs/set2/gray.gif","img/card_backs/set2/pink.gif","img/card_backs/set2/blue.gif","img/card_backs/set2/orange.gif","""event"",""trial"",""time""
""fullscreenenter"",""1"",""4903""
","
","
","""event"",""trial"",""time""
""fullscreenenter"",""1"",""4903""
","
","","1357.800000011921","","","","real_trial","2021-08-19 17:52:09.483","img/card_backs/set1/yellow.gif","0","50","1","",""
"casino-fixation","162","533917","0.0-25.0-0.46","543","true","img/card_backs/set1/red.gif","img/card_backs/set1/purple.gif","img/card_backs/set1/green.gif","img/card_backs/set1/yellow.gif","img/card_backs/set2/gray.gif","img/card_backs/set2/pink.gif","img/card_backs/set2/blue.gif","img/card_backs/set2/orange.gif","""event"",""trial"",""time""
""fullscreenenter"",""1"",""4903""
","
","
","""event"",""trial"",""time""
""fullscreenenter"",""1"",""4903""
","
","","null","","null","","fixation","2021-08-19 17:52:09.989","","","","","",""
"card-selection-trial","163","537917","0.0-25.0-1.46","543","true","img/card_backs/set1/red.gif","img/card_backs/set1/purple.gif","img/card_backs/set1/green.gif","img/card_backs/set1/yellow.gif","img/card_backs/set2/gray.gif","img/card_backs/set2/pink.gif","img/card_backs/set2/blue.gif","img/card_backs/set2/orange.gif","""event"",""trial"",""time""
""fullscreenenter"",""1"",""4903""
","
","
","""event"",""trial"",""time""
""fullscreenenter"",""1"",""4903""
","
","","1989.5","","","","real_trial","2021-08-19 17:52:13.990","img/card_backs/set1/purple.gif","3","-200","1","",""
"casino-fixation","164","538423","0.0-25.0-0.47","543","true","img/card_backs/set1/red.gif","img/card_backs/set1/purple.gif","img/card_backs/set1/green.gif","img/card_backs/set1/yellow.gif","img/card_backs/set2/gray.gif","img/card_backs/set2/pink.gif","img/card_backs/set2/blue.gif","img/card_backs/set2/orange.gif","""event"",""trial"",""time""
""fullscreenenter"",""1"",""4903""
","
","
","""event"",""trial"",""time""
""fullscreenenter"",""1"",""4903""
","
","","null","","null","","fixation","2021-08-19 17:52:14.495","","","","","",""
"card-selection-trial","165","541715","0.0-25.0-1.47","543","true","img/card_backs/set1/red.gif","img/card_backs/set1/purple.gif","img/card_backs/set1/green.gif","img/card_backs/set1/yellow.gif","img/card_backs/set2/gray.gif","img/card_backs/set2/pink.gif","img/card_backs/set2/blue.gif","img/card_backs/set2/orange.gif","""event"",""trial"",""time""
""fullscreenenter"",""1"",""4903""
","
","
","""event"",""trial"",""time""
""fullscreenenter"",""1"",""4903""
","
","","1280.2999999821186","","","","real_trial","2021-08-19 17:52:17.787","img/card_backs/set1/purple.gif","1","-200","1","",""
"casino-fixation","166","542221","0.0-25.0-0.48","543","true","img/card_backs/set1/red.gif","img/card_backs/set1/purple.gif","img/card_backs/set1/green.gif","img/card_backs/set1/yellow.gif","img/card_backs/set2/gray.gif","img/card_backs/set2/pink.gif","img/card_backs/set2/blue.gif","img/card_backs/set2/orange.gif","""event"",""trial"",""time""
""fullscreenenter"",""1"",""4903""
","
","
","""event"",""trial"",""time""
""fullscreenenter"",""1"",""4903""
","
","","null","","null","","fixation","2021-08-19 17:52:18.293","","","","","",""
"card-selection-trial","167","545160","0.0-25.0-1.48","543","true","img/card_backs/set1/red.gif","img/card_backs/set1/purple.gif","img/card_backs/set1/green.gif","img/card_backs/set1/yellow.gif","img/card_backs/set2/gray.gif","img/card_backs/set2/pink.gif","img/card_backs/set2/blue.gif","img/card_backs/set2/orange.gif","""event"",""trial"",""time""
""fullscreenenter"",""1"",""4903""
","
","
","""event"",""trial"",""time""
""fullscreenenter"",""1"",""4903""
","
","","929.7999999821186","","","","real_trial","2021-08-19 17:52:21.232","img/card_backs/set1/purple.gif","0","260","1","",""
