"trial_type","trial_index","time_elapsed","internal_node_id","sub_id","risk_good_first","block1_A","block1_B","block1_C","block1_D","block2_A","block2_B","block2_C","block2_D","interactions","blur_events","focus_events","fullscreenenter_events","fullscreenexit_events","success","rt","stimulus","key_press","button_pressed","task_part","timestamp","card_choice","choice_position","points_earned","block","correct","response"
"pavlovia","0","2","0.0-0.0","A385","true","img/card_backs/set1/green.gif","img/card_backs/set1/purple.gif","img/card_backs/set1/yellow.gif","img/card_backs/set1/red.gif","img/card_backs/set2/gray.gif","img/card_backs/set2/orange.gif","img/card_backs/set2/blue.gif","img/card_backs/set2/pink.gif","""event"",""trial"",""time""
""fullscreenenter"",""1"",""1409""
","
","
","""event"",""trial"",""time""
""fullscreenenter"",""1"",""1409""
","
","","","","","","","","","","","","",""
"fullscreen","1","2390","0.0-1.0","A385","true","img/card_backs/set1/green.gif","img/card_backs/set1/purple.gif","img/card_backs/set1/yellow.gif","img/card_backs/set1/red.gif","img/card_backs/set2/gray.gif","img/card_backs/set2/orange.gif","img/card_backs/set2/blue.gif","img/card_backs/set2/pink.gif","""event"",""trial"",""time""
""fullscreenenter"",""1"",""1409""
","
","
","""event"",""trial"",""time""
""fullscreenenter"",""1"",""1409""
","
","true","","","","","","","","","","","",""
"audio-keyboard-response","2","3756","0.0-2.0","A385","true","img/card_backs/set1/green.gif","img/card_backs/set1/purple.gif","img/card_backs/set1/yellow.gif","img/card_backs/set1/red.gif","img/card_backs/set2/gray.gif","img/card_backs/set2/orange.gif","img/card_backs/set2/blue.gif","img/card_backs/set2/pink.gif","""event"",""trial"",""time""
""fullscreenenter"",""1"",""1409""
","
","
","""event"",""trial"",""time""
""fullscreenenter"",""1"",""1409""
","
","","1360","audio/beep_loop.wav","32","","","","","","","","",""
"audio-button-response","3","4964","0.0-3.0","A385","true","img/card_backs/set1/green.gif","img/card_backs/set1/purple.gif","img/card_backs/set1/yellow.gif","img/card_backs/set1/red.gif","img/card_backs/set2/gray.gif","img/card_backs/set2/orange.gif","img/card_backs/set2/blue.gif","img/card_backs/set2/pink.gif","""event"",""trial"",""time""
""fullscreenenter"",""1"",""1409""
","
","
","""event"",""trial"",""time""
""fullscreenenter"",""1"",""1409""
","
","","NaN","audio/turtle.mp3","","3","","","","","","","",""
"audio-button-response","4","7179","0.0-4.0","A385","true","img/card_backs/set1/green.gif","img/card_backs/set1/purple.gif","img/card_backs/set1/yellow.gif","img/card_backs/set1/red.gif","img/card_backs/set2/gray.gif","img/card_backs/set2/orange.gif","img/card_backs/set2/blue.gif","img/card_backs/set2/pink.gif","""event"",""trial"",""time""
""fullscreenenter"",""1"",""1409""
","
","
","""event"",""trial"",""time""
""fullscreenenter"",""1"",""1409""
","
","","NaN","audio/shark.mp3","","2","","","","","","","",""
"fullscreen","5","10104","0.0-5.0","A385","true","img/card_backs/set1/green.gif","img/card_backs/set1/purple.gif","img/card_backs/set1/yellow.gif","img/card_backs/set1/red.gif","img/card_backs/set2/gray.gif","img/card_backs/set2/orange.gif","img/card_backs/set2/blue.gif","img/card_backs/set2/pink.gif","""event"",""trial"",""time""
""fullscreenenter"",""1"",""1409""
","
","
","""event"",""trial"",""time""
""fullscreenenter"",""1"",""1409""
","
","true","","","","","","","","","","","",""
"casino-keyboard-response","6","13185","0.0-6.0-0.0","A385","true","img/card_backs/set1/green.gif","img/card_backs/set1/purple.gif","img/card_backs/set1/yellow.gif","img/card_backs/set1/red.gif","img/card_backs/set2/gray.gif","img/card_backs/set2/orange.gif","img/card_backs/set2/blue.gif","img/card_backs/set2/pink.gif","""event"",""trial"",""time""
""fullscreenenter"",""1"",""1409""
","
","
","""event"",""trial"",""time""
""fullscreenenter"",""1"",""1409""
","
","","3079.400000002235","Welcome to the casino!","71","","instructions","2021-07-23 19:55:17.890","","","","","",""
"casino-keyboard-response","7","22393","0.0-6.0-0.1","A385","true","img/card_backs/set1/green.gif","img/card_backs/set1/purple.gif","img/card_backs/set1/yellow.gif","img/card_backs/set1/red.gif","img/card_backs/set2/gray.gif","img/card_backs/set2/orange.gif","img/card_backs/set2/blue.gif","img/card_backs/set2/pink.gif","""event"",""trial"",""time""
""fullscreenenter"",""1"",""1409""
","
","
","""event"",""trial"",""time""
""fullscreenenter"",""1"",""1409""
","
","","9207.699999999255","Today you will be playing a game to earn tokens. </br> At the end of the experiment, you will be paid a bonus based on how many tokens you win. ","69","","instructions","2021-07-23 19:55:27.098","","","","","",""
"casino-keyboard-response","8","29717","0.0-6.0-0.2","A385","true","img/card_backs/set1/green.gif","img/card_backs/set1/purple.gif","img/card_backs/set1/yellow.gif","img/card_backs/set1/red.gif","img/card_backs/set2/gray.gif","img/card_backs/set2/orange.gif","img/card_backs/set2/blue.gif","img/card_backs/set2/pink.gif","""event"",""trial"",""time""
""fullscreenenter"",""1"",""1409""
","
","
","""event"",""trial"",""time""
""fullscreenenter"",""1"",""1409""
","
","","7323.099999997765","On every turn, you will be shown four different decks of cards. </br> You need to select a card from one of the four decks.  ","75","","instructions","2021-07-23 19:55:34.422","","","","","",""
"casino-keyboard-response","9","34152","0.0-6.0-0.3","A385","true","img/card_backs/set1/green.gif","img/card_backs/set1/purple.gif","img/card_backs/set1/yellow.gif","img/card_backs/set1/red.gif","img/card_backs/set2/gray.gif","img/card_backs/set2/orange.gif","img/card_backs/set2/blue.gif","img/card_backs/set2/pink.gif","""event"",""trial"",""time""
""fullscreenenter"",""1"",""1409""
","
","
","""event"",""trial"",""time""
""fullscreenenter"",""1"",""1409""
","
","","4434.60000000149","On the next screen, you will see what the decks will look like. ","66","","instructions","2021-07-23 19:55:38.857","","","","","",""
"card-selection-trial","10","38166","0.0-7.0-0.0","A385","true","img/card_backs/set1/green.gif","img/card_backs/set1/purple.gif","img/card_backs/set1/yellow.gif","img/card_backs/set1/red.gif","img/card_backs/set2/gray.gif","img/card_backs/set2/orange.gif","img/card_backs/set2/blue.gif","img/card_backs/set2/pink.gif","""event"",""trial"",""time""
""fullscreenenter"",""1"",""1409""
","
","
","""event"",""trial"",""time""
""fullscreenenter"",""1"",""1409""
","
","","null","","","","practice","2021-07-23 19:55:42.871","null","null","null","0","",""
"casino-keyboard-response","11","45998","0.0-8.0-0.0","A385","true","img/card_backs/set1/green.gif","img/card_backs/set1/purple.gif","img/card_backs/set1/yellow.gif","img/card_backs/set1/red.gif","img/card_backs/set2/gray.gif","img/card_backs/set2/orange.gif","img/card_backs/set2/blue.gif","img/card_backs/set2/pink.gif","""event"",""trial"",""time""
""fullscreenenter"",""1"",""1409""
","
","
","""event"",""trial"",""time""
""fullscreenenter"",""1"",""1409""
","
","","7831.300000000745","You should pick a card from a deck using the '2', '4', '6', and '8' keys at the top of the keyboard.","85","","instructions","2021-07-23 19:55:50.703","","","","","",""
"casino-keyboard-response","12","51156","0.0-8.0-0.1","A385","true","img/card_backs/set1/green.gif","img/card_backs/set1/purple.gif","img/card_backs/set1/yellow.gif","img/card_backs/set1/red.gif","img/card_backs/set2/gray.gif","img/card_backs/set2/orange.gif","img/card_backs/set2/blue.gif","img/card_backs/set2/pink.gif","""event"",""trial"",""time""
""fullscreenenter"",""1"",""1409""
","
","
","""event"",""trial"",""time""
""fullscreenenter"",""1"",""1409""
","
","","5157.60000000149","Once you select a card, it will turn over and you will see how many tokens you earned.","83","","instructions","2021-07-23 19:55:55.861","","","","","",""
"casino-keyboard-response","13","64999","0.0-8.0-0.2","A385","true","img/card_backs/set1/green.gif","img/card_backs/set1/purple.gif","img/card_backs/set1/yellow.gif","img/card_backs/set1/red.gif","img/card_backs/set2/gray.gif","img/card_backs/set2/orange.gif","img/card_backs/set2/blue.gif","img/card_backs/set2/pink.gif","""event"",""trial"",""time""
""fullscreenenter"",""1"",""1409""
","
","
","""event"",""trial"",""time""
""fullscreenenter"",""1"",""1409""
","
","","13841.800000000745","Let's try practicing that! </br> First, try to put your fingers over the '2', '4', '6', and '8' keys. </br>  You can use whatever fingers are most comfortable for you. Try to find a comfortable position now. ","50","","instructions","2021-07-23 19:56:09.704","","","","","",""
"casino-keyboard-response","14","71061","0.0-8.0-0.3","A385","true","img/card_backs/set1/green.gif","img/card_backs/set1/purple.gif","img/card_backs/set1/yellow.gif","img/card_backs/set1/red.gif","img/card_backs/set2/gray.gif","img/card_backs/set2/orange.gif","img/card_backs/set2/blue.gif","img/card_backs/set2/pink.gif","""event"",""trial"",""time""
""fullscreenenter"",""1"",""1409""
","
","
","""event"",""trial"",""time""
""fullscreenenter"",""1"",""1409""
","
","","6061.10000000149","Okay ready? </br> On the next screen, press '2' to select the left deck. ","50","","instructions","2021-07-23 19:56:15.766","","","","","",""
"card-selection-trial","15","74282","0.0-9.0-0.0","A385","true","img/card_backs/set1/green.gif","img/card_backs/set1/purple.gif","img/card_backs/set1/yellow.gif","img/card_backs/set1/red.gif","img/card_backs/set2/gray.gif","img/card_backs/set2/orange.gif","img/card_backs/set2/blue.gif","img/card_backs/set2/pink.gif","""event"",""trial"",""time""
""fullscreenenter"",""1"",""1409""
","
","
","""event"",""trial"",""time""
""fullscreenenter"",""1"",""1409""
","
","","1201.0999999977648","","","","practice_card_selection","2021-07-23 19:56:18.987","img/practice_cards/backs/dark_green.gif","0","-200","","",""
"casino-keyboard-response","16","80022","0.0-10.0-0.0","A385","true","img/card_backs/set1/green.gif","img/card_backs/set1/purple.gif","img/card_backs/set1/yellow.gif","img/card_backs/set1/red.gif","img/card_backs/set2/gray.gif","img/card_backs/set2/orange.gif","img/card_backs/set2/blue.gif","img/card_backs/set2/pink.gif","""event"",""trial"",""time""
""fullscreenenter"",""1"",""1409""
","
","
","""event"",""trial"",""time""
""fullscreenenter"",""1"",""1409""
","
","","5739.599999997765","Great! Now on the next screen, try pressing '6' to select the third deck.","54","","instructions","2021-07-23 19:56:24.727","","","","","",""
"card-selection-trial","17","82775","0.0-11.0-0.0","A385","true","img/card_backs/set1/green.gif","img/card_backs/set1/purple.gif","img/card_backs/set1/yellow.gif","img/card_backs/set1/red.gif","img/card_backs/set2/gray.gif","img/card_backs/set2/orange.gif","img/card_backs/set2/blue.gif","img/card_backs/set2/pink.gif","""event"",""trial"",""time""
""fullscreenenter"",""1"",""1409""
","
","
","""event"",""trial"",""time""
""fullscreenenter"",""1"",""1409""
","
","","736","","","","practice_card_selection","2021-07-23 19:56:27.480","img/practice_cards/backs/black.gif","2","-100","","",""
"casino-keyboard-response","18","87122","0.0-12.0-0.0","A385","true","img/card_backs/set1/green.gif","img/card_backs/set1/purple.gif","img/card_backs/set1/yellow.gif","img/card_backs/set1/red.gif","img/card_backs/set2/gray.gif","img/card_backs/set2/orange.gif","img/card_backs/set2/blue.gif","img/card_backs/set2/pink.gif","""event"",""trial"",""time""
""fullscreenenter"",""1"",""1409""
","
","
","""event"",""trial"",""time""
""fullscreenenter"",""1"",""1409""
","
","","4346.300000000745","Now on the next screen, try pressing '4' to select the second deck.","52","","instructions","2021-07-23 19:56:31.827","","","","","",""
"card-selection-trial","19","89625","0.0-13.0-0.0","A385","true","img/card_backs/set1/green.gif","img/card_backs/set1/purple.gif","img/card_backs/set1/yellow.gif","img/card_backs/set1/red.gif","img/card_backs/set2/gray.gif","img/card_backs/set2/orange.gif","img/card_backs/set2/blue.gif","img/card_backs/set2/pink.gif","""event"",""trial"",""time""
""fullscreenenter"",""1"",""1409""
","
","
","""event"",""trial"",""time""
""fullscreenenter"",""1"",""1409""
","
","","499.6000000014901","","","","practice_card_selection","2021-07-23 19:56:34.330","img/practice_cards/backs/black.gif","1","100","","",""
"casino-keyboard-response","20","94016","0.0-14.0-0.0","A385","true","img/card_backs/set1/green.gif","img/card_backs/set1/purple.gif","img/card_backs/set1/yellow.gif","img/card_backs/set1/red.gif","img/card_backs/set2/gray.gif","img/card_backs/set2/orange.gif","img/card_backs/set2/blue.gif","img/card_backs/set2/pink.gif","""event"",""trial"",""time""
""fullscreenenter"",""1"",""1409""
","
","
","""event"",""trial"",""time""
""fullscreenenter"",""1"",""1409""
","
","","4390.89999999851","Finally, try pressing '8' to select the deck all the way on the right.","56","","instructions","2021-07-23 19:56:38.721","","","","","",""
"card-selection-trial","21","96415","0.0-15.0-0.0","A385","true","img/card_backs/set1/green.gif","img/card_backs/set1/purple.gif","img/card_backs/set1/yellow.gif","img/card_backs/set1/red.gif","img/card_backs/set2/gray.gif","img/card_backs/set2/orange.gif","img/card_backs/set2/blue.gif","img/card_backs/set2/pink.gif","""event"",""trial"",""time""
""fullscreenenter"",""1"",""1409""
","
","
","""event"",""trial"",""time""
""fullscreenenter"",""1"",""1409""
","
","","383.19999999925494","","","","practice_card_selection","2021-07-23 19:56:41.120","img/practice_cards/backs/brown.gif","3","100","","",""
"casino-keyboard-response","22","99662","0.0-16.0-0.0","A385","true","img/card_backs/set1/green.gif","img/card_backs/set1/purple.gif","img/card_backs/set1/yellow.gif","img/card_backs/set1/red.gif","img/card_backs/set2/gray.gif","img/card_backs/set2/orange.gif","img/card_backs/set2/blue.gif","img/card_backs/set2/pink.gif","""event"",""trial"",""time""
""fullscreenenter"",""1"",""1409""
""blur"",""23"",""102436""
""focus"",""23"",""107368""
","""event"",""trial"",""time""
""blur"",""23"",""102436""
","""event"",""trial"",""time""
""focus"",""23"",""107368""
","""event"",""trial"",""time""
""fullscreenenter"",""1"",""1409""
","
","","3247.199999999255","Great! It seems like you are getting the hang of this.","80","","instructions","2021-07-23 19:56:44.367","","","","","",""
"casino-keyboard-response","23","108360","0.0-16.0-0.1","A385","true","img/card_backs/set1/green.gif","img/card_backs/set1/purple.gif","img/card_backs/set1/yellow.gif","img/card_backs/set1/red.gif","img/card_backs/set2/gray.gif","img/card_backs/set2/orange.gif","img/card_backs/set2/blue.gif","img/card_backs/set2/pink.gif","""event"",""trial"",""time""
""fullscreenenter"",""1"",""1409""
""blur"",""23"",""102436""
""focus"",""23"",""107368""
","""event"",""trial"",""time""
""blur"",""23"",""102436""
","""event"",""trial"",""time""
""focus"",""23"",""107368""
","""event"",""trial"",""time""
""fullscreenenter"",""1"",""1409""
","
","","8697","You may have noticed that some cards will cause you to <b> win </b> tokens while other cards will cause you to <b> lose </b>  tokens.","70","","instructions","2021-07-23 19:56:53.065","","","","","",""
"casino-keyboard-response","24","116897","0.0-16.0-0.2","A385","true","img/card_backs/set1/green.gif","img/card_backs/set1/purple.gif","img/card_backs/set1/yellow.gif","img/card_backs/set1/red.gif","img/card_backs/set2/gray.gif","img/card_backs/set2/orange.gif","img/card_backs/set2/blue.gif","img/card_backs/set2/pink.gif","""event"",""trial"",""time""
""fullscreenenter"",""1"",""1409""
""blur"",""23"",""102436""
""focus"",""23"",""107368""
","""event"",""trial"",""time""
""blur"",""23"",""102436""
","""event"",""trial"",""time""
""focus"",""23"",""107368""
","""event"",""trial"",""time""
""fullscreenenter"",""1"",""1409""
","
","","8536.60000000149","Each deck has a mix of cards that will cause you to win and lose tokens. </br> However, the cards in each colored deck are different.","73","","instructions","2021-07-23 19:57:01.602","","","","","",""
"casino-keyboard-response","25","125121","0.0-16.0-0.3","A385","true","img/card_backs/set1/green.gif","img/card_backs/set1/purple.gif","img/card_backs/set1/yellow.gif","img/card_backs/set1/red.gif","img/card_backs/set2/gray.gif","img/card_backs/set2/orange.gif","img/card_backs/set2/blue.gif","img/card_backs/set2/pink.gif","""event"",""trial"",""time""
""fullscreenenter"",""1"",""1409""
""blur"",""23"",""102436""
""focus"",""23"",""107368""
","""event"",""trial"",""time""
""blur"",""23"",""102436""
","""event"",""trial"",""time""
""focus"",""23"",""107368""
","""event"",""trial"",""time""
""fullscreenenter"",""1"",""1409""
","
","","8223.099999997765","Some colored decks are luckier than others. </br> If you choose the lucky decks, you will earn more tokens than if you choose the unlucky decks.","69","","instructions","2021-07-23 19:57:09.826","","","","","",""
"casino-keyboard-response","26","132249","0.0-16.0-0.4","A385","true","img/card_backs/set1/green.gif","img/card_backs/set1/purple.gif","img/card_backs/set1/yellow.gif","img/card_backs/set1/red.gif","img/card_backs/set2/gray.gif","img/card_backs/set2/orange.gif","img/card_backs/set2/blue.gif","img/card_backs/set2/pink.gif","""event"",""trial"",""time""
""fullscreenenter"",""1"",""1409""
""blur"",""23"",""102436""
""focus"",""23"",""107368""
","""event"",""trial"",""time""
""blur"",""23"",""102436""
","""event"",""trial"",""time""
""focus"",""23"",""107368""
","""event"",""trial"",""time""
""fullscreenenter"",""1"",""1409""
","
","","7127.300000000745","You should try to figure out which decks are lucky. </br> Then, try to choose the lucky decks so you can win the most tokens.","87","","instructions","2021-07-23 19:57:16.954","","","","","",""
"casino-keyboard-response","27","149030","0.0-16.0-0.5","A385","true","img/card_backs/set1/green.gif","img/card_backs/set1/purple.gif","img/card_backs/set1/yellow.gif","img/card_backs/set1/red.gif","img/card_backs/set2/gray.gif","img/card_backs/set2/orange.gif","img/card_backs/set2/blue.gif","img/card_backs/set2/pink.gif","""event"",""trial"",""time""
""fullscreenenter"",""1"",""1409""
""blur"",""23"",""102436""
""focus"",""23"",""107368""
","""event"",""trial"",""time""
""blur"",""23"",""102436""
","""event"",""trial"",""time""
""focus"",""23"",""107368""
","""event"",""trial"",""time""
""fullscreenenter"",""1"",""1409""
","
","","16779.39999999851","To make it trickier, the casino dealer will switch the locations of the decks on every turn. </br> The color of the deck determines how lucky it is. The location does not matter.","88","","instructions","2021-07-23 19:57:33.735","","","","","",""
"casino-keyboard-response","28","159048","0.0-16.0-0.6","A385","true","img/card_backs/set1/green.gif","img/card_backs/set1/purple.gif","img/card_backs/set1/yellow.gif","img/card_backs/set1/red.gif","img/card_backs/set2/gray.gif","img/card_backs/set2/orange.gif","img/card_backs/set2/blue.gif","img/card_backs/set2/pink.gif","""event"",""trial"",""time""
""fullscreenenter"",""1"",""1409""
""blur"",""23"",""102436""
""focus"",""23"",""107368""
","""event"",""trial"",""time""
""blur"",""23"",""102436""
","""event"",""trial"",""time""
""focus"",""23"",""107368""
","""event"",""trial"",""time""
""fullscreenenter"",""1"",""1409""
","
","","10017","The mix of cards in each colored deck will stay the same throughout the game. </br> That means that a deck that is lucky early on will stay lucky.","79","","instructions","2021-07-23 19:57:43.753","","","","","",""
"casino-keyboard-response","29","166717","0.0-16.0-0.7","A385","true","img/card_backs/set1/green.gif","img/card_backs/set1/purple.gif","img/card_backs/set1/yellow.gif","img/card_backs/set1/red.gif","img/card_backs/set2/gray.gif","img/card_backs/set2/orange.gif","img/card_backs/set2/blue.gif","img/card_backs/set2/pink.gif","""event"",""trial"",""time""
""fullscreenenter"",""1"",""1409""
""blur"",""23"",""102436""
""focus"",""23"",""107368""
","""event"",""trial"",""time""
""blur"",""23"",""102436""
","""event"",""trial"",""time""
""focus"",""23"",""107368""
","""event"",""trial"",""time""
""fullscreenenter"",""1"",""1409""
","
","","7668.10000000149","Remember though, all the decks have a <b> mix </b> of both <b> good </b> and <b> bad </b> cards so it may take a couple of turns to figure out if a deck is lucky.","69","","instructions","2021-07-23 19:57:51.422","","","","","",""
"casino-keyboard-response","30","174868","0.0-16.0-0.8","A385","true","img/card_backs/set1/green.gif","img/card_backs/set1/purple.gif","img/card_backs/set1/yellow.gif","img/card_backs/set1/red.gif","img/card_backs/set2/gray.gif","img/card_backs/set2/orange.gif","img/card_backs/set2/blue.gif","img/card_backs/set2/pink.gif","""event"",""trial"",""time""
""fullscreenenter"",""1"",""1409""
""blur"",""23"",""102436""
""focus"",""23"",""107368""
","""event"",""trial"",""time""
""blur"",""23"",""102436""
","""event"",""trial"",""time""
""focus"",""23"",""107368""
","""event"",""trial"",""time""
""fullscreenenter"",""1"",""1409""
","
","","8151","At the end of the game, you will be paid bonus money based on how many tokens you win. </br> If you win more tokens, you will earn more money!","72","","instructions","2021-07-23 19:57:59.574","","","","","",""
"casino-keyboard-response","31","184840","0.0-16.0-0.9","A385","true","img/card_backs/set1/green.gif","img/card_backs/set1/purple.gif","img/card_backs/set1/yellow.gif","img/card_backs/set1/red.gif","img/card_backs/set2/gray.gif","img/card_backs/set2/orange.gif","img/card_backs/set2/blue.gif","img/card_backs/set2/pink.gif","""event"",""trial"",""time""
""fullscreenenter"",""1"",""1409""
""blur"",""23"",""102436""
""focus"",""23"",""107368""
","""event"",""trial"",""time""
""blur"",""23"",""102436""
","""event"",""trial"",""time""
""focus"",""23"",""107368""
","""event"",""trial"",""time""
""fullscreenenter"",""1"",""1409""
","
","","9969.599999997765","You will never <b> lose </b> money. </br> If you end up with fewer than 0 tokens, you will earn $0 of bonus money, but you will still be paid for playing the game.","83","","instructions","2021-07-23 19:58:09.545","","","","","",""
"casino-keyboard-response","32","188562","0.0-16.0-0.10","A385","true","img/card_backs/set1/green.gif","img/card_backs/set1/purple.gif","img/card_backs/set1/yellow.gif","img/card_backs/set1/red.gif","img/card_backs/set2/gray.gif","img/card_backs/set2/orange.gif","img/card_backs/set2/blue.gif","img/card_backs/set2/pink.gif","""event"",""trial"",""time""
""fullscreenenter"",""1"",""1409""
""blur"",""23"",""102436""
""focus"",""23"",""107368""
","""event"",""trial"",""time""
""blur"",""23"",""102436""
","""event"",""trial"",""time""
""focus"",""23"",""107368""
","""event"",""trial"",""time""
""fullscreenenter"",""1"",""1409""
","
","","3721.800000000745","You will have 10 seconds to make each choice.","82","","instructions","2021-07-23 19:58:13.267","","","","","",""
"casino-keyboard-response","33","198145","0.0-16.0-0.11","A385","true","img/card_backs/set1/green.gif","img/card_backs/set1/purple.gif","img/card_backs/set1/yellow.gif","img/card_backs/set1/red.gif","img/card_backs/set2/gray.gif","img/card_backs/set2/orange.gif","img/card_backs/set2/blue.gif","img/card_backs/set2/pink.gif","""event"",""trial"",""time""
""fullscreenenter"",""1"",""1409""
""blur"",""23"",""102436""
""focus"",""23"",""107368""
","""event"",""trial"",""time""
""blur"",""23"",""102436""
","""event"",""trial"",""time""
""focus"",""23"",""107368""
","""event"",""trial"",""time""
""fullscreenenter"",""1"",""1409""
","
","","9582.39999999851","Before you play the game for real, you will play with practice decks. </br> The tokens you earn during practice won't count toward your total.","86","","instructions","2021-07-23 19:58:22.850","","","","","",""
"casino-keyboard-response","34","209500","0.0-16.0-0.12","A385","true","img/card_backs/set1/green.gif","img/card_backs/set1/purple.gif","img/card_backs/set1/yellow.gif","img/card_backs/set1/red.gif","img/card_backs/set2/gray.gif","img/card_backs/set2/orange.gif","img/card_backs/set2/blue.gif","img/card_backs/set2/pink.gif","""event"",""trial"",""time""
""fullscreenenter"",""1"",""1409""
""blur"",""23"",""102436""
""focus"",""23"",""107368""
","""event"",""trial"",""time""
""blur"",""23"",""102436""
","""event"",""trial"",""time""
""focus"",""23"",""107368""
","""event"",""trial"",""time""
""fullscreenenter"",""1"",""1409""
","
","","11353.300000000745","Ready? Remember, use the '2', '4', '6', and '8' keys to select the decks. </br> Put your fingers on those keys now and then press '2' to begin.","50","","instructions","2021-07-23 19:58:34.205","","","","","",""
"casino-fixation","35","210015","0.0-17.0-0.0","A385","true","img/card_backs/set1/green.gif","img/card_backs/set1/purple.gif","img/card_backs/set1/yellow.gif","img/card_backs/set1/red.gif","img/card_backs/set2/gray.gif","img/card_backs/set2/orange.gif","img/card_backs/set2/blue.gif","img/card_backs/set2/pink.gif","""event"",""trial"",""time""
""fullscreenenter"",""1"",""1409""
""blur"",""23"",""102436""
""focus"",""23"",""107368""
","""event"",""trial"",""time""
""blur"",""23"",""102436""
","""event"",""trial"",""time""
""focus"",""23"",""107368""
","""event"",""trial"",""time""
""fullscreenenter"",""1"",""1409""
","
","","null","","null","","fixation","2021-07-23 19:58:34.720","","","","","",""
"card-selection-trial","36","212765","0.0-17.0-1.0","A385","true","img/card_backs/set1/green.gif","img/card_backs/set1/purple.gif","img/card_backs/set1/yellow.gif","img/card_backs/set1/red.gif","img/card_backs/set2/gray.gif","img/card_backs/set2/orange.gif","img/card_backs/set2/blue.gif","img/card_backs/set2/pink.gif","""event"",""trial"",""time""
""fullscreenenter"",""1"",""1409""
""blur"",""23"",""102436""
""focus"",""23"",""107368""
","""event"",""trial"",""time""
""blur"",""23"",""102436""
","""event"",""trial"",""time""
""focus"",""23"",""107368""
","""event"",""trial"",""time""
""fullscreenenter"",""1"",""1409""
","
","","740.5","","","","practice","2021-07-23 19:58:37.470","img/practice_cards/backs/black.gif","1","100","0","",""
"casino-fixation","37","213267","0.0-17.0-0.1","A385","true","img/card_backs/set1/green.gif","img/card_backs/set1/purple.gif","img/card_backs/set1/yellow.gif","img/card_backs/set1/red.gif","img/card_backs/set2/gray.gif","img/card_backs/set2/orange.gif","img/card_backs/set2/blue.gif","img/card_backs/set2/pink.gif","""event"",""trial"",""time""
""fullscreenenter"",""1"",""1409""
""blur"",""23"",""102436""
""focus"",""23"",""107368""
","""event"",""trial"",""time""
""blur"",""23"",""102436""
","""event"",""trial"",""time""
""focus"",""23"",""107368""
","""event"",""trial"",""time""
""fullscreenenter"",""1"",""1409""
","
","","null","","null","","fixation","2021-07-23 19:58:37.972","","","","","",""
"card-selection-trial","38","215885","0.0-17.0-1.1","A385","true","img/card_backs/set1/green.gif","img/card_backs/set1/purple.gif","img/card_backs/set1/yellow.gif","img/card_backs/set1/red.gif","img/card_backs/set2/gray.gif","img/card_backs/set2/orange.gif","img/card_backs/set2/blue.gif","img/card_backs/set2/pink.gif","""event"",""trial"",""time""
""fullscreenenter"",""1"",""1409""
""blur"",""23"",""102436""
""focus"",""23"",""107368""
","""event"",""trial"",""time""
""blur"",""23"",""102436""
","""event"",""trial"",""time""
""focus"",""23"",""107368""
","""event"",""trial"",""time""
""fullscreenenter"",""1"",""1409""
","
","","611.6000000014901","","","","practice","2021-07-23 19:58:40.590","img/practice_cards/backs/brown.gif","3","100","0","",""
"casino-fixation","39","216404","0.0-17.0-0.2","A385","true","img/card_backs/set1/green.gif","img/card_backs/set1/purple.gif","img/card_backs/set1/yellow.gif","img/card_backs/set1/red.gif","img/card_backs/set2/gray.gif","img/card_backs/set2/orange.gif","img/card_backs/set2/blue.gif","img/card_backs/set2/pink.gif","""event"",""trial"",""time""
""fullscreenenter"",""1"",""1409""
""blur"",""23"",""102436""
""focus"",""23"",""107368""
","""event"",""trial"",""time""
""blur"",""23"",""102436""
","""event"",""trial"",""time""
""focus"",""23"",""107368""
","""event"",""trial"",""time""
""fullscreenenter"",""1"",""1409""
","
","","null","","null","","fixation","2021-07-23 19:58:41.109","","","","","",""
"card-selection-trial","40","218728","0.0-17.0-1.2","A385","true","img/card_backs/set1/green.gif","img/card_backs/set1/purple.gif","img/card_backs/set1/yellow.gif","img/card_backs/set1/red.gif","img/card_backs/set2/gray.gif","img/card_backs/set2/orange.gif","img/card_backs/set2/blue.gif","img/card_backs/set2/pink.gif","""event"",""trial"",""time""
""fullscreenenter"",""1"",""1409""
""blur"",""23"",""102436""
""focus"",""23"",""107368""
","""event"",""trial"",""time""
""blur"",""23"",""102436""
","""event"",""trial"",""time""
""focus"",""23"",""107368""
","""event"",""trial"",""time""
""fullscreenenter"",""1"",""1409""
","
","","310","","","","practice","2021-07-23 19:58:43.433","img/practice_cards/backs/brown.gif","2","100","0","",""
"casino-fixation","41","219235","0.0-17.0-0.3","A385","true","img/card_backs/set1/green.gif","img/card_backs/set1/purple.gif","img/card_backs/set1/yellow.gif","img/card_backs/set1/red.gif","img/card_backs/set2/gray.gif","img/card_backs/set2/orange.gif","img/card_backs/set2/blue.gif","img/card_backs/set2/pink.gif","""event"",""trial"",""time""
""fullscreenenter"",""1"",""1409""
""blur"",""23"",""102436""
""focus"",""23"",""107368""
","""event"",""trial"",""time""
""blur"",""23"",""102436""
","""event"",""trial"",""time""
""focus"",""23"",""107368""
","""event"",""trial"",""time""
""fullscreenenter"",""1"",""1409""
","
","","null","","null","","fixation","2021-07-23 19:58:43.940","","","","","",""
"card-selection-trial","42","221675","0.0-17.0-1.3","A385","true","img/card_backs/set1/green.gif","img/card_backs/set1/purple.gif","img/card_backs/set1/yellow.gif","img/card_backs/set1/red.gif","img/card_backs/set2/gray.gif","img/card_backs/set2/orange.gif","img/card_backs/set2/blue.gif","img/card_backs/set2/pink.gif","""event"",""trial"",""time""
""fullscreenenter"",""1"",""1409""
""blur"",""23"",""102436""
""focus"",""23"",""107368""
","""event"",""trial"",""time""
""blur"",""23"",""102436""
","""event"",""trial"",""time""
""focus"",""23"",""107368""
","""event"",""trial"",""time""
""fullscreenenter"",""1"",""1409""
","
","","420.5999999977648","","","","practice","2021-07-23 19:58:46.380","img/practice_cards/backs/black.gif","0","-100","0","",""
"casino-fixation","43","222185","0.0-17.0-0.4","A385","true","img/card_backs/set1/green.gif","img/card_backs/set1/purple.gif","img/card_backs/set1/yellow.gif","img/card_backs/set1/red.gif","img/card_backs/set2/gray.gif","img/card_backs/set2/orange.gif","img/card_backs/set2/blue.gif","img/card_backs/set2/pink.gif","""event"",""trial"",""time""
""fullscreenenter"",""1"",""1409""
""blur"",""23"",""102436""
""focus"",""23"",""107368""
","""event"",""trial"",""time""
""blur"",""23"",""102436""
","""event"",""trial"",""time""
""focus"",""23"",""107368""
","""event"",""trial"",""time""
""fullscreenenter"",""1"",""1409""
","
","","null","","null","","fixation","2021-07-23 19:58:46.890","","","","","",""
"card-selection-trial","44","224765","0.0-17.0-1.4","A385","true","img/card_backs/set1/green.gif","img/card_backs/set1/purple.gif","img/card_backs/set1/yellow.gif","img/card_backs/set1/red.gif","img/card_backs/set2/gray.gif","img/card_backs/set2/orange.gif","img/card_backs/set2/blue.gif","img/card_backs/set2/pink.gif","""event"",""trial"",""time""
""fullscreenenter"",""1"",""1409""
""blur"",""23"",""102436""
""focus"",""23"",""107368""
","""event"",""trial"",""time""
""blur"",""23"",""102436""
","""event"",""trial"",""time""
""focus"",""23"",""107368""
","""event"",""trial"",""time""
""fullscreenenter"",""1"",""1409""
","
","","573.5","","","","practice","2021-07-23 19:58:49.470","img/practice_cards/backs/brown.gif","1","100","0","",""
"casino-fixation","45","225285","0.0-17.0-0.5","A385","true","img/card_backs/set1/green.gif","img/card_backs/set1/purple.gif","img/card_backs/set1/yellow.gif","img/card_backs/set1/red.gif","img/card_backs/set2/gray.gif","img/card_backs/set2/orange.gif","img/card_backs/set2/blue.gif","img/card_backs/set2/pink.gif","""event"",""trial"",""time""
""fullscreenenter"",""1"",""1409""
""blur"",""23"",""102436""
""focus"",""23"",""107368""
","""event"",""trial"",""time""
""blur"",""23"",""102436""
","""event"",""trial"",""time""
""focus"",""23"",""107368""
","""event"",""trial"",""time""
""fullscreenenter"",""1"",""1409""
","
","","null","","null","","fixation","2021-07-23 19:58:49.990","","","","","",""
"card-selection-trial","46","227531","0.0-17.0-1.5","A385","true","img/card_backs/set1/green.gif","img/card_backs/set1/purple.gif","img/card_backs/set1/yellow.gif","img/card_backs/set1/red.gif","img/card_backs/set2/gray.gif","img/card_backs/set2/orange.gif","img/card_backs/set2/blue.gif","img/card_backs/set2/pink.gif","""event"",""trial"",""time""
""fullscreenenter"",""1"",""1409""
""blur"",""23"",""102436""
""focus"",""23"",""107368""
","""event"",""trial"",""time""
""blur"",""23"",""102436""
","""event"",""trial"",""time""
""focus"",""23"",""107368""
","""event"",""trial"",""time""
""fullscreenenter"",""1"",""1409""
","
","","231","","","","practice","2021-07-23 19:58:52.236","img/practice_cards/backs/brown.gif","3","100","0","",""
"casino-fixation","47","228033","0.0-17.0-0.6","A385","true","img/card_backs/set1/green.gif","img/card_backs/set1/purple.gif","img/card_backs/set1/yellow.gif","img/card_backs/set1/red.gif","img/card_backs/set2/gray.gif","img/card_backs/set2/orange.gif","img/card_backs/set2/blue.gif","img/card_backs/set2/pink.gif","""event"",""trial"",""time""
""fullscreenenter"",""1"",""1409""
""blur"",""23"",""102436""
""focus"",""23"",""107368""
","""event"",""trial"",""time""
""blur"",""23"",""102436""
","""event"",""trial"",""time""
""focus"",""23"",""107368""
","""event"",""trial"",""time""
""fullscreenenter"",""1"",""1409""
","
","","null","","null","","fixation","2021-07-23 19:58:52.738","","","","","",""
"card-selection-trial","48","230245","0.0-17.0-1.6","A385","true","img/card_backs/set1/green.gif","img/card_backs/set1/purple.gif","img/card_backs/set1/yellow.gif","img/card_backs/set1/red.gif","img/card_backs/set2/gray.gif","img/card_backs/set2/orange.gif","img/card_backs/set2/blue.gif","img/card_backs/set2/pink.gif","""event"",""trial"",""time""
""fullscreenenter"",""1"",""1409""
""blur"",""23"",""102436""
""focus"",""23"",""107368""
","""event"",""trial"",""time""
""blur"",""23"",""102436""
","""event"",""trial"",""time""
""focus"",""23"",""107368""
","""event"",""trial"",""time""
""fullscreenenter"",""1"",""1409""
","
","","207.90000000223517","","","","practice","2021-07-23 19:58:54.950","img/practice_cards/backs/dark_green.gif","2","-200","0","",""
"casino-fixation","49","230755","0.0-17.0-0.7","A385","true","img/card_backs/set1/green.gif","img/card_backs/set1/purple.gif","img/card_backs/set1/yellow.gif","img/card_backs/set1/red.gif","img/card_backs/set2/gray.gif","img/card_backs/set2/orange.gif","img/card_backs/set2/blue.gif","img/card_backs/set2/pink.gif","""event"",""trial"",""time""
""fullscreenenter"",""1"",""1409""
""blur"",""23"",""102436""
""focus"",""23"",""107368""
","""event"",""trial"",""time""
""blur"",""23"",""102436""
","""event"",""trial"",""time""
""focus"",""23"",""107368""
","""event"",""trial"",""time""
""fullscreenenter"",""1"",""1409""
","
","","null","","null","","fixation","2021-07-23 19:58:55.460","","","","","",""
"card-selection-trial","50","232995","0.0-17.0-1.7","A385","true","img/card_backs/set1/green.gif","img/card_backs/set1/purple.gif","img/card_backs/set1/yellow.gif","img/card_backs/set1/red.gif","img/card_backs/set2/gray.gif","img/card_backs/set2/orange.gif","img/card_backs/set2/blue.gif","img/card_backs/set2/pink.gif","""event"",""trial"",""time""
""fullscreenenter"",""1"",""1409""
""blur"",""23"",""102436""
""focus"",""23"",""107368""
","""event"",""trial"",""time""
""blur"",""23"",""102436""
","""event"",""trial"",""time""
""focus"",""23"",""107368""
","""event"",""trial"",""time""
""fullscreenenter"",""1"",""1409""
","
","","219.90000000223517","","","","practice","2021-07-23 19:58:57.700","img/practice_cards/backs/black.gif","1","100","0","",""
"casino-fixation","51","233506","0.0-17.0-0.8","A385","true","img/card_backs/set1/green.gif","img/card_backs/set1/purple.gif","img/card_backs/set1/yellow.gif","img/card_backs/set1/red.gif","img/card_backs/set2/gray.gif","img/card_backs/set2/orange.gif","img/card_backs/set2/blue.gif","img/card_backs/set2/pink.gif","""event"",""trial"",""time""
""fullscreenenter"",""1"",""1409""
""blur"",""23"",""102436""
""focus"",""23"",""107368""
","""event"",""trial"",""time""
""blur"",""23"",""102436""
","""event"",""trial"",""time""
""focus"",""23"",""107368""
","""event"",""trial"",""time""
""fullscreenenter"",""1"",""1409""
","
","","null","","null","","fixation","2021-07-23 19:58:58.211","","","","","",""
"card-selection-trial","52","235615","0.0-17.0-1.8","A385","true","img/card_backs/set1/green.gif","img/card_backs/set1/purple.gif","img/card_backs/set1/yellow.gif","img/card_backs/set1/red.gif","img/card_backs/set2/gray.gif","img/card_backs/set2/orange.gif","img/card_backs/set2/blue.gif","img/card_backs/set2/pink.gif","""event"",""trial"",""time""
""fullscreenenter"",""1"",""1409""
""blur"",""23"",""102436""
""focus"",""23"",""107368""
","""event"",""trial"",""time""
""blur"",""23"",""102436""
","""event"",""trial"",""time""
""focus"",""23"",""107368""
","""event"",""trial"",""time""
""fullscreenenter"",""1"",""1409""
","
","","96.39999999850988","","","","practice","2021-07-23 19:59:00.320","img/practice_cards/backs/black.gif","3","100","0","",""
"casino-fixation","53","236135","0.0-17.0-0.9","A385","true","img/card_backs/set1/green.gif","img/card_backs/set1/purple.gif","img/card_backs/set1/yellow.gif","img/card_backs/set1/red.gif","img/card_backs/set2/gray.gif","img/card_backs/set2/orange.gif","img/card_backs/set2/blue.gif","img/card_backs/set2/pink.gif","""event"",""trial"",""time""
""fullscreenenter"",""1"",""1409""
""blur"",""23"",""102436""
""focus"",""23"",""107368""
","""event"",""trial"",""time""
""blur"",""23"",""102436""
","""event"",""trial"",""time""
""focus"",""23"",""107368""
","""event"",""trial"",""time""
""fullscreenenter"",""1"",""1409""
","
","","null","","null","","fixation","2021-07-23 19:59:00.840","","","","","",""
"card-selection-trial","54","238405","0.0-17.0-1.9","A385","true","img/card_backs/set1/green.gif","img/card_backs/set1/purple.gif","img/card_backs/set1/yellow.gif","img/card_backs/set1/red.gif","img/card_backs/set2/gray.gif","img/card_backs/set2/orange.gif","img/card_backs/set2/blue.gif","img/card_backs/set2/pink.gif","""event"",""trial"",""time""
""fullscreenenter"",""1"",""1409""
""blur"",""23"",""102436""
""focus"",""23"",""107368""
","""event"",""trial"",""time""
""blur"",""23"",""102436""
","""event"",""trial"",""time""
""focus"",""23"",""107368""
","""event"",""trial"",""time""
""fullscreenenter"",""1"",""1409""
","
","","251.60000000149012","","","","practice","2021-07-23 19:59:03.110","img/practice_cards/backs/dark_blue.gif","1","-200","0","",""
"casino-keyboard-response","55","241379","0.0-18.0","A385","true","img/card_backs/set1/green.gif","img/card_backs/set1/purple.gif","img/card_backs/set1/yellow.gif","img/card_backs/set1/red.gif","img/card_backs/set2/gray.gif","img/card_backs/set2/orange.gif","img/card_backs/set2/blue.gif","img/card_backs/set2/pink.gif","""event"",""trial"",""time""
""fullscreenenter"",""1"",""1409""
""blur"",""23"",""102436""
""focus"",""23"",""107368""
","""event"",""trial"",""time""
""blur"",""23"",""102436""
","""event"",""trial"",""time""
""focus"",""23"",""107368""
","""event"",""trial"",""time""
""fullscreenenter"",""1"",""1409""
","
","","2974.199999999255","You earned 200 tokens during the practice round!","82","","","2021-07-23 19:59:06.084","","","","","",""
"casino-keyboard-response","56","245408","0.0-19.0-0.0","A385","true","img/card_backs/set1/green.gif","img/card_backs/set1/purple.gif","img/card_backs/set1/yellow.gif","img/card_backs/set1/red.gif","img/card_backs/set2/gray.gif","img/card_backs/set2/orange.gif","img/card_backs/set2/blue.gif","img/card_backs/set2/pink.gif","""event"",""trial"",""time""
""fullscreenenter"",""1"",""1409""
""blur"",""23"",""102436""
""focus"",""23"",""107368""
","""event"",""trial"",""time""
""blur"",""23"",""102436""
","""event"",""trial"",""time""
""focus"",""23"",""107368""
","""event"",""trial"",""time""
""fullscreenenter"",""1"",""1409""
","
","","4027.699999999255","Nice job! You are almost ready to play the real game.","86","","instructions","2021-07-23 19:59:10.113","","","","","",""
"casino-keyboard-response","57","251640","0.0-19.0-0.1","A385","true","img/card_backs/set1/green.gif","img/card_backs/set1/purple.gif","img/card_backs/set1/yellow.gif","img/card_backs/set1/red.gif","img/card_backs/set2/gray.gif","img/card_backs/set2/orange.gif","img/card_backs/set2/blue.gif","img/card_backs/set2/pink.gif","""event"",""trial"",""time""
""fullscreenenter"",""1"",""1409""
""blur"",""23"",""102436""
""focus"",""23"",""107368""
","""event"",""trial"",""time""
""blur"",""23"",""102436""
","""event"",""trial"",""time""
""focus"",""23"",""107368""
","""event"",""trial"",""time""
""fullscreenenter"",""1"",""1409""
","
","","6230.900000002235","You will play two rounds of the real game. In each round, you will pick 100 cards in total.","73","","instructions","2021-07-23 19:59:16.345","","","","","",""
"casino-keyboard-response","58","255698","0.0-19.0-0.2","A385","true","img/card_backs/set1/green.gif","img/card_backs/set1/purple.gif","img/card_backs/set1/yellow.gif","img/card_backs/set1/red.gif","img/card_backs/set2/gray.gif","img/card_backs/set2/orange.gif","img/card_backs/set2/blue.gif","img/card_backs/set2/pink.gif","""event"",""trial"",""time""
""fullscreenenter"",""1"",""1409""
""blur"",""23"",""102436""
""focus"",""23"",""107368""
","""event"",""trial"",""time""
""blur"",""23"",""102436""
","""event"",""trial"",""time""
""focus"",""23"",""107368""
","""event"",""trial"",""time""
""fullscreenenter"",""1"",""1409""
","
","","4057.300000000745","We are now going to ask you some questions about how the game works.","66","","instructions","2021-07-23 19:59:20.403","","","","","",""
"casino-keyboard-response","59","261744","0.0-19.0-0.3","A385","true","img/card_backs/set1/green.gif","img/card_backs/set1/purple.gif","img/card_backs/set1/yellow.gif","img/card_backs/set1/red.gif","img/card_backs/set2/gray.gif","img/card_backs/set2/orange.gif","img/card_backs/set2/blue.gif","img/card_backs/set2/pink.gif","""event"",""trial"",""time""
""fullscreenenter"",""1"",""1409""
""blur"",""23"",""102436""
""focus"",""23"",""107368""
","""event"",""trial"",""time""
""blur"",""23"",""102436""
","""event"",""trial"",""time""
""focus"",""23"",""107368""
","""event"",""trial"",""time""
""fullscreenenter"",""1"",""1409""
","
","","6044.300000000745","Answer carefully. You will not be able to begin the game until you answer them correctly.","67","","instructions","2021-07-23 19:59:26.449","","","","","",""
"casino-comp_q","60","271750","0.0-20.0-0.0","A385","true","img/card_backs/set1/green.gif","img/card_backs/set1/purple.gif","img/card_backs/set1/yellow.gif","img/card_backs/set1/red.gif","img/card_backs/set2/gray.gif","img/card_backs/set2/orange.gif","img/card_backs/set2/blue.gif","img/card_backs/set2/pink.gif","""event"",""trial"",""time""
""fullscreenenter"",""1"",""1409""
""blur"",""23"",""102436""
""focus"",""23"",""107368""
","""event"",""trial"",""time""
""blur"",""23"",""102436""
","""event"",""trial"",""time""
""focus"",""23"",""107368""
","""event"",""trial"",""time""
""fullscreenenter"",""1"",""1409""
","
","","10005.199999999255","True or False: All the decks have some cards that cause you to win tokens and some cards that cause you to lose tokens.","84","","","2021-07-23 19:59:36.455","","","","","",""
"casino-keyboard-response","61","274783","0.0-20.0-1.0","A385","true","img/card_backs/set1/green.gif","img/card_backs/set1/purple.gif","img/card_backs/set1/yellow.gif","img/card_backs/set1/red.gif","img/card_backs/set2/gray.gif","img/card_backs/set2/orange.gif","img/card_backs/set2/blue.gif","img/card_backs/set2/pink.gif","""event"",""trial"",""time""
""fullscreenenter"",""1"",""1409""
""blur"",""23"",""102436""
""focus"",""23"",""107368""
","""event"",""trial"",""time""
""blur"",""23"",""102436""
","""event"",""trial"",""time""
""focus"",""23"",""107368""
","""event"",""trial"",""time""
""fullscreenenter"",""1"",""1409""
","
","","3031.800000000745","True is correct! All the decks have a mix of winning and losing cards.","77","","","2021-07-23 19:59:39.488","","","","","true",""
"casino-comp_q","62","277228","0.0-21.0-0.0","A385","true","img/card_backs/set1/green.gif","img/card_backs/set1/purple.gif","img/card_backs/set1/yellow.gif","img/card_backs/set1/red.gif","img/card_backs/set2/gray.gif","img/card_backs/set2/orange.gif","img/card_backs/set2/blue.gif","img/card_backs/set2/pink.gif","""event"",""trial"",""time""
""fullscreenenter"",""1"",""1409""
""blur"",""23"",""102436""
""focus"",""23"",""107368""
","""event"",""trial"",""time""
""blur"",""23"",""102436""
","""event"",""trial"",""time""
""focus"",""23"",""107368""
","""event"",""trial"",""time""
""fullscreenenter"",""1"",""1409""
","
","","2444.60000000149","True or False: You will have as much time as you want to make your response.","70","","","2021-07-23 19:59:41.933","","","","","",""
"casino-keyboard-response","63","279728","0.0-21.0-1.0","A385","true","img/card_backs/set1/green.gif","img/card_backs/set1/purple.gif","img/card_backs/set1/yellow.gif","img/card_backs/set1/red.gif","img/card_backs/set2/gray.gif","img/card_backs/set2/orange.gif","img/card_backs/set2/blue.gif","img/card_backs/set2/pink.gif","""event"",""trial"",""time""
""fullscreenenter"",""1"",""1409""
""blur"",""23"",""102436""
""focus"",""23"",""107368""
","""event"",""trial"",""time""
""blur"",""23"",""102436""
","""event"",""trial"",""time""
""focus"",""23"",""107368""
","""event"",""trial"",""time""
""fullscreenenter"",""1"",""1409""
","
","","2499.199999999255","False is correct! You will only have 10 seconds to make each choice.","75","","","2021-07-23 19:59:44.433","","","","","true",""
"casino-comp_q","64","282227","0.0-22.0-0.0","A385","true","img/card_backs/set1/green.gif","img/card_backs/set1/purple.gif","img/card_backs/set1/yellow.gif","img/card_backs/set1/red.gif","img/card_backs/set2/gray.gif","img/card_backs/set2/orange.gif","img/card_backs/set2/blue.gif","img/card_backs/set2/pink.gif","""event"",""trial"",""time""
""fullscreenenter"",""1"",""1409""
""blur"",""23"",""102436""
""focus"",""23"",""107368""
","""event"",""trial"",""time""
""blur"",""23"",""102436""
","""event"",""trial"",""time""
""focus"",""23"",""107368""
","""event"",""trial"",""time""
""fullscreenenter"",""1"",""1409""
","
","","2497.900000002235","True or False: The location of the deck determines how lucky it is.","70","","","2021-07-23 19:59:46.932","","","","","",""
"casino-keyboard-response","65","285225","0.0-22.0-1.0","A385","true","img/card_backs/set1/green.gif","img/card_backs/set1/purple.gif","img/card_backs/set1/yellow.gif","img/card_backs/set1/red.gif","img/card_backs/set2/gray.gif","img/card_backs/set2/orange.gif","img/card_backs/set2/blue.gif","img/card_backs/set2/pink.gif","""event"",""trial"",""time""
""fullscreenenter"",""1"",""1409""
""blur"",""23"",""102436""
""focus"",""23"",""107368""
","""event"",""trial"",""time""
""blur"",""23"",""102436""
","""event"",""trial"",""time""
""focus"",""23"",""107368""
","""event"",""trial"",""time""
""fullscreenenter"",""1"",""1409""
","
","","2997","False is correct! The <i>color</i>  of the deck determines how lucky or unlucky it is.","68","","","2021-07-23 19:59:49.930","","","","","true",""
"casino-keyboard-response","66","289224","0.0-23.0-0.0","A385","true","img/card_backs/set1/green.gif","img/card_backs/set1/purple.gif","img/card_backs/set1/yellow.gif","img/card_backs/set1/red.gif","img/card_backs/set2/gray.gif","img/card_backs/set2/orange.gif","img/card_backs/set2/blue.gif","img/card_backs/set2/pink.gif","""event"",""trial"",""time""
""fullscreenenter"",""1"",""1409""
""blur"",""23"",""102436""
""focus"",""23"",""107368""
","""event"",""trial"",""time""
""blur"",""23"",""102436""
","""event"",""trial"",""time""
""focus"",""23"",""107368""
","""event"",""trial"",""time""
""fullscreenenter"",""1"",""1409""
","
","","3999.099999997765","Great job! Now it's time to start the real game.","82","","instructions","2021-07-23 19:59:53.929","","","","","",""
"casino-keyboard-response","67","294134","0.0-23.0-0.1","A385","true","img/card_backs/set1/green.gif","img/card_backs/set1/purple.gif","img/card_backs/set1/yellow.gif","img/card_backs/set1/red.gif","img/card_backs/set2/gray.gif","img/card_backs/set2/orange.gif","img/card_backs/set2/blue.gif","img/card_backs/set2/pink.gif","""event"",""trial"",""time""
""fullscreenenter"",""1"",""1409""
""blur"",""23"",""102436""
""focus"",""23"",""107368""
","""event"",""trial"",""time""
""blur"",""23"",""102436""
","""event"",""trial"",""time""
""focus"",""23"",""107368""
","""event"",""trial"",""time""
""fullscreenenter"",""1"",""1409""
","
","","4908.599999997765","Before we start, we're going to head into a new room of the casino.","86","","instructions","2021-07-23 19:59:58.839","","","","","",""
"casino-keyboard-response","68","299982","0.0-24.0-0.0","A385","true","img/card_backs/set1/green.gif","img/card_backs/set1/purple.gif","img/card_backs/set1/yellow.gif","img/card_backs/set1/red.gif","img/card_backs/set2/gray.gif","img/card_backs/set2/orange.gif","img/card_backs/set2/blue.gif","img/card_backs/set2/pink.gif","""event"",""trial"",""time""
""fullscreenenter"",""1"",""1409""
""blur"",""23"",""102436""
""focus"",""23"",""107368""
","""event"",""trial"",""time""
""blur"",""23"",""102436""
","""event"",""trial"",""time""
""focus"",""23"",""107368""
","""event"",""trial"",""time""
""fullscreenenter"",""1"",""1409""
","
","","5847.599999997765","Here we are! The real game will use different cards, but the rules will be the same.","71","","instructions","2021-07-23 20:00:04.687","","","","","",""
"casino-keyboard-response","69","309284","0.0-24.0-0.1","A385","true","img/card_backs/set1/green.gif","img/card_backs/set1/purple.gif","img/card_backs/set1/yellow.gif","img/card_backs/set1/red.gif","img/card_backs/set2/gray.gif","img/card_backs/set2/orange.gif","img/card_backs/set2/blue.gif","img/card_backs/set2/pink.gif","""event"",""trial"",""time""
""fullscreenenter"",""1"",""1409""
""blur"",""23"",""102436""
""focus"",""23"",""107368""
","""event"",""trial"",""time""
""blur"",""23"",""102436""
","""event"",""trial"",""time""
""focus"",""23"",""107368""
","""event"",""trial"",""time""
""fullscreenenter"",""1"",""1409""
","
","","9300.60000000149","Ready? Put your fingers over the '2', '4', 6', and '8' keys so you are ready to play the game. </br> Then press 2 to start.","50","","instructions","2021-07-23 20:00:13.989","","","","","",""
"casino-fixation","70","309795","0.0-25.0-0.0","A385","true","img/card_backs/set1/green.gif","img/card_backs/set1/purple.gif","img/card_backs/set1/yellow.gif","img/card_backs/set1/red.gif","img/card_backs/set2/gray.gif","img/card_backs/set2/orange.gif","img/card_backs/set2/blue.gif","img/card_backs/set2/pink.gif","""event"",""trial"",""time""
""fullscreenenter"",""1"",""1409""
""blur"",""23"",""102436""
""focus"",""23"",""107368""
","""event"",""trial"",""time""
""blur"",""23"",""102436""
","""event"",""trial"",""time""
""focus"",""23"",""107368""
","""event"",""trial"",""time""
""fullscreenenter"",""1"",""1409""
","
","","null","","null","","fixation","2021-07-23 20:00:14.500","","","","","",""
"card-selection-trial","71","312895","0.0-25.0-1.0","A385","true","img/card_backs/set1/green.gif","img/card_backs/set1/purple.gif","img/card_backs/set1/yellow.gif","img/card_backs/set1/red.gif","img/card_backs/set2/gray.gif","img/card_backs/set2/orange.gif","img/card_backs/set2/blue.gif","img/card_backs/set2/pink.gif","""event"",""trial"",""time""
""fullscreenenter"",""1"",""1409""
""blur"",""23"",""102436""
""focus"",""23"",""107368""
","""event"",""trial"",""time""
""blur"",""23"",""102436""
","""event"",""trial"",""time""
""focus"",""23"",""107368""
","""event"",""trial"",""time""
""fullscreenenter"",""1"",""1409""
","
","","1083.199999999255","","","","real_trial","2021-07-23 20:00:17.600","img/card_backs/set1/purple.gif","0","-190","1","",""
"casino-fixation","72","313416","0.0-25.0-0.1","A385","true","img/card_backs/set1/green.gif","img/card_backs/set1/purple.gif","img/card_backs/set1/yellow.gif","img/card_backs/set1/red.gif","img/card_backs/set2/gray.gif","img/card_backs/set2/orange.gif","img/card_backs/set2/blue.gif","img/card_backs/set2/pink.gif","""event"",""trial"",""time""
""fullscreenenter"",""1"",""1409""
""blur"",""23"",""102436""
""focus"",""23"",""107368""
","""event"",""trial"",""time""
""blur"",""23"",""102436""
","""event"",""trial"",""time""
""focus"",""23"",""107368""
","""event"",""trial"",""time""
""fullscreenenter"",""1"",""1409""
","
","","null","","null","","fixation","2021-07-23 20:00:18.121","","","","","",""
"card-selection-trial","73","315635","0.0-25.0-1.1","A385","true","img/card_backs/set1/green.gif","img/card_backs/set1/purple.gif","img/card_backs/set1/yellow.gif","img/card_backs/set1/red.gif","img/card_backs/set2/gray.gif","img/card_backs/set2/orange.gif","img/card_backs/set2/blue.gif","img/card_backs/set2/pink.gif","""event"",""trial"",""time""
""fullscreenenter"",""1"",""1409""
""blur"",""23"",""102436""
""focus"",""23"",""107368""
","""event"",""trial"",""time""
""blur"",""23"",""102436""
","""event"",""trial"",""time""
""focus"",""23"",""107368""
","""event"",""trial"",""time""
""fullscreenenter"",""1"",""1409""
","
","","212.39999999850988","","","","real_trial","2021-07-23 20:00:20.340","img/card_backs/set1/purple.gif","1","260","1","",""
"casino-fixation","74","316156","0.0-25.0-0.2","A385","true","img/card_backs/set1/green.gif","img/card_backs/set1/purple.gif","img/card_backs/set1/yellow.gif","img/card_backs/set1/red.gif","img/card_backs/set2/gray.gif","img/card_backs/set2/orange.gif","img/card_backs/set2/blue.gif","img/card_backs/set2/pink.gif","""event"",""trial"",""time""
""fullscreenenter"",""1"",""1409""
""blur"",""23"",""102436""
""focus"",""23"",""107368""
","""event"",""trial"",""time""
""blur"",""23"",""102436""
","""event"",""trial"",""time""
""focus"",""23"",""107368""
","""event"",""trial"",""time""
""fullscreenenter"",""1"",""1409""
","
","","null","","null","","fixation","2021-07-23 20:00:20.861","","","","","",""
"card-selection-trial","75","318405","0.0-25.0-1.2","A385","true","img/card_backs/set1/green.gif","img/card_backs/set1/purple.gif","img/card_backs/set1/yellow.gif","img/card_backs/set1/red.gif","img/card_backs/set2/gray.gif","img/card_backs/set2/orange.gif","img/card_backs/set2/blue.gif","img/card_backs/set2/pink.gif","""event"",""trial"",""time""
""fullscreenenter"",""1"",""1409""
""blur"",""23"",""102436""
""focus"",""23"",""107368""
","""event"",""trial"",""time""
""blur"",""23"",""102436""
","""event"",""trial"",""time""
""focus"",""23"",""107368""
","""event"",""trial"",""time""
""fullscreenenter"",""1"",""1409""
","
","","227.19999999925494","","","","real_trial","2021-07-23 20:00:23.110","img/card_backs/set1/green.gif","2","-200","1","",""
"casino-fixation","76","318925","0.0-25.0-0.3","A385","true","img/card_backs/set1/green.gif","img/card_backs/set1/purple.gif","img/card_backs/set1/yellow.gif","img/card_backs/set1/red.gif","img/card_backs/set2/gray.gif","img/card_backs/set2/orange.gif","img/card_backs/set2/blue.gif","img/card_backs/set2/pink.gif","""event"",""trial"",""time""
""fullscreenenter"",""1"",""1409""
""blur"",""23"",""102436""
""focus"",""23"",""107368""
","""event"",""trial"",""time""
""blur"",""23"",""102436""
","""event"",""trial"",""time""
""focus"",""23"",""107368""
","""event"",""trial"",""time""
""fullscreenenter"",""1"",""1409""
","
","","null","","null","","fixation","2021-07-23 20:00:23.630","","","","","",""
"card-selection-trial","77","321125","0.0-25.0-1.3","A385","true","img/card_backs/set1/green.gif","img/card_backs/set1/purple.gif","img/card_backs/set1/yellow.gif","img/card_backs/set1/red.gif","img/card_backs/set2/gray.gif","img/card_backs/set2/orange.gif","img/card_backs/set2/blue.gif","img/card_backs/set2/pink.gif","""event"",""trial"",""time""
""fullscreenenter"",""1"",""1409""
""blur"",""23"",""102436""
""focus"",""23"",""107368""
","""event"",""trial"",""time""
""blur"",""23"",""102436""
","""event"",""trial"",""time""
""focus"",""23"",""107368""
","""event"",""trial"",""time""
""fullscreenenter"",""1"",""1409""
","
","","195.5","","","","real_trial","2021-07-23 20:00:25.830","img/card_backs/set1/purple.gif","3","250","1","",""
"casino-fixation","78","321645","0.0-25.0-0.4","A385","true","img/card_backs/set1/green.gif","img/card_backs/set1/purple.gif","img/card_backs/set1/yellow.gif","img/card_backs/set1/red.gif","img/card_backs/set2/gray.gif","img/card_backs/set2/orange.gif","img/card_backs/set2/blue.gif","img/card_backs/set2/pink.gif","""event"",""trial"",""time""
""fullscreenenter"",""1"",""1409""
""blur"",""23"",""102436""
""focus"",""23"",""107368""
","""event"",""trial"",""time""
""blur"",""23"",""102436""
","""event"",""trial"",""time""
""focus"",""23"",""107368""
","""event"",""trial"",""time""
""fullscreenenter"",""1"",""1409""
","
","","null","","null","","fixation","2021-07-23 20:00:26.350","","","","","",""
"card-selection-trial","79","323978","0.0-25.0-1.4","A385","true","img/card_backs/set1/green.gif","img/card_backs/set1/purple.gif","img/card_backs/set1/yellow.gif","img/card_backs/set1/red.gif","img/card_backs/set2/gray.gif","img/card_backs/set2/orange.gif","img/card_backs/set2/blue.gif","img/card_backs/set2/pink.gif","""event"",""trial"",""time""
""fullscreenenter"",""1"",""1409""
""blur"",""23"",""102436""
""focus"",""23"",""107368""
","""event"",""trial"",""time""
""blur"",""23"",""102436""
","""event"",""trial"",""time""
""focus"",""23"",""107368""
","""event"",""trial"",""time""
""fullscreenenter"",""1"",""1409""
","
","","316.30000000074506","","","","real_trial","2021-07-23 20:00:28.683","img/card_backs/set1/yellow.gif","1","50","1","",""
"casino-fixation","80","324495","0.0-25.0-0.5","A385","true","img/card_backs/set1/green.gif","img/card_backs/set1/purple.gif","img/card_backs/set1/yellow.gif","img/card_backs/set1/red.gif","img/card_backs/set2/gray.gif","img/card_backs/set2/orange.gif","img/card_backs/set2/blue.gif","img/card_backs/set2/pink.gif","""event"",""trial"",""time""
""fullscreenenter"",""1"",""1409""
""blur"",""23"",""102436""
""focus"",""23"",""107368""
","""event"",""trial"",""time""
""blur"",""23"",""102436""
","""event"",""trial"",""time""
""focus"",""23"",""107368""
","""event"",""trial"",""time""
""fullscreenenter"",""1"",""1409""
","
","","null","","null","","fixation","2021-07-23 20:00:29.200","","","","","",""
"card-selection-trial","81","326715","0.0-25.0-1.5","A385","true","img/card_backs/set1/green.gif","img/card_backs/set1/purple.gif","img/card_backs/set1/yellow.gif","img/card_backs/set1/red.gif","img/card_backs/set2/gray.gif","img/card_backs/set2/orange.gif","img/card_backs/set2/blue.gif","img/card_backs/set2/pink.gif","""event"",""trial"",""time""
""fullscreenenter"",""1"",""1409""
""blur"",""23"",""102436""
""focus"",""23"",""107368""
","""event"",""trial"",""time""
""blur"",""23"",""102436""
","""event"",""trial"",""time""
""focus"",""23"",""107368""
","""event"",""trial"",""time""
""fullscreenenter"",""1"",""1409""
","
","","209.60000000149012","","","","real_trial","2021-07-23 20:00:31.420","img/card_backs/set1/red.gif","3","-100","1","",""
"casino-fixation","82","327236","0.0-25.0-0.6","A385","true","img/card_backs/set1/green.gif","img/card_backs/set1/purple.gif","img/card_backs/set1/yellow.gif","img/card_backs/set1/red.gif","img/card_backs/set2/gray.gif","img/card_backs/set2/orange.gif","img/card_backs/set2/blue.gif","img/card_backs/set2/pink.gif","""event"",""trial"",""time""
""fullscreenenter"",""1"",""1409""
""blur"",""23"",""102436""
""focus"",""23"",""107368""
","""event"",""trial"",""time""
""blur"",""23"",""102436""
","""event"",""trial"",""time""
""focus"",""23"",""107368""
","""event"",""trial"",""time""
""fullscreenenter"",""1"",""1409""
","
","","null","","null","","fixation","2021-07-23 20:00:31.941","","","","","",""
"card-selection-trial","83","329445","0.0-25.0-1.6","A385","true","img/card_backs/set1/green.gif","img/card_backs/set1/purple.gif","img/card_backs/set1/yellow.gif","img/card_backs/set1/red.gif","img/card_backs/set2/gray.gif","img/card_backs/set2/orange.gif","img/card_backs/set2/blue.gif","img/card_backs/set2/pink.gif","""event"",""trial"",""time""
""fullscreenenter"",""1"",""1409""
""blur"",""23"",""102436""
""focus"",""23"",""107368""
","""event"",""trial"",""time""
""blur"",""23"",""102436""
","""event"",""trial"",""time""
""focus"",""23"",""107368""
","""event"",""trial"",""time""
""fullscreenenter"",""1"",""1409""
","
","","195.60000000149012","","","","real_trial","2021-07-23 20:00:34.150","img/card_backs/set1/red.gif","1","50","1","",""
"casino-fixation","84","329956","0.0-25.0-0.7","A385","true","img/card_backs/set1/green.gif","img/card_backs/set1/purple.gif","img/card_backs/set1/yellow.gif","img/card_backs/set1/red.gif","img/card_backs/set2/gray.gif","img/card_backs/set2/orange.gif","img/card_backs/set2/blue.gif","img/card_backs/set2/pink.gif","""event"",""trial"",""time""
""fullscreenenter"",""1"",""1409""
""blur"",""23"",""102436""
""focus"",""23"",""107368""
","""event"",""trial"",""time""
""blur"",""23"",""102436""
","""event"",""trial"",""time""
""focus"",""23"",""107368""
","""event"",""trial"",""time""
""fullscreenenter"",""1"",""1409""
","
","","null","","null","","fixation","2021-07-23 20:00:34.661","","","","","",""
"card-selection-trial","85","332186","0.0-25.0-1.7","A385","true","img/card_backs/set1/green.gif","img/card_backs/set1/purple.gif","img/card_backs/set1/yellow.gif","img/card_backs/set1/red.gif","img/card_backs/set2/gray.gif","img/card_backs/set2/orange.gif","img/card_backs/set2/blue.gif","img/card_backs/set2/pink.gif","""event"",""trial"",""time""
""fullscreenenter"",""1"",""1409""
""blur"",""23"",""102436""
""focus"",""23"",""107368""
","""event"",""trial"",""time""
""blur"",""23"",""102436""
","""event"",""trial"",""time""
""focus"",""23"",""107368""
","""event"",""trial"",""time""
""fullscreenenter"",""1"",""1409""
","
","","210.89999999850988","","","","real_trial","2021-07-23 20:00:36.891","img/card_backs/set1/purple.gif","1","-200","1","",""
"casino-fixation","86","332696","0.0-25.0-0.8","A385","true","img/card_backs/set1/green.gif","img/card_backs/set1/purple.gif","img/card_backs/set1/yellow.gif","img/card_backs/set1/red.gif","img/card_backs/set2/gray.gif","img/card_backs/set2/orange.gif","img/card_backs/set2/blue.gif","img/card_backs/set2/pink.gif","""event"",""trial"",""time""
""fullscreenenter"",""1"",""1409""
""blur"",""23"",""102436""
""focus"",""23"",""107368""
","""event"",""trial"",""time""
""blur"",""23"",""102436""
","""event"",""trial"",""time""
""focus"",""23"",""107368""
","""event"",""trial"",""time""
""fullscreenenter"",""1"",""1409""
","
","","null","","null","","fixation","2021-07-23 20:00:37.401","","","","","",""
"card-selection-trial","87","334915","0.0-25.0-1.8","A385","true","img/card_backs/set1/green.gif","img/card_backs/set1/purple.gif","img/card_backs/set1/yellow.gif","img/card_backs/set1/red.gif","img/card_backs/set2/gray.gif","img/card_backs/set2/orange.gif","img/card_backs/set2/blue.gif","img/card_backs/set2/pink.gif","""event"",""trial"",""time""
""fullscreenenter"",""1"",""1409""
""blur"",""23"",""102436""
""focus"",""23"",""107368""
","""event"",""trial"",""time""
""blur"",""23"",""102436""
","""event"",""trial"",""time""
""focus"",""23"",""107368""
","""event"",""trial"",""time""
""fullscreenenter"",""1"",""1409""
","
","","199.89999999850988","","","","real_trial","2021-07-23 20:00:39.620","img/card_backs/set1/red.gif","3","50","1","",""
"casino-fixation","88","335435","0.0-25.0-0.9","A385","true","img/card_backs/set1/green.gif","img/card_backs/set1/purple.gif","img/card_backs/set1/yellow.gif","img/card_backs/set1/red.gif","img/card_backs/set2/gray.gif","img/card_backs/set2/orange.gif","img/card_backs/set2/blue.gif","img/card_backs/set2/pink.gif","""event"",""trial"",""time""
""fullscreenenter"",""1"",""1409""
""blur"",""23"",""102436""
""focus"",""23"",""107368""
","""event"",""trial"",""time""
""blur"",""23"",""102436""
","""event"",""trial"",""time""
""focus"",""23"",""107368""
","""event"",""trial"",""time""
""fullscreenenter"",""1"",""1409""
","
","","null","","null","","fixation","2021-07-23 20:00:40.140","","","","","",""
"card-selection-trial","89","337635","0.0-25.0-1.9","A385","true","img/card_backs/set1/green.gif","img/card_backs/set1/purple.gif","img/card_backs/set1/yellow.gif","img/card_backs/set1/red.gif","img/card_backs/set2/gray.gif","img/card_backs/set2/orange.gif","img/card_backs/set2/blue.gif","img/card_backs/set2/pink.gif","""event"",""trial"",""time""
""fullscreenenter"",""1"",""1409""
""blur"",""23"",""102436""
""focus"",""23"",""107368""
","""event"",""trial"",""time""
""blur"",""23"",""102436""
","""event"",""trial"",""time""
""focus"",""23"",""107368""
","""event"",""trial"",""time""
""fullscreenenter"",""1"",""1409""
","
","","181.10000000149012","","","","real_trial","2021-07-23 20:00:42.340","img/card_backs/set1/purple.gif","2","240","1","",""
"casino-fixation","90","338156","0.0-25.0-0.10","A385","true","img/card_backs/set1/green.gif","img/card_backs/set1/purple.gif","img/card_backs/set1/yellow.gif","img/card_backs/set1/red.gif","img/card_backs/set2/gray.gif","img/card_backs/set2/orange.gif","img/card_backs/set2/blue.gif","img/card_backs/set2/pink.gif","""event"",""trial"",""time""
""fullscreenenter"",""1"",""1409""
""blur"",""23"",""102436""
""focus"",""23"",""107368""
","""event"",""trial"",""time""
""blur"",""23"",""102436""
","""event"",""trial"",""time""
""focus"",""23"",""107368""
","""event"",""trial"",""time""
""fullscreenenter"",""1"",""1409""
","
","","null","","null","","fixation","2021-07-23 20:00:42.861","","","","","",""
"card-selection-trial","91","340355","0.0-25.0-1.10","A385","true","img/card_backs/set1/green.gif","img/card_backs/set1/purple.gif","img/card_backs/set1/yellow.gif","img/card_backs/set1/red.gif","img/card_backs/set2/gray.gif","img/card_backs/set2/orange.gif","img/card_backs/set2/blue.gif","img/card_backs/set2/pink.gif","""event"",""trial"",""time""
""fullscreenenter"",""1"",""1409""
""blur"",""23"",""102436""
""focus"",""23"",""107368""
","""event"",""trial"",""time""
""blur"",""23"",""102436""
","""event"",""trial"",""time""
""focus"",""23"",""107368""
","""event"",""trial"",""time""
""fullscreenenter"",""1"",""1409""
","
","","194.90000000223517","","","","real_trial","2021-07-23 20:00:45.060","img/card_backs/set1/red.gif","0","50","1","",""
"casino-fixation","92","340855","0.0-25.0-0.11","A385","true","img/card_backs/set1/green.gif","img/card_backs/set1/purple.gif","img/card_backs/set1/yellow.gif","img/card_backs/set1/red.gif","img/card_backs/set2/gray.gif","img/card_backs/set2/orange.gif","img/card_backs/set2/blue.gif","img/card_backs/set2/pink.gif","""event"",""trial"",""time""
""fullscreenenter"",""1"",""1409""
""blur"",""23"",""102436""
""focus"",""23"",""107368""
","""event"",""trial"",""time""
""blur"",""23"",""102436""
","""event"",""trial"",""time""
""focus"",""23"",""107368""
","""event"",""trial"",""time""
""fullscreenenter"",""1"",""1409""
","
","","null","","null","","fixation","2021-07-23 20:00:45.560","","","","","",""
"card-selection-trial","93","342925","0.0-25.0-1.11","A385","true","img/card_backs/set1/green.gif","img/card_backs/set1/purple.gif","img/card_backs/set1/yellow.gif","img/card_backs/set1/red.gif","img/card_backs/set2/gray.gif","img/card_backs/set2/orange.gif","img/card_backs/set2/blue.gif","img/card_backs/set2/pink.gif","""event"",""trial"",""time""
""fullscreenenter"",""1"",""1409""
""blur"",""23"",""102436""
""focus"",""23"",""107368""
","""event"",""trial"",""time""
""blur"",""23"",""102436""
","""event"",""trial"",""time""
""focus"",""23"",""107368""
","""event"",""trial"",""time""
""fullscreenenter"",""1"",""1409""
","
","","66.5","","","","real_trial","2021-07-23 20:00:47.630","img/card_backs/set1/purple.gif","2","-210","1","",""
"casino-fixation","94","343426","0.0-25.0-0.12","A385","true","img/card_backs/set1/green.gif","img/card_backs/set1/purple.gif","img/card_backs/set1/yellow.gif","img/card_backs/set1/red.gif","img/card_backs/set2/gray.gif","img/card_backs/set2/orange.gif","img/card_backs/set2/blue.gif","img/card_backs/set2/pink.gif","""event"",""trial"",""time""
""fullscreenenter"",""1"",""1409""
""blur"",""23"",""102436""
""focus"",""23"",""107368""
","""event"",""trial"",""time""
""blur"",""23"",""102436""
","""event"",""trial"",""time""
""focus"",""23"",""107368""
","""event"",""trial"",""time""
""fullscreenenter"",""1"",""1409""
","
","","null","","null","","fixation","2021-07-23 20:00:48.131","","","","","",""
"card-selection-trial","95","345573","0.0-25.0-1.12","A385","true","img/card_backs/set1/green.gif","img/card_backs/set1/purple.gif","img/card_backs/set1/yellow.gif","img/card_backs/set1/red.gif","img/card_backs/set2/gray.gif","img/card_backs/set2/orange.gif","img/card_backs/set2/blue.gif","img/card_backs/set2/pink.gif","""event"",""trial"",""time""
""fullscreenenter"",""1"",""1409""
""blur"",""23"",""102436""
""focus"",""23"",""107368""
","""event"",""trial"",""time""
""blur"",""23"",""102436""
","""event"",""trial"",""time""
""focus"",""23"",""107368""
","""event"",""trial"",""time""
""fullscreenenter"",""1"",""1409""
","
","","143.89999999850988","","","","real_trial","2021-07-23 20:00:50.278","img/card_backs/set1/yellow.gif","3","40","1","",""
"casino-fixation","96","346074","0.0-25.0-0.13","A385","true","img/card_backs/set1/green.gif","img/card_backs/set1/purple.gif","img/card_backs/set1/yellow.gif","img/card_backs/set1/red.gif","img/card_backs/set2/gray.gif","img/card_backs/set2/orange.gif","img/card_backs/set2/blue.gif","img/card_backs/set2/pink.gif","""event"",""trial"",""time""
""fullscreenenter"",""1"",""1409""
""blur"",""23"",""102436""
""focus"",""23"",""107368""
","""event"",""trial"",""time""
""blur"",""23"",""102436""
","""event"",""trial"",""time""
""focus"",""23"",""107368""
","""event"",""trial"",""time""
""fullscreenenter"",""1"",""1409""
","
","","null","","null","","fixation","2021-07-23 20:00:50.779","","","","","",""
"card-selection-trial","97","348083","0.0-25.0-1.13","A385","true","img/card_backs/set1/green.gif","img/card_backs/set1/purple.gif","img/card_backs/set1/yellow.gif","img/card_backs/set1/red.gif","img/card_backs/set2/gray.gif","img/card_backs/set2/orange.gif","img/card_backs/set2/blue.gif","img/card_backs/set2/pink.gif","""event"",""trial"",""time""
""fullscreenenter"",""1"",""1409""
""blur"",""23"",""102436""
""focus"",""23"",""107368""
","""event"",""trial"",""time""
""blur"",""23"",""102436""
","""event"",""trial"",""time""
""focus"",""23"",""107368""
","""event"",""trial"",""time""
""fullscreenenter"",""1"",""1409""
","
","","5.899999998509884","","","","real_trial","2021-07-23 20:00:52.788","img/card_backs/set1/purple.gif","1","-190","1","",""
"casino-fixation","98","348584","0.0-25.0-0.14","A385","true","img/card_backs/set1/green.gif","img/card_backs/set1/purple.gif","img/card_backs/set1/yellow.gif","img/card_backs/set1/red.gif","img/card_backs/set2/gray.gif","img/card_backs/set2/orange.gif","img/card_backs/set2/blue.gif","img/card_backs/set2/pink.gif","""event"",""trial"",""time""
""fullscreenenter"",""1"",""1409""
""blur"",""23"",""102436""
""focus"",""23"",""107368""
","""event"",""trial"",""time""
""blur"",""23"",""102436""
","""event"",""trial"",""time""
""focus"",""23"",""107368""
","""event"",""trial"",""time""
""fullscreenenter"",""1"",""1409""
","
","","null","","null","","fixation","2021-07-23 20:00:53.290","","","","","",""
"card-selection-trial","99","350616","0.0-25.0-1.14","A385","true","img/card_backs/set1/green.gif","img/card_backs/set1/purple.gif","img/card_backs/set1/yellow.gif","img/card_backs/set1/red.gif","img/card_backs/set2/gray.gif","img/card_backs/set2/orange.gif","img/card_backs/set2/blue.gif","img/card_backs/set2/pink.gif","""event"",""trial"",""time""
""fullscreenenter"",""1"",""1409""
""blur"",""23"",""102436""
""focus"",""23"",""107368""
","""event"",""trial"",""time""
""blur"",""23"",""102436""
","""event"",""trial"",""time""
""focus"",""23"",""107368""
","""event"",""trial"",""time""
""fullscreenenter"",""1"",""1409""
","
","","29.099999997764826","","","","real_trial","2021-07-23 20:00:55.321","img/card_backs/set1/green.gif","2","-200","1","",""
"casino-fixation","100","351118","0.0-25.0-0.15","A385","true","img/card_backs/set1/green.gif","img/card_backs/set1/purple.gif","img/card_backs/set1/yellow.gif","img/card_backs/set1/red.gif","img/card_backs/set2/gray.gif","img/card_backs/set2/orange.gif","img/card_backs/set2/blue.gif","img/card_backs/set2/pink.gif","""event"",""trial"",""time""
""fullscreenenter"",""1"",""1409""
""blur"",""23"",""102436""
""focus"",""23"",""107368""
","""event"",""trial"",""time""
""blur"",""23"",""102436""
","""event"",""trial"",""time""
""focus"",""23"",""107368""
","""event"",""trial"",""time""
""fullscreenenter"",""1"",""1409""
","
","","null","","null","","fixation","2021-07-23 20:00:55.823","","","","","",""
"card-selection-trial","101","353177","0.0-25.0-1.15","A385","true","img/card_backs/set1/green.gif","img/card_backs/set1/purple.gif","img/card_backs/set1/yellow.gif","img/card_backs/set1/red.gif","img/card_backs/set2/gray.gif","img/card_backs/set2/orange.gif","img/card_backs/set2/blue.gif","img/card_backs/set2/pink.gif","""event"",""trial"",""time""
""fullscreenenter"",""1"",""1409""
""blur"",""23"",""102436""
""focus"",""23"",""107368""
","""event"",""trial"",""time""
""blur"",""23"",""102436""
","""event"",""trial"",""time""
""focus"",""23"",""107368""
","""event"",""trial"",""time""
""fullscreenenter"",""1"",""1409""
","
","","55.900000002235174","","","","real_trial","2021-07-23 20:00:57.882","img/card_backs/set1/yellow.gif","1","40","1","",""
"casino-fixation","102","353679","0.0-25.0-0.16","A385","true","img/card_backs/set1/green.gif","img/card_backs/set1/purple.gif","img/card_backs/set1/yellow.gif","img/card_backs/set1/red.gif","img/card_backs/set2/gray.gif","img/card_backs/set2/orange.gif","img/card_backs/set2/blue.gif","img/card_backs/set2/pink.gif","""event"",""trial"",""time""
""fullscreenenter"",""1"",""1409""
""blur"",""23"",""102436""
""focus"",""23"",""107368""
","""event"",""trial"",""time""
""blur"",""23"",""102436""
","""event"",""trial"",""time""
""focus"",""23"",""107368""
","""event"",""trial"",""time""
""fullscreenenter"",""1"",""1409""
","
","","null","","null","","fixation","2021-07-23 20:00:58.384","","","","","",""
"card-selection-trial","103","355777","0.0-25.0-1.16","A385","true","img/card_backs/set1/green.gif","img/card_backs/set1/purple.gif","img/card_backs/set1/yellow.gif","img/card_backs/set1/red.gif","img/card_backs/set2/gray.gif","img/card_backs/set2/orange.gif","img/card_backs/set2/blue.gif","img/card_backs/set2/pink.gif","""event"",""trial"",""time""
""fullscreenenter"",""1"",""1409""
""blur"",""23"",""102436""
""focus"",""23"",""107368""
","""event"",""trial"",""time""
""blur"",""23"",""102436""
","""event"",""trial"",""time""
""focus"",""23"",""107368""
","""event"",""trial"",""time""
""fullscreenenter"",""1"",""1409""
","
","","94","","","","real_trial","2021-07-23 20:01:00.482","img/card_backs/set1/yellow.gif","3","50","1","",""
"casino-fixation","104","356278","0.0-25.0-0.17","A385","true","img/card_backs/set1/green.gif","img/card_backs/set1/purple.gif","img/card_backs/set1/yellow.gif","img/card_backs/set1/red.gif","img/card_backs/set2/gray.gif","img/card_backs/set2/orange.gif","img/card_backs/set2/blue.gif","img/card_backs/set2/pink.gif","""event"",""trial"",""time""
""fullscreenenter"",""1"",""1409""
""blur"",""23"",""102436""
""focus"",""23"",""107368""
","""event"",""trial"",""time""
""blur"",""23"",""102436""
","""event"",""trial"",""time""
""focus"",""23"",""107368""
","""event"",""trial"",""time""
""fullscreenenter"",""1"",""1409""
","
","","null","","null","","fixation","2021-07-23 20:01:00.983","","","","","",""
"card-selection-trial","105","358353","0.0-25.0-1.17","A385","true","img/card_backs/set1/green.gif","img/card_backs/set1/purple.gif","img/card_backs/set1/yellow.gif","img/card_backs/set1/red.gif","img/card_backs/set2/gray.gif","img/card_backs/set2/orange.gif","img/card_backs/set2/blue.gif","img/card_backs/set2/pink.gif","""event"",""trial"",""time""
""fullscreenenter"",""1"",""1409""
""blur"",""23"",""102436""
""focus"",""23"",""107368""
","""event"",""trial"",""time""
""blur"",""23"",""102436""
","""event"",""trial"",""time""
""focus"",""23"",""107368""
","""event"",""trial"",""time""
""fullscreenenter"",""1"",""1409""
","
","","71.90000000223517","","","","real_trial","2021-07-23 20:01:03.058","img/card_backs/set1/red.gif","0","50","1","",""
"casino-fixation","106","358855","0.0-25.0-0.18","A385","true","img/card_backs/set1/green.gif","img/card_backs/set1/purple.gif","img/card_backs/set1/yellow.gif","img/card_backs/set1/red.gif","img/card_backs/set2/gray.gif","img/card_backs/set2/orange.gif","img/card_backs/set2/blue.gif","img/card_backs/set2/pink.gif","""event"",""trial"",""time""
""fullscreenenter"",""1"",""1409""
""blur"",""23"",""102436""
""focus"",""23"",""107368""
","""event"",""trial"",""time""
""blur"",""23"",""102436""
","""event"",""trial"",""time""
""focus"",""23"",""107368""
","""event"",""trial"",""time""
""fullscreenenter"",""1"",""1409""
","
","","null","","null","","fixation","2021-07-23 20:01:03.560","","","","","",""
"card-selection-trial","107","361106","0.0-25.0-1.18","A385","true","img/card_backs/set1/green.gif","img/card_backs/set1/purple.gif","img/card_backs/set1/yellow.gif","img/card_backs/set1/red.gif","img/card_backs/set2/gray.gif","img/card_backs/set2/orange.gif","img/card_backs/set2/blue.gif","img/card_backs/set2/pink.gif","""event"",""trial"",""time""
""fullscreenenter"",""1"",""1409""
""blur"",""23"",""102436""
""focus"",""23"",""107368""
","""event"",""trial"",""time""
""blur"",""23"",""102436""
","""event"",""trial"",""time""
""focus"",""23"",""107368""
","""event"",""trial"",""time""
""fullscreenenter"",""1"",""1409""
","
","","247.19999999925494","","","","real_trial","2021-07-23 20:01:05.811","img/card_backs/set1/purple.gif","1","250","1","",""
"casino-fixation","108","361608","0.0-25.0-0.19","A385","true","img/card_backs/set1/green.gif","img/card_backs/set1/purple.gif","img/card_backs/set1/yellow.gif","img/card_backs/set1/red.gif","img/card_backs/set2/gray.gif","img/card_backs/set2/orange.gif","img/card_backs/set2/blue.gif","img/card_backs/set2/pink.gif","""event"",""trial"",""time""
""fullscreenenter"",""1"",""1409""
""blur"",""23"",""102436""
""focus"",""23"",""107368""
","""event"",""trial"",""time""
""blur"",""23"",""102436""
","""event"",""trial"",""time""
""focus"",""23"",""107368""
","""event"",""trial"",""time""
""fullscreenenter"",""1"",""1409""
","
","","null","","null","","fixation","2021-07-23 20:01:06.313","","","","","",""
"card-selection-trial","109","363701","0.0-25.0-1.19","A385","true","img/card_backs/set1/green.gif","img/card_backs/set1/purple.gif","img/card_backs/set1/yellow.gif","img/card_backs/set1/red.gif","img/card_backs/set2/gray.gif","img/card_backs/set2/orange.gif","img/card_backs/set2/blue.gif","img/card_backs/set2/pink.gif","""event"",""trial"",""time""
""fullscreenenter"",""1"",""1409""
""blur"",""23"",""102436""
""focus"",""23"",""107368""
","""event"",""trial"",""time""
""blur"",""23"",""102436""
","""event"",""trial"",""time""
""focus"",""23"",""107368""
","""event"",""trial"",""time""
""fullscreenenter"",""1"",""1409""
","
","","89.39999999850988","","","","real_trial","2021-07-23 20:01:08.406","img/card_backs/set1/green.gif","3","250","1","",""
"casino-fixation","110","364202","0.0-25.0-0.20","A385","true","img/card_backs/set1/green.gif","img/card_backs/set1/purple.gif","img/card_backs/set1/yellow.gif","img/card_backs/set1/red.gif","img/card_backs/set2/gray.gif","img/card_backs/set2/orange.gif","img/card_backs/set2/blue.gif","img/card_backs/set2/pink.gif","""event"",""trial"",""time""
""fullscreenenter"",""1"",""1409""
""blur"",""23"",""102436""
""focus"",""23"",""107368""
","""event"",""trial"",""time""
""blur"",""23"",""102436""
","""event"",""trial"",""time""
""focus"",""23"",""107368""
","""event"",""trial"",""time""
""fullscreenenter"",""1"",""1409""
","
","","null","","null","","fixation","2021-07-23 20:01:08.907","","","","","",""
"card-selection-trial","111","366226","0.0-25.0-1.20","A385","true","img/card_backs/set1/green.gif","img/card_backs/set1/purple.gif","img/card_backs/set1/yellow.gif","img/card_backs/set1/red.gif","img/card_backs/set2/gray.gif","img/card_backs/set2/orange.gif","img/card_backs/set2/blue.gif","img/card_backs/set2/pink.gif","""event"",""trial"",""time""
""fullscreenenter"",""1"",""1409""
""blur"",""23"",""102436""
""focus"",""23"",""107368""
","""event"",""trial"",""time""
""blur"",""23"",""102436""
","""event"",""trial"",""time""
""focus"",""23"",""107368""
","""event"",""trial"",""time""
""fullscreenenter"",""1"",""1409""
","
","","20.899999998509884","","","","real_trial","2021-07-23 20:01:10.931","img/card_backs/set1/yellow.gif","1","-110","1","",""
"casino-fixation","112","366727","0.0-25.0-0.21","A385","true","img/card_backs/set1/green.gif","img/card_backs/set1/purple.gif","img/card_backs/set1/yellow.gif","img/card_backs/set1/red.gif","img/card_backs/set2/gray.gif","img/card_backs/set2/orange.gif","img/card_backs/set2/blue.gif","img/card_backs/set2/pink.gif","""event"",""trial"",""time""
""fullscreenenter"",""1"",""1409""
""blur"",""23"",""102436""
""focus"",""23"",""107368""
","""event"",""trial"",""time""
""blur"",""23"",""102436""
","""event"",""trial"",""time""
""focus"",""23"",""107368""
","""event"",""trial"",""time""
""fullscreenenter"",""1"",""1409""
","
","","null","","null","","fixation","2021-07-23 20:01:11.432","","","","","",""
"card-selection-trial","113","370412","0.0-25.0-1.21","A385","true","img/card_backs/set1/green.gif","img/card_backs/set1/purple.gif","img/card_backs/set1/yellow.gif","img/card_backs/set1/red.gif","img/card_backs/set2/gray.gif","img/card_backs/set2/orange.gif","img/card_backs/set2/blue.gif","img/card_backs/set2/pink.gif","""event"",""trial"",""time""
""fullscreenenter"",""1"",""1409""
""blur"",""23"",""102436""
""focus"",""23"",""107368""
","""event"",""trial"",""time""
""blur"",""23"",""102436""
","""event"",""trial"",""time""
""focus"",""23"",""107368""
","""event"",""trial"",""time""
""fullscreenenter"",""1"",""1409""
","
","","1681.2000000029802","","","","real_trial","2021-07-23 20:01:15.117","img/card_backs/set1/purple.gif","0","-200","1","",""
"casino-fixation","114","370913","0.0-25.0-0.22","A385","true","img/card_backs/set1/green.gif","img/card_backs/set1/purple.gif","img/card_backs/set1/yellow.gif","img/card_backs/set1/red.gif","img/card_backs/set2/gray.gif","img/card_backs/set2/orange.gif","img/card_backs/set2/blue.gif","img/card_backs/set2/pink.gif","""event"",""trial"",""time""
""fullscreenenter"",""1"",""1409""
""blur"",""23"",""102436""
""focus"",""23"",""107368""
","""event"",""trial"",""time""
""blur"",""23"",""102436""
","""event"",""trial"",""time""
""focus"",""23"",""107368""
","""event"",""trial"",""time""
""fullscreenenter"",""1"",""1409""
","
","","null","","null","","fixation","2021-07-23 20:01:15.618","","","","","",""
"card-selection-trial","115","374689","0.0-25.0-1.22","A385","true","img/card_backs/set1/green.gif","img/card_backs/set1/purple.gif","img/card_backs/set1/yellow.gif","img/card_backs/set1/red.gif","img/card_backs/set2/gray.gif","img/card_backs/set2/orange.gif","img/card_backs/set2/blue.gif","img/card_backs/set2/pink.gif","""event"",""trial"",""time""
""fullscreenenter"",""1"",""1409""
""blur"",""23"",""102436""
""focus"",""23"",""107368""
","""event"",""trial"",""time""
""blur"",""23"",""102436""
","""event"",""trial"",""time""
""focus"",""23"",""107368""
","""event"",""trial"",""time""
""fullscreenenter"",""1"",""1409""
","
","","1772.3999999985099","","","","real_trial","2021-07-23 20:01:19.394","img/card_backs/set1/red.gif","3","-110","1","",""
"casino-fixation","116","375190","0.0-25.0-0.23","A385","true","img/card_backs/set1/green.gif","img/card_backs/set1/purple.gif","img/card_backs/set1/yellow.gif","img/card_backs/set1/red.gif","img/card_backs/set2/gray.gif","img/card_backs/set2/orange.gif","img/card_backs/set2/blue.gif","img/card_backs/set2/pink.gif","""event"",""trial"",""time""
""fullscreenenter"",""1"",""1409""
""blur"",""23"",""102436""
""focus"",""23"",""107368""
","""event"",""trial"",""time""
""blur"",""23"",""102436""
","""event"",""trial"",""time""
""focus"",""23"",""107368""
","""event"",""trial"",""time""
""fullscreenenter"",""1"",""1409""
","
","","null","","null","","fixation","2021-07-23 20:01:19.895","","","","","",""
"card-selection-trial","117","377798","0.0-25.0-1.23","A385","true","img/card_backs/set1/green.gif","img/card_backs/set1/purple.gif","img/card_backs/set1/yellow.gif","img/card_backs/set1/red.gif","img/card_backs/set2/gray.gif","img/card_backs/set2/orange.gif","img/card_backs/set2/blue.gif","img/card_backs/set2/pink.gif","""event"",""trial"",""time""
""fullscreenenter"",""1"",""1409""
""blur"",""23"",""102436""
""focus"",""23"",""107368""
","""event"",""trial"",""time""
""blur"",""23"",""102436""
","""event"",""trial"",""time""
""focus"",""23"",""107368""
","""event"",""trial"",""time""
""fullscreenenter"",""1"",""1409""
","
","","604.3000000007451","","","","real_trial","2021-07-23 20:01:22.503","img/card_backs/set1/purple.gif","2","260","1","",""
"casino-fixation","118","378300","0.0-25.0-0.24","A385","true","img/card_backs/set1/green.gif","img/card_backs/set1/purple.gif","img/card_backs/set1/yellow.gif","img/card_backs/set1/red.gif","img/card_backs/set2/gray.gif","img/card_backs/set2/orange.gif","img/card_backs/set2/blue.gif","img/card_backs/set2/pink.gif","""event"",""trial"",""time""
""fullscreenenter"",""1"",""1409""
""blur"",""23"",""102436""
""focus"",""23"",""107368""
","""event"",""trial"",""time""
""blur"",""23"",""102436""
","""event"",""trial"",""time""
""focus"",""23"",""107368""
","""event"",""trial"",""time""
""fullscreenenter"",""1"",""1409""
","
","","null","","null","","fixation","2021-07-23 20:01:23.005","","","","","",""
"card-selection-trial","119","380980","0.0-25.0-1.24","A385","true","img/card_backs/set1/green.gif","img/card_backs/set1/purple.gif","img/card_backs/set1/yellow.gif","img/card_backs/set1/red.gif","img/card_backs/set2/gray.gif","img/card_backs/set2/orange.gif","img/card_backs/set2/blue.gif","img/card_backs/set2/pink.gif","""event"",""trial"",""time""
""fullscreenenter"",""1"",""1409""
""blur"",""23"",""102436""
""focus"",""23"",""107368""
","""event"",""trial"",""time""
""blur"",""23"",""102436""
","""event"",""trial"",""time""
""focus"",""23"",""107368""
","""event"",""trial"",""time""
""fullscreenenter"",""1"",""1409""
","
","","677.1999999992549","","","","real_trial","2021-07-23 20:01:25.685","img/card_backs/set1/purple.gif","0","-200","1","",""
"casino-fixation","120","381481","0.0-25.0-0.25","A385","true","img/card_backs/set1/green.gif","img/card_backs/set1/purple.gif","img/card_backs/set1/yellow.gif","img/card_backs/set1/red.gif","img/card_backs/set2/gray.gif","img/card_backs/set2/orange.gif","img/card_backs/set2/blue.gif","img/card_backs/set2/pink.gif","""event"",""trial"",""time""
""fullscreenenter"",""1"",""1409""
""blur"",""23"",""102436""
""focus"",""23"",""107368""
","""event"",""trial"",""time""
""blur"",""23"",""102436""
","""event"",""trial"",""time""
""focus"",""23"",""107368""
","""event"",""trial"",""time""
""fullscreenenter"",""1"",""1409""
","
","","null","","null","","fixation","2021-07-23 20:01:26.186","","","","","",""
"card-selection-trial","121","385257","0.0-25.0-1.25","A385","true","img/card_backs/set1/green.gif","img/card_backs/set1/purple.gif","img/card_backs/set1/yellow.gif","img/card_backs/set1/red.gif","img/card_backs/set2/gray.gif","img/card_backs/set2/orange.gif","img/card_backs/set2/blue.gif","img/card_backs/set2/pink.gif","""event"",""trial"",""time""
""fullscreenenter"",""1"",""1409""
""blur"",""23"",""102436""
""focus"",""23"",""107368""
","""event"",""trial"",""time""
""blur"",""23"",""102436""
","""event"",""trial"",""time""
""focus"",""23"",""107368""
","""event"",""trial"",""time""
""fullscreenenter"",""1"",""1409""
","
","","1773","","","","real_trial","2021-07-23 20:01:29.962","img/card_backs/set1/green.gif","1","-190","1","",""
"casino-fixation","122","385758","0.0-25.0-0.26","A385","true","img/card_backs/set1/green.gif","img/card_backs/set1/purple.gif","img/card_backs/set1/yellow.gif","img/card_backs/set1/red.gif","img/card_backs/set2/gray.gif","img/card_backs/set2/orange.gif","img/card_backs/set2/blue.gif","img/card_backs/set2/pink.gif","""event"",""trial"",""time""
""fullscreenenter"",""1"",""1409""
""blur"",""23"",""102436""
""focus"",""23"",""107368""
","""event"",""trial"",""time""
""blur"",""23"",""102436""
","""event"",""trial"",""time""
""focus"",""23"",""107368""
","""event"",""trial"",""time""
""fullscreenenter"",""1"",""1409""
","
","","null","","null","","fixation","2021-07-23 20:01:30.463","","","","","",""
"card-selection-trial","123","388330","0.0-25.0-1.26","A385","true","img/card_backs/set1/green.gif","img/card_backs/set1/purple.gif","img/card_backs/set1/yellow.gif","img/card_backs/set1/red.gif","img/card_backs/set2/gray.gif","img/card_backs/set2/orange.gif","img/card_backs/set2/blue.gif","img/card_backs/set2/pink.gif","""event"",""trial"",""time""
""fullscreenenter"",""1"",""1409""
""blur"",""23"",""102436""
""focus"",""23"",""107368""
","""event"",""trial"",""time""
""blur"",""23"",""102436""
","""event"",""trial"",""time""
""focus"",""23"",""107368""
","""event"",""trial"",""time""
""fullscreenenter"",""1"",""1409""
","
","","568.8999999985099","","","","real_trial","2021-07-23 20:01:33.035","img/card_backs/set1/green.gif","3","-190","1","",""
"casino-fixation","124","388832","0.0-25.0-0.27","A385","true","img/card_backs/set1/green.gif","img/card_backs/set1/purple.gif","img/card_backs/set1/yellow.gif","img/card_backs/set1/red.gif","img/card_backs/set2/gray.gif","img/card_backs/set2/orange.gif","img/card_backs/set2/blue.gif","img/card_backs/set2/pink.gif","""event"",""trial"",""time""
""fullscreenenter"",""1"",""1409""
""blur"",""23"",""102436""
""focus"",""23"",""107368""
","""event"",""trial"",""time""
""blur"",""23"",""102436""
","""event"",""trial"",""time""
""focus"",""23"",""107368""
","""event"",""trial"",""time""
""fullscreenenter"",""1"",""1409""
","
","","null","","null","","fixation","2021-07-23 20:01:33.537","","","","","",""
"card-selection-trial","125","392521","0.0-25.0-1.27","A385","true","img/card_backs/set1/green.gif","img/card_backs/set1/purple.gif","img/card_backs/set1/yellow.gif","img/card_backs/set1/red.gif","img/card_backs/set2/gray.gif","img/card_backs/set2/orange.gif","img/card_backs/set2/blue.gif","img/card_backs/set2/pink.gif","""event"",""trial"",""time""
""fullscreenenter"",""1"",""1409""
""blur"",""23"",""102436""
""focus"",""23"",""107368""
","""event"",""trial"",""time""
""blur"",""23"",""102436""
","""event"",""trial"",""time""
""focus"",""23"",""107368""
","""event"",""trial"",""time""
""fullscreenenter"",""1"",""1409""
","
","","1675","","","","real_trial","2021-07-23 20:01:37.226","img/card_backs/set1/yellow.gif","0","40","1","",""
"casino-fixation","126","393022","0.0-25.0-0.28","A385","true","img/card_backs/set1/green.gif","img/card_backs/set1/purple.gif","img/card_backs/set1/yellow.gif","img/card_backs/set1/red.gif","img/card_backs/set2/gray.gif","img/card_backs/set2/orange.gif","img/card_backs/set2/blue.gif","img/card_backs/set2/pink.gif","""event"",""trial"",""time""
""fullscreenenter"",""1"",""1409""
""blur"",""23"",""102436""
""focus"",""23"",""107368""
","""event"",""trial"",""time""
""blur"",""23"",""102436""
","""event"",""trial"",""time""
""focus"",""23"",""107368""
","""event"",""trial"",""time""
""fullscreenenter"",""1"",""1409""
","
","","null","","null","","fixation","2021-07-23 20:01:37.727","","","","","",""
"card-selection-trial","127","395500","0.0-25.0-1.28","A385","true","img/card_backs/set1/green.gif","img/card_backs/set1/purple.gif","img/card_backs/set1/yellow.gif","img/card_backs/set1/red.gif","img/card_backs/set2/gray.gif","img/card_backs/set2/orange.gif","img/card_backs/set2/blue.gif","img/card_backs/set2/pink.gif","""event"",""trial"",""time""
""fullscreenenter"",""1"",""1409""
""blur"",""23"",""102436""
""focus"",""23"",""107368""
","""event"",""trial"",""time""
""blur"",""23"",""102436""
","""event"",""trial"",""time""
""focus"",""23"",""107368""
","""event"",""trial"",""time""
""fullscreenenter"",""1"",""1409""
","
","","475.1000000014901","","","","real_trial","2021-07-23 20:01:40.205","img/card_backs/set1/yellow.gif","0","-90","1","",""
"casino-fixation","128","396001","0.0-25.0-0.29","A385","true","img/card_backs/set1/green.gif","img/card_backs/set1/purple.gif","img/card_backs/set1/yellow.gif","img/card_backs/set1/red.gif","img/card_backs/set2/gray.gif","img/card_backs/set2/orange.gif","img/card_backs/set2/blue.gif","img/card_backs/set2/pink.gif","""event"",""trial"",""time""
""fullscreenenter"",""1"",""1409""
""blur"",""23"",""102436""
""focus"",""23"",""107368""
","""event"",""trial"",""time""
""blur"",""23"",""102436""
","""event"",""trial"",""time""
""focus"",""23"",""107368""
","""event"",""trial"",""time""
""fullscreenenter"",""1"",""1409""
","
","","null","","null","","fixation","2021-07-23 20:01:40.706","","","","","",""
"card-selection-trial","129","400576","0.0-25.0-1.29","A385","true","img/card_backs/set1/green.gif","img/card_backs/set1/purple.gif","img/card_backs/set1/yellow.gif","img/card_backs/set1/red.gif","img/card_backs/set2/gray.gif","img/card_backs/set2/orange.gif","img/card_backs/set2/blue.gif","img/card_backs/set2/pink.gif","""event"",""trial"",""time""
""fullscreenenter"",""1"",""1409""
""blur"",""23"",""102436""
""focus"",""23"",""107368""
","""event"",""trial"",""time""
""blur"",""23"",""102436""
","""event"",""trial"",""time""
""focus"",""23"",""107368""
","""event"",""trial"",""time""
""fullscreenenter"",""1"",""1409""
","
","","2571.800000000745","","","","real_trial","2021-07-23 20:01:45.281","img/card_backs/set1/green.gif","0","-210","1","",""
"casino-fixation","130","401077","0.0-25.0-0.30","A385","true","img/card_backs/set1/green.gif","img/card_backs/set1/purple.gif","img/card_backs/set1/yellow.gif","img/card_backs/set1/red.gif","img/card_backs/set2/gray.gif","img/card_backs/set2/orange.gif","img/card_backs/set2/blue.gif","img/card_backs/set2/pink.gif","""event"",""trial"",""time""
""fullscreenenter"",""1"",""1409""
""blur"",""23"",""102436""
""focus"",""23"",""107368""
","""event"",""trial"",""time""
""blur"",""23"",""102436""
","""event"",""trial"",""time""
""focus"",""23"",""107368""
","""event"",""trial"",""time""
""fullscreenenter"",""1"",""1409""
","
","","null","","null","","fixation","2021-07-23 20:01:45.782","","","","","",""
"card-selection-trial","131","404198","0.0-25.0-1.30","A385","true","img/card_backs/set1/green.gif","img/card_backs/set1/purple.gif","img/card_backs/set1/yellow.gif","img/card_backs/set1/red.gif","img/card_backs/set2/gray.gif","img/card_backs/set2/orange.gif","img/card_backs/set2/blue.gif","img/card_backs/set2/pink.gif","""event"",""trial"",""time""
""fullscreenenter"",""1"",""1409""
""blur"",""23"",""102436""
""focus"",""23"",""107368""
","""event"",""trial"",""time""
""blur"",""23"",""102436""
","""event"",""trial"",""time""
""focus"",""23"",""107368""
","""event"",""trial"",""time""
""fullscreenenter"",""1"",""1409""
","
","","1116.8999999985099","","","","real_trial","2021-07-23 20:01:48.903","img/card_backs/set1/green.gif","1","260","1","",""
"casino-fixation","132","404700","0.0-25.0-0.31","A385","true","img/card_backs/set1/green.gif","img/card_backs/set1/purple.gif","img/card_backs/set1/yellow.gif","img/card_backs/set1/red.gif","img/card_backs/set2/gray.gif","img/card_backs/set2/orange.gif","img/card_backs/set2/blue.gif","img/card_backs/set2/pink.gif","""event"",""trial"",""time""
""fullscreenenter"",""1"",""1409""
""blur"",""23"",""102436""
""focus"",""23"",""107368""
","""event"",""trial"",""time""
""blur"",""23"",""102436""
","""event"",""trial"",""time""
""focus"",""23"",""107368""
","""event"",""trial"",""time""
""fullscreenenter"",""1"",""1409""
","
","","null","","null","","fixation","2021-07-23 20:01:49.405","","","","","",""
"card-selection-trial","133","407228","0.0-25.0-1.31","A385","true","img/card_backs/set1/green.gif","img/card_backs/set1/purple.gif","img/card_backs/set1/yellow.gif","img/card_backs/set1/red.gif","img/card_backs/set2/gray.gif","img/card_backs/set2/orange.gif","img/card_backs/set2/blue.gif","img/card_backs/set2/pink.gif","""event"",""trial"",""time""
""fullscreenenter"",""1"",""1409""
""blur"",""23"",""102436""
""focus"",""23"",""107368""
","""event"",""trial"",""time""
""blur"",""23"",""102436""
","""event"",""trial"",""time""
""focus"",""23"",""107368""
","""event"",""trial"",""time""
""fullscreenenter"",""1"",""1409""
","
","","525.5999999977648","","","","real_trial","2021-07-23 20:01:51.934","img/card_backs/set1/green.gif","0","-200","1","",""
"casino-fixation","134","407731","0.0-25.0-0.32","A385","true","img/card_backs/set1/green.gif","img/card_backs/set1/purple.gif","img/card_backs/set1/yellow.gif","img/card_backs/set1/red.gif","img/card_backs/set2/gray.gif","img/card_backs/set2/orange.gif","img/card_backs/set2/blue.gif","img/card_backs/set2/pink.gif","""event"",""trial"",""time""
""fullscreenenter"",""1"",""1409""
