"trial_type","trial_index","time_elapsed","internal_node_id","sub_id","risk_good_first","block1_A","block1_B","block1_C","block1_D","block2_A","block2_B","block2_C","block2_D","interactions","blur_events","focus_events","fullscreenenter_events","fullscreenexit_events","success","rt","stimulus","key_press","button_pressed","task_part","timestamp","card_choice","choice_position","points_earned","block","correct","response"
"pavlovia","0","7","0.0-0.0","179","false","img/card_backs/set1/green.gif","img/card_backs/set1/purple.gif","img/card_backs/set1/red.gif","img/card_backs/set1/yellow.gif","img/card_backs/set2/pink.gif","img/card_backs/set2/gray.gif","img/card_backs/set2/blue.gif","img/card_backs/set2/orange.gif","""event"",""trial"",""time""
""fullscreenenter"",""1"",""32085""
","
","
","""event"",""trial"",""time""
""fullscreenenter"",""1"",""32085""
","
","","","","","","","","","","","","",""
"fullscreen","1","33060","0.0-1.0","179","false","img/card_backs/set1/green.gif","img/card_backs/set1/purple.gif","img/card_backs/set1/red.gif","img/card_backs/set1/yellow.gif","img/card_backs/set2/pink.gif","img/card_backs/set2/gray.gif","img/card_backs/set2/blue.gif","img/card_backs/set2/orange.gif","""event"",""trial"",""time""
""fullscreenenter"",""1"",""32085""
","
","
","""event"",""trial"",""time""
""fullscreenenter"",""1"",""32085""
","
","true","","","","","","","","","","","",""
"audio-keyboard-response","2","36921","0.0-2.0","179","false","img/card_backs/set1/green.gif","img/card_backs/set1/purple.gif","img/card_backs/set1/red.gif","img/card_backs/set1/yellow.gif","img/card_backs/set2/pink.gif","img/card_backs/set2/gray.gif","img/card_backs/set2/blue.gif","img/card_backs/set2/orange.gif","""event"",""trial"",""time""
""fullscreenenter"",""1"",""32085""
","
","
","""event"",""trial"",""time""
""fullscreenenter"",""1"",""32085""
","
","","3744","audio/beep_loop.wav","32","","","","","","","","",""
"audio-button-response","3","42589","0.0-3.0","179","false","img/card_backs/set1/green.gif","img/card_backs/set1/purple.gif","img/card_backs/set1/red.gif","img/card_backs/set1/yellow.gif","img/card_backs/set2/pink.gif","img/card_backs/set2/gray.gif","img/card_backs/set2/blue.gif","img/card_backs/set2/orange.gif","""event"",""trial"",""time""
""fullscreenenter"",""1"",""32085""
","
","
","""event"",""trial"",""time""
""fullscreenenter"",""1"",""32085""
","
","","NaN","audio/turtle.mp3","","3","","","","","","","",""
"audio-button-response","4","44784","0.0-4.0","179","false","img/card_backs/set1/green.gif","img/card_backs/set1/purple.gif","img/card_backs/set1/red.gif","img/card_backs/set1/yellow.gif","img/card_backs/set2/pink.gif","img/card_backs/set2/gray.gif","img/card_backs/set2/blue.gif","img/card_backs/set2/orange.gif","""event"",""trial"",""time""
""fullscreenenter"",""1"",""32085""
","
","
","""event"",""trial"",""time""
""fullscreenenter"",""1"",""32085""
","
","","NaN","audio/shark.mp3","","2","","","","","","","",""
"fullscreen","5","48302","0.0-5.0","179","false","img/card_backs/set1/green.gif","img/card_backs/set1/purple.gif","img/card_backs/set1/red.gif","img/card_backs/set1/yellow.gif","img/card_backs/set2/pink.gif","img/card_backs/set2/gray.gif","img/card_backs/set2/blue.gif","img/card_backs/set2/orange.gif","""event"",""trial"",""time""
""fullscreenenter"",""1"",""32085""
","
","
","""event"",""trial"",""time""
""fullscreenenter"",""1"",""32085""
","
","true","","","","","","","","","","","",""
"casino-keyboard-response","6","51711","0.0-6.0-0.0","179","false","img/card_backs/set1/green.gif","img/card_backs/set1/purple.gif","img/card_backs/set1/red.gif","img/card_backs/set1/yellow.gif","img/card_backs/set2/pink.gif","img/card_backs/set2/gray.gif","img/card_backs/set2/blue.gif","img/card_backs/set2/orange.gif","""event"",""trial"",""time""
""fullscreenenter"",""1"",""32085""
","
","
","""event"",""trial"",""time""
""fullscreenenter"",""1"",""32085""
","
","","3404.2849999968894","Welcome to the casino!","71","","instructions","2021-03-30 01:46:17.714","","","","","",""
"casino-keyboard-response","7","61294","0.0-6.0-0.1","179","false","img/card_backs/set1/green.gif","img/card_backs/set1/purple.gif","img/card_backs/set1/red.gif","img/card_backs/set1/yellow.gif","img/card_backs/set2/pink.gif","img/card_backs/set2/gray.gif","img/card_backs/set2/blue.gif","img/card_backs/set2/orange.gif","""event"",""trial"",""time""
""fullscreenenter"",""1"",""32085""
","
","
","""event"",""trial"",""time""
""fullscreenenter"",""1"",""32085""
","
","","9579.854999989038","Today you will be playing a game to earn tokens. </br> At the end of the experiment, you will be paid a bonus based on how many tokens you win. ","69","","instructions","2021-03-30 01:46:27.297","","","","","",""
"casino-keyboard-response","8","68990","0.0-6.0-0.2","179","false","img/card_backs/set1/green.gif","img/card_backs/set1/purple.gif","img/card_backs/set1/red.gif","img/card_backs/set1/yellow.gif","img/card_backs/set2/pink.gif","img/card_backs/set2/gray.gif","img/card_backs/set2/blue.gif","img/card_backs/set2/orange.gif","""event"",""trial"",""time""
""fullscreenenter"",""1"",""32085""
","
","
","""event"",""trial"",""time""
""fullscreenenter"",""1"",""32085""
","
","","7693.045000021812","On every turn, you will be shown four different decks of cards. </br> You need to select a card from one of the four decks.  ","75","","instructions","2021-03-30 01:46:34.993","","","","","",""
"casino-keyboard-response","9","73685","0.0-6.0-0.3","179","false","img/card_backs/set1/green.gif","img/card_backs/set1/purple.gif","img/card_backs/set1/red.gif","img/card_backs/set1/yellow.gif","img/card_backs/set2/pink.gif","img/card_backs/set2/gray.gif","img/card_backs/set2/blue.gif","img/card_backs/set2/orange.gif","""event"",""trial"",""time""
""fullscreenenter"",""1"",""32085""
","
","
","""event"",""trial"",""time""
""fullscreenenter"",""1"",""32085""
","
","","4692.925000010291","On the next screen, you will see what the decks will look like. ","66","","instructions","2021-03-30 01:46:39.688","","","","","",""
"card-selection-trial","10","77695","0.0-7.0-0.0","179","false","img/card_backs/set1/green.gif","img/card_backs/set1/purple.gif","img/card_backs/set1/red.gif","img/card_backs/set1/yellow.gif","img/card_backs/set2/pink.gif","img/card_backs/set2/gray.gif","img/card_backs/set2/blue.gif","img/card_backs/set2/orange.gif","""event"",""trial"",""time""
""fullscreenenter"",""1"",""32085""
","
","
","""event"",""trial"",""time""
""fullscreenenter"",""1"",""32085""
","
","","null","","","","practice","2021-03-30 01:46:43.699","null","null","null","0","",""
"casino-keyboard-response","11","85643","0.0-8.0-0.0","179","false","img/card_backs/set1/green.gif","img/card_backs/set1/purple.gif","img/card_backs/set1/red.gif","img/card_backs/set1/yellow.gif","img/card_backs/set2/pink.gif","img/card_backs/set2/gray.gif","img/card_backs/set2/blue.gif","img/card_backs/set2/orange.gif","""event"",""trial"",""time""
""fullscreenenter"",""1"",""32085""
","
","
","""event"",""trial"",""time""
""fullscreenenter"",""1"",""32085""
","
","","7944.370000011986","You should pick a card from a deck using the '2', '4', '6', and '8' keys at the top of the keyboard.","85","","instructions","2021-03-30 01:46:51.646","","","","","",""
"casino-keyboard-response","12","114131","0.0-8.0-0.1","179","false","img/card_backs/set1/green.gif","img/card_backs/set1/purple.gif","img/card_backs/set1/red.gif","img/card_backs/set1/yellow.gif","img/card_backs/set2/pink.gif","img/card_backs/set2/gray.gif","img/card_backs/set2/blue.gif","img/card_backs/set2/orange.gif","""event"",""trial"",""time""
""fullscreenenter"",""1"",""32085""
","
","
","""event"",""trial"",""time""
""fullscreenenter"",""1"",""32085""
","
","","28483.600000006845","Once you select a card, it will turn over and you will see how many tokens you earned.","83","","instructions","2021-03-30 01:47:20.134","","","","","",""
"casino-keyboard-response","13","129192","0.0-8.0-0.2","179","false","img/card_backs/set1/green.gif","img/card_backs/set1/purple.gif","img/card_backs/set1/red.gif","img/card_backs/set1/yellow.gif","img/card_backs/set2/pink.gif","img/card_backs/set2/gray.gif","img/card_backs/set2/blue.gif","img/card_backs/set2/orange.gif","""event"",""trial"",""time""
""fullscreenenter"",""1"",""32085""
","
","
","""event"",""trial"",""time""
""fullscreenenter"",""1"",""32085""
","
","","15058.025000005728","Let's try practicing that! </br> First, try to put your fingers over the '2', '4', '6', and '8' keys. </br>  You can use whatever fingers are most comfortable for you. Try to find a comfortable position now. ","50","","instructions","2021-03-30 01:47:35.195","","","","","",""
"casino-keyboard-response","14","135153","0.0-8.0-0.3","179","false","img/card_backs/set1/green.gif","img/card_backs/set1/purple.gif","img/card_backs/set1/red.gif","img/card_backs/set1/yellow.gif","img/card_backs/set2/pink.gif","img/card_backs/set2/gray.gif","img/card_backs/set2/blue.gif","img/card_backs/set2/orange.gif","""event"",""trial"",""time""
""fullscreenenter"",""1"",""32085""
","
","
","""event"",""trial"",""time""
""fullscreenenter"",""1"",""32085""
","
","","5958.619999990333","Okay ready? </br> On the next screen, press '2' to select the left deck. ","50","","instructions","2021-03-30 01:47:41.156","","","","","",""
"card-selection-trial","15","138135","0.0-9.0-0.0","179","false","img/card_backs/set1/green.gif","img/card_backs/set1/purple.gif","img/card_backs/set1/red.gif","img/card_backs/set1/yellow.gif","img/card_backs/set2/pink.gif","img/card_backs/set2/gray.gif","img/card_backs/set2/blue.gif","img/card_backs/set2/orange.gif","""event"",""trial"",""time""
""fullscreenenter"",""1"",""32085""
","
","
","""event"",""trial"",""time""
""fullscreenenter"",""1"",""32085""
","
","","959.3600000080187","","","","practice_card_selection","2021-03-30 01:47:44.139","img/practice_cards/backs/dark_blue.gif","0","-200","","",""
"casino-keyboard-response","16","143682","0.0-10.0-0.0","179","false","img/card_backs/set1/green.gif","img/card_backs/set1/purple.gif","img/card_backs/set1/red.gif","img/card_backs/set1/yellow.gif","img/card_backs/set2/pink.gif","img/card_backs/set2/gray.gif","img/card_backs/set2/blue.gif","img/card_backs/set2/orange.gif","""event"",""trial"",""time""
""fullscreenenter"",""1"",""32085""
","
","
","""event"",""trial"",""time""
""fullscreenenter"",""1"",""32085""
","
","","5543.499999999767","Great! Now on the next screen, try pressing '6' to select the third deck.","54","","instructions","2021-03-30 01:47:49.685","","","","","",""
"card-selection-trial","17","146187","0.0-11.0-0.0","179","false","img/card_backs/set1/green.gif","img/card_backs/set1/purple.gif","img/card_backs/set1/red.gif","img/card_backs/set1/yellow.gif","img/card_backs/set2/pink.gif","img/card_backs/set2/gray.gif","img/card_backs/set2/blue.gif","img/card_backs/set2/orange.gif","""event"",""trial"",""time""
""fullscreenenter"",""1"",""32085""
","
","
","""event"",""trial"",""time""
""fullscreenenter"",""1"",""32085""
","
","","492.3699999926612","","","","practice_card_selection","2021-03-30 01:47:52.190","img/practice_cards/backs/dark_green.gif","2","200","","",""
"casino-keyboard-response","18","151982","0.0-12.0-0.0","179","false","img/card_backs/set1/green.gif","img/card_backs/set1/purple.gif","img/card_backs/set1/red.gif","img/card_backs/set1/yellow.gif","img/card_backs/set2/pink.gif","img/card_backs/set2/gray.gif","img/card_backs/set2/blue.gif","img/card_backs/set2/orange.gif","""event"",""trial"",""time""
""fullscreenenter"",""1"",""32085""
","
","
","""event"",""trial"",""time""
""fullscreenenter"",""1"",""32085""
","
","","5792.955000011716","Now on the next screen, try pressing '4' to select the second deck.","52","","instructions","2021-03-30 01:47:57.985","","","","","",""
"card-selection-trial","19","155273","0.0-13.0-0.0","179","false","img/card_backs/set1/green.gif","img/card_backs/set1/purple.gif","img/card_backs/set1/red.gif","img/card_backs/set1/yellow.gif","img/card_backs/set2/pink.gif","img/card_backs/set2/gray.gif","img/card_backs/set2/blue.gif","img/card_backs/set2/orange.gif","""event"",""trial"",""time""
""fullscreenenter"",""1"",""32085""
","
","
","""event"",""trial"",""time""
""fullscreenenter"",""1"",""32085""
","
","","1274.9250000051688","","","","practice_card_selection","2021-03-30 01:48:01.276","img/practice_cards/backs/dark_blue.gif","1","-200","","",""
"casino-keyboard-response","20","159716","0.0-14.0-0.0","179","false","img/card_backs/set1/green.gif","img/card_backs/set1/purple.gif","img/card_backs/set1/red.gif","img/card_backs/set1/yellow.gif","img/card_backs/set2/pink.gif","img/card_backs/set2/gray.gif","img/card_backs/set2/blue.gif","img/card_backs/set2/orange.gif","""event"",""trial"",""time""
""fullscreenenter"",""1"",""32085""
","
","
","""event"",""trial"",""time""
""fullscreenenter"",""1"",""32085""
","
","","4440.984999993816","Finally, try pressing '8' to select the deck all the way on the right.","56","","instructions","2021-03-30 01:48:05.719","","","","","",""
"card-selection-trial","21","162367","0.0-15.0-0.0","179","false","img/card_backs/set1/green.gif","img/card_backs/set1/purple.gif","img/card_backs/set1/red.gif","img/card_backs/set1/yellow.gif","img/card_backs/set2/pink.gif","img/card_backs/set2/gray.gif","img/card_backs/set2/blue.gif","img/card_backs/set2/orange.gif","""event"",""trial"",""time""
""fullscreenenter"",""1"",""32085""
","
","
","""event"",""trial"",""time""
""fullscreenenter"",""1"",""32085""
","
","","638.3399999758694","","","","practice_card_selection","2021-03-30 01:48:08.370","img/practice_cards/backs/dark_blue.gif","3","200","","",""
"casino-keyboard-response","22","171563","0.0-16.0-0.0","179","false","img/card_backs/set1/green.gif","img/card_backs/set1/purple.gif","img/card_backs/set1/red.gif","img/card_backs/set1/yellow.gif","img/card_backs/set2/pink.gif","img/card_backs/set2/gray.gif","img/card_backs/set2/blue.gif","img/card_backs/set2/orange.gif","""event"",""trial"",""time""
""fullscreenenter"",""1"",""32085""
","
","
","""event"",""trial"",""time""
""fullscreenenter"",""1"",""32085""
","
","","9194.035000022268","Great! It seems like you are getting the hang of this.","80","","instructions","2021-03-30 01:48:17.566","","","","","",""
"casino-keyboard-response","23","179458","0.0-16.0-0.1","179","false","img/card_backs/set1/green.gif","img/card_backs/set1/purple.gif","img/card_backs/set1/red.gif","img/card_backs/set1/yellow.gif","img/card_backs/set2/pink.gif","img/card_backs/set2/gray.gif","img/card_backs/set2/blue.gif","img/card_backs/set2/orange.gif","""event"",""trial"",""time""
""fullscreenenter"",""1"",""32085""
","
","
","""event"",""trial"",""time""
""fullscreenenter"",""1"",""32085""
","
","","7892.095000017434","You may have noticed that some cards will cause you to <b> win </b> tokens while other cards will cause you to <b> lose </b>  tokens.","70","","instructions","2021-03-30 01:48:25.461","","","","","",""
"casino-keyboard-response","24","187586","0.0-16.0-0.2","179","false","img/card_backs/set1/green.gif","img/card_backs/set1/purple.gif","img/card_backs/set1/red.gif","img/card_backs/set1/yellow.gif","img/card_backs/set2/pink.gif","img/card_backs/set2/gray.gif","img/card_backs/set2/blue.gif","img/card_backs/set2/orange.gif","""event"",""trial"",""time""
""fullscreenenter"",""1"",""32085""
","
","
","""event"",""trial"",""time""
""fullscreenenter"",""1"",""32085""
","
","","8125.085000006948","Each deck has a mix of cards that will cause you to win and lose tokens. </br> However, the cards in each colored deck are different.","73","","instructions","2021-03-30 01:48:33.589","","","","","",""
"casino-keyboard-response","25","196024","0.0-16.0-0.3","179","false","img/card_backs/set1/green.gif","img/card_backs/set1/purple.gif","img/card_backs/set1/red.gif","img/card_backs/set1/yellow.gif","img/card_backs/set2/pink.gif","img/card_backs/set2/gray.gif","img/card_backs/set2/blue.gif","img/card_backs/set2/orange.gif","""event"",""trial"",""time""
""fullscreenenter"",""1"",""32085""
","
","
","""event"",""trial"",""time""
""fullscreenenter"",""1"",""32085""
","
","","8434.860000008484","Some colored decks are luckier than others. </br> If you choose the lucky decks, you will earn more tokens than if you choose the unlucky decks.","69","","instructions","2021-03-30 01:48:42.027","","","","","",""
"casino-keyboard-response","26","203403","0.0-16.0-0.4","179","false","img/card_backs/set1/green.gif","img/card_backs/set1/purple.gif","img/card_backs/set1/red.gif","img/card_backs/set1/yellow.gif","img/card_backs/set2/pink.gif","img/card_backs/set2/gray.gif","img/card_backs/set2/blue.gif","img/card_backs/set2/orange.gif","""event"",""trial"",""time""
""fullscreenenter"",""1"",""32085""
","
","
","""event"",""trial"",""time""
""fullscreenenter"",""1"",""32085""
","
","","7376.090000005206","You should try to figure out which decks are lucky. </br> Then, try to choose the lucky decks so you can win the most tokens.","87","","instructions","2021-03-30 01:48:49.406","","","","","",""
"casino-keyboard-response","27","214912","0.0-16.0-0.5","179","false","img/card_backs/set1/green.gif","img/card_backs/set1/purple.gif","img/card_backs/set1/red.gif","img/card_backs/set1/yellow.gif","img/card_backs/set2/pink.gif","img/card_backs/set2/gray.gif","img/card_backs/set2/blue.gif","img/card_backs/set2/orange.gif","""event"",""trial"",""time""
""fullscreenenter"",""1"",""32085""
","
","
","""event"",""trial"",""time""
""fullscreenenter"",""1"",""32085""
","
","","11506.334999983665","To make it trickier, the casino dealer will switch the locations of the decks on every turn. </br> The color of the deck determines how lucky it is. The location does not matter.","88","","instructions","2021-03-30 01:49:00.915","","","","","",""
"casino-keyboard-response","28","224518","0.0-16.0-0.6","179","false","img/card_backs/set1/green.gif","img/card_backs/set1/purple.gif","img/card_backs/set1/red.gif","img/card_backs/set1/yellow.gif","img/card_backs/set2/pink.gif","img/card_backs/set2/gray.gif","img/card_backs/set2/blue.gif","img/card_backs/set2/orange.gif","""event"",""trial"",""time""
""fullscreenenter"",""1"",""32085""
","
","
","""event"",""trial"",""time""
""fullscreenenter"",""1"",""32085""
","
","","9602.64999998617","The mix of cards in each colored deck will stay the same throughout the game. </br> That means that a deck that is lucky early on will stay lucky.","79","","instructions","2021-03-30 01:49:10.521","","","","","",""
"casino-keyboard-response","29","232596","0.0-16.0-0.7","179","false","img/card_backs/set1/green.gif","img/card_backs/set1/purple.gif","img/card_backs/set1/red.gif","img/card_backs/set1/yellow.gif","img/card_backs/set2/pink.gif","img/card_backs/set2/gray.gif","img/card_backs/set2/blue.gif","img/card_backs/set2/orange.gif","""event"",""trial"",""time""
""fullscreenenter"",""1"",""32085""
","
","
","""event"",""trial"",""time""
""fullscreenenter"",""1"",""32085""
","
","","8074.6300000173505","Remember though, all the decks have a <b> mix </b> of both <b> good </b> and <b> bad </b> cards so it may take a couple of turns to figure out if a deck is lucky.","69","","instructions","2021-03-30 01:49:18.599","","","","","",""
"casino-keyboard-response","30","240753","0.0-16.0-0.8","179","false","img/card_backs/set1/green.gif","img/card_backs/set1/purple.gif","img/card_backs/set1/red.gif","img/card_backs/set1/yellow.gif","img/card_backs/set2/pink.gif","img/card_backs/set2/gray.gif","img/card_backs/set2/blue.gif","img/card_backs/set2/orange.gif","""event"",""trial"",""time""
""fullscreenenter"",""1"",""32085""
","
","
","""event"",""trial"",""time""
""fullscreenenter"",""1"",""32085""
","
","","8154.649999982212","At the end of the game, you will be paid bonus money based on how many tokens you win. </br> If you win more tokens, you will earn more money!","72","","instructions","2021-03-30 01:49:26.756","","","","","",""
"casino-keyboard-response","31","251702","0.0-16.0-0.9","179","false","img/card_backs/set1/green.gif","img/card_backs/set1/purple.gif","img/card_backs/set1/red.gif","img/card_backs/set1/yellow.gif","img/card_backs/set2/pink.gif","img/card_backs/set2/gray.gif","img/card_backs/set2/blue.gif","img/card_backs/set2/orange.gif","""event"",""trial"",""time""
""fullscreenenter"",""1"",""32085""
","
","
","""event"",""trial"",""time""
""fullscreenenter"",""1"",""32085""
","
","","10946.159999992233","You will never <b> lose </b> money. </br> If you end up with fewer than 0 tokens, you will earn $0 of bonus money, but you will still be paid for playing the game.","83","","instructions","2021-03-30 01:49:37.705","","","","","",""
"casino-keyboard-response","32","255965","0.0-16.0-0.10","179","false","img/card_backs/set1/green.gif","img/card_backs/set1/purple.gif","img/card_backs/set1/red.gif","img/card_backs/set1/yellow.gif","img/card_backs/set2/pink.gif","img/card_backs/set2/gray.gif","img/card_backs/set2/blue.gif","img/card_backs/set2/orange.gif","""event"",""trial"",""time""
""fullscreenenter"",""1"",""32085""
","
","
","""event"",""trial"",""time""
""fullscreenenter"",""1"",""32085""
","
","","4258.184999984223","You will have 10 seconds to make each choice.","82","","instructions","2021-03-30 01:49:41.968","","","","","",""
"casino-keyboard-response","33","264910","0.0-16.0-0.11","179","false","img/card_backs/set1/green.gif","img/card_backs/set1/purple.gif","img/card_backs/set1/red.gif","img/card_backs/set1/yellow.gif","img/card_backs/set2/pink.gif","img/card_backs/set2/gray.gif","img/card_backs/set2/blue.gif","img/card_backs/set2/orange.gif","""event"",""trial"",""time""
""fullscreenenter"",""1"",""32085""
","
","
","""event"",""trial"",""time""
""fullscreenenter"",""1"",""32085""
","
","","8943.05999999051","Before you play the game for real, you will play with practice decks. </br> The tokens you earn during practice won't count toward your total.","86","","instructions","2021-03-30 01:49:50.914","","","","","",""
"casino-keyboard-response","34","276872","0.0-16.0-0.12","179","false","img/card_backs/set1/green.gif","img/card_backs/set1/purple.gif","img/card_backs/set1/red.gif","img/card_backs/set1/yellow.gif","img/card_backs/set2/pink.gif","img/card_backs/set2/gray.gif","img/card_backs/set2/blue.gif","img/card_backs/set2/orange.gif","""event"",""trial"",""time""
""fullscreenenter"",""1"",""32085""
","
","
","""event"",""trial"",""time""
""fullscreenenter"",""1"",""32085""
","
","","11958.945000020321","Ready? Remember, use the '2', '4', '6', and '8' keys to select the decks. </br> Put your fingers on those keys now and then press '2' to begin.","50","","instructions","2021-03-30 01:50:02.876","","","","","",""
"casino-fixation","35","277376","0.0-17.0-0.0","179","false","img/card_backs/set1/green.gif","img/card_backs/set1/purple.gif","img/card_backs/set1/red.gif","img/card_backs/set1/yellow.gif","img/card_backs/set2/pink.gif","img/card_backs/set2/gray.gif","img/card_backs/set2/blue.gif","img/card_backs/set2/orange.gif","""event"",""trial"",""time""
""fullscreenenter"",""1"",""32085""
","
","
","""event"",""trial"",""time""
""fullscreenenter"",""1"",""32085""
","
","","null","","null","","fixation","2021-03-30 01:50:03.379","","","","","",""
"card-selection-trial","36","281436","0.0-17.0-1.0","179","false","img/card_backs/set1/green.gif","img/card_backs/set1/purple.gif","img/card_backs/set1/red.gif","img/card_backs/set1/yellow.gif","img/card_backs/set2/pink.gif","img/card_backs/set2/gray.gif","img/card_backs/set2/blue.gif","img/card_backs/set2/orange.gif","""event"",""trial"",""time""
""fullscreenenter"",""1"",""32085""
","
","
","""event"",""trial"",""time""
""fullscreenenter"",""1"",""32085""
","
","","2043.745000002673","","","","practice","2021-03-30 01:50:07.439","img/practice_cards/backs/dark_green.gif","2","200","0","",""
"casino-fixation","37","281940","0.0-17.0-0.1","179","false","img/card_backs/set1/green.gif","img/card_backs/set1/purple.gif","img/card_backs/set1/red.gif","img/card_backs/set1/yellow.gif","img/card_backs/set2/pink.gif","img/card_backs/set2/gray.gif","img/card_backs/set2/blue.gif","img/card_backs/set2/orange.gif","""event"",""trial"",""time""
""fullscreenenter"",""1"",""32085""
","
","
","""event"",""trial"",""time""
""fullscreenenter"",""1"",""32085""
","
","","null","","null","","fixation","2021-03-30 01:50:07.944","","","","","",""
"card-selection-trial","38","285812","0.0-17.0-1.1","179","false","img/card_backs/set1/green.gif","img/card_backs/set1/purple.gif","img/card_backs/set1/red.gif","img/card_backs/set1/yellow.gif","img/card_backs/set2/pink.gif","img/card_backs/set2/gray.gif","img/card_backs/set2/blue.gif","img/card_backs/set2/orange.gif","""event"",""trial"",""time""
""fullscreenenter"",""1"",""32085""
","
","
","""event"",""trial"",""time""
""fullscreenenter"",""1"",""32085""
","
","","1858.894999983022","","","","practice","2021-03-30 01:50:11.815","img/practice_cards/backs/dark_green.gif","1","200","0","",""
"casino-fixation","39","286318","0.0-17.0-0.2","179","false","img/card_backs/set1/green.gif","img/card_backs/set1/purple.gif","img/card_backs/set1/red.gif","img/card_backs/set1/yellow.gif","img/card_backs/set2/pink.gif","img/card_backs/set2/gray.gif","img/card_backs/set2/blue.gif","img/card_backs/set2/orange.gif","""event"",""trial"",""time""
""fullscreenenter"",""1"",""32085""
","
","
","""event"",""trial"",""time""
""fullscreenenter"",""1"",""32085""
","
","","null","","null","","fixation","2021-03-30 01:50:12.321","","","","","",""
"card-selection-trial","40","290625","0.0-17.0-1.2","179","false","img/card_backs/set1/green.gif","img/card_backs/set1/purple.gif","img/card_backs/set1/red.gif","img/card_backs/set1/yellow.gif","img/card_backs/set2/pink.gif","img/card_backs/set2/gray.gif","img/card_backs/set2/blue.gif","img/card_backs/set2/orange.gif","""event"",""trial"",""time""
""fullscreenenter"",""1"",""32085""
","
","
","""event"",""trial"",""time""
""fullscreenenter"",""1"",""32085""
","
","","2295.4500000050757","","","","practice","2021-03-30 01:50:16.628","img/practice_cards/backs/brown.gif","0","-100","0","",""
"casino-fixation","41","291130","0.0-17.0-0.3","179","false","img/card_backs/set1/green.gif","img/card_backs/set1/purple.gif","img/card_backs/set1/red.gif","img/card_backs/set1/yellow.gif","img/card_backs/set2/pink.gif","img/card_backs/set2/gray.gif","img/card_backs/set2/blue.gif","img/card_backs/set2/orange.gif","""event"",""trial"",""time""
""fullscreenenter"",""1"",""32085""
","
","
","""event"",""trial"",""time""
""fullscreenenter"",""1"",""32085""
","
","","null","","null","","fixation","2021-03-30 01:50:17.133","","","","","",""
"card-selection-trial","42","295113","0.0-17.0-1.3","179","false","img/card_backs/set1/green.gif","img/card_backs/set1/purple.gif","img/card_backs/set1/red.gif","img/card_backs/set1/yellow.gif","img/card_backs/set2/pink.gif","img/card_backs/set2/gray.gif","img/card_backs/set2/blue.gif","img/card_backs/set2/orange.gif","""event"",""trial"",""time""
""fullscreenenter"",""1"",""32085""
","
","
","""event"",""trial"",""time""
""fullscreenenter"",""1"",""32085""
","
","","1971.705000003567","","","","practice","2021-03-30 01:50:21.116","img/practice_cards/backs/dark_green.gif","0","-200","0","",""
"casino-fixation","43","295618","0.0-17.0-0.4","179","false","img/card_backs/set1/green.gif","img/card_backs/set1/purple.gif","img/card_backs/set1/red.gif","img/card_backs/set1/yellow.gif","img/card_backs/set2/pink.gif","img/card_backs/set2/gray.gif","img/card_backs/set2/blue.gif","img/card_backs/set2/orange.gif","""event"",""trial"",""time""
""fullscreenenter"",""1"",""32085""
","
","
","""event"",""trial"",""time""
""fullscreenenter"",""1"",""32085""
","
","","null","","null","","fixation","2021-03-30 01:50:21.621","","","","","",""
"card-selection-trial","44","300442","0.0-17.0-1.4","179","false","img/card_backs/set1/green.gif","img/card_backs/set1/purple.gif","img/card_backs/set1/red.gif","img/card_backs/set1/yellow.gif","img/card_backs/set2/pink.gif","img/card_backs/set2/gray.gif","img/card_backs/set2/blue.gif","img/card_backs/set2/orange.gif","""event"",""trial"",""time""
""fullscreenenter"",""1"",""32085""
","
","
","""event"",""trial"",""time""
""fullscreenenter"",""1"",""32085""
","
","","2813.6999999987893","","","","practice","2021-03-30 01:50:26.446","img/practice_cards/backs/dark_blue.gif","2","-200","0","",""
"casino-fixation","45","300947","0.0-17.0-0.5","179","false","img/card_backs/set1/green.gif","img/card_backs/set1/purple.gif","img/card_backs/set1/red.gif","img/card_backs/set1/yellow.gif","img/card_backs/set2/pink.gif","img/card_backs/set2/gray.gif","img/card_backs/set2/blue.gif","img/card_backs/set2/orange.gif","""event"",""trial"",""time""
""fullscreenenter"",""1"",""32085""
","
","
","""event"",""trial"",""time""
""fullscreenenter"",""1"",""32085""
","
","","null","","null","","fixation","2021-03-30 01:50:26.950","","","","","",""
"card-selection-trial","46","304361","0.0-17.0-1.5","179","false","img/card_backs/set1/green.gif","img/card_backs/set1/purple.gif","img/card_backs/set1/red.gif","img/card_backs/set1/yellow.gif","img/card_backs/set2/pink.gif","img/card_backs/set2/gray.gif","img/card_backs/set2/blue.gif","img/card_backs/set2/orange.gif","""event"",""trial"",""time""
""fullscreenenter"",""1"",""32085""
","
","
","""event"",""trial"",""time""
""fullscreenenter"",""1"",""32085""
","
","","1402.040000015404","","","","practice","2021-03-30 01:50:30.364","img/practice_cards/backs/black.gif","0","-100","0","",""
"casino-fixation","47","304866","0.0-17.0-0.6","179","false","img/card_backs/set1/green.gif","img/card_backs/set1/purple.gif","img/card_backs/set1/red.gif","img/card_backs/set1/yellow.gif","img/card_backs/set2/pink.gif","img/card_backs/set2/gray.gif","img/card_backs/set2/blue.gif","img/card_backs/set2/orange.gif","""event"",""trial"",""time""
""fullscreenenter"",""1"",""32085""
","
","
","""event"",""trial"",""time""
""fullscreenenter"",""1"",""32085""
","
","","null","","null","","fixation","2021-03-30 01:50:30.869","","","","","",""
"card-selection-trial","48","309570","0.0-17.0-1.6","179","false","img/card_backs/set1/green.gif","img/card_backs/set1/purple.gif","img/card_backs/set1/red.gif","img/card_backs/set1/yellow.gif","img/card_backs/set2/pink.gif","img/card_backs/set2/gray.gif","img/card_backs/set2/blue.gif","img/card_backs/set2/orange.gif","""event"",""trial"",""time""
""fullscreenenter"",""1"",""32085""
","
","
","""event"",""trial"",""time""
""fullscreenenter"",""1"",""32085""
","
","","2690.9749999758787","","","","practice","2021-03-30 01:50:35.573","img/practice_cards/backs/dark_green.gif","2","-200","0","",""
"casino-fixation","49","310074","0.0-17.0-0.7","179","false","img/card_backs/set1/green.gif","img/card_backs/set1/purple.gif","img/card_backs/set1/red.gif","img/card_backs/set1/yellow.gif","img/card_backs/set2/pink.gif","img/card_backs/set2/gray.gif","img/card_backs/set2/blue.gif","img/card_backs/set2/orange.gif","""event"",""trial"",""time""
""fullscreenenter"",""1"",""32085""
","
","
","""event"",""trial"",""time""
""fullscreenenter"",""1"",""32085""
","
","","null","","null","","fixation","2021-03-30 01:50:36.078","","","","","",""
"card-selection-trial","50","312960","0.0-17.0-1.7","179","false","img/card_backs/set1/green.gif","img/card_backs/set1/purple.gif","img/card_backs/set1/red.gif","img/card_backs/set1/yellow.gif","img/card_backs/set2/pink.gif","img/card_backs/set2/gray.gif","img/card_backs/set2/blue.gif","img/card_backs/set2/orange.gif","""event"",""trial"",""time""
""fullscreenenter"",""1"",""32085""
","
","
","""event"",""trial"",""time""
""fullscreenenter"",""1"",""32085""
","
","","875.8700000180397","","","","practice","2021-03-30 01:50:38.963","img/practice_cards/backs/dark_green.gif","3","-200","0","",""
"casino-fixation","51","313465","0.0-17.0-0.8","179","false","img/card_backs/set1/green.gif","img/card_backs/set1/purple.gif","img/card_backs/set1/red.gif","img/card_backs/set1/yellow.gif","img/card_backs/set2/pink.gif","img/card_backs/set2/gray.gif","img/card_backs/set2/blue.gif","img/card_backs/set2/orange.gif","""event"",""trial"",""time""
""fullscreenenter"",""1"",""32085""
","
","
","""event"",""trial"",""time""
""fullscreenenter"",""1"",""32085""
","
","","null","","null","","fixation","2021-03-30 01:50:39.468","","","","","",""
"card-selection-trial","52","317093","0.0-17.0-1.8","179","false","img/card_backs/set1/green.gif","img/card_backs/set1/purple.gif","img/card_backs/set1/red.gif","img/card_backs/set1/yellow.gif","img/card_backs/set2/pink.gif","img/card_backs/set2/gray.gif","img/card_backs/set2/blue.gif","img/card_backs/set2/orange.gif","""event"",""trial"",""time""
""fullscreenenter"",""1"",""32085""
","
","
","""event"",""trial"",""time""
""fullscreenenter"",""1"",""32085""
","
","","1617.5849999999627","","","","practice","2021-03-30 01:50:43.097","img/practice_cards/backs/dark_green.gif","0","200","0","",""
"casino-fixation","53","317598","0.0-17.0-0.9","179","false","img/card_backs/set1/green.gif","img/card_backs/set1/purple.gif","img/card_backs/set1/red.gif","img/card_backs/set1/yellow.gif","img/card_backs/set2/pink.gif","img/card_backs/set2/gray.gif","img/card_backs/set2/blue.gif","img/card_backs/set2/orange.gif","""event"",""trial"",""time""
""fullscreenenter"",""1"",""32085""
","
","
","""event"",""trial"",""time""
""fullscreenenter"",""1"",""32085""
","
","","null","","null","","fixation","2021-03-30 01:50:43.601","","","","","",""
"card-selection-trial","54","321451","0.0-17.0-1.9","179","false","img/card_backs/set1/green.gif","img/card_backs/set1/purple.gif","img/card_backs/set1/red.gif","img/card_backs/set1/yellow.gif","img/card_backs/set2/pink.gif","img/card_backs/set2/gray.gif","img/card_backs/set2/blue.gif","img/card_backs/set2/orange.gif","""event"",""trial"",""time""
""fullscreenenter"",""1"",""32085""
","
","
","""event"",""trial"",""time""
""fullscreenenter"",""1"",""32085""
","
","","1840.360000001965","","","","practice","2021-03-30 01:50:47.455","img/practice_cards/backs/brown.gif","2","100","0","",""
"casino-keyboard-response","55","324647","0.0-18.0","179","false","img/card_backs/set1/green.gif","img/card_backs/set1/purple.gif","img/card_backs/set1/red.gif","img/card_backs/set1/yellow.gif","img/card_backs/set2/pink.gif","img/card_backs/set2/gray.gif","img/card_backs/set2/blue.gif","img/card_backs/set2/orange.gif","""event"",""trial"",""time""
""fullscreenenter"",""1"",""32085""
","
","
","""event"",""trial"",""time""
""fullscreenenter"",""1"",""32085""
","
","","3192.639999993844","You earned -300 tokens during the practice round!","75","","","2021-03-30 01:50:50.650","","","","","",""
"casino-keyboard-response","56","329515","0.0-19.0-0.0","179","false","img/card_backs/set1/green.gif","img/card_backs/set1/purple.gif","img/card_backs/set1/red.gif","img/card_backs/set1/yellow.gif","img/card_backs/set2/pink.gif","img/card_backs/set2/gray.gif","img/card_backs/set2/blue.gif","img/card_backs/set2/orange.gif","""event"",""trial"",""time""
""fullscreenenter"",""1"",""32085""
","
","
","""event"",""trial"",""time""
""fullscreenenter"",""1"",""32085""
","
","","4866.110000002664","Nice job! You are almost ready to play the real game.","86","","instructions","2021-03-30 01:50:55.518","","","","","",""
"casino-keyboard-response","57","335720","0.0-19.0-0.1","179","false","img/card_backs/set1/green.gif","img/card_backs/set1/purple.gif","img/card_backs/set1/red.gif","img/card_backs/set1/yellow.gif","img/card_backs/set2/pink.gif","img/card_backs/set2/gray.gif","img/card_backs/set2/blue.gif","img/card_backs/set2/orange.gif","""event"",""trial"",""time""
""fullscreenenter"",""1"",""32085""
","
","
","""event"",""trial"",""time""
""fullscreenenter"",""1"",""32085""
","
","","6201.90499999444","You will play two rounds of the real game. In each round, you will pick 100 cards in total.","73","","instructions","2021-03-30 01:51:01.723","","","","","",""
"casino-keyboard-response","58","339962","0.0-19.0-0.2","179","false","img/card_backs/set1/green.gif","img/card_backs/set1/purple.gif","img/card_backs/set1/red.gif","img/card_backs/set1/yellow.gif","img/card_backs/set2/pink.gif","img/card_backs/set2/gray.gif","img/card_backs/set2/blue.gif","img/card_backs/set2/orange.gif","""event"",""trial"",""time""
""fullscreenenter"",""1"",""32085""
","
","
","""event"",""trial"",""time""
""fullscreenenter"",""1"",""32085""
","
","","4238.019999989774","We are now going to ask you some questions about how the game works.","66","","instructions","2021-03-30 01:51:05.965","","","","","",""
"casino-keyboard-response","59","346142","0.0-19.0-0.3","179","false","img/card_backs/set1/green.gif","img/card_backs/set1/purple.gif","img/card_backs/set1/red.gif","img/card_backs/set1/yellow.gif","img/card_backs/set2/pink.gif","img/card_backs/set2/gray.gif","img/card_backs/set2/blue.gif","img/card_backs/set2/orange.gif","""event"",""trial"",""time""
""fullscreenenter"",""1"",""32085""
","
","
","""event"",""trial"",""time""
""fullscreenenter"",""1"",""32085""
","
","","6176.760000002105","Answer carefully. You will not be able to begin the game until you answer them correctly.","67","","instructions","2021-03-30 01:51:12.145","","","","","",""
"casino-comp_q","60","353133","0.0-20.0-0.0","179","false","img/card_backs/set1/green.gif","img/card_backs/set1/purple.gif","img/card_backs/set1/red.gif","img/card_backs/set1/yellow.gif","img/card_backs/set2/pink.gif","img/card_backs/set2/gray.gif","img/card_backs/set2/blue.gif","img/card_backs/set2/orange.gif","""event"",""trial"",""time""
""fullscreenenter"",""1"",""32085""
","
","
","""event"",""trial"",""time""
""fullscreenenter"",""1"",""32085""
","
","","6987.850000004983","True or False: All the decks have some cards that cause you to win tokens and some cards that cause you to lose tokens.","84","","","2021-03-30 01:51:19.136","","","","","",""
"casino-keyboard-response","61","357175","0.0-20.0-1.0","179","false","img/card_backs/set1/green.gif","img/card_backs/set1/purple.gif","img/card_backs/set1/red.gif","img/card_backs/set1/yellow.gif","img/card_backs/set2/pink.gif","img/card_backs/set2/gray.gif","img/card_backs/set2/blue.gif","img/card_backs/set2/orange.gif","""event"",""trial"",""time""
""fullscreenenter"",""1"",""32085""
","
","
","""event"",""trial"",""time""
""fullscreenenter"",""1"",""32085""
","
","","4039.439999993192","True is correct! All the decks have a mix of winning and losing cards.","77","","","2021-03-30 01:51:23.179","","","","","true",""
"casino-comp_q","62","362884","0.0-21.0-0.0","179","false","img/card_backs/set1/green.gif","img/card_backs/set1/purple.gif","img/card_backs/set1/red.gif","img/card_backs/set1/yellow.gif","img/card_backs/set2/pink.gif","img/card_backs/set2/gray.gif","img/card_backs/set2/blue.gif","img/card_backs/set2/orange.gif","""event"",""trial"",""time""
""fullscreenenter"",""1"",""32085""
","
","
","""event"",""trial"",""time""
""fullscreenenter"",""1"",""32085""
","
","","5702.1399999794085","True or False: You will have as much time as you want to make your response.","70","","","2021-03-30 01:51:28.887","","","","","",""
"casino-keyboard-response","63","365679","0.0-21.0-1.0","179","false","img/card_backs/set1/green.gif","img/card_backs/set1/purple.gif","img/card_backs/set1/red.gif","img/card_backs/set1/yellow.gif","img/card_backs/set2/pink.gif","img/card_backs/set2/gray.gif","img/card_backs/set2/blue.gif","img/card_backs/set2/orange.gif","""event"",""trial"",""time""
""fullscreenenter"",""1"",""32085""
","
","
","""event"",""trial"",""time""
""fullscreenenter"",""1"",""32085""
","
","","2792.734999995446","False is correct! You will only have 10 seconds to make each choice.","75","","","2021-03-30 01:51:31.682","","","","","true",""
"casino-comp_q","64","371411","0.0-22.0-0.0","179","false","img/card_backs/set1/green.gif","img/card_backs/set1/purple.gif","img/card_backs/set1/red.gif","img/card_backs/set1/yellow.gif","img/card_backs/set2/pink.gif","img/card_backs/set2/gray.gif","img/card_backs/set2/blue.gif","img/card_backs/set2/orange.gif","""event"",""trial"",""time""
""fullscreenenter"",""1"",""32085""
","
","
","""event"",""trial"",""time""
""fullscreenenter"",""1"",""32085""
","
","","5729.525000002468","True or False: The location of the deck determines how lucky it is.","70","","","2021-03-30 01:51:37.414","","","","","",""
"casino-keyboard-response","65","374777","0.0-22.0-1.0","179","false","img/card_backs/set1/green.gif","img/card_backs/set1/purple.gif","img/card_backs/set1/red.gif","img/card_backs/set1/yellow.gif","img/card_backs/set2/pink.gif","img/card_backs/set2/gray.gif","img/card_backs/set2/blue.gif","img/card_backs/set2/orange.gif","""event"",""trial"",""time""
""fullscreenenter"",""1"",""32085""
","
","
","""event"",""trial"",""time""
""fullscreenenter"",""1"",""32085""
","
","","3363.1299999833573","False is correct! The <i>color</i>  of the deck determines how lucky or unlucky it is.","68","","","2021-03-30 01:51:40.780","","","","","true",""
"casino-keyboard-response","66","378957","0.0-23.0-0.0","179","false","img/card_backs/set1/green.gif","img/card_backs/set1/purple.gif","img/card_backs/set1/red.gif","img/card_backs/set1/yellow.gif","img/card_backs/set2/pink.gif","img/card_backs/set2/gray.gif","img/card_backs/set2/blue.gif","img/card_backs/set2/orange.gif","""event"",""trial"",""time""
""fullscreenenter"",""1"",""32085""
","
","
","""event"",""trial"",""time""
""fullscreenenter"",""1"",""32085""
","
","","4178.550000011455","Great job! Now it's time to start the real game.","82","","instructions","2021-03-30 01:51:44.961","","","","","",""
"casino-keyboard-response","67","383929","0.0-23.0-0.1","179","false","img/card_backs/set1/green.gif","img/card_backs/set1/purple.gif","img/card_backs/set1/red.gif","img/card_backs/set1/yellow.gif","img/card_backs/set2/pink.gif","img/card_backs/set2/gray.gif","img/card_backs/set2/blue.gif","img/card_backs/set2/orange.gif","""event"",""trial"",""time""
""fullscreenenter"",""1"",""32085""
","
","
","""event"",""trial"",""time""
""fullscreenenter"",""1"",""32085""
","
","","4968.905000016093","Before we start, we're going to head into a new room of the casino.","86","","instructions","2021-03-30 01:51:49.932","","","","","",""
"casino-keyboard-response","68","393363","0.0-24.0-0.0","179","false","img/card_backs/set1/green.gif","img/card_backs/set1/purple.gif","img/card_backs/set1/red.gif","img/card_backs/set1/yellow.gif","img/card_backs/set2/pink.gif","img/card_backs/set2/gray.gif","img/card_backs/set2/blue.gif","img/card_backs/set2/orange.gif","""event"",""trial"",""time""
""fullscreenenter"",""1"",""32085""
","
","
","""event"",""trial"",""time""
""fullscreenenter"",""1"",""32085""
","
","","9431.269999971846","Here we are! The real game will use different cards, but the rules will be the same.","71","","instructions","2021-03-30 01:51:59.366","","","","","",""
"casino-keyboard-response","69","401367","0.0-24.0-0.1","179","false","img/card_backs/set1/green.gif","img/card_backs/set1/purple.gif","img/card_backs/set1/red.gif","img/card_backs/set1/yellow.gif","img/card_backs/set2/pink.gif","img/card_backs/set2/gray.gif","img/card_backs/set2/blue.gif","img/card_backs/set2/orange.gif","""event"",""trial"",""time""
""fullscreenenter"",""1"",""32085""
","
","
","""event"",""trial"",""time""
""fullscreenenter"",""1"",""32085""
","
","","8000.739999988582","Ready? Put your fingers over the '2', '4', 6', and '8' keys so you are ready to play the game. </br> Then press 2 to start.","50","","instructions","2021-03-30 01:52:07.370","","","","","",""
"casino-fixation","70","401871","0.0-25.0-0.0","179","false","img/card_backs/set1/green.gif","img/card_backs/set1/purple.gif","img/card_backs/set1/red.gif","img/card_backs/set1/yellow.gif","img/card_backs/set2/pink.gif","img/card_backs/set2/gray.gif","img/card_backs/set2/blue.gif","img/card_backs/set2/orange.gif","""event"",""trial"",""time""
""fullscreenenter"",""1"",""32085""
","
","
","""event"",""trial"",""time""
""fullscreenenter"",""1"",""32085""
","
","","null","","null","","fixation","2021-03-30 01:52:07.874","","","","","",""
"card-selection-trial","71","405790","0.0-25.0-1.0","179","false","img/card_backs/set1/green.gif","img/card_backs/set1/purple.gif","img/card_backs/set1/red.gif","img/card_backs/set1/yellow.gif","img/card_backs/set2/pink.gif","img/card_backs/set2/gray.gif","img/card_backs/set2/blue.gif","img/card_backs/set2/orange.gif","""event"",""trial"",""time""
""fullscreenenter"",""1"",""32085""
","
","
","""event"",""trial"",""time""
""fullscreenenter"",""1"",""32085""
","
","","1907.6449999993201","","","","real_trial","2021-03-30 01:52:11.793","img/card_backs/set1/green.gif","0","190","1","",""
"casino-fixation","72","406295","0.0-25.0-0.1","179","false","img/card_backs/set1/green.gif","img/card_backs/set1/purple.gif","img/card_backs/set1/red.gif","img/card_backs/set1/yellow.gif","img/card_backs/set2/pink.gif","img/card_backs/set2/gray.gif","img/card_backs/set2/blue.gif","img/card_backs/set2/orange.gif","""event"",""trial"",""time""
""fullscreenenter"",""1"",""32085""
","
","
","""event"",""trial"",""time""
""fullscreenenter"",""1"",""32085""
","
","","null","","null","","fixation","2021-03-30 01:52:12.298","","","","","",""
"card-selection-trial","73","409941","0.0-25.0-1.1","179","false","img/card_backs/set1/green.gif","img/card_backs/set1/purple.gif","img/card_backs/set1/red.gif","img/card_backs/set1/yellow.gif","img/card_backs/set2/pink.gif","img/card_backs/set2/gray.gif","img/card_backs/set2/blue.gif","img/card_backs/set2/orange.gif","""event"",""trial"",""time""
""fullscreenenter"",""1"",""32085""
","
","
","""event"",""trial"",""time""
""fullscreenenter"",""1"",""32085""
","
","","1634.9749999935739","","","","real_trial","2021-03-30 01:52:15.944","img/card_backs/set1/yellow.gif","3","-50","1","",""
"casino-fixation","74","410445","0.0-25.0-0.2","179","false","img/card_backs/set1/green.gif","img/card_backs/set1/purple.gif","img/card_backs/set1/red.gif","img/card_backs/set1/yellow.gif","img/card_backs/set2/pink.gif","img/card_backs/set2/gray.gif","img/card_backs/set2/blue.gif","img/card_backs/set2/orange.gif","""event"",""trial"",""time""
""fullscreenenter"",""1"",""32085""
","
","
","""event"",""trial"",""time""
""fullscreenenter"",""1"",""32085""
","
","","null","","null","","fixation","2021-03-30 01:52:16.448","","","","","",""
"card-selection-trial","75","414248","0.0-25.0-1.2","179","false","img/card_backs/set1/green.gif","img/card_backs/set1/purple.gif","img/card_backs/set1/red.gif","img/card_backs/set1/yellow.gif","img/card_backs/set2/pink.gif","img/card_backs/set2/gray.gif","img/card_backs/set2/blue.gif","img/card_backs/set2/orange.gif","""event"",""trial"",""time""
""fullscreenenter"",""1"",""32085""
","
","
","""event"",""trial"",""time""
""fullscreenenter"",""1"",""32085""
","
","","1790.1049999927636","","","","real_trial","2021-03-30 01:52:20.251","img/card_backs/set1/purple.gif","2","-240","1","",""
"casino-fixation","76","414753","0.0-25.0-0.3","179","false","img/card_backs/set1/green.gif","img/card_backs/set1/purple.gif","img/card_backs/set1/red.gif","img/card_backs/set1/yellow.gif","img/card_backs/set2/pink.gif","img/card_backs/set2/gray.gif","img/card_backs/set2/blue.gif","img/card_backs/set2/orange.gif","""event"",""trial"",""time""
""fullscreenenter"",""1"",""32085""
","
","
","""event"",""trial"",""time""
""fullscreenenter"",""1"",""32085""
","
","","null","","null","","fixation","2021-03-30 01:52:20.756","","","","","",""
"card-selection-trial","77","417819","0.0-25.0-1.3","179","false","img/card_backs/set1/green.gif","img/card_backs/set1/purple.gif","img/card_backs/set1/red.gif","img/card_backs/set1/yellow.gif","img/card_backs/set2/pink.gif","img/card_backs/set2/gray.gif","img/card_backs/set2/blue.gif","img/card_backs/set2/orange.gif","""event"",""trial"",""time""
""fullscreenenter"",""1"",""32085""
","
","
","""event"",""trial"",""time""
""fullscreenenter"",""1"",""32085""
","
","","1050.7199999992736","","","","real_trial","2021-03-30 01:52:23.822","img/card_backs/set1/red.gif","0","-60","1","",""
"casino-fixation","78","418324","0.0-25.0-0.4","179","false","img/card_backs/set1/green.gif","img/card_backs/set1/purple.gif","img/card_backs/set1/red.gif","img/card_backs/set1/yellow.gif","img/card_backs/set2/pink.gif","img/card_backs/set2/gray.gif","img/card_backs/set2/blue.gif","img/card_backs/set2/orange.gif","""event"",""trial"",""time""
""fullscreenenter"",""1"",""32085""
","
","
","""event"",""trial"",""time""
""fullscreenenter"",""1"",""32085""
","
","","null","","null","","fixation","2021-03-30 01:52:24.327","","","","","",""
"card-selection-trial","79","421995","0.0-25.0-1.4","179","false","img/card_backs/set1/green.gif","img/card_backs/set1/purple.gif","img/card_backs/set1/red.gif","img/card_backs/set1/yellow.gif","img/card_backs/set2/pink.gif","img/card_backs/set2/gray.gif","img/card_backs/set2/blue.gif","img/card_backs/set2/orange.gif","""event"",""trial"",""time""
""fullscreenenter"",""1"",""32085""
","
","
","""event"",""trial"",""time""
""fullscreenenter"",""1"",""32085""
","
","","1660.2949999796692","","","","real_trial","2021-03-30 01:52:27.998","img/card_backs/set1/red.gif","2","100","1","",""
"casino-fixation","80","422498","0.0-25.0-0.5","179","false","img/card_backs/set1/green.gif","img/card_backs/set1/purple.gif","img/card_backs/set1/red.gif","img/card_backs/set1/yellow.gif","img/card_backs/set2/pink.gif","img/card_backs/set2/gray.gif","img/card_backs/set2/blue.gif","img/card_backs/set2/orange.gif","""event"",""trial"",""time""
""fullscreenenter"",""1"",""32085""
","
","
","""event"",""trial"",""time""
""fullscreenenter"",""1"",""32085""
","
","","null","","null","","fixation","2021-03-30 01:52:28.501","","","","","",""
"card-selection-trial","81","426898","0.0-25.0-1.5","179","false","img/card_backs/set1/green.gif","img/card_backs/set1/purple.gif","img/card_backs/set1/red.gif","img/card_backs/set1/yellow.gif","img/card_backs/set2/pink.gif","img/card_backs/set2/gray.gif","img/card_backs/set2/blue.gif","img/card_backs/set2/orange.gif","""event"",""trial"",""time""
""fullscreenenter"",""1"",""32085""
","
","
","""event"",""trial"",""time""
""fullscreenenter"",""1"",""32085""
","
","","2385.904999973718","","","","real_trial","2021-03-30 01:52:32.901","img/card_backs/set1/green.gif","3","-230","1","",""
"casino-fixation","82","427403","0.0-25.0-0.6","179","false","img/card_backs/set1/green.gif","img/card_backs/set1/purple.gif","img/card_backs/set1/red.gif","img/card_backs/set1/yellow.gif","img/card_backs/set2/pink.gif","img/card_backs/set2/gray.gif","img/card_backs/set2/blue.gif","img/card_backs/set2/orange.gif","""event"",""trial"",""time""
""fullscreenenter"",""1"",""32085""
","
","
","""event"",""trial"",""time""
""fullscreenenter"",""1"",""32085""
","
","","null","","null","","fixation","2021-03-30 01:52:33.406","","","","","",""
"card-selection-trial","83","433663","0.0-25.0-1.6","179","false","img/card_backs/set1/green.gif","img/card_backs/set1/purple.gif","img/card_backs/set1/red.gif","img/card_backs/set1/yellow.gif","img/card_backs/set2/pink.gif","img/card_backs/set2/gray.gif","img/card_backs/set2/blue.gif","img/card_backs/set2/orange.gif","""event"",""trial"",""time""
""fullscreenenter"",""1"",""32085""
","
","
","""event"",""trial"",""time""
""fullscreenenter"",""1"",""32085""
","
","","4247.415000019828","","","","real_trial","2021-03-30 01:52:39.666","img/card_backs/set1/green.gif","1","190","1","",""
"casino-fixation","84","434168","0.0-25.0-0.7","179","false","img/card_backs/set1/green.gif","img/card_backs/set1/purple.gif","img/card_backs/set1/red.gif","img/card_backs/set1/yellow.gif","img/card_backs/set2/pink.gif","img/card_backs/set2/gray.gif","img/card_backs/set2/blue.gif","img/card_backs/set2/orange.gif","""event"",""trial"",""time""
""fullscreenenter"",""1"",""32085""
","
","
","""event"",""trial"",""time""
""fullscreenenter"",""1"",""32085""
","
","","null","","null","","fixation","2021-03-30 01:52:40.171","","","","","",""
"card-selection-trial","85","437732","0.0-25.0-1.7","179","false","img/card_backs/set1/green.gif","img/card_backs/set1/purple.gif","img/card_backs/set1/red.gif","img/card_backs/set1/yellow.gif","img/card_backs/set2/pink.gif","img/card_backs/set2/gray.gif","img/card_backs/set2/blue.gif","img/card_backs/set2/orange.gif","""event"",""trial"",""time""
""fullscreenenter"",""1"",""32085""
","
","
","""event"",""trial"",""time""
""fullscreenenter"",""1"",""32085""
","
","","1551.804999995511","","","","real_trial","2021-03-30 01:52:43.735","img/card_backs/set1/green.gif","3","190","1","",""
"casino-fixation","86","438237","0.0-25.0-0.8","179","false","img/card_backs/set1/green.gif","img/card_backs/set1/purple.gif","img/card_backs/set1/red.gif","img/card_backs/set1/yellow.gif","img/card_backs/set2/pink.gif","img/card_backs/set2/gray.gif","img/card_backs/set2/blue.gif","img/card_backs/set2/orange.gif","""event"",""trial"",""time""
""fullscreenenter"",""1"",""32085""
","
","
","""event"",""trial"",""time""
""fullscreenenter"",""1"",""32085""
","
","","null","","null","","fixation","2021-03-30 01:52:44.240","","","","","",""
"card-selection-trial","87","441619","0.0-25.0-1.8","179","false","img/card_backs/set1/green.gif","img/card_backs/set1/purple.gif","img/card_backs/set1/red.gif","img/card_backs/set1/yellow.gif","img/card_backs/set2/pink.gif","img/card_backs/set2/gray.gif","img/card_backs/set2/blue.gif","img/card_backs/set2/orange.gif","""event"",""trial"",""time""
""fullscreenenter"",""1"",""32085""
","
","
","""event"",""trial"",""time""
""fullscreenenter"",""1"",""32085""
","
","","1370.9450000023935","","","","real_trial","2021-03-30 01:52:47.622","img/card_backs/set1/green.gif","3","-230","1","",""
"casino-fixation","88","442121","0.0-25.0-0.9","179","false","img/card_backs/set1/green.gif","img/card_backs/set1/purple.gif","img/card_backs/set1/red.gif","img/card_backs/set1/yellow.gif","img/card_backs/set2/pink.gif","img/card_backs/set2/gray.gif","img/card_backs/set2/blue.gif","img/card_backs/set2/orange.gif","""event"",""trial"",""time""
""fullscreenenter"",""1"",""32085""
","
","
","""event"",""trial"",""time""
""fullscreenenter"",""1"",""32085""
","
","","null","","null","","fixation","2021-03-30 01:52:48.124","","","","","",""
"card-selection-trial","89","446220","0.0-25.0-1.9","179","false","img/card_backs/set1/green.gif","img/card_backs/set1/purple.gif","img/card_backs/set1/red.gif","img/card_backs/set1/yellow.gif","img/card_backs/set2/pink.gif","img/card_backs/set2/gray.gif","img/card_backs/set2/blue.gif","img/card_backs/set2/orange.gif","""event"",""trial"",""time""
""fullscreenenter"",""1"",""32085""
","
","
","""event"",""trial"",""time""
""fullscreenenter"",""1"",""32085""
","
","","2089.395000017248","","","","real_trial","2021-03-30 01:52:52.223","img/card_backs/set1/red.gif","3","-50","1","",""
"casino-fixation","90","446725","0.0-25.0-0.10","179","false","img/card_backs/set1/green.gif","img/card_backs/set1/purple.gif","img/card_backs/set1/red.gif","img/card_backs/set1/yellow.gif","img/card_backs/set2/pink.gif","img/card_backs/set2/gray.gif","img/card_backs/set2/blue.gif","img/card_backs/set2/orange.gif","""event"",""trial"",""time""
""fullscreenenter"",""1"",""32085""
","
","
","""event"",""trial"",""time""
""fullscreenenter"",""1"",""32085""
","
","","null","","null","","fixation","2021-03-30 01:52:52.728","","","","","",""
"card-selection-trial","91","450841","0.0-25.0-1.10","179","false","img/card_backs/set1/green.gif","img/card_backs/set1/purple.gif","img/card_backs/set1/red.gif","img/card_backs/set1/yellow.gif","img/card_backs/set2/pink.gif","img/card_backs/set2/gray.gif","img/card_backs/set2/blue.gif","img/card_backs/set2/orange.gif","""event"",""trial"",""time""
""fullscreenenter"",""1"",""32085""
","
","
","""event"",""trial"",""time""
""fullscreenenter"",""1"",""32085""
","
","","2106.8300000042655","","","","real_trial","2021-03-30 01:52:56.844","img/card_backs/set1/purple.gif","2","190","1","",""
"casino-fixation","92","451346","0.0-25.0-0.11","179","false","img/card_backs/set1/green.gif","img/card_backs/set1/purple.gif","img/card_backs/set1/red.gif","img/card_backs/set1/yellow.gif","img/card_backs/set2/pink.gif","img/card_backs/set2/gray.gif","img/card_backs/set2/blue.gif","img/card_backs/set2/orange.gif","""event"",""trial"",""time""
""fullscreenenter"",""1"",""32085""
","
","
","""event"",""trial"",""time""
""fullscreenenter"",""1"",""32085""
","
","","null","","null","","fixation","2021-03-30 01:52:57.349","","","","","",""
"card-selection-trial","93","455276","0.0-25.0-1.11","179","false","img/card_backs/set1/green.gif","img/card_backs/set1/purple.gif","img/card_backs/set1/red.gif","img/card_backs/set1/yellow.gif","img/card_backs/set2/pink.gif","img/card_backs/set2/gray.gif","img/card_backs/set2/blue.gif","img/card_backs/set2/orange.gif","""event"",""trial"",""time""
""fullscreenenter"",""1"",""32085""
","
","
","""event"",""trial"",""time""
""fullscreenenter"",""1"",""32085""
","
","","1917.3050000099465","","","","real_trial","2021-03-30 01:53:01.279","img/card_backs/set1/purple.gif","1","-240","1","",""
"casino-fixation","94","455783","0.0-25.0-0.12","179","false","img/card_backs/set1/green.gif","img/card_backs/set1/purple.gif","img/card_backs/set1/red.gif","img/card_backs/set1/yellow.gif","img/card_backs/set2/pink.gif","img/card_backs/set2/gray.gif","img/card_backs/set2/blue.gif","img/card_backs/set2/orange.gif","""event"",""trial"",""time""
""fullscreenenter"",""1"",""32085""
","
","
","""event"",""trial"",""time""
""fullscreenenter"",""1"",""32085""
","
","","null","","null","","fixation","2021-03-30 01:53:01.786","","","","","",""
"card-selection-trial","95","459770","0.0-25.0-1.12","179","false","img/card_backs/set1/green.gif","img/card_backs/set1/purple.gif","img/card_backs/set1/red.gif","img/card_backs/set1/yellow.gif","img/card_backs/set2/pink.gif","img/card_backs/set2/gray.gif","img/card_backs/set2/blue.gif","img/card_backs/set2/orange.gif","""event"",""trial"",""time""
""fullscreenenter"",""1"",""32085""
","
","
","""event"",""trial"",""time""
""fullscreenenter"",""1"",""32085""
","
","","1975.7099999987986","","","","real_trial","2021-03-30 01:53:05.773","img/card_backs/set1/red.gif","0","-50","1","",""
"casino-fixation","96","460274","0.0-25.0-0.13","179","false","img/card_backs/set1/green.gif","img/card_backs/set1/purple.gif","img/card_backs/set1/red.gif","img/card_backs/set1/yellow.gif","img/card_backs/set2/pink.gif","img/card_backs/set2/gray.gif","img/card_backs/set2/blue.gif","img/card_backs/set2/orange.gif","""event"",""trial"",""time""
""fullscreenenter"",""1"",""32085""
","
","
","""event"",""trial"",""time""
""fullscreenenter"",""1"",""32085""
","
","","null","","null","","fixation","2021-03-30 01:53:06.278","","","","","",""
"card-selection-trial","97","463979","0.0-25.0-1.13","179","false","img/card_backs/set1/green.gif","img/card_backs/set1/purple.gif","img/card_backs/set1/red.gif","img/card_backs/set1/yellow.gif","img/card_backs/set2/pink.gif","img/card_backs/set2/gray.gif","img/card_backs/set2/blue.gif","img/card_backs/set2/orange.gif","""event"",""trial"",""time""
""fullscreenenter"",""1"",""32085""
","
","
","""event"",""trial"",""time""
""fullscreenenter"",""1"",""32085""
","
","","1692.5549999868963","","","","real_trial","2021-03-30 01:53:09.982","img/card_backs/set1/yellow.gif","3","-50","1","",""
"casino-fixation","98","464483","0.0-25.0-0.14","179","false","img/card_backs/set1/green.gif","img/card_backs/set1/purple.gif","img/card_backs/set1/red.gif","img/card_backs/set1/yellow.gif","img/card_backs/set2/pink.gif","img/card_backs/set2/gray.gif","img/card_backs/set2/blue.gif","img/card_backs/set2/orange.gif","""event"",""trial"",""time""
""fullscreenenter"",""1"",""32085""
","
","
","""event"",""trial"",""time""
""fullscreenenter"",""1"",""32085""
","
","","null","","null","","fixation","2021-03-30 01:53:10.486","","","","","",""
"card-selection-trial","99","468211","0.0-25.0-1.14","179","false","img/card_backs/set1/green.gif","img/card_backs/set1/purple.gif","img/card_backs/set1/red.gif","img/card_backs/set1/yellow.gif","img/card_backs/set2/pink.gif","img/card_backs/set2/gray.gif","img/card_backs/set2/blue.gif","img/card_backs/set2/orange.gif","""event"",""trial"",""time""
""fullscreenenter"",""1"",""32085""
","
","
","""event"",""trial"",""time""
""fullscreenenter"",""1"",""32085""
","
","","1712.0199999772012","","","","real_trial","2021-03-30 01:53:14.214","img/card_backs/set1/green.gif","2","190","1","",""
"casino-fixation","100","468716","0.0-25.0-0.15","179","false","img/card_backs/set1/green.gif","img/card_backs/set1/purple.gif","img/card_backs/set1/red.gif","img/card_backs/set1/yellow.gif","img/card_backs/set2/pink.gif","img/card_backs/set2/gray.gif","img/card_backs/set2/blue.gif","img/card_backs/set2/orange.gif","""event"",""trial"",""time""
""fullscreenenter"",""1"",""32085""
","
","
","""event"",""trial"",""time""
""fullscreenenter"",""1"",""32085""
","
","","null","","null","","fixation","2021-03-30 01:53:14.719","","","","","",""
"card-selection-trial","101","472240","0.0-25.0-1.15","179","false","img/card_backs/set1/green.gif","img/card_backs/set1/purple.gif","img/card_backs/set1/red.gif","img/card_backs/set1/yellow.gif","img/card_backs/set2/pink.gif","img/card_backs/set2/gray.gif","img/card_backs/set2/blue.gif","img/card_backs/set2/orange.gif","""event"",""trial"",""time""
""fullscreenenter"",""1"",""32085""
","
","
","""event"",""trial"",""time""
""fullscreenenter"",""1"",""32085""
","
","","1514.309999998659","","","","real_trial","2021-03-30 01:53:18.243","img/card_backs/set1/purple.gif","3","-240","1","",""
"casino-fixation","102","472744","0.0-25.0-0.16","179","false","img/card_backs/set1/green.gif","img/card_backs/set1/purple.gif","img/card_backs/set1/red.gif","img/card_backs/set1/yellow.gif","img/card_backs/set2/pink.gif","img/card_backs/set2/gray.gif","img/card_backs/set2/blue.gif","img/card_backs/set2/orange.gif","""event"",""trial"",""time""
""fullscreenenter"",""1"",""32085""
","
","
","""event"",""trial"",""time""
""fullscreenenter"",""1"",""32085""
","
","","null","","null","","fixation","2021-03-30 01:53:18.748","","","","","",""
"card-selection-trial","103","475949","0.0-25.0-1.16","179","false","img/card_backs/set1/green.gif","img/card_backs/set1/purple.gif","img/card_backs/set1/red.gif","img/card_backs/set1/yellow.gif","img/card_backs/set2/pink.gif","img/card_backs/set2/gray.gif","img/card_backs/set2/blue.gif","img/card_backs/set2/orange.gif","""event"",""trial"",""time""
""fullscreenenter"",""1"",""32085""
","
","
","""event"",""trial"",""time""
""fullscreenenter"",""1"",""32085""
","
","","1194.195000018226","","","","real_trial","2021-03-30 01:53:21.952","img/card_backs/set1/purple.gif","0","200","1","",""
"casino-fixation","104","476454","0.0-25.0-0.17","179","false","img/card_backs/set1/green.gif","img/card_backs/set1/purple.gif","img/card_backs/set1/red.gif","img/card_backs/set1/yellow.gif","img/card_backs/set2/pink.gif","img/card_backs/set2/gray.gif","img/card_backs/set2/blue.gif","img/card_backs/set2/orange.gif","""event"",""trial"",""time""
""fullscreenenter"",""1"",""32085""
","
","
","""event"",""trial"",""time""
""fullscreenenter"",""1"",""32085""
","
","","null","","null","","fixation","2021-03-30 01:53:22.457","","","","","",""
"card-selection-trial","105","480803","0.0-25.0-1.17","179","false","img/card_backs/set1/green.gif","img/card_backs/set1/purple.gif","img/card_backs/set1/red.gif","img/card_backs/set1/yellow.gif","img/card_backs/set2/pink.gif","img/card_backs/set2/gray.gif","img/card_backs/set2/blue.gif","img/card_backs/set2/orange.gif","""event"",""trial"",""time""
""fullscreenenter"",""1"",""32085""
","
","
","""event"",""trial"",""time""
""fullscreenenter"",""1"",""32085""
","
","","2338.7949999887496","","","","real_trial","2021-03-30 01:53:26.806","img/card_backs/set1/yellow.gif","0","-60","1","",""
"casino-fixation","106","481309","0.0-25.0-0.18","179","false","img/card_backs/set1/green.gif","img/card_backs/set1/purple.gif","img/card_backs/set1/red.gif","img/card_backs/set1/yellow.gif","img/card_backs/set2/pink.gif","img/card_backs/set2/gray.gif","img/card_backs/set2/blue.gif","img/card_backs/set2/orange.gif","""event"",""trial"",""time""
""fullscreenenter"",""1"",""32085""
","
","
","""event"",""trial"",""time""
""fullscreenenter"",""1"",""32085""
","
","","null","","null","","fixation","2021-03-30 01:53:27.313","","","","","",""
"card-selection-trial","107","485145","0.0-25.0-1.18","179","false","img/card_backs/set1/green.gif","img/card_backs/set1/purple.gif","img/card_backs/set1/red.gif","img/card_backs/set1/yellow.gif","img/card_backs/set2/pink.gif","img/card_backs/set2/gray.gif","img/card_backs/set2/blue.gif","img/card_backs/set2/orange.gif","""event"",""trial"",""time""
""fullscreenenter"",""1"",""32085""
","
","
","""event"",""trial"",""time""
""fullscreenenter"",""1"",""32085""
","
","","1828.219999995781","","","","real_trial","2021-03-30 01:53:31.148","img/card_backs/set1/green.gif","2","180","1","",""
"casino-fixation","108","485650","0.0-25.0-0.19","179","false","img/card_backs/set1/green.gif","img/card_backs/set1/purple.gif","img/card_backs/set1/red.gif","img/card_backs/set1/yellow.gif","img/card_backs/set2/pink.gif","img/card_backs/set2/gray.gif","img/card_backs/set2/blue.gif","img/card_backs/set2/orange.gif","""event"",""trial"",""time""
""fullscreenenter"",""1"",""32085""
","
","
","""event"",""trial"",""time""
""fullscreenenter"",""1"",""32085""
","
","","null","","null","","fixation","2021-03-30 01:53:31.653","","","","","",""
"card-selection-trial","109","490167","0.0-25.0-1.19","179","false","img/card_backs/set1/green.gif","img/card_backs/set1/purple.gif","img/card_backs/set1/red.gif","img/card_backs/set1/yellow.gif","img/card_backs/set2/pink.gif","img/card_backs/set2/gray.gif","img/card_backs/set2/blue.gif","img/card_backs/set2/orange.gif","""event"",""trial"",""time""
""fullscreenenter"",""1"",""32085""
","
","
","""event"",""trial"",""time""
""fullscreenenter"",""1"",""32085""
","
","","2505.799999984447","","","","real_trial","2021-03-30 01:53:36.170","img/card_backs/set1/purple.gif","3","-230","1","",""
"casino-fixation","110","490672","0.0-25.0-0.20","179","false","img/card_backs/set1/green.gif","img/card_backs/set1/purple.gif","img/card_backs/set1/red.gif","img/card_backs/set1/yellow.gif","img/card_backs/set2/pink.gif","img/card_backs/set2/gray.gif","img/card_backs/set2/blue.gif","img/card_backs/set2/orange.gif","""event"",""trial"",""time""
""fullscreenenter"",""1"",""32085""
","
","
","""event"",""trial"",""time""
""fullscreenenter"",""1"",""32085""
","
","","null","","null","","fixation","2021-03-30 01:53:36.675","","","","","",""
"card-selection-trial","111","493900","0.0-25.0-1.20","179","false","img/card_backs/set1/green.gif","img/card_backs/set1/purple.gif","img/card_backs/set1/red.gif","img/card_backs/set1/yellow.gif","img/card_backs/set2/pink.gif","img/card_backs/set2/gray.gif","img/card_backs/set2/blue.gif","img/card_backs/set2/orange.gif","""event"",""trial"",""time""
""fullscreenenter"",""1"",""32085""
","
","
","""event"",""trial"",""time""
""fullscreenenter"",""1"",""32085""
","
","","1217.8299999795854","","","","real_trial","2021-03-30 01:53:39.903","img/card_backs/set1/yellow.gif","1","-60","1","",""
"casino-fixation","112","494405","0.0-25.0-0.21","179","false","img/card_backs/set1/green.gif","img/card_backs/set1/purple.gif","img/card_backs/set1/red.gif","img/card_backs/set1/yellow.gif","img/card_backs/set2/pink.gif","img/card_backs/set2/gray.gif","img/card_backs/set2/blue.gif","img/card_backs/set2/orange.gif","""event"",""trial"",""time""
""fullscreenenter"",""1"",""32085""
","
","
","""event"",""trial"",""time""
""fullscreenenter"",""1"",""32085""
","
","","null","","null","","fixation","2021-03-30 01:53:40.408","","","","","",""
"card-selection-trial","113","505185","0.0-25.0-1.21","179","false","img/card_backs/set1/green.gif","img/card_backs/set1/purple.gif","img/card_backs/set1/red.gif","img/card_backs/set1/yellow.gif","img/card_backs/set2/pink.gif","img/card_backs/set2/gray.gif","img/card_backs/set2/blue.gif","img/card_backs/set2/orange.gif","""event"",""trial"",""time""
""fullscreenenter"",""1"",""32085""
","
","
","""event"",""trial"",""time""
""fullscreenenter"",""1"",""32085""
","
","","8768.949999997858","","","","real_trial","2021-03-30 01:53:51.188","img/card_backs/set1/red.gif","3","120","1","",""
"casino-fixation","114","505690","0.0-25.0-0.22","179","false","img/card_backs/set1/green.gif","img/card_backs/set1/purple.gif","img/card_backs/set1/red.gif","img/card_backs/set1/yellow.gif","img/card_backs/set2/pink.gif","img/card_backs/set2/gray.gif","img/card_backs/set2/blue.gif","img/card_backs/set2/orange.gif","""event"",""trial"",""time""
""fullscreenenter"",""1"",""32085""
","
","
","""event"",""trial"",""time""
""fullscreenenter"",""1"",""32085""
","
","","null","","null","","fixation","2021-03-30 01:53:51.693","","","","","",""
"card-selection-trial","115","509516","0.0-25.0-1.22","179","false","img/card_backs/set1/green.gif","img/card_backs/set1/purple.gif","img/card_backs/set1/red.gif","img/card_backs/set1/yellow.gif","img/card_backs/set2/pink.gif","img/card_backs/set2/gray.gif","img/card_backs/set2/blue.gif","img/card_backs/set2/orange.gif","""event"",""trial"",""time""
""fullscreenenter"",""1"",""32085""
","
","
","""event"",""trial"",""time""
""fullscreenenter"",""1"",""32085""
","
","","1811.5300000063144","","","","real_trial","2021-03-30 01:53:55.519","img/card_backs/set1/purple.gif","1","-250","1","",""
"casino-fixation","116","510021","0.0-25.0-0.23","179","false","img/card_backs/set1/green.gif","img/card_backs/set1/purple.gif","img/card_backs/set1/red.gif","img/card_backs/set1/yellow.gif","img/card_backs/set2/pink.gif","img/card_backs/set2/gray.gif","img/card_backs/set2/blue.gif","img/card_backs/set2/orange.gif","""event"",""trial"",""time""
""fullscreenenter"",""1"",""32085""
","
","
","""event"",""trial"",""time""
""fullscreenenter"",""1"",""32085""
","
","","null","","null","","fixation","2021-03-30 01:53:56.024","","","","","",""
"card-selection-trial","117","512401","0.0-25.0-1.23","179","false","img/card_backs/set1/green.gif","img/card_backs/set1/purple.gif","img/card_backs/set1/red.gif","img/card_backs/set1/yellow.gif","img/card_backs/set2/pink.gif","img/card_backs/set2/gray.gif","img/card_backs/set2/blue.gif","img/card_backs/set2/orange.gif","""event"",""trial"",""time""
""fullscreenenter"",""1"",""32085""
","
","
","""event"",""trial"",""time""
""fullscreenenter"",""1"",""32085""
","
","","365.40000000968575","","","","real_trial","2021-03-30 01:53:58.404","img/card_backs/set1/yellow.gif","2","100","1","",""
"casino-fixation","118","512906","0.0-25.0-0.24","179","false","img/card_backs/set1/green.gif","img/card_backs/set1/purple.gif","img/card_backs/set1/red.gif","img/card_backs/set1/yellow.gif","img/card_backs/set2/pink.gif","img/card_backs/set2/gray.gif","img/card_backs/set2/blue.gif","img/card_backs/set2/orange.gif","""event"",""trial"",""time""
""fullscreenenter"",""1"",""32085""
","
","
","""event"",""trial"",""time""
""fullscreenenter"",""1"",""32085""
","
","","null","","null","","fixation","2021-03-30 01:53:58.909","","","","","",""
"card-selection-trial","119","516355","0.0-25.0-1.24","179","false","img/card_backs/set1/green.gif","img/card_backs/set1/purple.gif","img/card_backs/set1/red.gif","img/card_backs/set1/yellow.gif","img/card_backs/set2/pink.gif","img/card_backs/set2/gray.gif","img/card_backs/set2/blue.gif","img/card_backs/set2/orange.gif","""event"",""trial"",""time""
""fullscreenenter"",""1"",""32085""
","
","
","""event"",""trial"",""time""
""fullscreenenter"",""1"",""32085""
","
","","1434.674999996787","","","","real_trial","2021-03-30 01:54:02.358","img/card_backs/set1/yellow.gif","0","100","1","",""
"casino-fixation","120","516858","0.0-25.0-0.25","179","false","img/card_backs/set1/green.gif","img/card_backs/set1/purple.gif","img/card_backs/set1/red.gif","img/card_backs/set1/yellow.gif","img/card_backs/set2/pink.gif","img/card_backs/set2/gray.gif","img/card_backs/set2/blue.gif","img/card_backs/set2/orange.gif","""event"",""trial"",""time""
""fullscreenenter"",""1"",""32085""
","
","
","""event"",""trial"",""time""
""fullscreenenter"",""1"",""32085""
","
","","null","","null","","fixation","2021-03-30 01:54:02.861","","","","","",""
"card-selection-trial","121","522451","0.0-25.0-1.25","179","false","img/card_backs/set1/green.gif","img/card_backs/set1/purple.gif","img/card_backs/set1/red.gif","img/card_backs/set1/yellow.gif","img/card_backs/set2/pink.gif","img/card_backs/set2/gray.gif","img/card_backs/set2/blue.gif","img/card_backs/set2/orange.gif","""event"",""trial"",""time""
""fullscreenenter"",""1"",""32085""
","
","
","""event"",""trial"",""time""
""fullscreenenter"",""1"",""32085""
","
","","3578.6749999970198","","","","real_trial","2021-03-30 01:54:08.454","img/card_backs/set1/green.gif","2","190","1","",""
"casino-fixation","122","522956","0.0-25.0-0.26","179","false","img/card_backs/set1/green.gif","img/card_backs/set1/purple.gif","img/card_backs/set1/red.gif","img/card_backs/set1/yellow.gif","img/card_backs/set2/pink.gif","img/card_backs/set2/gray.gif","img/card_backs/set2/blue.gif","img/card_backs/set2/orange.gif","""event"",""trial"",""time""
""fullscreenenter"",""1"",""32085""
","
","
","""event"",""trial"",""time""
""fullscreenenter"",""1"",""32085""
","
","","null","","null","","fixation","2021-03-30 01:54:08.959","","","","","",""
"card-selection-trial","123","526242","0.0-25.0-1.26","179","false","img/card_backs/set1/green.gif","img/card_backs/set1/purple.gif","img/card_backs/set1/red.gif","img/card_backs/set1/yellow.gif","img/card_backs/set2/pink.gif","img/card_backs/set2/gray.gif","img/card_backs/set2/blue.gif","img/card_backs/set2/orange.gif","""event"",""trial"",""time""
""fullscreenenter"",""1"",""32085""
","
","
","""event"",""trial"",""time""
""fullscreenenter"",""1"",""32085""
","
","","1273.860000015702","","","","real_trial","2021-03-30 01:54:12.245","img/card_backs/set1/yellow.gif","3","100","1","",""
"casino-fixation","124","526746","0.0-25.0-0.27","179","false","img/card_backs/set1/green.gif","img/card_backs/set1/purple.gif","img/card_backs/set1/red.gif","img/card_backs/set1/yellow.gif","img/card_backs/set2/pink.gif","img/card_backs/set2/gray.gif","img/card_backs/set2/blue.gif","img/card_backs/set2/orange.gif","""event"",""trial"",""time""
""fullscreenenter"",""1"",""32085""
","
","
","""event"",""trial"",""time""
""fullscreenenter"",""1"",""32085""
","
","","null","","null","","fixation","2021-03-30 01:54:12.749","","","","","",""
"card-selection-trial","125","530445","0.0-25.0-1.27","179","false","img/card_backs/set1/green.gif","img/card_backs/set1/purple.gif","img/card_backs/set1/red.gif","img/card_backs/set1/yellow.gif","img/card_backs/set2/pink.gif","img/card_backs/set2/gray.gif","img/card_backs/set2/blue.gif","img/card_backs/set2/orange.gif","""event"",""trial"",""time""
""fullscreenenter"",""1"",""32085""
","
","
","""event"",""trial"",""time""
""fullscreenenter"",""1"",""32085""
","
","","1688.449999986915","","","","real_trial","2021-03-30 01:54:16.448","img/card_backs/set1/red.gif","0","100","1","",""
"casino-fixation","126","530949","0.0-25.0-0.28","179","false","img/card_backs/set1/green.gif","img/card_backs/set1/purple.gif","img/card_backs/set1/red.gif","img/card_backs/set1/yellow.gif","img/card_backs/set2/pink.gif","img/card_backs/set2/gray.gif","img/card_backs/set2/blue.gif","img/card_backs/set2/orange.gif","""event"",""trial"",""time""
""fullscreenenter"",""1"",""32085""
","
","
","""event"",""trial"",""time""
""fullscreenenter"",""1"",""32085""
","
","","null","","null","","fixation","2021-03-30 01:54:16.953","","","","","",""
"card-selection-trial","127","534238","0.0-25.0-1.28","179","false","img/card_backs/set1/green.gif","img/card_backs/set1/purple.gif","img/card_backs/set1/red.gif","img/card_backs/set1/yellow.gif","img/card_backs/set2/pink.gif","img/card_backs/set2/gray.gif","img/card_backs/set2/blue.gif","img/card_backs/set2/orange.gif","""event"",""trial"",""time""
""fullscreenenter"",""1"",""32085""
","
","
","""event"",""trial"",""time""
""fullscreenenter"",""1"",""32085""
","
","","1274.3849999969825","","","","real_trial","2021-03-30 01:54:20.242","img/card_backs/set1/green.gif","2","-250","1","",""
"casino-fixation","128","534740","0.0-25.0-0.29","179","false","img/card_backs/set1/green.gif","img/card_backs/set1/purple.gif","img/card_backs/set1/red.gif","img/card_backs/set1/yellow.gif","img/card_backs/set2/pink.gif","img/card_backs/set2/gray.gif","img/card_backs/set2/blue.gif","img/card_backs/set2/orange.gif","""event"",""trial"",""time""
""fullscreenenter"",""1"",""32085""
","
","
","""event"",""trial"",""time""
""fullscreenenter"",""1"",""32085""
","
","","null","","null","","fixation","2021-03-30 01:54:20.744","","","","","",""
"card-selection-trial","129","538183","0.0-25.0-1.29","179","false","img/card_backs/set1/green.gif","img/card_backs/set1/purple.gif","img/card_backs/set1/red.gif","img/card_backs/set1/yellow.gif","img/card_backs/set2/pink.gif","img/card_backs/set2/gray.gif","img/card_backs/set2/blue.gif","img/card_backs/set2/orange.gif","""event"",""trial"",""time""
""fullscreenenter"",""1"",""32085""
","
","
","""event"",""trial"",""time""
""fullscreenenter"",""1"",""32085""
","
","","1433.0899999768008","","","","real_trial","2021-03-30 01:54:24.186","img/card_backs/set1/yellow.gif","3","110","1","",""
"casino-fixation","130","538688","0.0-25.0-0.30","179","false","img/card_backs/set1/green.gif","img/card_backs/set1/purple.gif","img/card_backs/set1/red.gif","img/card_backs/set1/yellow.gif","img/card_backs/set2/pink.gif","img/card_backs/set2/gray.gif","img/card_backs/set2/blue.gif","img/card_backs/set2/orange.gif","""event"",""trial"",""time""
""fullscreenenter"",""1"",""32085""
","
","
","""event"",""trial"",""time""
""fullscreenenter"",""1"",""32085""
","
","","null","","null","","fixation","2021-03-30 01:54:24.691","","","","","",""
"card-selection-trial","131","541864","0.0-25.0-1.30","179","false","img/card_backs/set1/green.gif","img/card_backs/set1/purple.gif","img/card_backs/set1/red.gif","img/card_backs/set1/yellow.gif","img/card_backs/set2/pink.gif","img/card_backs/set2/gray.gif","img/card_backs/set2/blue.gif","img/card_backs/set2/orange.gif","""event"",""trial"",""time""
""fullscreenenter"",""1"",""32085""
","
","
","""event"",""trial"",""time""
""fullscreenenter"",""1"",""32085""
","
","","1163.1049999850802","","","","real_trial","2021-03-30 01:54:27.867","img/card_backs/set1/purple.gif","0","-250","1","",""
"casino-fixation","132","542369","0.0-25.0-0.31","179","false","img/card_backs/set1/green.gif","img/card_backs/set1/purple.gif","img/card_backs/set1/red.gif","img/card_backs/set1/yellow.gif","img/card_backs/set2/pink.gif","img/card_backs/set2/gray.gif","img/card_backs/set2/blue.gif","img/card_backs/set2/orange.gif","""event"",""trial"",""time""
""fullscreenenter"",""1"",""32085""
","
","
","""event"",""trial"",""time""
""fullscreenenter"",""1"",""32085""
","
","","null","","null","","fixation","2021-03-30 01:54:28.372","","","","","",""
"card-selection-trial","133","544778","0.0-25.0-1.31","179","false","img/card_backs/set1/green.gif","img/card_backs/set1/purple.gif","img/card_backs/set1/red.gif","img/card_backs/set1/yellow.gif","img/card_backs/set2/pink.gif","img/card_backs/set2/gray.gif","img/card_backs/set2/blue.gif","img/card_backs/set2/orange.gif","""event"",""trial"",""time""
""fullscreenenter"",""1"",""32085""
","
","
","""event"",""trial"",""time""
""fullscreenenter"",""1"",""32085""
","
","","397.9399999952875","","","","real_trial","2021-03-30 01:54:30.781","img/card_backs/set1/purple.gif","2","180","1","",""
"casino-fixation","134","545283","0.0-25.0-0.32","179","false","img/card_backs/set1/green.gif","img/card_backs/set1/purple.gif","img/card_backs/set1/red.gif","img/card_backs/set1/yellow.gif","img/card_backs/set2/pink.gif","img/card_backs/set2/gray.gif","img/card_backs/set2/blue.gif","img/card_backs/set2/orange.gif","""event"",""trial"",""time""
""fullscreenenter"",""1"",""32085""
","
","
","""event"",""trial"",""time""
""fullscreenenter"",""1"",""32085""
","
","","null","","null","","fixation","2021-03-30 01:54:31.286","","","","","",""
"card-selection-trial","135","548970","0.0-25.0-1.32","179","false","img/card_backs/set1/green.gif","img/card_backs/set1/purple.gif","img/card_backs/set1/red.gif","img/card_backs/set1/yellow.gif","img/card_backs/set2/pink.gif","img/card_backs/set2/gray.gif","img/card_backs/set2/blue.gif","img/card_backs/set2/orange.gif","""event"",""trial"",""time""
""fullscreenenter"",""1"",""32085""
","
","
","""event"",""trial"",""time""
""fullscreenenter"",""1"",""32085""
","
","","1675.7099999813363","","","","real_trial","2021-03-30 01:54:34.973","img/card_backs/set1/red.gif","0","100","1","",""
"casino-fixation","136","549474","0.0-25.0-0.33","179","false","img/card_backs/set1/green.gif","img/card_backs/set1/purple.gif","img/card_backs/set1/red.gif","img/card_backs/set1/yellow.gif","img/card_backs/set2/pink.gif","img/card_backs/set2/gray.gif","img/card_backs/set2/blue.gif","img/card_backs/set2/orange.gif","""event"",""trial"",""time""
""fullscreenenter"",""1"",""32085""
","
","
","""event"",""trial"",""time""
""fullscreenenter"",""1"",""32085""
","
","","null","","null","","fixation","2021-03-30 01:54:35.478","","","","","",""
"card-selection-trial","137","554345","0.0-25.0-1.33","179","false","img/card_backs/set1/green.gif","img/card_backs/set1/purple.gif","img/card_backs/set1/red.gif","img/card_backs/set1/yellow.gif","img/card_backs/set2/pink.gif","img/card_backs/set2/gray.gif","img/card_backs/set2/blue.gif","img/card_backs/set2/orange.gif","""event"",""trial"",""time""
""fullscreenenter"",""1"",""32085""
","
","
","""event"",""trial"",""time""
""fullscreenenter"",""1"",""32085""
","
","","2855.695000005653","","","","real_trial","2021-03-30 01:54:40.348","img/card_backs/set1/yellow.gif","2","100","1","",""
"casino-fixation","138","554850","0.0-25.0-0.34","179","false","img/card_backs/set1/green.gif","img/card_backs/set1/purple.gif","img/card_backs/set1/red.gif","img/card_backs/set1/yellow.gif","img/card_backs/set2/pink.gif","img/card_backs/set2/gray.gif","img/card_backs/set2/blue.gif","img/card_backs/set2/orange.gif","""event"",""trial"",""time""
""fullscreenenter"",""1"",""32085""
","
","
","""event"",""trial"",""time""
""fullscreenenter"",""1"",""32085""
","
","","null","","null","","fixation","2021-03-30 01:54:40.853","","","","","",""
"card-selection-trial","139","562107","0.0-25.0-1.34","179","false","img/card_backs/set1/green.gif","img/card_backs/set1/purple.gif","img/card_backs/set1/red.gif","img/card_backs/set1/yellow.gif","img/card_backs/set2/pink.gif","img/card_backs/set2/gray.gif","img/card_backs/set2/blue.gif","img/card_backs/set2/orange.gif","""event"",""trial"",""time""
""fullscreenenter"",""1"",""32085""
","
","
","""event"",""trial"",""time""
""fullscreenenter"",""1"",""32085""
","
","","5243.880000023637","","","","real_trial","2021-03-30 01:54:48.110","img/card_backs/set1/green.gif","0","-230","1","",""
"casino-fixation","140","562612","0.0-25.0-0.35","179","false","img/card_backs/set1/green.gif","img/card_backs/set1/purple.gif","img/card_backs/set1/red.gif","img/card_backs/set1/yellow.gif","img/card_backs/set2/pink.gif","img/card_backs/set2/gray.gif","img/card_backs/set2/blue.gif","img/card_backs/set2/orange.gif","""event"",""trial"",""time""
""fullscreenenter"",""1"",""32085""
","
","
","""event"",""trial"",""time""
""fullscreenenter"",""1"",""32085""
","
","","null","","null","","fixation","2021-03-30 01:54:48.615","","","","","",""
"card-selection-trial","141","566183","0.0-25.0-1.35","179","false","img/card_backs/set1/green.gif","img/card_backs/set1/purple.gif","img/card_backs/set1/red.gif","img/card_backs/set1/yellow.gif","img/card_backs/set2/pink.gif","img/card_backs/set2/gray.gif","img/card_backs/set2/blue.gif","img/card_backs/set2/orange.gif","""event"",""trial"",""time""
""fullscreenenter"",""1"",""32085""
","
","
","""event"",""trial"",""time""
""fullscreenenter"",""1"",""32085""
","
","","1558.775000012247","","","","real_trial","2021-03-30 01:54:52.186","img/card_backs/set1/yellow.gif","2","-50","1","",""
"casino-fixation","142","566687","0.0-25.0-0.36","179","false","img/card_backs/set1/green.gif","img/card_backs/set1/purple.gif","img/card_backs/set1/red.gif","img/card_backs/set1/yellow.gif","img/card_backs/set2/pink.gif","img/card_backs/set2/gray.gif","img/card_backs/set2/blue.gif","img/card_backs/set2/orange.gif","""event"",""trial"",""time""
""fullscreenenter"",""1"",""32085""
","
","
","""event"",""trial"",""time""
""fullscreenenter"",""1"",""32085""
","
","","null","","null","","fixation","2021-03-30 01:54:52.691","","","","","",""
"card-selection-trial","143","568952","0.0-25.0-1.36","179","false","img/card_backs/set1/green.gif","img/card_backs/set1/purple.gif","img/card_backs/set1/red.gif","img/card_backs/set1/yellow.gif","img/card_backs/set2/pink.gif","img/card_backs/set2/gray.gif","img/card_backs/set2/blue.gif","img/card_backs/set2/orange.gif","""event"",""trial"",""time""
""fullscreenenter"",""1"",""32085""
","
","
","""event"",""trial"",""time""
""fullscreenenter"",""1"",""32085""
","
","","250.41500001680106","","","","real_trial","2021-03-30 01:54:54.955","img/card_backs/set1/green.gif","3","-240","1","",""
"casino-fixation","144","569457","0.0-25.0-0.37","179","false","img/card_backs/set1/green.gif","img/card_backs/set1/purple.gif","img/card_backs/set1/red.gif","img/card_backs/set1/yellow.gif","img/card_backs/set2/pink.gif","img/card_backs/set2/gray.gif","img/card_backs/set2/blue.gif","img/card_backs/set2/orange.gif","""event"",""trial"",""time""
""fullscreenenter"",""1"",""32085""
","
","
","""event"",""trial"",""time""
""fullscreenenter"",""1"",""32085""
","
","","null","","null","","fixation","2021-03-30 01:54:55.460","","","","","",""
"card-selection-trial","145","571588","0.0-25.0-1.37","179","false","img/card_backs/set1/green.gif","img/card_backs/set1/purple.gif","img/card_backs/set1/red.gif","img/card_backs/set1/yellow.gif","img/card_backs/set2/pink.gif","img/card_backs/set2/gray.gif","img/card_backs/set2/blue.gif","img/card_backs/set2/orange.gif","""event"",""trial"",""time""
""fullscreenenter"",""1"",""32085""
","
","
","""event"",""trial"",""time""
""fullscreenenter"",""1"",""32085""
","
","","118.17500001052395","","","","real_trial","2021-03-30 01:54:57.591","img/card_backs/set1/red.gif","0","-50","1","",""
"casino-fixation","146","572093","0.0-25.0-0.38","179","false","img/card_backs/set1/green.gif","img/card_backs/set1/purple.gif","img/card_backs/set1/red.gif","img/card_backs/set1/yellow.gif","img/card_backs/set2/pink.gif","img/card_backs/set2/gray.gif","img/card_backs/set2/blue.gif","img/card_backs/set2/orange.gif","""event"",""trial"",""time""
""fullscreenenter"",""1"",""32085""
","
","
","""event"",""trial"",""time""
""fullscreenenter"",""1"",""32085""
","
","","null","","null","","fixation","2021-03-30 01:54:58.096","","","","","",""
"card-selection-trial","147","574670","0.0-25.0-1.38","179","false","img/card_backs/set1/green.gif","img/card_backs/set1/purple.gif","img/card_backs/set1/red.gif","img/card_backs/set1/yellow.gif","img/card_backs/set2/pink.gif","img/card_backs/set2/gray.gif","img/card_backs/set2/blue.gif","img/card_backs/set2/orange.gif","""event"",""trial"",""time""
""fullscreenenter"",""1"",""32085""
","
","
","""event"",""trial"",""time""
""fullscreenenter"",""1"",""32085""
","
","","565.100000007078","","","","real_trial","2021-03-30 01:55:00.673","img/card_backs/set1/red.gif","1","-50","1","",""
"casino-fixation","148","575175","0.0-25.0-0.39","179","false","img/card_backs/set1/green.gif","img/card_backs/set1/purple.gif","img/card_backs/set1/red.gif","img/card_backs/set1/yellow.gif","img/card_backs/set2/pink.gif","img/card_backs/set2/gray.gif","img/card_backs/set2/blue.gif","img/card_backs/set2/orange.gif","""event"",""trial"",""time""
""fullscreenenter"",""1"",""32085""
","
","
","""event"",""trial"",""time""
""fullscreenenter"",""1"",""32085""
","
","","null","","null","","fixation","2021-03-30 01:55:01.178","","","","","",""
"card-selection-trial","149","577695","0.0-25.0-1.39","179","false","img/card_backs/set1/green.gif","img/card_backs/set1/purple.gif","img/card_backs/set1/red.gif","img/card_backs/set1/yellow.gif","img/card_backs/set2/pink.gif","img/card_backs/set2/gray.gif","img/card_backs/set2/blue.gif","img/card_backs/set2/orange.gif","""event"",""trial"",""time""
""fullscreenenter"",""1"",""32085""
","
","
","""event"",""trial"",""time""
""fullscreenenter"",""1"",""32085""
","
","","509.7700000042096","","","","real_trial","2021-03-30 01:55:03.698","img/card_backs/set1/purple.gif","2","190","1","",""
"casino-fixation","150","578200","0.0-25.0-0.40","179","false","img/card_backs/set1/green.gif","img/card_backs/set1/purple.gif","img/card_backs/set1/red.gif","img/card_backs/set1/yellow.gif","img/card_backs/set2/pink.gif","img/card_backs/set2/gray.gif","img/card_backs/set2/blue.gif","img/card_backs/set2/orange.gif","""event"",""trial"",""time""
""fullscreenenter"",""1"",""32085""
","
","
","""event"",""trial"",""time""
""fullscreenenter"",""1"",""32085""
","
","","null","","null","","fixation","2021-03-30 01:55:04.203","","","","","",""
"card-selection-trial","151","580830","0.0-25.0-1.40","179","false","img/card_backs/set1/green.gif","img/card_backs/set1/purple.gif","img/card_backs/set1/red.gif","img/card_backs/set1/yellow.gif","img/card_backs/set2/pink.gif","img/card_backs/set2/gray.gif","img/card_backs/set2/blue.gif","img/card_backs/set2/orange.gif","""event"",""trial"",""time""
""fullscreenenter"",""1"",""32085""
","
","
","""event"",""trial"",""time""
""fullscreenenter"",""1"",""32085""
","
","","617.0649999985471","","","","real_trial","2021-03-30 01:55:06.833","img/card_backs/set1/yellow.gif","3","-70","1","",""
"casino-fixation","152","581331","0.0-25.0-0.41","179","false","img/card_backs/set1/green.gif","img/card_backs/set1/purple.gif","img/card_backs/set1/red.gif","img/card_backs/set1/yellow.gif","img/card_backs/set2/pink.gif","img/card_backs/set2/gray.gif","img/card_backs/set2/blue.gif","img/card_backs/set2/orange.gif","""event"",""trial"",""time""
""fullscreenenter"",""1"",""32085""
","
","
","""event"",""trial"",""time""
""fullscreenenter"",""1"",""32085""
","
","","null","","null","","fixation","2021-03-30 01:55:07.334","","","","","",""
"card-selection-trial","153","589544","0.0-25.0-1.41","179","false","img/card_backs/set1/green.gif","img/card_backs/set1/purple.gif","img/card_backs/set1/red.gif","img/card_backs/set1/yellow.gif","img/card_backs/set2/pink.gif","img/card_backs/set2/gray.gif","img/card_backs/set2/blue.gif","img/card_backs/set2/orange.gif","""event"",""trial"",""time""
""fullscreenenter"",""1"",""32085""
","
","
","""event"",""trial"",""time""
""fullscreenenter"",""1"",""32085""
","
","","6199.85999999335","","","","real_trial","2021-03-30 01:55:15.547","img/card_backs/set1/purple.gif","3","-230","1","",""
"casino-fixation","154","590049","0.0-25.0-0.42","179","false","img/card_backs/set1/green.gif","img/card_backs/set1/purple.gif","img/card_backs/set1/red.gif","img/card_backs/set1/yellow.gif","img/card_backs/set2/pink.gif","img/card_backs/set2/gray.gif","img/card_backs/set2/blue.gif","img/card_backs/set2/orange.gif","""event"",""trial"",""time""
""fullscreenenter"",""1"",""32085""
","
","
","""event"",""trial"",""time""
""fullscreenenter"",""1"",""32085""
","
","","null","","null","","fixation","2021-03-30 01:55:16.052","","","","","",""
"card-selection-trial","155","592429","0.0-25.0-1.42","179","false","img/card_backs/set1/green.gif","img/card_backs/set1/purple.gif","img/card_backs/set1/red.gif","img/card_backs/set1/yellow.gif","img/card_backs/set2/pink.gif","img/card_backs/set2/gray.gif","img/card_backs/set2/blue.gif","img/card_backs/set2/orange.gif","""event"",""trial"",""time""
""fullscreenenter"",""1"",""32085""
","
","
","""event"",""trial"",""time""
""fullscreenenter"",""1"",""32085""
","
","","370.0449999887496","","","","real_trial","2021-03-30 01:55:18.432","img/card_backs/set1/red.gif","2","110","1","",""
"casino-fixation","156","592934","0.0-25.0-0.43","179","false","img/card_backs/set1/green.gif","img/card_backs/set1/purple.gif","img/card_backs/set1/red.gif","img/card_backs/set1/yellow.gif","img/card_backs/set2/pink.gif","img/card_backs/set2/gray.gif","img/card_backs/set2/blue.gif","img/card_backs/set2/orange.gif","""event"",""trial"",""time""
""fullscreenenter"",""1"",""32085""
","
","
","""event"",""trial"",""time""
""fullscreenenter"",""1"",""32085""
","
","","null","","null","","fixation","2021-03-30 01:55:18.937","","","","","",""
"card-selection-trial","157","600905","0.0-25.0-1.43","179","false","img/card_backs/set1/green.gif","img/card_backs/set1/purple.gif","img/card_backs/set1/red.gif","img/card_backs/set1/yellow.gif","img/card_backs/set2/pink.gif","img/card_backs/set2/gray.gif","img/card_backs/set2/blue.gif","img/card_backs/set2/orange.gif","""event"",""trial"",""time""
""fullscreenenter"",""1"",""32085""
","
","
","""event"",""trial"",""time""
""fullscreenenter"",""1"",""32085""
","
","","5960.794999991776","","","","real_trial","2021-03-30 01:55:26.908","img/card_backs/set1/red.gif","1","-70","1","",""
"casino-fixation","158","601409","0.0-25.0-0.44","179","false","img/card_backs/set1/green.gif","img/card_backs/set1/purple.gif","img/card_backs/set1/red.gif","img/card_backs/set1/yellow.gif","img/card_backs/set2/pink.gif","img/card_backs/set2/gray.gif","img/card_backs/set2/blue.gif","img/card_backs/set2/orange.gif","""event"",""trial"",""time""
""fullscreenenter"",""1"",""32085""
","
","
","""event"",""trial"",""time""
""fullscreenenter"",""1"",""32085""
","
","","null","","null","","fixation","2021-03-30 01:55:27.412","","","","","",""
"card-selection-trial","159","604829","0.0-25.0-1.44","179","false","img/card_backs/set1/green.gif","img/card_backs/set1/purple.gif","img/card_backs/set1/red.gif","img/card_backs/set1/yellow.gif","img/card_backs/set2/pink.gif","img/card_backs/set2/gray.gif","img/card_backs/set2/blue.gif","img/card_backs/set2/orange.gif","""event"",""trial"",""time""
""fullscreenenter"",""1"",""32085""
","
","
","""event"",""trial"",""time""
""fullscreenenter"",""1"",""32085""
","
","","1407.6500000082888","","","","real_trial","2021-03-30 01:55:30.832","img/card_backs/set1/purple.gif","2","-230","1","",""
"casino-fixation","160","605334","0.0-25.0-0.45","179","false","img/card_backs/set1/green.gif","img/card_backs/set1/purple.gif","img/card_backs/set1/red.gif","img/card_backs/set1/yellow.gif","img/card_backs/set2/pink.gif","img/card_backs/set2/gray.gif","img/card_backs/set2/blue.gif","img/card_backs/set2/orange.gif","""event"",""trial"",""time""
""fullscreenenter"",""1"",""32085""
","
","
","""event"",""trial"",""time""
""fullscreenenter"",""1"",""32085""
","
","","null","","null","","fixation","2021-03-30 01:55:31.337","","","","","",""
"card-selection-trial","161","608562","0.0-25.0-1.45","179","false","img/card_backs/set1/green.gif","img/card_backs/set1/purple.gif","img/card_backs/set1/red.gif","img/card_backs/set1/yellow.gif","img/card_backs/set2/pink.gif","img/card_backs/set2/gray.gif","img/card_backs/set2/blue.gif","img/card_backs/set2/orange.gif","""event"",""trial"",""time""
""fullscreenenter"",""1"",""32085""
","
","
","""event"",""trial"",""time""
""fullscreenenter"",""1"",""32085""
","
","","1217.7249999949709","","","","real_trial","2021-03-30 01:55:34.565","img/card_backs/set1/yellow.gif","1","-70","1","",""
"casino-fixation","162","609067","0.0-25.0-0.46","179","false","img/card_backs/set1/green.gif","img/card_backs/set1/purple.gif","img/card_backs/set1/red.gif","img/card_backs/set1/yellow.gif","img/card_backs/set2/pink.gif","img/card_backs/set2/gray.gif","img/card_backs/set2/blue.gif","img/card_backs/set2/orange.gif","""event"",""trial"",""time""
""fullscreenenter"",""1"",""32085""
","
","
","""event"",""trial"",""time""
""fullscreenenter"",""1"",""32085""
","
","","null","","null","","fixation","2021-03-30 01:55:35.070","","","","","",""
"card-selection-trial","163","612452","0.0-25.0-1.46","179","false","img/card_backs/set1/green.gif","img/card_backs/set1/purple.gif","img/card_backs/set1/red.gif","img/card_backs/set1/yellow.gif","img/card_backs/set2/pink.gif","img/card_backs/set2/gray.gif","img/card_backs/set2/blue.gif","img/card_backs/set2/orange.gif","""event"",""trial"",""time""
""fullscreenenter"",""1"",""32085""
","
","
","""event"",""trial"",""time""
""fullscreenenter"",""1"",""32085""
","
","","1371.0299999802373","","","","real_trial","2021-03-30 01:55:38.455","img/card_backs/set1/green.gif","0","-250","1","",""
"casino-fixation","164","612957","0.0-25.0-0.47","179","false","img/card_backs/set1/green.gif","img/card_backs/set1/purple.gif","img/card_backs/set1/red.gif","img/card_backs/set1/yellow.gif","img/card_backs/set2/pink.gif","img/card_backs/set2/gray.gif","img/card_backs/set2/blue.gif","img/card_backs/set2/orange.gif","""event"",""trial"",""time""
""fullscreenenter"",""1"",""32085""
","
","
","""event"",""trial"",""time""
""fullscreenenter"",""1"",""32085""
","
","","null","","null","","fixation","2021-03-30 01:55:38.960","","","","","",""
"card-selection-trial","165","615604","0.0-25.0-1.47","179","false","img/card_backs/set1/green.gif","img/card_backs/set1/purple.gif","img/card_backs/set1/red.gif","img/card_backs/set1/yellow.gif","img/card_backs/set2/pink.gif","img/card_backs/set2/gray.gif","img/card_backs/set2/blue.gif","img/card_backs/set2/orange.gif","""event"",""trial"",""time""
""fullscreenenter"",""1"",""32085""
","
","
","""event"",""trial"",""time""
""fullscreenenter"",""1"",""32085""
","
","","635.3649999946356","","","","real_trial","2021-03-30 01:55:41.607","img/card_backs/set1/purple.gif","1","-230","1","",""
"casino-fixation","166","616109","0.0-25.0-0.48","179","false","img/card_backs/set1/green.gif","img/card_backs/set1/purple.gif","img/card_backs/set1/red.gif","img/card_backs/set1/yellow.gif","img/card_backs/set2/pink.gif","img/card_backs/set2/gray.gif","img/card_backs/set2/blue.gif","img/card_backs/set2/orange.gif","""event"",""trial"",""time""
""fullscreenenter"",""1"",""32085""
","
","
","""event"",""trial"",""time""
""fullscreenenter"",""1"",""32085""
","
