"trial_type","trial_index","time_elapsed","internal_node_id","sub_id","risk_good_first","block1_A","block1_B","block1_C","block1_D","block2_A","block2_B","block2_C","block2_D","interactions","blur_events","focus_events","fullscreenenter_events","fullscreenexit_events","success","rt","stimulus","key_press","button_pressed","task_part","timestamp","card_choice","choice_position","points_earned","block","correct","response"
"pavlovia","0","6","0.0-0.0","311","false","img/card_backs/set1/purple.gif","img/card_backs/set1/red.gif","img/card_backs/set1/yellow.gif","img/card_backs/set1/green.gif","img/card_backs/set2/gray.gif","img/card_backs/set2/orange.gif","img/card_backs/set2/pink.gif","img/card_backs/set2/blue.gif","""event"",""trial"",""time""
""fullscreenenter"",""1"",""1657""
","
","
","""event"",""trial"",""time""
""fullscreenenter"",""1"",""1657""
","
","","","","","","","","","","","","",""
"fullscreen","1","2593","0.0-1.0","311","false","img/card_backs/set1/purple.gif","img/card_backs/set1/red.gif","img/card_backs/set1/yellow.gif","img/card_backs/set1/green.gif","img/card_backs/set2/gray.gif","img/card_backs/set2/orange.gif","img/card_backs/set2/pink.gif","img/card_backs/set2/blue.gif","""event"",""trial"",""time""
""fullscreenenter"",""1"",""1657""
","
","
","""event"",""trial"",""time""
""fullscreenenter"",""1"",""1657""
","
","true","","","","","","","","","","","",""
"audio-keyboard-response","2","3680","0.0-2.0","311","false","img/card_backs/set1/purple.gif","img/card_backs/set1/red.gif","img/card_backs/set1/yellow.gif","img/card_backs/set1/green.gif","img/card_backs/set2/gray.gif","img/card_backs/set2/orange.gif","img/card_backs/set2/pink.gif","img/card_backs/set2/blue.gif","""event"",""trial"",""time""
""fullscreenenter"",""1"",""1657""
","
","
","""event"",""trial"",""time""
""fullscreenenter"",""1"",""1657""
","
","","891","audio/beep_loop.wav","32","","","","","","","","",""
"audio-button-response","3","5244","0.0-3.0","311","false","img/card_backs/set1/purple.gif","img/card_backs/set1/red.gif","img/card_backs/set1/yellow.gif","img/card_backs/set1/green.gif","img/card_backs/set2/gray.gif","img/card_backs/set2/orange.gif","img/card_backs/set2/pink.gif","img/card_backs/set2/blue.gif","""event"",""trial"",""time""
""fullscreenenter"",""1"",""1657""
","
","
","""event"",""trial"",""time""
""fullscreenenter"",""1"",""1657""
","
","","NaN","audio/turtle.mp3","","3","","","","","","","",""
"audio-button-response","4","7426","0.0-4.0","311","false","img/card_backs/set1/purple.gif","img/card_backs/set1/red.gif","img/card_backs/set1/yellow.gif","img/card_backs/set1/green.gif","img/card_backs/set2/gray.gif","img/card_backs/set2/orange.gif","img/card_backs/set2/pink.gif","img/card_backs/set2/blue.gif","""event"",""trial"",""time""
""fullscreenenter"",""1"",""1657""
","
","
","""event"",""trial"",""time""
""fullscreenenter"",""1"",""1657""
","
","","NaN","audio/shark.mp3","","2","","","","","","","",""
"fullscreen","5","10390","0.0-5.0","311","false","img/card_backs/set1/purple.gif","img/card_backs/set1/red.gif","img/card_backs/set1/yellow.gif","img/card_backs/set1/green.gif","img/card_backs/set2/gray.gif","img/card_backs/set2/orange.gif","img/card_backs/set2/pink.gif","img/card_backs/set2/blue.gif","""event"",""trial"",""time""
""fullscreenenter"",""1"",""1657""
","
","
","""event"",""trial"",""time""
""fullscreenenter"",""1"",""1657""
","
","true","","","","","","","","","","","",""
"casino-keyboard-response","6","13182","0.0-6.0-0.0","311","false","img/card_backs/set1/purple.gif","img/card_backs/set1/red.gif","img/card_backs/set1/yellow.gif","img/card_backs/set1/green.gif","img/card_backs/set2/gray.gif","img/card_backs/set2/orange.gif","img/card_backs/set2/pink.gif","img/card_backs/set2/blue.gif","""event"",""trial"",""time""
""fullscreenenter"",""1"",""1657""
","
","
","""event"",""trial"",""time""
""fullscreenenter"",""1"",""1657""
","
","","2785.600000023842","Welcome to the casino!","71","","instructions","2021-08-10 16:43:51.878","","","","","",""
"casino-keyboard-response","7","22425","0.0-6.0-0.1","311","false","img/card_backs/set1/purple.gif","img/card_backs/set1/red.gif","img/card_backs/set1/yellow.gif","img/card_backs/set1/green.gif","img/card_backs/set2/gray.gif","img/card_backs/set2/orange.gif","img/card_backs/set2/pink.gif","img/card_backs/set2/blue.gif","""event"",""trial"",""time""
""fullscreenenter"",""1"",""1657""
","
","
","""event"",""trial"",""time""
""fullscreenenter"",""1"",""1657""
","
","","9240.899999976158","Today you will be playing a game to earn tokens. </br> At the end of the experiment, you will be paid a bonus based on how many tokens you win. ","69","","instructions","2021-08-10 16:44:01.122","","","","","",""
"casino-keyboard-response","8","29955","0.0-6.0-0.2","311","false","img/card_backs/set1/purple.gif","img/card_backs/set1/red.gif","img/card_backs/set1/yellow.gif","img/card_backs/set1/green.gif","img/card_backs/set2/gray.gif","img/card_backs/set2/orange.gif","img/card_backs/set2/pink.gif","img/card_backs/set2/blue.gif","""event"",""trial"",""time""
""fullscreenenter"",""1"",""1657""
","
","
","""event"",""trial"",""time""
""fullscreenenter"",""1"",""1657""
","
","","7526.099999904633","On every turn, you will be shown four different decks of cards. </br> You need to select a card from one of the four decks.  ","75","","instructions","2021-08-10 16:44:08.651","","","","","",""
"casino-keyboard-response","9","34459","0.0-6.0-0.3","311","false","img/card_backs/set1/purple.gif","img/card_backs/set1/red.gif","img/card_backs/set1/yellow.gif","img/card_backs/set1/green.gif","img/card_backs/set2/gray.gif","img/card_backs/set2/orange.gif","img/card_backs/set2/pink.gif","img/card_backs/set2/blue.gif","""event"",""trial"",""time""
""fullscreenenter"",""1"",""1657""
","
","
","""event"",""trial"",""time""
""fullscreenenter"",""1"",""1657""
","
","","4501.800000071526","On the next screen, you will see what the decks will look like. ","66","","instructions","2021-08-10 16:44:13.155","","","","","",""
"card-selection-trial","10","38470","0.0-7.0-0.0","311","false","img/card_backs/set1/purple.gif","img/card_backs/set1/red.gif","img/card_backs/set1/yellow.gif","img/card_backs/set1/green.gif","img/card_backs/set2/gray.gif","img/card_backs/set2/orange.gif","img/card_backs/set2/pink.gif","img/card_backs/set2/blue.gif","""event"",""trial"",""time""
""fullscreenenter"",""1"",""1657""
","
","
","""event"",""trial"",""time""
""fullscreenenter"",""1"",""1657""
","
","","null","","","","practice","2021-08-10 16:44:17.166","null","null","null","0","",""
"casino-keyboard-response","11","45707","0.0-8.0-0.0","311","false","img/card_backs/set1/purple.gif","img/card_backs/set1/red.gif","img/card_backs/set1/yellow.gif","img/card_backs/set1/green.gif","img/card_backs/set2/gray.gif","img/card_backs/set2/orange.gif","img/card_backs/set2/pink.gif","img/card_backs/set2/blue.gif","""event"",""trial"",""time""
""fullscreenenter"",""1"",""1657""
","
","
","""event"",""trial"",""time""
""fullscreenenter"",""1"",""1657""
","
","","7235.799999952316","You should pick a card from a deck using the '2', '4', '6', and '8' keys at the top of the keyboard.","85","","instructions","2021-08-10 16:44:24.404","","","","","",""
"casino-keyboard-response","12","50712","0.0-8.0-0.1","311","false","img/card_backs/set1/purple.gif","img/card_backs/set1/red.gif","img/card_backs/set1/yellow.gif","img/card_backs/set1/green.gif","img/card_backs/set2/gray.gif","img/card_backs/set2/orange.gif","img/card_backs/set2/pink.gif","img/card_backs/set2/blue.gif","""event"",""trial"",""time""
""fullscreenenter"",""1"",""1657""
","
","
","""event"",""trial"",""time""
""fullscreenenter"",""1"",""1657""
","
","","5001.800000071526","Once you select a card, it will turn over and you will see how many tokens you earned.","83","","instructions","2021-08-10 16:44:29.408","","","","","",""
"casino-keyboard-response","13","65190","0.0-8.0-0.2","311","false","img/card_backs/set1/purple.gif","img/card_backs/set1/red.gif","img/card_backs/set1/yellow.gif","img/card_backs/set1/green.gif","img/card_backs/set2/gray.gif","img/card_backs/set2/orange.gif","img/card_backs/set2/pink.gif","img/card_backs/set2/blue.gif","""event"",""trial"",""time""
""fullscreenenter"",""1"",""1657""
","
","
","""event"",""trial"",""time""
""fullscreenenter"",""1"",""1657""
","
","","14476","Let's try practicing that! </br> First, try to put your fingers over the '2', '4', '6', and '8' keys. </br>  You can use whatever fingers are most comfortable for you. Try to find a comfortable position now. ","50","","instructions","2021-08-10 16:44:43.886","","","","","",""
"casino-keyboard-response","14","70825","0.0-8.0-0.3","311","false","img/card_backs/set1/purple.gif","img/card_backs/set1/red.gif","img/card_backs/set1/yellow.gif","img/card_backs/set1/green.gif","img/card_backs/set2/gray.gif","img/card_backs/set2/orange.gif","img/card_backs/set2/pink.gif","img/card_backs/set2/blue.gif","""event"",""trial"",""time""
""fullscreenenter"",""1"",""1657""
","
","
","""event"",""trial"",""time""
""fullscreenenter"",""1"",""1657""
","
","","5632.199999928474","Okay ready? </br> On the next screen, press '2' to select the left deck. ","50","","instructions","2021-08-10 16:44:49.521","","","","","",""
"card-selection-trial","15","74451","0.0-9.0-0.0","311","false","img/card_backs/set1/purple.gif","img/card_backs/set1/red.gif","img/card_backs/set1/yellow.gif","img/card_backs/set1/green.gif","img/card_backs/set2/gray.gif","img/card_backs/set2/orange.gif","img/card_backs/set2/pink.gif","img/card_backs/set2/blue.gif","""event"",""trial"",""time""
""fullscreenenter"",""1"",""1657""
","
","
","""event"",""trial"",""time""
""fullscreenenter"",""1"",""1657""
","
","","1610.5","","","","practice_card_selection","2021-08-10 16:44:53.148","img/practice_cards/backs/dark_green.gif","0","-200","","",""
"casino-keyboard-response","16","80133","0.0-10.0-0.0","311","false","img/card_backs/set1/purple.gif","img/card_backs/set1/red.gif","img/card_backs/set1/yellow.gif","img/card_backs/set1/green.gif","img/card_backs/set2/gray.gif","img/card_backs/set2/orange.gif","img/card_backs/set2/pink.gif","img/card_backs/set2/blue.gif","""event"",""trial"",""time""
""fullscreenenter"",""1"",""1657""
","
","
","""event"",""trial"",""time""
""fullscreenenter"",""1"",""1657""
","
","","5678.799999952316","Great! Now on the next screen, try pressing '6' to select the third deck.","54","","instructions","2021-08-10 16:44:58.829","","","","","",""
"card-selection-trial","17","83135","0.0-11.0-0.0","311","false","img/card_backs/set1/purple.gif","img/card_backs/set1/red.gif","img/card_backs/set1/yellow.gif","img/card_backs/set1/green.gif","img/card_backs/set2/gray.gif","img/card_backs/set2/orange.gif","img/card_backs/set2/pink.gif","img/card_backs/set2/blue.gif","""event"",""trial"",""time""
""fullscreenenter"",""1"",""1657""
","
","
","""event"",""trial"",""time""
""fullscreenenter"",""1"",""1657""
","
","","992.9000000953674","","","","practice_card_selection","2021-08-10 16:45:01.832","img/practice_cards/backs/dark_blue.gif","2","200","","",""
"casino-keyboard-response","18","87971","0.0-12.0-0.0","311","false","img/card_backs/set1/purple.gif","img/card_backs/set1/red.gif","img/card_backs/set1/yellow.gif","img/card_backs/set1/green.gif","img/card_backs/set2/gray.gif","img/card_backs/set2/orange.gif","img/card_backs/set2/pink.gif","img/card_backs/set2/blue.gif","""event"",""trial"",""time""
""fullscreenenter"",""1"",""1657""
","
","
","""event"",""trial"",""time""
""fullscreenenter"",""1"",""1657""
","
","","4833.899999976158","Now on the next screen, try pressing '4' to select the second deck.","52","","instructions","2021-08-10 16:45:06.667","","","","","",""
"card-selection-trial","19","90989","0.0-13.0-0.0","311","false","img/card_backs/set1/purple.gif","img/card_backs/set1/red.gif","img/card_backs/set1/yellow.gif","img/card_backs/set1/green.gif","img/card_backs/set2/gray.gif","img/card_backs/set2/orange.gif","img/card_backs/set2/pink.gif","img/card_backs/set2/blue.gif","""event"",""trial"",""time""
""fullscreenenter"",""1"",""1657""
","
","
","""event"",""trial"",""time""
""fullscreenenter"",""1"",""1657""
","
","","1005.6000000238419","","","","practice_card_selection","2021-08-10 16:45:09.685","img/practice_cards/backs/black.gif","1","-100","","",""
"casino-keyboard-response","20","95368","0.0-14.0-0.0","311","false","img/card_backs/set1/purple.gif","img/card_backs/set1/red.gif","img/card_backs/set1/yellow.gif","img/card_backs/set1/green.gif","img/card_backs/set2/gray.gif","img/card_backs/set2/orange.gif","img/card_backs/set2/pink.gif","img/card_backs/set2/blue.gif","""event"",""trial"",""time""
""fullscreenenter"",""1"",""1657""
","
","
","""event"",""trial"",""time""
""fullscreenenter"",""1"",""1657""
","
","","4376.5","Finally, try pressing '8' to select the deck all the way on the right.","56","","instructions","2021-08-10 16:45:14.065","","","","","",""
"card-selection-trial","21","97903","0.0-15.0-0.0","311","false","img/card_backs/set1/purple.gif","img/card_backs/set1/red.gif","img/card_backs/set1/yellow.gif","img/card_backs/set1/green.gif","img/card_backs/set2/gray.gif","img/card_backs/set2/orange.gif","img/card_backs/set2/pink.gif","img/card_backs/set2/blue.gif","""event"",""trial"",""time""
""fullscreenenter"",""1"",""1657""
","
","
","""event"",""trial"",""time""
""fullscreenenter"",""1"",""1657""
","
","","524","","","","practice_card_selection","2021-08-10 16:45:16.599","img/practice_cards/backs/dark_blue.gif","3","200","","",""
"casino-keyboard-response","22","101999","0.0-16.0-0.0","311","false","img/card_backs/set1/purple.gif","img/card_backs/set1/red.gif","img/card_backs/set1/yellow.gif","img/card_backs/set1/green.gif","img/card_backs/set2/gray.gif","img/card_backs/set2/orange.gif","img/card_backs/set2/pink.gif","img/card_backs/set2/blue.gif","""event"",""trial"",""time""
""fullscreenenter"",""1"",""1657""
","
","
","""event"",""trial"",""time""
""fullscreenenter"",""1"",""1657""
","
","","4093.8000000715256","Great! It seems like you are getting the hang of this.","80","","instructions","2021-08-10 16:45:20.695","","","","","",""
"casino-keyboard-response","23","109250","0.0-16.0-0.1","311","false","img/card_backs/set1/purple.gif","img/card_backs/set1/red.gif","img/card_backs/set1/yellow.gif","img/card_backs/set1/green.gif","img/card_backs/set2/gray.gif","img/card_backs/set2/orange.gif","img/card_backs/set2/pink.gif","img/card_backs/set2/blue.gif","""event"",""trial"",""time""
""fullscreenenter"",""1"",""1657""
","
","
","""event"",""trial"",""time""
""fullscreenenter"",""1"",""1657""
","
","","7249","You may have noticed that some cards will cause you to <b> win </b> tokens while other cards will cause you to <b> lose </b>  tokens.","70","","instructions","2021-08-10 16:45:27.946","","","","","",""
"casino-keyboard-response","24","118950","0.0-16.0-0.2","311","false","img/card_backs/set1/purple.gif","img/card_backs/set1/red.gif","img/card_backs/set1/yellow.gif","img/card_backs/set1/green.gif","img/card_backs/set2/gray.gif","img/card_backs/set2/orange.gif","img/card_backs/set2/pink.gif","img/card_backs/set2/blue.gif","""event"",""trial"",""time""
""fullscreenenter"",""1"",""1657""
","
","
","""event"",""trial"",""time""
""fullscreenenter"",""1"",""1657""
","
","","9697.599999904633","Each deck has a mix of cards that will cause you to win and lose tokens. </br> However, the cards in each colored deck are different.","73","","instructions","2021-08-10 16:45:37.646","","","","","",""
"casino-keyboard-response","25","128691","0.0-16.0-0.3","311","false","img/card_backs/set1/purple.gif","img/card_backs/set1/red.gif","img/card_backs/set1/yellow.gif","img/card_backs/set1/green.gif","img/card_backs/set2/gray.gif","img/card_backs/set2/orange.gif","img/card_backs/set2/pink.gif","img/card_backs/set2/blue.gif","""event"",""trial"",""time""
""fullscreenenter"",""1"",""1657""
","
","
","""event"",""trial"",""time""
""fullscreenenter"",""1"",""1657""
","
","","9738.600000023842","Some colored decks are luckier than others. </br> If you choose the lucky decks, you will earn more tokens than if you choose the unlucky decks.","69","","instructions","2021-08-10 16:45:47.387","","","","","",""
"casino-keyboard-response","26","139351","0.0-16.0-0.4","311","false","img/card_backs/set1/purple.gif","img/card_backs/set1/red.gif","img/card_backs/set1/yellow.gif","img/card_backs/set1/green.gif","img/card_backs/set2/gray.gif","img/card_backs/set2/orange.gif","img/card_backs/set2/pink.gif","img/card_backs/set2/blue.gif","""event"",""trial"",""time""
""fullscreenenter"",""1"",""1657""
","
","
","""event"",""trial"",""time""
""fullscreenenter"",""1"",""1657""
","
","","10658.199999928474","You should try to figure out which decks are lucky. </br> Then, try to choose the lucky decks so you can win the most tokens.","87","","instructions","2021-08-10 16:45:58.047","","","","","",""
"casino-keyboard-response","27","152998","0.0-16.0-0.5","311","false","img/card_backs/set1/purple.gif","img/card_backs/set1/red.gif","img/card_backs/set1/yellow.gif","img/card_backs/set1/green.gif","img/card_backs/set2/gray.gif","img/card_backs/set2/orange.gif","img/card_backs/set2/pink.gif","img/card_backs/set2/blue.gif","""event"",""trial"",""time""
""fullscreenenter"",""1"",""1657""
","
","
","""event"",""trial"",""time""
""fullscreenenter"",""1"",""1657""
","
","","13645.100000023842","To make it trickier, the casino dealer will switch the locations of the decks on every turn. </br> The color of the deck determines how lucky it is. The location does not matter.","88","","instructions","2021-08-10 16:46:11.694","","","","","",""
"casino-keyboard-response","28","162298","0.0-16.0-0.6","311","false","img/card_backs/set1/purple.gif","img/card_backs/set1/red.gif","img/card_backs/set1/yellow.gif","img/card_backs/set1/green.gif","img/card_backs/set2/gray.gif","img/card_backs/set2/orange.gif","img/card_backs/set2/pink.gif","img/card_backs/set2/blue.gif","""event"",""trial"",""time""
""fullscreenenter"",""1"",""1657""
","
","
","""event"",""trial"",""time""
""fullscreenenter"",""1"",""1657""
","
","","9298.199999928474","The mix of cards in each colored deck will stay the same throughout the game. </br> That means that a deck that is lucky early on will stay lucky.","79","","instructions","2021-08-10 16:46:20.994","","","","","",""
"casino-keyboard-response","29","170253","0.0-16.0-0.7","311","false","img/card_backs/set1/purple.gif","img/card_backs/set1/red.gif","img/card_backs/set1/yellow.gif","img/card_backs/set1/green.gif","img/card_backs/set2/gray.gif","img/card_backs/set2/orange.gif","img/card_backs/set2/pink.gif","img/card_backs/set2/blue.gif","""event"",""trial"",""time""
""fullscreenenter"",""1"",""1657""
","
","
","""event"",""trial"",""time""
""fullscreenenter"",""1"",""1657""
","
","","7951.899999976158","Remember though, all the decks have a <b> mix </b> of both <b> good </b> and <b> bad </b> cards so it may take a couple of turns to figure out if a deck is lucky.","69","","instructions","2021-08-10 16:46:28.949","","","","","",""
"casino-keyboard-response","30","178529","0.0-16.0-0.8","311","false","img/card_backs/set1/purple.gif","img/card_backs/set1/red.gif","img/card_backs/set1/yellow.gif","img/card_backs/set1/green.gif","img/card_backs/set2/gray.gif","img/card_backs/set2/orange.gif","img/card_backs/set2/pink.gif","img/card_backs/set2/blue.gif","""event"",""trial"",""time""
""fullscreenenter"",""1"",""1657""
","
","
","""event"",""trial"",""time""
""fullscreenenter"",""1"",""1657""
","
","","8273.799999952316","At the end of the game, you will be paid bonus money based on how many tokens you win. </br> If you win more tokens, you will earn more money!","72","","instructions","2021-08-10 16:46:37.225","","","","","",""
"casino-keyboard-response","31","188982","0.0-16.0-0.9","311","false","img/card_backs/set1/purple.gif","img/card_backs/set1/red.gif","img/card_backs/set1/yellow.gif","img/card_backs/set1/green.gif","img/card_backs/set2/gray.gif","img/card_backs/set2/orange.gif","img/card_backs/set2/pink.gif","img/card_backs/set2/blue.gif","""event"",""trial"",""time""
""fullscreenenter"",""1"",""1657""
","
","
","""event"",""trial"",""time""
""fullscreenenter"",""1"",""1657""
","
","","10450.600000023842","You will never <b> lose </b> money. </br> If you end up with fewer than 0 tokens, you will earn $0 of bonus money, but you will still be paid for playing the game.","83","","instructions","2021-08-10 16:46:47.678","","","","","",""
"casino-keyboard-response","32","193053","0.0-16.0-0.10","311","false","img/card_backs/set1/purple.gif","img/card_backs/set1/red.gif","img/card_backs/set1/yellow.gif","img/card_backs/set1/green.gif","img/card_backs/set2/gray.gif","img/card_backs/set2/orange.gif","img/card_backs/set2/pink.gif","img/card_backs/set2/blue.gif","""event"",""trial"",""time""
""fullscreenenter"",""1"",""1657""
","
","
","""event"",""trial"",""time""
""fullscreenenter"",""1"",""1657""
","
","","4068.600000023842","You will have 10 seconds to make each choice.","82","","instructions","2021-08-10 16:46:51.749","","","","","",""
"casino-keyboard-response","33","202232","0.0-16.0-0.11","311","false","img/card_backs/set1/purple.gif","img/card_backs/set1/red.gif","img/card_backs/set1/yellow.gif","img/card_backs/set1/green.gif","img/card_backs/set2/gray.gif","img/card_backs/set2/orange.gif","img/card_backs/set2/pink.gif","img/card_backs/set2/blue.gif","""event"",""trial"",""time""
""fullscreenenter"",""1"",""1657""
","
","
","""event"",""trial"",""time""
""fullscreenenter"",""1"",""1657""
","
","","9174.900000095367","Before you play the game for real, you will play with practice decks. </br> The tokens you earn during practice won't count toward your total.","86","","instructions","2021-08-10 16:47:00.928","","","","","",""
"casino-keyboard-response","34","210040","0.0-16.0-0.12","311","false","img/card_backs/set1/purple.gif","img/card_backs/set1/red.gif","img/card_backs/set1/yellow.gif","img/card_backs/set1/green.gif","img/card_backs/set2/gray.gif","img/card_backs/set2/orange.gif","img/card_backs/set2/pink.gif","img/card_backs/set2/blue.gif","""event"",""trial"",""time""
""fullscreenenter"",""1"",""1657""
","
","
","""event"",""trial"",""time""
""fullscreenenter"",""1"",""1657""
","
","","7805.5","Ready? Remember, use the '2', '4', '6', and '8' keys to select the decks. </br> Put your fingers on those keys now and then press '2' to begin.","50","","instructions","2021-08-10 16:47:08.736","","","","","",""
"casino-fixation","35","210544","0.0-17.0-0.0","311","false","img/card_backs/set1/purple.gif","img/card_backs/set1/red.gif","img/card_backs/set1/yellow.gif","img/card_backs/set1/green.gif","img/card_backs/set2/gray.gif","img/card_backs/set2/orange.gif","img/card_backs/set2/pink.gif","img/card_backs/set2/blue.gif","""event"",""trial"",""time""
""fullscreenenter"",""1"",""1657""
","
","
","""event"",""trial"",""time""
""fullscreenenter"",""1"",""1657""
","
","","null","","null","","fixation","2021-08-10 16:47:09.240","","","","","",""
"card-selection-trial","36","213662","0.0-17.0-1.0","311","false","img/card_backs/set1/purple.gif","img/card_backs/set1/red.gif","img/card_backs/set1/yellow.gif","img/card_backs/set1/green.gif","img/card_backs/set2/gray.gif","img/card_backs/set2/orange.gif","img/card_backs/set2/pink.gif","img/card_backs/set2/blue.gif","""event"",""trial"",""time""
""fullscreenenter"",""1"",""1657""
","
","
","""event"",""trial"",""time""
""fullscreenenter"",""1"",""1657""
","
","","1107.6999999284744","","","","practice","2021-08-10 16:47:12.358","img/practice_cards/backs/black.gif","1","100","0","",""
"casino-fixation","37","214170","0.0-17.0-0.1","311","false","img/card_backs/set1/purple.gif","img/card_backs/set1/red.gif","img/card_backs/set1/yellow.gif","img/card_backs/set1/green.gif","img/card_backs/set2/gray.gif","img/card_backs/set2/orange.gif","img/card_backs/set2/pink.gif","img/card_backs/set2/blue.gif","""event"",""trial"",""time""
""fullscreenenter"",""1"",""1657""
","
","
","""event"",""trial"",""time""
""fullscreenenter"",""1"",""1657""
","
","","null","","null","","fixation","2021-08-10 16:47:12.866","","","","","",""
"card-selection-trial","38","217277","0.0-17.0-1.1","311","false","img/card_backs/set1/purple.gif","img/card_backs/set1/red.gif","img/card_backs/set1/yellow.gif","img/card_backs/set1/green.gif","img/card_backs/set2/gray.gif","img/card_backs/set2/orange.gif","img/card_backs/set2/pink.gif","img/card_backs/set2/blue.gif","""event"",""trial"",""time""
""fullscreenenter"",""1"",""1657""
","
","
","""event"",""trial"",""time""
""fullscreenenter"",""1"",""1657""
","
","","1093.1000000238419","","","","practice","2021-08-10 16:47:15.973","img/practice_cards/backs/dark_green.gif","2","-200","0","",""
"casino-fixation","39","217783","0.0-17.0-0.2","311","false","img/card_backs/set1/purple.gif","img/card_backs/set1/red.gif","img/card_backs/set1/yellow.gif","img/card_backs/set1/green.gif","img/card_backs/set2/gray.gif","img/card_backs/set2/orange.gif","img/card_backs/set2/pink.gif","img/card_backs/set2/blue.gif","""event"",""trial"",""time""
""fullscreenenter"",""1"",""1657""
","
","
","""event"",""trial"",""time""
""fullscreenenter"",""1"",""1657""
","
","","null","","null","","fixation","2021-08-10 16:47:16.479","","","","","",""
"card-selection-trial","40","220192","0.0-17.0-1.2","311","false","img/card_backs/set1/purple.gif","img/card_backs/set1/red.gif","img/card_backs/set1/yellow.gif","img/card_backs/set1/green.gif","img/card_backs/set2/gray.gif","img/card_backs/set2/orange.gif","img/card_backs/set2/pink.gif","img/card_backs/set2/blue.gif","""event"",""trial"",""time""
""fullscreenenter"",""1"",""1657""
","
","
","""event"",""trial"",""time""
""fullscreenenter"",""1"",""1657""
","
","","397.10000002384186","","","","practice","2021-08-10 16:47:18.888","img/practice_cards/backs/dark_blue.gif","3","200","0","",""
"casino-fixation","41","220699","0.0-17.0-0.3","311","false","img/card_backs/set1/purple.gif","img/card_backs/set1/red.gif","img/card_backs/set1/yellow.gif","img/card_backs/set1/green.gif","img/card_backs/set2/gray.gif","img/card_backs/set2/orange.gif","img/card_backs/set2/pink.gif","img/card_backs/set2/blue.gif","""event"",""trial"",""time""
""fullscreenenter"",""1"",""1657""
","
","
","""event"",""trial"",""time""
""fullscreenenter"",""1"",""1657""
","
","","null","","null","","fixation","2021-08-10 16:47:19.395","","","","","",""
"card-selection-trial","42","223629","0.0-17.0-1.3","311","false","img/card_backs/set1/purple.gif","img/card_backs/set1/red.gif","img/card_backs/set1/yellow.gif","img/card_backs/set1/green.gif","img/card_backs/set2/gray.gif","img/card_backs/set2/orange.gif","img/card_backs/set2/pink.gif","img/card_backs/set2/blue.gif","""event"",""trial"",""time""
""fullscreenenter"",""1"",""1657""
","
","
","""event"",""trial"",""time""
""fullscreenenter"",""1"",""1657""
","
","","917.6000000238419","","","","practice","2021-08-10 16:47:22.325","img/practice_cards/backs/dark_blue.gif","1","-200","0","",""
"casino-fixation","43","224135","0.0-17.0-0.4","311","false","img/card_backs/set1/purple.gif","img/card_backs/set1/red.gif","img/card_backs/set1/yellow.gif","img/card_backs/set1/green.gif","img/card_backs/set2/gray.gif","img/card_backs/set2/orange.gif","img/card_backs/set2/pink.gif","img/card_backs/set2/blue.gif","""event"",""trial"",""time""
""fullscreenenter"",""1"",""1657""
","
","
","""event"",""trial"",""time""
""fullscreenenter"",""1"",""1657""
","
","","null","","null","","fixation","2021-08-10 16:47:22.831","","","","","",""
"card-selection-trial","44","226785","0.0-17.0-1.4","311","false","img/card_backs/set1/purple.gif","img/card_backs/set1/red.gif","img/card_backs/set1/yellow.gif","img/card_backs/set1/green.gif","img/card_backs/set2/gray.gif","img/card_backs/set2/orange.gif","img/card_backs/set2/pink.gif","img/card_backs/set2/blue.gif","""event"",""trial"",""time""
""fullscreenenter"",""1"",""1657""
","
","
","""event"",""trial"",""time""
""fullscreenenter"",""1"",""1657""
","
","","639.3999999761581","","","","practice","2021-08-10 16:47:25.481","img/practice_cards/backs/dark_blue.gif","3","200","0","",""
"casino-fixation","45","227290","0.0-17.0-0.5","311","false","img/card_backs/set1/purple.gif","img/card_backs/set1/red.gif","img/card_backs/set1/yellow.gif","img/card_backs/set1/green.gif","img/card_backs/set2/gray.gif","img/card_backs/set2/orange.gif","img/card_backs/set2/pink.gif","img/card_backs/set2/blue.gif","""event"",""trial"",""time""
""fullscreenenter"",""1"",""1657""
","
","
","""event"",""trial"",""time""
""fullscreenenter"",""1"",""1657""
","
","","null","","null","","fixation","2021-08-10 16:47:25.987","","","","","",""
"card-selection-trial","46","230199","0.0-17.0-1.5","311","false","img/card_backs/set1/purple.gif","img/card_backs/set1/red.gif","img/card_backs/set1/yellow.gif","img/card_backs/set1/green.gif","img/card_backs/set2/gray.gif","img/card_backs/set2/orange.gif","img/card_backs/set2/pink.gif","img/card_backs/set2/blue.gif","""event"",""trial"",""time""
""fullscreenenter"",""1"",""1657""
","
","
","""event"",""trial"",""time""
""fullscreenenter"",""1"",""1657""
","
","","896","","","","practice","2021-08-10 16:47:28.895","img/practice_cards/backs/brown.gif","0","100","0","",""
"casino-fixation","47","230704","0.0-17.0-0.6","311","false","img/card_backs/set1/purple.gif","img/card_backs/set1/red.gif","img/card_backs/set1/yellow.gif","img/card_backs/set1/green.gif","img/card_backs/set2/gray.gif","img/card_backs/set2/orange.gif","img/card_backs/set2/pink.gif","img/card_backs/set2/blue.gif","""event"",""trial"",""time""
""fullscreenenter"",""1"",""1657""
","
","
","""event"",""trial"",""time""
""fullscreenenter"",""1"",""1657""
","
","","null","","null","","fixation","2021-08-10 16:47:29.400","","","","","",""
"card-selection-trial","48","233403","0.0-17.0-1.6","311","false","img/card_backs/set1/purple.gif","img/card_backs/set1/red.gif","img/card_backs/set1/yellow.gif","img/card_backs/set1/green.gif","img/card_backs/set2/gray.gif","img/card_backs/set2/orange.gif","img/card_backs/set2/pink.gif","img/card_backs/set2/blue.gif","""event"",""trial"",""time""
""fullscreenenter"",""1"",""1657""
","
","
","""event"",""trial"",""time""
""fullscreenenter"",""1"",""1657""
","
","","685.5999999046326","","","","practice","2021-08-10 16:47:32.099","img/practice_cards/backs/dark_green.gif","3","200","0","",""
"casino-fixation","49","233908","0.0-17.0-0.7","311","false","img/card_backs/set1/purple.gif","img/card_backs/set1/red.gif","img/card_backs/set1/yellow.gif","img/card_backs/set1/green.gif","img/card_backs/set2/gray.gif","img/card_backs/set2/orange.gif","img/card_backs/set2/pink.gif","img/card_backs/set2/blue.gif","""event"",""trial"",""time""
""fullscreenenter"",""1"",""1657""
","
","
","""event"",""trial"",""time""
""fullscreenenter"",""1"",""1657""
","
","","null","","null","","fixation","2021-08-10 16:47:32.604","","","","","",""
"card-selection-trial","50","236425","0.0-17.0-1.7","311","false","img/card_backs/set1/purple.gif","img/card_backs/set1/red.gif","img/card_backs/set1/yellow.gif","img/card_backs/set1/green.gif","img/card_backs/set2/gray.gif","img/card_backs/set2/orange.gif","img/card_backs/set2/pink.gif","img/card_backs/set2/blue.gif","""event"",""trial"",""time""
""fullscreenenter"",""1"",""1657""
","
","
","""event"",""trial"",""time""
""fullscreenenter"",""1"",""1657""
","
","","506.5","","","","practice","2021-08-10 16:47:35.121","img/practice_cards/backs/dark_green.gif","3","-200","0","",""
"casino-fixation","51","236932","0.0-17.0-0.8","311","false","img/card_backs/set1/purple.gif","img/card_backs/set1/red.gif","img/card_backs/set1/yellow.gif","img/card_backs/set1/green.gif","img/card_backs/set2/gray.gif","img/card_backs/set2/orange.gif","img/card_backs/set2/pink.gif","img/card_backs/set2/blue.gif","""event"",""trial"",""time""
""fullscreenenter"",""1"",""1657""
","
","
","""event"",""trial"",""time""
""fullscreenenter"",""1"",""1657""
","
","","null","","null","","fixation","2021-08-10 16:47:35.628","","","","","",""
"card-selection-trial","52","240758","0.0-17.0-1.8","311","false","img/card_backs/set1/purple.gif","img/card_backs/set1/red.gif","img/card_backs/set1/yellow.gif","img/card_backs/set1/green.gif","img/card_backs/set2/gray.gif","img/card_backs/set2/orange.gif","img/card_backs/set2/pink.gif","img/card_backs/set2/blue.gif","""event"",""trial"",""time""
""fullscreenenter"",""1"",""1657""
","
","
","""event"",""trial"",""time""
""fullscreenenter"",""1"",""1657""
","
","","1813.2999999523163","","","","practice","2021-08-10 16:47:39.454","img/practice_cards/backs/brown.gif","2","-100","0","",""
"casino-fixation","53","241264","0.0-17.0-0.9","311","false","img/card_backs/set1/purple.gif","img/card_backs/set1/red.gif","img/card_backs/set1/yellow.gif","img/card_backs/set1/green.gif","img/card_backs/set2/gray.gif","img/card_backs/set2/orange.gif","img/card_backs/set2/pink.gif","img/card_backs/set2/blue.gif","""event"",""trial"",""time""
""fullscreenenter"",""1"",""1657""
","
","
","""event"",""trial"",""time""
""fullscreenenter"",""1"",""1657""
","
","","null","","null","","fixation","2021-08-10 16:47:39.960","","","","","",""
"card-selection-trial","54","243837","0.0-17.0-1.9","311","false","img/card_backs/set1/purple.gif","img/card_backs/set1/red.gif","img/card_backs/set1/yellow.gif","img/card_backs/set1/green.gif","img/card_backs/set2/gray.gif","img/card_backs/set2/orange.gif","img/card_backs/set2/pink.gif","img/card_backs/set2/blue.gif","""event"",""trial"",""time""
""fullscreenenter"",""1"",""1657""
","
","
","""event"",""trial"",""time""
""fullscreenenter"",""1"",""1657""
","
","","559.8999999761581","","","","practice","2021-08-10 16:47:42.533","img/practice_cards/backs/dark_green.gif","1","-200","0","",""
"casino-keyboard-response","55","247526","0.0-18.0","311","false","img/card_backs/set1/purple.gif","img/card_backs/set1/red.gif","img/card_backs/set1/yellow.gif","img/card_backs/set1/green.gif","img/card_backs/set2/gray.gif","img/card_backs/set2/orange.gif","img/card_backs/set2/pink.gif","img/card_backs/set2/blue.gif","""event"",""trial"",""time""
""fullscreenenter"",""1"",""1657""
","
","
","""event"",""trial"",""time""
""fullscreenenter"",""1"",""1657""
","
","","3685.600000023842","You earned -100 tokens during the practice round!","82","","","2021-08-10 16:47:46.222","","","","","",""
"casino-keyboard-response","56","251575","0.0-19.0-0.0","311","false","img/card_backs/set1/purple.gif","img/card_backs/set1/red.gif","img/card_backs/set1/yellow.gif","img/card_backs/set1/green.gif","img/card_backs/set2/gray.gif","img/card_backs/set2/orange.gif","img/card_backs/set2/pink.gif","img/card_backs/set2/blue.gif","""event"",""trial"",""time""
""fullscreenenter"",""1"",""1657""
","
","
","""event"",""trial"",""time""
""fullscreenenter"",""1"",""1657""
","
","","4046.100000023842","Nice job! You are almost ready to play the real game.","86","","instructions","2021-08-10 16:47:50.271","","","","","",""
"casino-keyboard-response","57","257830","0.0-19.0-0.1","311","false","img/card_backs/set1/purple.gif","img/card_backs/set1/red.gif","img/card_backs/set1/yellow.gif","img/card_backs/set1/green.gif","img/card_backs/set2/gray.gif","img/card_backs/set2/orange.gif","img/card_backs/set2/pink.gif","img/card_backs/set2/blue.gif","""event"",""trial"",""time""
""fullscreenenter"",""1"",""1657""
","
","
","""event"",""trial"",""time""
""fullscreenenter"",""1"",""1657""
","
","","6252.900000095367","You will play two rounds of the real game. In each round, you will pick 100 cards in total.","73","","instructions","2021-08-10 16:47:56.526","","","","","",""
"casino-keyboard-response","58","261678","0.0-19.0-0.2","311","false","img/card_backs/set1/purple.gif","img/card_backs/set1/red.gif","img/card_backs/set1/yellow.gif","img/card_backs/set1/green.gif","img/card_backs/set2/gray.gif","img/card_backs/set2/orange.gif","img/card_backs/set2/pink.gif","img/card_backs/set2/blue.gif","""event"",""trial"",""time""
""fullscreenenter"",""1"",""1657""
","
","
","""event"",""trial"",""time""
""fullscreenenter"",""1"",""1657""
","
","","3844.7999999523163","We are now going to ask you some questions about how the game works.","66","","instructions","2021-08-10 16:48:00.376","","","","","",""
"casino-keyboard-response","59","267513","0.0-19.0-0.3","311","false","img/card_backs/set1/purple.gif","img/card_backs/set1/red.gif","img/card_backs/set1/yellow.gif","img/card_backs/set1/green.gif","img/card_backs/set2/gray.gif","img/card_backs/set2/orange.gif","img/card_backs/set2/pink.gif","img/card_backs/set2/blue.gif","""event"",""trial"",""time""
""fullscreenenter"",""1"",""1657""
","
","
","""event"",""trial"",""time""
""fullscreenenter"",""1"",""1657""
","
","","5831.100000023842","Answer carefully. You will not be able to begin the game until you answer them correctly.","67","","instructions","2021-08-10 16:48:06.209","","","","","",""
"casino-comp_q","60","273792","0.0-20.0-0.0","311","false","img/card_backs/set1/purple.gif","img/card_backs/set1/red.gif","img/card_backs/set1/yellow.gif","img/card_backs/set1/green.gif","img/card_backs/set2/gray.gif","img/card_backs/set2/orange.gif","img/card_backs/set2/pink.gif","img/card_backs/set2/blue.gif","""event"",""trial"",""time""
""fullscreenenter"",""1"",""1657""
","
","
","""event"",""trial"",""time""
""fullscreenenter"",""1"",""1657""
","
","","6275","True or False: All the decks have some cards that cause you to win tokens and some cards that cause you to lose tokens.","84","","","2021-08-10 16:48:12.488","","","","","",""
"casino-keyboard-response","61","276510","0.0-20.0-1.0","311","false","img/card_backs/set1/purple.gif","img/card_backs/set1/red.gif","img/card_backs/set1/yellow.gif","img/card_backs/set1/green.gif","img/card_backs/set2/gray.gif","img/card_backs/set2/orange.gif","img/card_backs/set2/pink.gif","img/card_backs/set2/blue.gif","""event"",""trial"",""time""
""fullscreenenter"",""1"",""1657""
","
","
","""event"",""trial"",""time""
""fullscreenenter"",""1"",""1657""
","
","","2715.7999999523163","True is correct! All the decks have a mix of winning and losing cards.","77","","","2021-08-10 16:48:15.207","","","","","true",""
"casino-comp_q","62","280098","0.0-21.0-0.0","311","false","img/card_backs/set1/purple.gif","img/card_backs/set1/red.gif","img/card_backs/set1/yellow.gif","img/card_backs/set1/green.gif","img/card_backs/set2/gray.gif","img/card_backs/set2/orange.gif","img/card_backs/set2/pink.gif","img/card_backs/set2/blue.gif","""event"",""trial"",""time""
""fullscreenenter"",""1"",""1657""
","
","
","""event"",""trial"",""time""
""fullscreenenter"",""1"",""1657""
","
","","3584.5999999046326","True or False: You will have as much time as you want to make your response.","70","","","2021-08-10 16:48:18.794","","","","","",""
"casino-keyboard-response","63","286527","0.0-21.0-1.0","311","false","img/card_backs/set1/purple.gif","img/card_backs/set1/red.gif","img/card_backs/set1/yellow.gif","img/card_backs/set1/green.gif","img/card_backs/set2/gray.gif","img/card_backs/set2/orange.gif","img/card_backs/set2/pink.gif","img/card_backs/set2/blue.gif","""event"",""trial"",""time""
""fullscreenenter"",""1"",""1657""
","
","
","""event"",""trial"",""time""
""fullscreenenter"",""1"",""1657""
","
","","6424.200000047684","False is correct! You will only have 10 seconds to make each choice.","75","","","2021-08-10 16:48:25.223","","","","","true",""
"casino-comp_q","64","289430","0.0-22.0-0.0","311","false","img/card_backs/set1/purple.gif","img/card_backs/set1/red.gif","img/card_backs/set1/yellow.gif","img/card_backs/set1/green.gif","img/card_backs/set2/gray.gif","img/card_backs/set2/orange.gif","img/card_backs/set2/pink.gif","img/card_backs/set2/blue.gif","""event"",""trial"",""time""
""fullscreenenter"",""1"",""1657""
","
","
","""event"",""trial"",""time""
""fullscreenenter"",""1"",""1657""
","
","","2901.2000000476837","True or False: The location of the deck determines how lucky it is.","70","","","2021-08-10 16:48:28.126","","","","","",""
"casino-keyboard-response","65","294234","0.0-22.0-1.0","311","false","img/card_backs/set1/purple.gif","img/card_backs/set1/red.gif","img/card_backs/set1/yellow.gif","img/card_backs/set1/green.gif","img/card_backs/set2/gray.gif","img/card_backs/set2/orange.gif","img/card_backs/set2/pink.gif","img/card_backs/set2/blue.gif","""event"",""trial"",""time""
""fullscreenenter"",""1"",""1657""
","
","
","""event"",""trial"",""time""
""fullscreenenter"",""1"",""1657""
","
","","4801.5","False is correct! The <i>color</i>  of the deck determines how lucky or unlucky it is.","68","","","2021-08-10 16:48:32.930","","","","","true",""
"casino-keyboard-response","66","300670","0.0-23.0-0.0","311","false","img/card_backs/set1/purple.gif","img/card_backs/set1/red.gif","img/card_backs/set1/yellow.gif","img/card_backs/set1/green.gif","img/card_backs/set2/gray.gif","img/card_backs/set2/orange.gif","img/card_backs/set2/pink.gif","img/card_backs/set2/blue.gif","""event"",""trial"",""time""
""fullscreenenter"",""1"",""1657""
","
","
","""event"",""trial"",""time""
""fullscreenenter"",""1"",""1657""
","
","","6433.300000071526","Great job! Now it's time to start the real game.","82","","instructions","2021-08-10 16:48:39.366","","","","","",""
"casino-keyboard-response","67","305440","0.0-23.0-0.1","311","false","img/card_backs/set1/purple.gif","img/card_backs/set1/red.gif","img/card_backs/set1/yellow.gif","img/card_backs/set1/green.gif","img/card_backs/set2/gray.gif","img/card_backs/set2/orange.gif","img/card_backs/set2/pink.gif","img/card_backs/set2/blue.gif","""event"",""trial"",""time""
""fullscreenenter"",""1"",""1657""
","
","
","""event"",""trial"",""time""
""fullscreenenter"",""1"",""1657""
","
","","4767.399999976158","Before we start, we're going to head into a new room of the casino.","86","","instructions","2021-08-10 16:48:44.136","","","","","",""
"casino-keyboard-response","68","311282","0.0-24.0-0.0","311","false","img/card_backs/set1/purple.gif","img/card_backs/set1/red.gif","img/card_backs/set1/yellow.gif","img/card_backs/set1/green.gif","img/card_backs/set2/gray.gif","img/card_backs/set2/orange.gif","img/card_backs/set2/pink.gif","img/card_backs/set2/blue.gif","""event"",""trial"",""time""
""fullscreenenter"",""1"",""1657""
","
","
","""event"",""trial"",""time""
""fullscreenenter"",""1"",""1657""
","
","","5840.300000071526","Here we are! The real game will use different cards, but the rules will be the same.","71","","instructions","2021-08-10 16:48:49.978","","","","","",""
"casino-keyboard-response","69","312684","0.0-24.0-0.1","311","false","img/card_backs/set1/purple.gif","img/card_backs/set1/red.gif","img/card_backs/set1/yellow.gif","img/card_backs/set1/green.gif","img/card_backs/set2/gray.gif","img/card_backs/set2/orange.gif","img/card_backs/set2/pink.gif","img/card_backs/set2/blue.gif","""event"",""trial"",""time""
""fullscreenenter"",""1"",""1657""
","
","
","""event"",""trial"",""time""
""fullscreenenter"",""1"",""1657""
","
","","1399.1000000238419","Ready? Put your fingers over the '2', '4', 6', and '8' keys so you are ready to play the game. </br> Then press 2 to start.","50","","instructions","2021-08-10 16:48:51.380","","","","","",""
"casino-fixation","70","313188","0.0-25.0-0.0","311","false","img/card_backs/set1/purple.gif","img/card_backs/set1/red.gif","img/card_backs/set1/yellow.gif","img/card_backs/set1/green.gif","img/card_backs/set2/gray.gif","img/card_backs/set2/orange.gif","img/card_backs/set2/pink.gif","img/card_backs/set2/blue.gif","""event"",""trial"",""time""
""fullscreenenter"",""1"",""1657""
","
","
","""event"",""trial"",""time""
""fullscreenenter"",""1"",""1657""
","
","","null","","null","","fixation","2021-08-10 16:48:51.884","","","","","",""
"card-selection-trial","71","316966","0.0-25.0-1.0","311","false","img/card_backs/set1/purple.gif","img/card_backs/set1/red.gif","img/card_backs/set1/yellow.gif","img/card_backs/set1/green.gif","img/card_backs/set2/gray.gif","img/card_backs/set2/orange.gif","img/card_backs/set2/pink.gif","img/card_backs/set2/blue.gif","""event"",""trial"",""time""
""fullscreenenter"",""1"",""1657""
","
","
","""event"",""trial"",""time""
""fullscreenenter"",""1"",""1657""
","
","","1767.7999999523163","","","","real_trial","2021-08-10 16:48:55.662","img/card_backs/set1/red.gif","3","-230","1","",""
"casino-fixation","72","317473","0.0-25.0-0.1","311","false","img/card_backs/set1/purple.gif","img/card_backs/set1/red.gif","img/card_backs/set1/yellow.gif","img/card_backs/set1/green.gif","img/card_backs/set2/gray.gif","img/card_backs/set2/orange.gif","img/card_backs/set2/pink.gif","img/card_backs/set2/blue.gif","""event"",""trial"",""time""
""fullscreenenter"",""1"",""1657""
","
","
","""event"",""trial"",""time""
""fullscreenenter"",""1"",""1657""
","
","","null","","null","","fixation","2021-08-10 16:48:56.169","","","","","",""
"card-selection-trial","73","320073","0.0-25.0-1.1","311","false","img/card_backs/set1/purple.gif","img/card_backs/set1/red.gif","img/card_backs/set1/yellow.gif","img/card_backs/set1/green.gif","img/card_backs/set2/gray.gif","img/card_backs/set2/orange.gif","img/card_backs/set2/pink.gif","img/card_backs/set2/blue.gif","""event"",""trial"",""time""
""fullscreenenter"",""1"",""1657""
","
","
","""event"",""trial"",""time""
""fullscreenenter"",""1"",""1657""
","
","","586.7999999523163","","","","real_trial","2021-08-10 16:48:58.769","img/card_backs/set1/green.gif","2","110","1","",""
"casino-fixation","74","320579","0.0-25.0-0.2","311","false","img/card_backs/set1/purple.gif","img/card_backs/set1/red.gif","img/card_backs/set1/yellow.gif","img/card_backs/set1/green.gif","img/card_backs/set2/gray.gif","img/card_backs/set2/orange.gif","img/card_backs/set2/pink.gif","img/card_backs/set2/blue.gif","""event"",""trial"",""time""
""fullscreenenter"",""1"",""1657""
","
","
","""event"",""trial"",""time""
""fullscreenenter"",""1"",""1657""
","
","","null","","null","","fixation","2021-08-10 16:48:59.275","","","","","",""
"card-selection-trial","75","322932","0.0-25.0-1.2","311","false","img/card_backs/set1/purple.gif","img/card_backs/set1/red.gif","img/card_backs/set1/yellow.gif","img/card_backs/set1/green.gif","img/card_backs/set2/gray.gif","img/card_backs/set2/orange.gif","img/card_backs/set2/pink.gif","img/card_backs/set2/blue.gif","""event"",""trial"",""time""
""fullscreenenter"",""1"",""1657""
","
","
","""event"",""trial"",""time""
""fullscreenenter"",""1"",""1657""
","
","","341.39999997615814","","","","real_trial","2021-08-10 16:49:01.629","img/card_backs/set1/green.gif","2","-50","1","",""
"casino-fixation","76","323438","0.0-25.0-0.3","311","false","img/card_backs/set1/purple.gif","img/card_backs/set1/red.gif","img/card_backs/set1/yellow.gif","img/card_backs/set1/green.gif","img/card_backs/set2/gray.gif","img/card_backs/set2/orange.gif","img/card_backs/set2/pink.gif","img/card_backs/set2/blue.gif","""event"",""trial"",""time""
""fullscreenenter"",""1"",""1657""
","
","
","""event"",""trial"",""time""
""fullscreenenter"",""1"",""1657""
","
","","null","","null","","fixation","2021-08-10 16:49:02.134","","","","","",""
"card-selection-trial","77","326233","0.0-25.0-1.3","311","false","img/card_backs/set1/purple.gif","img/card_backs/set1/red.gif","img/card_backs/set1/yellow.gif","img/card_backs/set1/green.gif","img/card_backs/set2/gray.gif","img/card_backs/set2/orange.gif","img/card_backs/set2/pink.gif","img/card_backs/set2/blue.gif","""event"",""trial"",""time""
""fullscreenenter"",""1"",""1657""
","
","
","""event"",""trial"",""time""
""fullscreenenter"",""1"",""1657""
","
","","780.2000000476837","","","","real_trial","2021-08-10 16:49:04.929","img/card_backs/set1/green.gif","0","-50","1","",""
"casino-fixation","78","326736","0.0-25.0-0.4","311","false","img/card_backs/set1/purple.gif","img/card_backs/set1/red.gif","img/card_backs/set1/yellow.gif","img/card_backs/set1/green.gif","img/card_backs/set2/gray.gif","img/card_backs/set2/orange.gif","img/card_backs/set2/pink.gif","img/card_backs/set2/blue.gif","""event"",""trial"",""time""
""fullscreenenter"",""1"",""1657""
","
","
","""event"",""trial"",""time""
""fullscreenenter"",""1"",""1657""
","
","","null","","null","","fixation","2021-08-10 16:49:05.432","","","","","",""
"card-selection-trial","79","329434","0.0-25.0-1.4","311","false","img/card_backs/set1/purple.gif","img/card_backs/set1/red.gif","img/card_backs/set1/yellow.gif","img/card_backs/set1/green.gif","img/card_backs/set2/gray.gif","img/card_backs/set2/orange.gif","img/card_backs/set2/pink.gif","img/card_backs/set2/blue.gif","""event"",""trial"",""time""
""fullscreenenter"",""1"",""1657""
","
","
","""event"",""trial"",""time""
""fullscreenenter"",""1"",""1657""
","
","","685.5","","","","real_trial","2021-08-10 16:49:08.131","img/card_backs/set1/green.gif","1","-50","1","",""
"casino-fixation","80","329942","0.0-25.0-0.5","311","false","img/card_backs/set1/purple.gif","img/card_backs/set1/red.gif","img/card_backs/set1/yellow.gif","img/card_backs/set1/green.gif","img/card_backs/set2/gray.gif","img/card_backs/set2/orange.gif","img/card_backs/set2/pink.gif","img/card_backs/set2/blue.gif","""event"",""trial"",""time""
""fullscreenenter"",""1"",""1657""
","
","
","""event"",""trial"",""time""
""fullscreenenter"",""1"",""1657""
","
","","null","","null","","fixation","2021-08-10 16:49:08.638","","","","","",""
"card-selection-trial","81","332241","0.0-25.0-1.5","311","false","img/card_backs/set1/purple.gif","img/card_backs/set1/red.gif","img/card_backs/set1/yellow.gif","img/card_backs/set1/green.gif","img/card_backs/set2/gray.gif","img/card_backs/set2/orange.gif","img/card_backs/set2/pink.gif","img/card_backs/set2/blue.gif","""event"",""trial"",""time""
""fullscreenenter"",""1"",""1657""
","
","
","""event"",""trial"",""time""
""fullscreenenter"",""1"",""1657""
","
","","285.5","","","","real_trial","2021-08-10 16:49:10.937","img/card_backs/set1/green.gif","2","-60","1","",""
"casino-fixation","82","332748","0.0-25.0-0.6","311","false","img/card_backs/set1/purple.gif","img/card_backs/set1/red.gif","img/card_backs/set1/yellow.gif","img/card_backs/set1/green.gif","img/card_backs/set2/gray.gif","img/card_backs/set2/orange.gif","img/card_backs/set2/pink.gif","img/card_backs/set2/blue.gif","""event"",""trial"",""time""
""fullscreenenter"",""1"",""1657""
","
","
","""event"",""trial"",""time""
""fullscreenenter"",""1"",""1657""
","
","","null","","null","","fixation","2021-08-10 16:49:11.445","","","","","",""
"card-selection-trial","83","335021","0.0-25.0-1.6","311","false","img/card_backs/set1/purple.gif","img/card_backs/set1/red.gif","img/card_backs/set1/yellow.gif","img/card_backs/set1/green.gif","img/card_backs/set2/gray.gif","img/card_backs/set2/orange.gif","img/card_backs/set2/pink.gif","img/card_backs/set2/blue.gif","""event"",""trial"",""time""
""fullscreenenter"",""1"",""1657""
","
","
","""event"",""trial"",""time""
""fullscreenenter"",""1"",""1657""
","
","","264.5","","","","real_trial","2021-08-10 16:49:13.718","img/card_backs/set1/red.gif","2","190","1","",""
"casino-fixation","84","335525","0.0-25.0-0.7","311","false","img/card_backs/set1/purple.gif","img/card_backs/set1/red.gif","img/card_backs/set1/yellow.gif","img/card_backs/set1/green.gif","img/card_backs/set2/gray.gif","img/card_backs/set2/orange.gif","img/card_backs/set2/pink.gif","img/card_backs/set2/blue.gif","""event"",""trial"",""time""
""fullscreenenter"",""1"",""1657""
","
","
","""event"",""trial"",""time""
""fullscreenenter"",""1"",""1657""
","
","","null","","null","","fixation","2021-08-10 16:49:14.221","","","","","",""
"card-selection-trial","85","339089","0.0-25.0-1.7","311","false","img/card_backs/set1/purple.gif","img/card_backs/set1/red.gif","img/card_backs/set1/yellow.gif","img/card_backs/set1/green.gif","img/card_backs/set2/gray.gif","img/card_backs/set2/orange.gif","img/card_backs/set2/pink.gif","img/card_backs/set2/blue.gif","""event"",""trial"",""time""
""fullscreenenter"",""1"",""1657""
","
","
","""event"",""trial"",""time""
""fullscreenenter"",""1"",""1657""
","
","","1554.3000000715256","","","","real_trial","2021-08-10 16:49:17.785","img/card_backs/set1/red.gif","1","200","1","",""
"casino-fixation","86","339597","0.0-25.0-0.8","311","false","img/card_backs/set1/purple.gif","img/card_backs/set1/red.gif","img/card_backs/set1/yellow.gif","img/card_backs/set1/green.gif","img/card_backs/set2/gray.gif","img/card_backs/set2/orange.gif","img/card_backs/set2/pink.gif","img/card_backs/set2/blue.gif","""event"",""trial"",""time""
""fullscreenenter"",""1"",""1657""
","
","
","""event"",""trial"",""time""
""fullscreenenter"",""1"",""1657""
","
","","null","","null","","fixation","2021-08-10 16:49:18.293","","","","","",""
"card-selection-trial","87","342459","0.0-25.0-1.8","311","false","img/card_backs/set1/purple.gif","img/card_backs/set1/red.gif","img/card_backs/set1/yellow.gif","img/card_backs/set1/green.gif","img/card_backs/set2/gray.gif","img/card_backs/set2/orange.gif","img/card_backs/set2/pink.gif","img/card_backs/set2/blue.gif","""event"",""trial"",""time""
""fullscreenenter"",""1"",""1657""
","
","
","""event"",""trial"",""time""
""fullscreenenter"",""1"",""1657""
","
","","849.8999999761581","","","","real_trial","2021-08-10 16:49:21.155","img/card_backs/set1/red.gif","1","190","1","",""
"casino-fixation","88","342963","0.0-25.0-0.9","311","false","img/card_backs/set1/purple.gif","img/card_backs/set1/red.gif","img/card_backs/set1/yellow.gif","img/card_backs/set1/green.gif","img/card_backs/set2/gray.gif","img/card_backs/set2/orange.gif","img/card_backs/set2/pink.gif","img/card_backs/set2/blue.gif","""event"",""trial"",""time""
""fullscreenenter"",""1"",""1657""
","
","
","""event"",""trial"",""time""
""fullscreenenter"",""1"",""1657""
","
","","null","","null","","fixation","2021-08-10 16:49:21.659","","","","","",""
"card-selection-trial","89","345822","0.0-25.0-1.9","311","false","img/card_backs/set1/purple.gif","img/card_backs/set1/red.gif","img/card_backs/set1/yellow.gif","img/card_backs/set1/green.gif","img/card_backs/set2/gray.gif","img/card_backs/set2/orange.gif","img/card_backs/set2/pink.gif","img/card_backs/set2/blue.gif","""event"",""trial"",""time""
""fullscreenenter"",""1"",""1657""
","
","
","""event"",""trial"",""time""
""fullscreenenter"",""1"",""1657""
","
","","849.6000000238419","","","","real_trial","2021-08-10 16:49:24.518","img/card_backs/set1/red.gif","1","180","1","",""
"casino-fixation","90","346331","0.0-25.0-0.10","311","false","img/card_backs/set1/purple.gif","img/card_backs/set1/red.gif","img/card_backs/set1/yellow.gif","img/card_backs/set1/green.gif","img/card_backs/set2/gray.gif","img/card_backs/set2/orange.gif","img/card_backs/set2/pink.gif","img/card_backs/set2/blue.gif","""event"",""trial"",""time""
""fullscreenenter"",""1"",""1657""
","
","
","""event"",""trial"",""time""
""fullscreenenter"",""1"",""1657""
","
","","null","","null","","fixation","2021-08-10 16:49:25.027","","","","","",""
"card-selection-trial","91","349059","0.0-25.0-1.10","311","false","img/card_backs/set1/purple.gif","img/card_backs/set1/red.gif","img/card_backs/set1/yellow.gif","img/card_backs/set1/green.gif","img/card_backs/set2/gray.gif","img/card_backs/set2/orange.gif","img/card_backs/set2/pink.gif","img/card_backs/set2/blue.gif","""event"",""trial"",""time""
""fullscreenenter"",""1"",""1657""
","
","
","""event"",""trial"",""time""
""fullscreenenter"",""1"",""1657""
","
","","716.2000000476837","","","","real_trial","2021-08-10 16:49:27.755","img/card_backs/set1/red.gif","1","190","1","",""
"casino-fixation","92","349566","0.0-25.0-0.11","311","false","img/card_backs/set1/purple.gif","img/card_backs/set1/red.gif","img/card_backs/set1/yellow.gif","img/card_backs/set1/green.gif","img/card_backs/set2/gray.gif","img/card_backs/set2/orange.gif","img/card_backs/set2/pink.gif","img/card_backs/set2/blue.gif","""event"",""trial"",""time""
""fullscreenenter"",""1"",""1657""
","
","
","""event"",""trial"",""time""
""fullscreenenter"",""1"",""1657""
","
","","null","","null","","fixation","2021-08-10 16:49:28.262","","","","","",""
"card-selection-trial","93","352135","0.0-25.0-1.11","311","false","img/card_backs/set1/purple.gif","img/card_backs/set1/red.gif","img/card_backs/set1/yellow.gif","img/card_backs/set1/green.gif","img/card_backs/set2/gray.gif","img/card_backs/set2/orange.gif","img/card_backs/set2/pink.gif","img/card_backs/set2/blue.gif","""event"",""trial"",""time""
""fullscreenenter"",""1"",""1657""
","
","
","""event"",""trial"",""time""
""fullscreenenter"",""1"",""1657""
","
","","558.3999999761581","","","","real_trial","2021-08-10 16:49:30.831","img/card_backs/set1/red.gif","1","200","1","",""
"casino-fixation","94","352641","0.0-25.0-0.12","311","false","img/card_backs/set1/purple.gif","img/card_backs/set1/red.gif","img/card_backs/set1/yellow.gif","img/card_backs/set1/green.gif","img/card_backs/set2/gray.gif","img/card_backs/set2/orange.gif","img/card_backs/set2/pink.gif","img/card_backs/set2/blue.gif","""event"",""trial"",""time""
""fullscreenenter"",""1"",""1657""
","
","
","""event"",""trial"",""time""
""fullscreenenter"",""1"",""1657""
","
","","null","","null","","fixation","2021-08-10 16:49:31.337","","","","","",""
"card-selection-trial","95","355763","0.0-25.0-1.12","311","false","img/card_backs/set1/purple.gif","img/card_backs/set1/red.gif","img/card_backs/set1/yellow.gif","img/card_backs/set1/green.gif","img/card_backs/set2/gray.gif","img/card_backs/set2/orange.gif","img/card_backs/set2/pink.gif","img/card_backs/set2/blue.gif","""event"",""trial"",""time""
""fullscreenenter"",""1"",""1657""
","
","
","""event"",""trial"",""time""
""fullscreenenter"",""1"",""1657""
","
","","1109.1000000238419","","","","real_trial","2021-08-10 16:49:34.459","img/card_backs/set1/red.gif","3","200","1","",""
"casino-fixation","96","356270","0.0-25.0-0.13","311","false","img/card_backs/set1/purple.gif","img/card_backs/set1/red.gif","img/card_backs/set1/yellow.gif","img/card_backs/set1/green.gif","img/card_backs/set2/gray.gif","img/card_backs/set2/orange.gif","img/card_backs/set2/pink.gif","img/card_backs/set2/blue.gif","""event"",""trial"",""time""
""fullscreenenter"",""1"",""1657""
","
","
","""event"",""trial"",""time""
""fullscreenenter"",""1"",""1657""
","
","","null","","null","","fixation","2021-08-10 16:49:34.966","","","","","",""
"card-selection-trial","97","359001","0.0-25.0-1.13","311","false","img/card_backs/set1/purple.gif","img/card_backs/set1/red.gif","img/card_backs/set1/yellow.gif","img/card_backs/set1/green.gif","img/card_backs/set2/gray.gif","img/card_backs/set2/orange.gif","img/card_backs/set2/pink.gif","img/card_backs/set2/blue.gif","""event"",""trial"",""time""
""fullscreenenter"",""1"",""1657""
","
","
","""event"",""trial"",""time""
""fullscreenenter"",""1"",""1657""
","
","","721.2000000476837","","","","real_trial","2021-08-10 16:49:37.697","img/card_backs/set1/red.gif","1","-240","1","",""
"casino-fixation","98","359507","0.0-25.0-0.14","311","false","img/card_backs/set1/purple.gif","img/card_backs/set1/red.gif","img/card_backs/set1/yellow.gif","img/card_backs/set1/green.gif","img/card_backs/set2/gray.gif","img/card_backs/set2/orange.gif","img/card_backs/set2/pink.gif","img/card_backs/set2/blue.gif","""event"",""trial"",""time""
""fullscreenenter"",""1"",""1657""
","
","
","""event"",""trial"",""time""
""fullscreenenter"",""1"",""1657""
","
","","null","","null","","fixation","2021-08-10 16:49:38.203","","","","","",""
"card-selection-trial","99","362686","0.0-25.0-1.14","311","false","img/card_backs/set1/purple.gif","img/card_backs/set1/red.gif","img/card_backs/set1/yellow.gif","img/card_backs/set1/green.gif","img/card_backs/set2/gray.gif","img/card_backs/set2/orange.gif","img/card_backs/set2/pink.gif","img/card_backs/set2/blue.gif","""event"",""trial"",""time""
""fullscreenenter"",""1"",""1657""
","
","
","""event"",""trial"",""time""
""fullscreenenter"",""1"",""1657""
","
","","1165.4000000953674","","","","real_trial","2021-08-10 16:49:41.382","img/card_backs/set1/purple.gif","3","-250","1","",""
"casino-fixation","100","363190","0.0-25.0-0.15","311","false","img/card_backs/set1/purple.gif","img/card_backs/set1/red.gif","img/card_backs/set1/yellow.gif","img/card_backs/set1/green.gif","img/card_backs/set2/gray.gif","img/card_backs/set2/orange.gif","img/card_backs/set2/pink.gif","img/card_backs/set2/blue.gif","""event"",""trial"",""time""
""fullscreenenter"",""1"",""1657""
","
","
","""event"",""trial"",""time""
""fullscreenenter"",""1"",""1657""
","
","","null","","null","","fixation","2021-08-10 16:49:41.886","","","","","",""
"card-selection-trial","101","366764","0.0-25.0-1.15","311","false","img/card_backs/set1/purple.gif","img/card_backs/set1/red.gif","img/card_backs/set1/yellow.gif","img/card_backs/set1/green.gif","img/card_backs/set2/gray.gif","img/card_backs/set2/orange.gif","img/card_backs/set2/pink.gif","img/card_backs/set2/blue.gif","""event"",""trial"",""time""
""fullscreenenter"",""1"",""1657""
","
","
","""event"",""trial"",""time""
""fullscreenenter"",""1"",""1657""
","
","","1564.1000000238419","","","","real_trial","2021-08-10 16:49:45.460","img/card_backs/set1/red.gif","3","190","1","",""
"casino-fixation","102","367267","0.0-25.0-0.16","311","false","img/card_backs/set1/purple.gif","img/card_backs/set1/red.gif","img/card_backs/set1/yellow.gif","img/card_backs/set1/green.gif","img/card_backs/set2/gray.gif","img/card_backs/set2/orange.gif","img/card_backs/set2/pink.gif","img/card_backs/set2/blue.gif","""event"",""trial"",""time""
""fullscreenenter"",""1"",""1657""
","
","
","""event"",""trial"",""time""
""fullscreenenter"",""1"",""1657""
","
","","null","","null","","fixation","2021-08-10 16:49:45.963","","","","","",""
"card-selection-trial","103","370243","0.0-25.0-1.16","311","false","img/card_backs/set1/purple.gif","img/card_backs/set1/red.gif","img/card_backs/set1/yellow.gif","img/card_backs/set1/green.gif","img/card_backs/set2/gray.gif","img/card_backs/set2/orange.gif","img/card_backs/set2/pink.gif","img/card_backs/set2/blue.gif","""event"",""trial"",""time""
""fullscreenenter"",""1"",""1657""
","
","
","""event"",""trial"",""time""
""fullscreenenter"",""1"",""1657""
","
","","969","","","","real_trial","2021-08-10 16:49:48.940","img/card_backs/set1/red.gif","0","-230","1","",""
"casino-fixation","104","370751","0.0-25.0-0.17","311","false","img/card_backs/set1/purple.gif","img/card_backs/set1/red.gif","img/card_backs/set1/yellow.gif","img/card_backs/set1/green.gif","img/card_backs/set2/gray.gif","img/card_backs/set2/orange.gif","img/card_backs/set2/pink.gif","img/card_backs/set2/blue.gif","""event"",""trial"",""time""
""fullscreenenter"",""1"",""1657""
","
","
","""event"",""trial"",""time""
""fullscreenenter"",""1"",""1657""
","
","","null","","null","","fixation","2021-08-10 16:49:49.447","","","","","",""
"card-selection-trial","105","373261","0.0-25.0-1.17","311","false","img/card_backs/set1/purple.gif","img/card_backs/set1/red.gif","img/card_backs/set1/yellow.gif","img/card_backs/set1/green.gif","img/card_backs/set2/gray.gif","img/card_backs/set2/orange.gif","img/card_backs/set2/pink.gif","img/card_backs/set2/blue.gif","""event"",""trial"",""time""
""fullscreenenter"",""1"",""1657""
","
","
","""event"",""trial"",""time""
""fullscreenenter"",""1"",""1657""
","
","","498.2000000476837","","","","real_trial","2021-08-10 16:49:51.958","img/card_backs/set1/red.gif","0","-250","1","",""
"casino-fixation","106","373768","0.0-25.0-0.18","311","false","img/card_backs/set1/purple.gif","img/card_backs/set1/red.gif","img/card_backs/set1/yellow.gif","img/card_backs/set1/green.gif","img/card_backs/set2/gray.gif","img/card_backs/set2/orange.gif","img/card_backs/set2/pink.gif","img/card_backs/set2/blue.gif","""event"",""trial"",""time""
""fullscreenenter"",""1"",""1657""
","
","
","""event"",""trial"",""time""
""fullscreenenter"",""1"",""1657""
","
","","null","","null","","fixation","2021-08-10 16:49:52.464","","","","","",""
"card-selection-trial","107","377032","0.0-25.0-1.18","311","false","img/card_backs/set1/purple.gif","img/card_backs/set1/red.gif","img/card_backs/set1/yellow.gif","img/card_backs/set1/green.gif","img/card_backs/set2/gray.gif","img/card_backs/set2/orange.gif","img/card_backs/set2/pink.gif","img/card_backs/set2/blue.gif","""event"",""trial"",""time""
""fullscreenenter"",""1"",""1657""
","
","
","""event"",""trial"",""time""
""fullscreenenter"",""1"",""1657""
","
","","1255.8999999761581","","","","real_trial","2021-08-10 16:49:55.728","img/card_backs/set1/red.gif","3","-250","1","",""
"casino-fixation","108","377539","0.0-25.0-0.19","311","false","img/card_backs/set1/purple.gif","img/card_backs/set1/red.gif","img/card_backs/set1/yellow.gif","img/card_backs/set1/green.gif","img/card_backs/set2/gray.gif","img/card_backs/set2/orange.gif","img/card_backs/set2/pink.gif","img/card_backs/set2/blue.gif","""event"",""trial"",""time""
""fullscreenenter"",""1"",""1657""
","
","
","""event"",""trial"",""time""
""fullscreenenter"",""1"",""1657""
","
","","null","","null","","fixation","2021-08-10 16:49:56.235","","","","","",""
"card-selection-trial","109","380514","0.0-25.0-1.19","311","false","img/card_backs/set1/purple.gif","img/card_backs/set1/red.gif","img/card_backs/set1/yellow.gif","img/card_backs/set1/green.gif","img/card_backs/set2/gray.gif","img/card_backs/set2/orange.gif","img/card_backs/set2/pink.gif","img/card_backs/set2/blue.gif","""event"",""trial"",""time""
""fullscreenenter"",""1"",""1657""
","
","
","""event"",""trial"",""time""
""fullscreenenter"",""1"",""1657""
","
","","967.2000000476837","","","","real_trial","2021-08-10 16:49:59.211","img/card_backs/set1/purple.gif","2","-250","1","",""
"casino-fixation","110","381021","0.0-25.0-0.20","311","false","img/card_backs/set1/purple.gif","img/card_backs/set1/red.gif","img/card_backs/set1/yellow.gif","img/card_backs/set1/green.gif","img/card_backs/set2/gray.gif","img/card_backs/set2/orange.gif","img/card_backs/set2/pink.gif","img/card_backs/set2/blue.gif","""event"",""trial"",""time""
""fullscreenenter"",""1"",""1657""
","
","
","""event"",""trial"",""time""
""fullscreenenter"",""1"",""1657""
","
","","null","","null","","fixation","2021-08-10 16:49:59.717","","","","","",""
"card-selection-trial","111","383799","0.0-25.0-1.20","311","false","img/card_backs/set1/purple.gif","img/card_backs/set1/red.gif","img/card_backs/set1/yellow.gif","img/card_backs/set1/green.gif","img/card_backs/set2/gray.gif","img/card_backs/set2/orange.gif","img/card_backs/set2/pink.gif","img/card_backs/set2/blue.gif","""event"",""trial"",""time""
""fullscreenenter"",""1"",""1657""
","
","
","""event"",""trial"",""time""
""fullscreenenter"",""1"",""1657""
","
","","763.8000000715256","","","","real_trial","2021-08-10 16:50:02.495","img/card_backs/set1/yellow.gif","3","-50","1","",""
"casino-fixation","112","384306","0.0-25.0-0.21","311","false","img/card_backs/set1/purple.gif","img/card_backs/set1/red.gif","img/card_backs/set1/yellow.gif","img/card_backs/set1/green.gif","img/card_backs/set2/gray.gif","img/card_backs/set2/orange.gif","img/card_backs/set2/pink.gif","img/card_backs/set2/blue.gif","""event"",""trial"",""time""
""fullscreenenter"",""1"",""1657""
","
","
","""event"",""trial"",""time""
""fullscreenenter"",""1"",""1657""
","
","","null","","null","","fixation","2021-08-10 16:50:03.002","","","","","",""
"card-selection-trial","113","387280","0.0-25.0-1.21","311","false","img/card_backs/set1/purple.gif","img/card_backs/set1/red.gif","img/card_backs/set1/yellow.gif","img/card_backs/set1/green.gif","img/card_backs/set2/gray.gif","img/card_backs/set2/orange.gif","img/card_backs/set2/pink.gif","img/card_backs/set2/blue.gif","""event"",""trial"",""time""
""fullscreenenter"",""1"",""1657""
","
","
","""event"",""trial"",""time""
""fullscreenenter"",""1"",""1657""
","
","","959.3000000715256","","","","real_trial","2021-08-10 16:50:05.976","img/card_backs/set1/red.gif","1","180","1","",""
"casino-fixation","114","387785","0.0-25.0-0.22","311","false","img/card_backs/set1/purple.gif","img/card_backs/set1/red.gif","img/card_backs/set1/yellow.gif","img/card_backs/set1/green.gif","img/card_backs/set2/gray.gif","img/card_backs/set2/orange.gif","img/card_backs/set2/pink.gif","img/card_backs/set2/blue.gif","""event"",""trial"",""time""
""fullscreenenter"",""1"",""1657""
","
","
","""event"",""trial"",""time""
""fullscreenenter"",""1"",""1657""
","
","","null","","null","","fixation","2021-08-10 16:50:06.481","","","","","",""
"card-selection-trial","115","390466","0.0-25.0-1.22","311","false","img/card_backs/set1/purple.gif","img/card_backs/set1/red.gif","img/card_backs/set1/yellow.gif","img/card_backs/set1/green.gif","img/card_backs/set2/gray.gif","img/card_backs/set2/orange.gif","img/card_backs/set2/pink.gif","img/card_backs/set2/blue.gif","""event"",""trial"",""time""
""fullscreenenter"",""1"",""1657""
","
","
","""event"",""trial"",""time""
""fullscreenenter"",""1"",""1657""
","
","","670.7000000476837","","","","real_trial","2021-08-10 16:50:09.162","img/card_backs/set1/red.gif","3","-240","1","",""
"casino-fixation","116","390972","0.0-25.0-0.23","311","false","img/card_backs/set1/purple.gif","img/card_backs/set1/red.gif","img/card_backs/set1/yellow.gif","img/card_backs/set1/green.gif","img/card_backs/set2/gray.gif","img/card_backs/set2/orange.gif","img/card_backs/set2/pink.gif","img/card_backs/set2/blue.gif","""event"",""trial"",""time""
""fullscreenenter"",""1"",""1657""
","
","
","""event"",""trial"",""time""
""fullscreenenter"",""1"",""1657""
","
","","null","","null","","fixation","2021-08-10 16:50:09.668","","","","","",""
"card-selection-trial","117","393853","0.0-25.0-1.23","311","false","img/card_backs/set1/purple.gif","img/card_backs/set1/red.gif","img/card_backs/set1/yellow.gif","img/card_backs/set1/green.gif","img/card_backs/set2/gray.gif","img/card_backs/set2/orange.gif","img/card_backs/set2/pink.gif","img/card_backs/set2/blue.gif","""event"",""trial"",""time""
""fullscreenenter"",""1"",""1657""
","
","
","""event"",""trial"",""time""
""fullscreenenter"",""1"",""1657""
","
","","867.3999999761581","","","","real_trial","2021-08-10 16:50:12.549","img/card_backs/set1/red.gif","0","200","1","",""
"casino-fixation","118","394359","0.0-25.0-0.24","311","false","img/card_backs/set1/purple.gif","img/card_backs/set1/red.gif","img/card_backs/set1/yellow.gif","img/card_backs/set1/green.gif","img/card_backs/set2/gray.gif","img/card_backs/set2/orange.gif","img/card_backs/set2/pink.gif","img/card_backs/set2/blue.gif","""event"",""trial"",""time""
""fullscreenenter"",""1"",""1657""
","
","
","""event"",""trial"",""time""
""fullscreenenter"",""1"",""1657""
","
","","null","","null","","fixation","2021-08-10 16:50:13.055","","","","","",""
"card-selection-trial","119","396956","0.0-25.0-1.24","311","false","img/card_backs/set1/purple.gif","img/card_backs/set1/red.gif","img/card_backs/set1/yellow.gif","img/card_backs/set1/green.gif","img/card_backs/set2/gray.gif","img/card_backs/set2/orange.gif","img/card_backs/set2/pink.gif","img/card_backs/set2/blue.gif","""event"",""trial"",""time""
""fullscreenenter"",""1"",""1657""
","
","
","""event"",""trial"",""time""
""fullscreenenter"",""1"",""1657""
","
","","585","","","","real_trial","2021-08-10 16:50:15.653","img/card_backs/set1/red.gif","0","-250","1","",""
"casino-fixation","120","397462","0.0-25.0-0.25","311","false","img/card_backs/set1/purple.gif","img/card_backs/set1/red.gif","img/card_backs/set1/yellow.gif","img/card_backs/set1/green.gif","img/card_backs/set2/gray.gif","img/card_backs/set2/orange.gif","img/card_backs/set2/pink.gif","img/card_backs/set2/blue.gif","""event"",""trial"",""time""
""fullscreenenter"",""1"",""1657""
","
","
","""event"",""trial"",""time""
""fullscreenenter"",""1"",""1657""
","
","","null","","null","","fixation","2021-08-10 16:50:16.159","","","","","",""
"card-selection-trial","121","400162","0.0-25.0-1.25","311","false","img/card_backs/set1/purple.gif","img/card_backs/set1/red.gif","img/card_backs/set1/yellow.gif","img/card_backs/set1/green.gif","img/card_backs/set2/gray.gif","img/card_backs/set2/orange.gif","img/card_backs/set2/pink.gif","img/card_backs/set2/blue.gif","""event"",""trial"",""time""
""fullscreenenter"",""1"",""1657""
","
","
","""event"",""trial"",""time""
""fullscreenenter"",""1"",""1657""
","
","","685.1999999284744","","","","real_trial","2021-08-10 16:50:18.859","img/card_backs/set1/green.gif","2","100","1","",""
"casino-fixation","122","400667","0.0-25.0-0.26","311","false","img/card_backs/set1/purple.gif","img/card_backs/set1/red.gif","img/card_backs/set1/yellow.gif","img/card_backs/set1/green.gif","img/card_backs/set2/gray.gif","img/card_backs/set2/orange.gif","img/card_backs/set2/pink.gif","img/card_backs/set2/blue.gif","""event"",""trial"",""time""
""fullscreenenter"",""1"",""1657""
","
","
","""event"",""trial"",""time""
""fullscreenenter"",""1"",""1657""
","
","","null","","null","","fixation","2021-08-10 16:50:19.364","","","","","",""
"card-selection-trial","123","403410","0.0-25.0-1.26","311","false","img/card_backs/set1/purple.gif","img/card_backs/set1/red.gif","img/card_backs/set1/yellow.gif","img/card_backs/set1/green.gif","img/card_backs/set2/gray.gif","img/card_backs/set2/orange.gif","img/card_backs/set2/pink.gif","img/card_backs/set2/blue.gif","""event"",""trial"",""time""
""fullscreenenter"",""1"",""1657""
","
","
","""event"",""trial"",""time""
""fullscreenenter"",""1"",""1657""
","
","","727.8000000715256","","","","real_trial","2021-08-10 16:50:22.106","img/card_backs/set1/green.gif","1","120","1","",""
"casino-fixation","124","403916","0.0-25.0-0.27","311","false","img/card_backs/set1/purple.gif","img/card_backs/set1/red.gif","img/card_backs/set1/yellow.gif","img/card_backs/set1/green.gif","img/card_backs/set2/gray.gif","img/card_backs/set2/orange.gif","img/card_backs/set2/pink.gif","img/card_backs/set2/blue.gif","""event"",""trial"",""time""
""fullscreenenter"",""1"",""1657""
","
","
","""event"",""trial"",""time""
""fullscreenenter"",""1"",""1657""
","
","","null","","null","","fixation","2021-08-10 16:50:22.612","","","","","",""
"card-selection-trial","125","406637","0.0-25.0-1.27","311","false","img/card_backs/set1/purple.gif","img/card_backs/set1/red.gif","img/card_backs/set1/yellow.gif","img/card_backs/set1/green.gif","img/card_backs/set2/gray.gif","img/card_backs/set2/orange.gif","img/card_backs/set2/pink.gif","img/card_backs/set2/blue.gif","""event"",""trial"",""time""
""fullscreenenter"",""1"",""1657""
","
","
","""event"",""trial"",""time""
""fullscreenenter"",""1"",""1657""
","
","","709.1000000238419","","","","real_trial","2021-08-10 16:50:25.333","img/card_backs/set1/green.gif","3","110","1","",""
"casino-fixation","126","407142","0.0-25.0-0.28","311","false","img/card_backs/set1/purple.gif","img/card_backs/set1/red.gif","img/card_backs/set1/yellow.gif","img/card_backs/set1/green.gif","img/card_backs/set2/gray.gif","img/card_backs/set2/orange.gif","img/card_backs/set2/pink.gif","img/card_backs/set2/blue.gif","""event"",""trial"",""time""
""fullscreenenter"",""1"",""1657""
","
","
","""event"",""trial"",""time""
""fullscreenenter"",""1"",""1657""
","
","","null","","null","","fixation","2021-08-10 16:50:25.839","","","","","",""
"card-selection-trial","127","409895","0.0-25.0-1.28","311","false","img/card_backs/set1/purple.gif","img/card_backs/set1/red.gif","img/card_backs/set1/yellow.gif","img/card_backs/set1/green.gif","img/card_backs/set2/gray.gif","img/card_backs/set2/orange.gif","img/card_backs/set2/pink.gif","img/card_backs/set2/blue.gif","""event"",""trial"",""time""
""fullscreenenter"",""1"",""1657""
","
","
","""event"",""trial"",""time""
""fullscreenenter"",""1"",""1657""
","
","","742.1000000238419","","","","real_trial","2021-08-10 16:50:28.591","img/card_backs/set1/green.gif","2","100","1","",""
"casino-fixation","128","410401","0.0-25.0-0.29","311","false","img/card_backs/set1/purple.gif","img/card_backs/set1/red.gif","img/card_backs/set1/yellow.gif","img/card_backs/set1/green.gif","img/card_backs/set2/gray.gif","img/card_backs/set2/orange.gif","img/card_backs/set2/pink.gif","img/card_backs/set2/blue.gif","""event"",""trial"",""time""
""fullscreenenter"",""1"",""1657""
","
","
","""event"",""trial"",""time""
""fullscreenenter"",""1"",""1657""
","
","","null","","null","","fixation","2021-08-10 16:50:29.097","","","","","",""
"card-selection-trial","129","413079","0.0-25.0-1.29","311","false","img/card_backs/set1/purple.gif","img/card_backs/set1/red.gif","img/card_backs/set1/yellow.gif","img/card_backs/set1/green.gif","img/card_backs/set2/gray.gif","img/card_backs/set2/orange.gif","img/card_backs/set2/pink.gif","img/card_backs/set2/blue.gif","""event"",""trial"",""time""
""fullscreenenter"",""1"",""1657""
","
","
","""event"",""trial"",""time""
""fullscreenenter"",""1"",""1657""
","
","","669.2000000476837","","","","real_trial","2021-08-10 16:50:31.775","img/card_backs/set1/green.gif","3","-60","1","",""
"casino-fixation","130","413585","0.0-25.0-0.30","311","false","img/card_backs/set1/purple.gif","img/card_backs/set1/red.gif","img/card_backs/set1/yellow.gif","img/card_backs/set1/green.gif","img/card_backs/set2/gray.gif","img/card_backs/set2/orange.gif","img/card_backs/set2/pink.gif","img/card_backs/set2/blue.gif","""event"",""trial"",""time""
""fullscreenenter"",""1"",""1657""
","
","
","""event"",""trial"",""time""
""fullscreenenter"",""1"",""1657""
","
","","null","","null","","fixation","2021-08-10 16:50:32.281","","","","","",""
"card-selection-trial","131","416055","0.0-25.0-1.30","311","false","img/card_backs/set1/purple.gif","img/card_backs/set1/red.gif","img/card_backs/set1/yellow.gif","img/card_backs/set1/green.gif","img/card_backs/set2/gray.gif","img/card_backs/set2/orange.gif","img/card_backs/set2/pink.gif","img/card_backs/set2/blue.gif","""event"",""trial"",""time""
""fullscreenenter"",""1"",""1657""
","
","
","""event"",""trial"",""time""
""fullscreenenter"",""1"",""1657""
","
","","457.3000000715256","","","","real_trial","2021-08-10 16:50:34.751","img/card_backs/set1/green.gif","3","-70","1","",""
"casino-fixation","132","416561","0.0-25.0-0.31","311","false","img/card_backs/set1/purple.gif","img/card_backs/set1/red.gif","img/card_backs/set1/yellow.gif","img/card_backs/set1/green.gif","img/card_backs/set2/gray.gif","img/card_backs/set2/orange.gif","img/card_backs/set2/pink.gif","img/card_backs/set2/blue.gif","""event"",""trial"",""time""
""fullscreenenter"",""1"",""1657""
","
","
","""event"",""trial"",""time""
""fullscreenenter"",""1"",""1657""
","
","","null","","null","","fixation","2021-08-10 16:50:35.257","","","","","",""
"card-selection-trial","133","420334","0.0-25.0-1.31","311","false","img/card_backs/set1/purple.gif","img/card_backs/set1/red.gif","img/card_backs/set1/yellow.gif","img/card_backs/set1/green.gif","img/card_backs/set2/gray.gif","img/card_backs/set2/orange.gif","img/card_backs/set2/pink.gif","img/card_backs/set2/blue.gif","""event"",""trial"",""time""
""fullscreenenter"",""1"",""1657""
","
","
","""event"",""trial"",""time""
""fullscreenenter"",""1"",""1657""
","
","","1761.9000000953674","","","","real_trial","2021-08-10 16:50:39.030","img/card_backs/set1/yellow.gif","0","-60","1","",""
"casino-fixation","134","420838","0.0-25.0-0.32","311","false","img/card_backs/set1/purple.gif","img/card_backs/set1/red.gif","img/card_backs/set1/yellow.gif","img/card_backs/set1/green.gif","img/card_backs/set2/gray.gif","img/card_backs/set2/orange.gif","img/card_backs/set2/pink.gif","img/card_backs/set2/blue.gif","""event"",""trial"",""time""
""fullscreenenter"",""1"",""1657""
","
","
","""event"",""trial"",""time""
""fullscreenenter"",""1"",""1657""
","
","","null","","null","","fixation","2021-08-10 16:50:39.534","","","","","",""
"card-selection-trial","135","423740","0.0-25.0-1.32","311","false","img/card_backs/set1/purple.gif","img/card_backs/set1/red.gif","img/card_backs/set1/yellow.gif","img/card_backs/set1/green.gif","img/card_backs/set2/gray.gif","img/card_backs/set2/orange.gif","img/card_backs/set2/pink.gif","img/card_backs/set2/blue.gif","""event"",""trial"",""time""
""fullscreenenter"",""1"",""1657""
","
","
","""event"",""trial"",""time""
""fullscreenenter"",""1"",""1657""
","
","","889.7000000476837","","","","real_trial","2021-08-10 16:50:42.436","img/card_backs/set1/green.gif","3","-50","1","",""
"casino-fixation","136","424247","0.0-25.0-0.33","311","false","img/card_backs/set1/purple.gif","img/card_backs/set1/red.gif","img/card_backs/set1/yellow.gif","img/card_backs/set1/green.gif","img/card_backs/set2/gray.gif","img/card_backs/set2/orange.gif","img/card_backs/set2/pink.gif","img/card_backs/set2/blue.gif","""event"",""trial"",""time""
""fullscreenenter"",""1"",""1657""
","
","
","""event"",""trial"",""time""
""fullscreenenter"",""1"",""1657""
","
","","null","","null","","fixation","2021-08-10 16:50:42.943","","","","","",""
"card-selection-trial","137","426790","0.0-25.0-1.33","311","false","img/card_backs/set1/purple.gif","img/card_backs/set1/red.gif","img/card_backs/set1/yellow.gif","img/card_backs/set1/green.gif","img/card_backs/set2/gray.gif","img/card_backs/set2/orange.gif","img/card_backs/set2/pink.gif","img/card_backs/set2/blue.gif","""event"",""trial"",""time""
""fullscreenenter"",""1"",""1657""
","
","
","""event"",""trial"",""time""
""fullscreenenter"",""1"",""1657""
","
","","532.1000000238419","","","","real_trial","2021-08-10 16:50:45.486","img/card_backs/set1/green.gif","3","-70","1","",""
"casino-fixation","138","427297","0.0-25.0-0.34","311","false","img/card_backs/set1/purple.gif","img/card_backs/set1/red.gif","img/card_backs/set1/yellow.gif","img/card_backs/set1/green.gif","img/card_backs/set2/gray.gif","img/card_backs/set2/orange.gif","img/card_backs/set2/pink.gif","img/card_backs/set2/blue.gif","""event"",""trial"",""time""
""fullscreenenter"",""1"",""1657""
","
","
","""event"",""trial"",""time""
""fullscreenenter"",""1"",""1657""
","
","","null","","null","","fixation","2021-08-10 16:50:45.993","","","","","",""
"card-selection-trial","139","429671","0.0-25.0-1.34","311","false","img/card_backs/set1/purple.gif","img/card_backs/set1/red.gif","img/card_backs/set1/yellow.gif","img/card_backs/set1/green.gif","img/card_backs/set2/gray.gif","img/card_backs/set2/orange.gif","img/card_backs/set2/pink.gif","img/card_backs/set2/blue.gif","""event"",""trial"",""time""
""fullscreenenter"",""1"",""1657""
","
","
","""event"",""trial"",""time""
""fullscreenenter"",""1"",""1657""
","
","","360.7999999523163","","","","real_trial","2021-08-10 16:50:48.367","img/card_backs/set1/purple.gif","3","-230","1","",""
"casino-fixation","140","430177","0.0-25.0-0.35","311","false","img/card_backs/set1/purple.gif","img/card_backs/set1/red.gif","img/card_backs/set1/yellow.gif","img/card_backs/set1/green.gif","img/card_backs/set2/gray.gif","img/card_backs/set2/orange.gif","img/card_backs/set2/pink.gif","img/card_backs/set2/blue.gif","""event"",""trial"",""time""
""fullscreenenter"",""1"",""1657""
","
","
","""event"",""trial"",""time""
""fullscreenenter"",""1"",""1657""
","
","","null","","null","","fixation","2021-08-10 16:50:48.873","","","","","",""
"card-selection-trial","141","433388","0.0-25.0-1.35","311","false","img/card_backs/set1/purple.gif","img/card_backs/set1/red.gif","img/card_backs/set1/yellow.gif","img/card_backs/set1/green.gif","img/card_backs/set2/gray.gif","img/card_backs/set2/orange.gif","img/card_backs/set2/pink.gif","img/card_backs/set2/blue.gif","""event"",""trial"",""time""
""fullscreenenter"",""1"",""1657""
","
","
","""event"",""trial"",""time""
""fullscreenenter"",""1"",""1657""
","
","","1197.7999999523163","","","","real_trial","2021-08-10 16:50:52.084","img/card_backs/set1/green.gif","3","100","1","",""
"casino-fixation","142","433894","0.0-25.0-0.36","311","false","img/card_backs/set1/purple.gif","img/card_backs/set1/red.gif","img/card_backs/set1/yellow.gif","img/card_backs/set1/green.gif","img/card_backs/set2/gray.gif","img/card_backs/set2/orange.gif","img/card_backs/set2/pink.gif","img/card_backs/set2/blue.gif","""event"",""trial"",""time""
""fullscreenenter"",""1"",""1657""
","
","
","""event"",""trial"",""time""
""fullscreenenter"",""1"",""1657""
","
","","null","","null","","fixation","2021-08-10 16:50:52.591","","","","","",""
"card-selection-trial","143","436901","0.0-25.0-1.36","311","false","img/card_backs/set1/purple.gif","img/card_backs/set1/red.gif","img/card_backs/set1/yellow.gif","img/card_backs/set1/green.gif","img/card_backs/set2/gray.gif","img/card_backs/set2/orange.gif","img/card_backs/set2/pink.gif","img/card_backs/set2/blue.gif","""event"",""trial"",""time""
""fullscreenenter"",""1"",""1657""
","
","
","""event"",""trial"",""time""
""fullscreenenter"",""1"",""1657""
","
","","998.6000000238419","","","","real_trial","2021-08-10 16:50:55.598","img/card_backs/set1/green.gif","1","110","1","",""
"casino-fixation","144","437404","0.0-25.0-0.37","311","false","img/card_backs/set1/purple.gif","img/card_backs/set1/red.gif","img/card_backs/set1/yellow.gif","img/card_backs/set1/green.gif","img/card_backs/set2/gray.gif","img/card_backs/set2/orange.gif","img/card_backs/set2/pink.gif","img/card_backs/set2/blue.gif","""event"",""trial"",""time""
""fullscreenenter"",""1"",""1657""
","
","
","""event"",""trial"",""time""
""fullscreenenter"",""1"",""1657""
","
","","null","","null","","fixation","2021-08-10 16:50:56.100","","","","","",""
"card-selection-trial","145","440182","0.0-25.0-1.37","311","false","img/card_backs/set1/purple.gif","img/card_backs/set1/red.gif","img/card_backs/set1/yellow.gif","img/card_backs/set1/green.gif","img/card_backs/set2/gray.gif","img/card_backs/set2/orange.gif","img/card_backs/set2/pink.gif","img/card_backs/set2/blue.gif","""event"",""trial"",""time""
""fullscreenenter"",""1"",""1657""
","
","
","""event"",""trial"",""time""
""fullscreenenter"",""1"",""1657""
","
","","766.8000000715256","","","","real_trial","2021-08-10 16:50:58.878","img/card_backs/set1/green.gif","2","-70","1","",""
"casino-fixation","146","440688","0.0-25.0-0.38","311","false","img/card_backs/set1/purple.gif","img/card_backs/set1/red.gif","img/card_backs/set1/yellow.gif","img/card_backs/set1/green.gif","img/card_backs/set2/gray.gif","img/card_backs/set2/orange.gif","img/card_backs/set2/pink.gif","img/card_backs/set2/blue.gif","""event"",""trial"",""time""
""fullscreenenter"",""1"",""1657""
","
","
","""event"",""trial"",""time""
""fullscreenenter"",""1"",""1657""
","
","","null","","null","","fixation","2021-08-10 16:50:59.384","","","","","",""
"card-selection-trial","147","443238","0.0-25.0-1.38","311","false","img/card_backs/set1/purple.gif","img/card_backs/set1/red.gif","img/card_backs/set1/yellow.gif","img/card_backs/set1/green.gif","img/card_backs/set2/gray.gif","img/card_backs/set2/orange.gif","img/card_backs/set2/pink.gif","img/card_backs/set2/blue.gif","""event"",""trial"",""time""
""fullscreenenter"",""1"",""1657""
","
","
","""event"",""trial"",""time""
""fullscreenenter"",""1"",""1657""
","
","","539.2000000476837","","","","real_trial","2021-08-10 16:51:01.934","img/card_backs/set1/green.gif","2","-60","1","",""
"casino-fixation","148","443744","0.0-25.0-0.39","311","false","img/card_backs/set1/purple.gif","img/card_backs/set1/red.gif","img/card_backs/set1/yellow.gif","img/card_backs/set1/green.gif","img/card_backs/set2/gray.gif","img/card_backs/set2/orange.gif","img/card_backs/set2/pink.gif","img/card_backs/set2/blue.gif","""event"",""trial"",""time""
""fullscreenenter"",""1"",""1657""
","
","
","""event"",""trial"",""time""
""fullscreenenter"",""1"",""1657""
","
","","null","","null","","fixation","2021-08-10 16:51:02.440","","","","","",""
"card-selection-trial","149","446758","0.0-25.0-1.39","311","false","img/card_backs/set1/purple.gif","img/card_backs/set1/red.gif","img/card_backs/set1/yellow.gif","img/card_backs/set1/green.gif","img/card_backs/set2/gray.gif","img/card_backs/set2/orange.gif","img/card_backs/set2/pink.gif","img/card_backs/set2/blue.gif","""event"",""trial"",""time""
""fullscreenenter"",""1"",""1657""
","
","
","""event"",""trial"",""time""
""fullscreenenter"",""1"",""1657""
","
","","1002.1000000238419","","","","real_trial","2021-08-10 16:51:05.454","img/card_backs/set1/green.gif","0","-70","1","",""
"casino-fixation","150","447263","0.0-25.0-0.40","311","false","img/card_backs/set1/purple.gif","img/card_backs/set1/red.gif","img/card_backs/set1/yellow.gif","img/card_backs/set1/green.gif","img/card_backs/set2/gray.gif","img/card_backs/set2/orange.gif","img/card_backs/set2/pink.gif","img/card_backs/set2/blue.gif","""event"",""trial"",""time""
""fullscreenenter"",""1"",""1657""
","
","
","""event"",""trial"",""time""
""fullscreenenter"",""1"",""1657""
","
","","null","","null","","fixation","2021-08-10 16:51:05.959","","","","","",""
"card-selection-trial","151","449935","0.0-25.0-1.40","311","false","img/card_backs/set1/purple.gif","img/card_backs/set1/red.gif","img/card_backs/set1/yellow.gif","img/card_backs/set1/green.gif","img/card_backs/set2/gray.gif","img/card_backs/set2/orange.gif","img/card_backs/set2/pink.gif","img/card_backs/set2/blue.gif","""event"",""trial"",""time""
""fullscreenenter"",""1"",""1657""
","
","
","""event"",""trial"",""time""
""fullscreenenter"",""1"",""1657""
","
","","659.4000000953674","","","","real_trial","2021-08-10 16:51:08.631","img/card_backs/set1/green.gif","2","-60","1","",""
"casino-fixation","152","450440","0.0-25.0-0.41","311","false","img/card_backs/set1/purple.gif","img/card_backs/set1/red.gif","img/card_backs/set1/yellow.gif","img/card_backs/set1/green.gif","img/card_backs/set2/gray.gif","img/card_backs/set2/orange.gif","img/card_backs/set2/pink.gif","img/card_backs/set2/blue.gif","""event"",""trial"",""time""
""fullscreenenter"",""1"",""1657""
","
","
","""event"",""trial"",""time""
""fullscreenenter"",""1"",""1657""
","
","","null","","null","","fixation","2021-08-10 16:51:09.136","","","","","",""
"card-selection-trial","153","453004","0.0-25.0-1.41","311","false","img/card_backs/set1/purple.gif","img/card_backs/set1/red.gif","img/card_backs/set1/yellow.gif","img/card_backs/set1/green.gif","img/card_backs/set2/gray.gif","img/card_backs/set2/orange.gif","img/card_backs/set2/pink.gif","img/card_backs/set2/blue.gif","""event"",""trial"",""time""
""fullscreenenter"",""1"",""1657""
","
","
","""event"",""trial"",""time""
""fullscreenenter"",""1"",""1657""
","
","","553.1999999284744","","","","real_trial","2021-08-10 16:51:11.701","img/card_backs/set1/green.gif","2","100","1","",""
"casino-fixation","154","453509","0.0-25.0-0.42","311","false","img/card_backs/set1/purple.gif","img/card_backs/set1/red.gif","img/card_backs/set1/yellow.gif","img/card_backs/set1/green.gif","img/card_backs/set2/gray.gif","img/card_backs/set2/orange.gif","img/card_backs/set2/pink.gif","img/card_backs/set2/blue.gif","""event"",""trial"",""time""
""fullscreenenter"",""1"",""1657""
","
","
","""event"",""trial"",""time""
""fullscreenenter"",""1"",""1657""
","
","","null","","null","","fixation","2021-08-10 16:51:12.205","","","","","",""
"card-selection-trial","155","456310","0.0-25.0-1.42","311","false","img/card_backs/set1/purple.gif","img/card_backs/set1/red.gif","img/card_backs/set1/yellow.gif","img/card_backs/set1/green.gif","img/card_backs/set2/gray.gif","img/card_backs/set2/orange.gif","img/card_backs/set2/pink.gif","img/card_backs/set2/blue.gif","""event"",""trial"",""time""
""fullscreenenter"",""1"",""1657""
","
","
","""event"",""trial"",""time""
""fullscreenenter"",""1"",""1657""
","
","","790.5","","","","real_trial","2021-08-10 16:51:15.006","img/card_backs/set1/green.gif","3","-60","1","",""
"casino-fixation","156","456816","0.0-25.0-0.43","311","false","img/card_backs/set1/purple.gif","img/card_backs/set1/red.gif","img/card_backs/set1/yellow.gif","img/card_backs/set1/green.gif","img/card_backs/set2/gray.gif","img/card_backs/set2/orange.gif","img/card_backs/set2/pink.gif","img/card_backs/set2/blue.gif","""event"",""trial"",""time""
""fullscreenenter"",""1"",""1657""
","
","
","""event"",""trial"",""time""
""fullscreenenter"",""1"",""1657""
","
","","null","","null","","fixation","2021-08-10 16:51:15.512","","","","","",""
"card-selection-trial","157","459509","0.0-25.0-1.43","311","false","img/card_backs/set1/purple.gif","img/card_backs/set1/red.gif","img/card_backs/set1/yellow.gif","img/card_backs/set1/green.gif","img/card_backs/set2/gray.gif","img/card_backs/set2/orange.gif","img/card_backs/set2/pink.gif","img/card_backs/set2/blue.gif","""event"",""trial"",""time""
""fullscreenenter"",""1"",""1657""
","
","
","""event"",""trial"",""time""
""fullscreenenter"",""1"",""1657""
","
","","679.8000000715256","","","","real_trial","2021-08-10 16:51:18.206","img/card_backs/set1/green.gif","3","-60","1","",""
"casino-fixation","158","460016","0.0-25.0-0.44","311","false","img/card_backs/set1/purple.gif","img/card_backs/set1/red.gif","img/card_backs/set1/yellow.gif","img/card_backs/set1/green.gif","img/card_backs/set2/gray.gif","img/card_backs/set2/orange.gif","img/card_backs/set2/pink.gif","img/card_backs/set2/blue.gif","""event"",""trial"",""time""
""fullscreenenter"",""1"",""1657""
","
","
","""event"",""trial"",""time""
""fullscreenenter"",""1"",""1657""
","
","","null","","null","","fixation","2021-08-10 16:51:18.712","","","","","",""
"card-selection-trial","159","462817","0.0-25.0-1.44","311","false","img/card_backs/set1/purple.gif","img/card_backs/set1/red.gif","img/card_backs/set1/yellow.gif","img/card_backs/set1/green.gif","img/card_backs/set2/gray.gif","img/card_backs/set2/orange.gif","img/card_backs/set2/pink.gif","img/card_backs/set2/blue.gif","""event"",""trial"",""time""
""fullscreenenter"",""1"",""1657""
","
","
","""event"",""trial"",""time""
""fullscreenenter"",""1"",""1657""
","
","","790.5999999046326","","","","real_trial","2021-08-10 16:51:21.513","img/card_backs/set1/green.gif","2","-50","1","",""
"casino-fixation","160","463322","0.0-25.0-0.45","311","false","img/card_backs/set1/purple.gif","img/card_backs/set1/red.gif","img/card_backs/set1/yellow.gif","img/card_backs/set1/green.gif","img/card_backs/set2/gray.gif","img/card_backs/set2/orange.gif","img/card_backs/set2/pink.gif","img/card_backs/set2/blue.gif","""event"",""trial"",""time""
""fullscreenenter"",""1"",""1657""
","
","
","""event"",""trial"",""time""
""fullscreenenter"",""1"",""1657""
","
","","null","","null","","fixation","2021-08-10 16:51:22.018","","","","","",""
"card-selection-trial","161","466026","0.0-25.0-1.45","311","false","img/card_backs/set1/purple.gif","img/card_backs/set1/red.gif","img/card_backs/set1/yellow.gif","img/card_backs/set1/green.gif","img/card_backs/set2/gray.gif","img/card_backs/set2/orange.gif","img/card_backs/set2/pink.gif","img/card_backs/set2/blue.gif","""event"",""trial"",""time""
""fullscreenenter"",""1"",""1657""
","
","
","""event"",""trial"",""time""
""fullscreenenter"",""1"",""1657""
","
","","692.3000000715256","","","","real_trial","2021-08-10 16:51:24.722","img/card_backs/set1/green.gif","0","-50","1","",""
"casino-fixation","162","466532","0.0-25.0-0.46","311","false","img/card_backs/set1/purple.gif","img/card_backs/set1/red.gif","img/card_backs/set1/yellow.gif","img/card_backs/set1/green.gif","img/card_backs/set2/gray.gif","img/card_backs/set2/orange.gif","img/card_backs/set2/pink.gif","img/card_backs/set2/blue.gif","""event"",""trial"",""time""
""fullscreenenter"",""1"",""1657""
","
","
","""event"",""trial"",""time""
""fullscreenenter"",""1"",""1657""
","
","","null","","null","","fixation","2021-08-10 16:51:25.228","","","","","",""
"card-selection-trial","163","469690","0.0-25.0-1.46","311","false","img/card_backs/set1/purple.gif","img/card_backs/set1/red.gif","img/card_backs/set1/yellow.gif","img/card_backs/set1/green.gif","img/card_backs/set2/gray.gif","img/card_backs/set2/orange.gif","img/card_backs/set2/pink.gif","img/card_backs/set2/blue.gif","""event"",""trial"",""time""
""fullscreenenter"",""1"",""1657""
","
","
","""event"",""trial"",""time""
""fullscreenenter"",""1"",""1657""
","
","","1144","","","","real_trial","2021-08-10 16:51:28.386","img/card_backs/set1/green.gif","2","120","1","",""
"casino-fixation","164","470196","0.0-25.0-0.47","311","false","img/card_backs/set1/purple.gif","img/card_backs/set1/red.gif","img/card_backs/set1/yellow.gif","img/card_backs/set1/green.gif","img/card_backs/set2/gray.gif","img/card_backs/set2/orange.gif","img/card_backs/set2/pink.gif","img/card_backs/set2/blue.gif","""event"",""trial"",""time""
""fullscreenenter"",""1"",""1657""
","
","
","""event"",""trial"",""time""
""fullscreenenter"",""1"",""1657""
","
","","null","","null","","fixation","2021-08-10 16:51:28.892","","","","","",""
"card-selection-trial","165","473248","0.0-25.0-1.47","311","false","img/card_backs/set1/purple.gif","img/card_backs/set1/red.gif","img/card_backs/set1/yellow.gif","img/card_backs/set1/green.gif","img/card_backs/set2/gray.gif","img/card_backs/set2/orange.gif","img/card_backs/set2/pink.gif","img/card_backs/set2/blue.gif","""event"",""trial"",""time""
""fullscreenenter"",""1"",""1657""
","
","
","""event"",""trial"",""time""
""fullscreenenter"",""1"",""1657""
","
","","1041.1000000238419","","","","real_trial","2021-08-10 16:51:31.944","img/card_backs/set1/green.gif","1","-70","1","",""
"casino-fixation","166","473754","0.0-25.0-0.48","311","false","img/card_backs/set1/purple.gif","img/card_backs/set1/red.gif","img/card_backs/set1/yellow.gif","img/card_backs/set1/green.gif","img/card_backs/set2/gray.gif","img/card_backs/set2/orange.gif","img/card_backs/set2/pink.gif","img/card_backs/set2/blue.gif","""event"",""trial"",""time""
""fullscreenenter"",""1"",""1657""
","
","
","""event"",""trial"",""time""
""fullscreenenter"",""1"",""1657""
","
","","null","","null","","fixation","2021-08-10 16:51:32.450","","","","","",""
"card-selection-trial","167","477007","0.0-25.0-1.48","311","false","img/card_backs/set1/purple.gif","img/card_backs/set1/red.gif","img/card_backs/set1/yellow.gif","img/card_backs/set1/green.gif","img/card_backs/set2/gray.gif","img/card_backs/set2/orange.gif","img/card_backs/set2/pink.gif","img/card_backs/set2/blue.gif","""event"",""trial"",""time""
""fullscreenenter"",""1"",""1657""
","
","
","""event"",""trial"",""time""
""fullscreenenter"",""1"",""1657""
","
