"trial_type","trial_index","time_elapsed","internal_node_id","sub_id","risk_good_first","block1_A","block1_B","block1_C","block1_D","block2_A","block2_B","block2_C","block2_D","interactions","blur_events","focus_events","fullscreenenter_events","fullscreenexit_events","success","rt","stimulus","key_press","button_pressed","task_part","timestamp","card_choice","choice_position","points_earned","block","correct","response"
"pavlovia","0","7","0.0-0.0","646","true","img/card_backs/set1/green.gif","img/card_backs/set1/red.gif","img/card_backs/set1/yellow.gif","img/card_backs/set1/purple.gif","img/card_backs/set2/pink.gif","img/card_backs/set2/orange.gif","img/card_backs/set2/gray.gif","img/card_backs/set2/blue.gif","""event"",""trial"",""time""
""fullscreenenter"",""1"",""3886""
","
","
","""event"",""trial"",""time""
""fullscreenenter"",""1"",""3886""
","
","","","","","","","","","","","","",""
"fullscreen","1","4877","0.0-1.0","646","true","img/card_backs/set1/green.gif","img/card_backs/set1/red.gif","img/card_backs/set1/yellow.gif","img/card_backs/set1/purple.gif","img/card_backs/set2/pink.gif","img/card_backs/set2/orange.gif","img/card_backs/set2/gray.gif","img/card_backs/set2/blue.gif","""event"",""trial"",""time""
""fullscreenenter"",""1"",""3886""
","
","
","""event"",""trial"",""time""
""fullscreenenter"",""1"",""3886""
","
","true","","","","","","","","","","","",""
"audio-keyboard-response","2","6665","0.0-2.0","646","true","img/card_backs/set1/green.gif","img/card_backs/set1/red.gif","img/card_backs/set1/yellow.gif","img/card_backs/set1/purple.gif","img/card_backs/set2/pink.gif","img/card_backs/set2/orange.gif","img/card_backs/set2/gray.gif","img/card_backs/set2/blue.gif","""event"",""trial"",""time""
""fullscreenenter"",""1"",""3886""
","
","
","""event"",""trial"",""time""
""fullscreenenter"",""1"",""3886""
","
","","1723","audio/beep_loop.wav","32","","","","","","","","",""
"audio-button-response","3","8750","0.0-3.0","646","true","img/card_backs/set1/green.gif","img/card_backs/set1/red.gif","img/card_backs/set1/yellow.gif","img/card_backs/set1/purple.gif","img/card_backs/set2/pink.gif","img/card_backs/set2/orange.gif","img/card_backs/set2/gray.gif","img/card_backs/set2/blue.gif","""event"",""trial"",""time""
""fullscreenenter"",""1"",""3886""
","
","
","""event"",""trial"",""time""
""fullscreenenter"",""1"",""3886""
","
","","NaN","audio/turtle.mp3","","3","","","","","","","",""
"audio-button-response","4","11188","0.0-4.0","646","true","img/card_backs/set1/green.gif","img/card_backs/set1/red.gif","img/card_backs/set1/yellow.gif","img/card_backs/set1/purple.gif","img/card_backs/set2/pink.gif","img/card_backs/set2/orange.gif","img/card_backs/set2/gray.gif","img/card_backs/set2/blue.gif","""event"",""trial"",""time""
""fullscreenenter"",""1"",""3886""
","
","
","""event"",""trial"",""time""
""fullscreenenter"",""1"",""3886""
","
","","NaN","audio/shark.mp3","","2","","","","","","","",""
"fullscreen","5","14804","0.0-5.0","646","true","img/card_backs/set1/green.gif","img/card_backs/set1/red.gif","img/card_backs/set1/yellow.gif","img/card_backs/set1/purple.gif","img/card_backs/set2/pink.gif","img/card_backs/set2/orange.gif","img/card_backs/set2/gray.gif","img/card_backs/set2/blue.gif","""event"",""trial"",""time""
""fullscreenenter"",""1"",""3886""
","
","
","""event"",""trial"",""time""
""fullscreenenter"",""1"",""3886""
","
","true","","","","","","","","","","","",""
"casino-keyboard-response","6","21007","0.0-6.0-0.0","646","true","img/card_backs/set1/green.gif","img/card_backs/set1/red.gif","img/card_backs/set1/yellow.gif","img/card_backs/set1/purple.gif","img/card_backs/set2/pink.gif","img/card_backs/set2/orange.gif","img/card_backs/set2/gray.gif","img/card_backs/set2/blue.gif","""event"",""trial"",""time""
""fullscreenenter"",""1"",""3886""
","
","
","""event"",""trial"",""time""
""fullscreenenter"",""1"",""3886""
","
","","6197.100000023842","Welcome to the casino!","71","","instructions","2021-06-23 17:53:51.206","","","","","",""
"casino-keyboard-response","7","35774","0.0-6.0-0.1","646","true","img/card_backs/set1/green.gif","img/card_backs/set1/red.gif","img/card_backs/set1/yellow.gif","img/card_backs/set1/purple.gif","img/card_backs/set2/pink.gif","img/card_backs/set2/orange.gif","img/card_backs/set2/gray.gif","img/card_backs/set2/blue.gif","""event"",""trial"",""time""
""fullscreenenter"",""1"",""3886""
","
","
","""event"",""trial"",""time""
""fullscreenenter"",""1"",""3886""
","
","","14765.90000000596","Today you will be playing a game to earn tokens. </br> At the end of the experiment, you will be paid a bonus based on how many tokens you win. ","69","","instructions","2021-06-23 17:54:05.974","","","","","",""
"casino-keyboard-response","8","48562","0.0-6.0-0.2","646","true","img/card_backs/set1/green.gif","img/card_backs/set1/red.gif","img/card_backs/set1/yellow.gif","img/card_backs/set1/purple.gif","img/card_backs/set2/pink.gif","img/card_backs/set2/orange.gif","img/card_backs/set2/gray.gif","img/card_backs/set2/blue.gif","""event"",""trial"",""time""
""fullscreenenter"",""1"",""3886""
","
","
","""event"",""trial"",""time""
""fullscreenenter"",""1"",""3886""
","
","","12783.799999982119","On every turn, you will be shown four different decks of cards. </br> You need to select a card from one of the four decks.  ","75","","instructions","2021-06-23 17:54:18.761","","","","","",""
"casino-keyboard-response","9","54337","0.0-6.0-0.3","646","true","img/card_backs/set1/green.gif","img/card_backs/set1/red.gif","img/card_backs/set1/yellow.gif","img/card_backs/set1/purple.gif","img/card_backs/set2/pink.gif","img/card_backs/set2/orange.gif","img/card_backs/set2/gray.gif","img/card_backs/set2/blue.gif","""event"",""trial"",""time""
""fullscreenenter"",""1"",""3886""
","
","
","""event"",""trial"",""time""
""fullscreenenter"",""1"",""3886""
","
","","5772.4000000059605","On the next screen, you will see what the decks will look like. ","66","","instructions","2021-06-23 17:54:24.536","","","","","",""
"card-selection-trial","10","58347","0.0-7.0-0.0","646","true","img/card_backs/set1/green.gif","img/card_backs/set1/red.gif","img/card_backs/set1/yellow.gif","img/card_backs/set1/purple.gif","img/card_backs/set2/pink.gif","img/card_backs/set2/orange.gif","img/card_backs/set2/gray.gif","img/card_backs/set2/blue.gif","""event"",""trial"",""time""
""fullscreenenter"",""1"",""3886""
","
","
","""event"",""trial"",""time""
""fullscreenenter"",""1"",""3886""
","
","","null","","","","practice","2021-06-23 17:54:28.547","null","null","null","0","",""
"casino-keyboard-response","11","76327","0.0-8.0-0.0","646","true","img/card_backs/set1/green.gif","img/card_backs/set1/red.gif","img/card_backs/set1/yellow.gif","img/card_backs/set1/purple.gif","img/card_backs/set2/pink.gif","img/card_backs/set2/orange.gif","img/card_backs/set2/gray.gif","img/card_backs/set2/blue.gif","""event"",""trial"",""time""
""fullscreenenter"",""1"",""3886""
","
","
","""event"",""trial"",""time""
""fullscreenenter"",""1"",""3886""
","
","","17977.70000001788","You should pick a card from a deck using the '2', '4', '6', and '8' keys at the top of the keyboard.","85","","instructions","2021-06-23 17:54:46.526","","","","","",""
"casino-keyboard-response","12","83759","0.0-8.0-0.1","646","true","img/card_backs/set1/green.gif","img/card_backs/set1/red.gif","img/card_backs/set1/yellow.gif","img/card_backs/set1/purple.gif","img/card_backs/set2/pink.gif","img/card_backs/set2/orange.gif","img/card_backs/set2/gray.gif","img/card_backs/set2/blue.gif","""event"",""trial"",""time""
""fullscreenenter"",""1"",""3886""
","
","
","""event"",""trial"",""time""
""fullscreenenter"",""1"",""3886""
","
","","7429.199999988079","Once you select a card, it will turn over and you will see how many tokens you earned.","83","","instructions","2021-06-23 17:54:53.958","","","","","",""
"casino-keyboard-response","13","91588","0.0-8.0-0.2","646","true","img/card_backs/set1/green.gif","img/card_backs/set1/red.gif","img/card_backs/set1/yellow.gif","img/card_backs/set1/purple.gif","img/card_backs/set2/pink.gif","img/card_backs/set2/orange.gif","img/card_backs/set2/gray.gif","img/card_backs/set2/blue.gif","""event"",""trial"",""time""
""fullscreenenter"",""1"",""3886""
","
","
","""event"",""trial"",""time""
""fullscreenenter"",""1"",""3886""
","
","","7826.700000017881","Let's try practicing that! </br> First, try to put your fingers over the '2', '4', '6', and '8' keys. </br>  You can use whatever fingers are most comfortable for you. Try to find a comfortable position now. ","50","","instructions","2021-06-23 17:55:01.787","","","","","",""
"casino-keyboard-response","14","98102","0.0-8.0-0.3","646","true","img/card_backs/set1/green.gif","img/card_backs/set1/red.gif","img/card_backs/set1/yellow.gif","img/card_backs/set1/purple.gif","img/card_backs/set2/pink.gif","img/card_backs/set2/orange.gif","img/card_backs/set2/gray.gif","img/card_backs/set2/blue.gif","""event"",""trial"",""time""
""fullscreenenter"",""1"",""3886""
","
","
","""event"",""trial"",""time""
""fullscreenenter"",""1"",""3886""
","
","","6511.300000011921","Okay ready? </br> On the next screen, press '2' to select the left deck. ","50","","instructions","2021-06-23 17:55:08.301","","","","","",""
"card-selection-trial","15","101578","0.0-9.0-0.0","646","true","img/card_backs/set1/green.gif","img/card_backs/set1/red.gif","img/card_backs/set1/yellow.gif","img/card_backs/set1/purple.gif","img/card_backs/set2/pink.gif","img/card_backs/set2/orange.gif","img/card_backs/set2/gray.gif","img/card_backs/set2/blue.gif","""event"",""trial"",""time""
""fullscreenenter"",""1"",""3886""
","
","
","""event"",""trial"",""time""
""fullscreenenter"",""1"",""3886""
","
","","1459.4000000059605","","","","practice_card_selection","2021-06-23 17:55:11.778","img/practice_cards/backs/dark_blue.gif","0","200","","",""
"casino-keyboard-response","16","107629","0.0-10.0-0.0","646","true","img/card_backs/set1/green.gif","img/card_backs/set1/red.gif","img/card_backs/set1/yellow.gif","img/card_backs/set1/purple.gif","img/card_backs/set2/pink.gif","img/card_backs/set2/orange.gif","img/card_backs/set2/gray.gif","img/card_backs/set2/blue.gif","""event"",""trial"",""time""
""fullscreenenter"",""1"",""3886""
","
","
","""event"",""trial"",""time""
""fullscreenenter"",""1"",""3886""
","
","","6047.0999999940395","Great! Now on the next screen, try pressing '6' to select the third deck.","54","","instructions","2021-06-23 17:55:17.828","","","","","",""
"card-selection-trial","17","110615","0.0-11.0-0.0","646","true","img/card_backs/set1/green.gif","img/card_backs/set1/red.gif","img/card_backs/set1/yellow.gif","img/card_backs/set1/purple.gif","img/card_backs/set2/pink.gif","img/card_backs/set2/orange.gif","img/card_backs/set2/gray.gif","img/card_backs/set2/blue.gif","""event"",""trial"",""time""
""fullscreenenter"",""1"",""3886""
","
","
","""event"",""trial"",""time""
""fullscreenenter"",""1"",""3886""
","
","","974.8999999761581","","","","practice_card_selection","2021-06-23 17:55:20.814","img/practice_cards/backs/dark_blue.gif","2","-200","","",""
"casino-keyboard-response","18","115734","0.0-12.0-0.0","646","true","img/card_backs/set1/green.gif","img/card_backs/set1/red.gif","img/card_backs/set1/yellow.gif","img/card_backs/set1/purple.gif","img/card_backs/set2/pink.gif","img/card_backs/set2/orange.gif","img/card_backs/set2/gray.gif","img/card_backs/set2/blue.gif","""event"",""trial"",""time""
""fullscreenenter"",""1"",""3886""
","
","
","""event"",""trial"",""time""
""fullscreenenter"",""1"",""3886""
","
","","5114.699999988079","Now on the next screen, try pressing '4' to select the second deck.","52","","instructions","2021-06-23 17:55:25.933","","","","","",""
"card-selection-trial","19","118286","0.0-13.0-0.0","646","true","img/card_backs/set1/green.gif","img/card_backs/set1/red.gif","img/card_backs/set1/yellow.gif","img/card_backs/set1/purple.gif","img/card_backs/set2/pink.gif","img/card_backs/set2/orange.gif","img/card_backs/set2/gray.gif","img/card_backs/set2/blue.gif","""event"",""trial"",""time""
""fullscreenenter"",""1"",""3886""
","
","
","""event"",""trial"",""time""
""fullscreenenter"",""1"",""3886""
","
","","539.8000000119209","","","","practice_card_selection","2021-06-23 17:55:28.486","img/practice_cards/backs/dark_blue.gif","1","200","","",""
"casino-keyboard-response","20","122869","0.0-14.0-0.0","646","true","img/card_backs/set1/green.gif","img/card_backs/set1/red.gif","img/card_backs/set1/yellow.gif","img/card_backs/set1/purple.gif","img/card_backs/set2/pink.gif","img/card_backs/set2/orange.gif","img/card_backs/set2/gray.gif","img/card_backs/set2/blue.gif","""event"",""trial"",""time""
""fullscreenenter"",""1"",""3886""
","
","
","""event"",""trial"",""time""
""fullscreenenter"",""1"",""3886""
","
","","4580.4000000059605","Finally, try pressing '8' to select the deck all the way on the right.","56","","instructions","2021-06-23 17:55:33.068","","","","","",""
"card-selection-trial","21","125982","0.0-15.0-0.0","646","true","img/card_backs/set1/green.gif","img/card_backs/set1/red.gif","img/card_backs/set1/yellow.gif","img/card_backs/set1/purple.gif","img/card_backs/set2/pink.gif","img/card_backs/set2/orange.gif","img/card_backs/set2/gray.gif","img/card_backs/set2/blue.gif","""event"",""trial"",""time""
""fullscreenenter"",""1"",""3886""
","
","
","""event"",""trial"",""time""
""fullscreenenter"",""1"",""3886""
","
","","1102.2999999821186","","","","practice_card_selection","2021-06-23 17:55:36.181","img/practice_cards/backs/brown.gif","3","-100","","",""
"casino-keyboard-response","22","132407","0.0-16.0-0.0","646","true","img/card_backs/set1/green.gif","img/card_backs/set1/red.gif","img/card_backs/set1/yellow.gif","img/card_backs/set1/purple.gif","img/card_backs/set2/pink.gif","img/card_backs/set2/orange.gif","img/card_backs/set2/gray.gif","img/card_backs/set2/blue.gif","""event"",""trial"",""time""
""fullscreenenter"",""1"",""3886""
","
","
","""event"",""trial"",""time""
""fullscreenenter"",""1"",""3886""
","
","","6422.5999999940395","Great! It seems like you are getting the hang of this.","80","","instructions","2021-06-23 17:55:42.606","","","","","",""
"casino-keyboard-response","23","149700","0.0-16.0-0.1","646","true","img/card_backs/set1/green.gif","img/card_backs/set1/red.gif","img/card_backs/set1/yellow.gif","img/card_backs/set1/purple.gif","img/card_backs/set2/pink.gif","img/card_backs/set2/orange.gif","img/card_backs/set2/gray.gif","img/card_backs/set2/blue.gif","""event"",""trial"",""time""
""fullscreenenter"",""1"",""3886""
","
","
","""event"",""trial"",""time""
""fullscreenenter"",""1"",""3886""
","
","","17291.70000001788","You may have noticed that some cards will cause you to <b> win </b> tokens while other cards will cause you to <b> lose </b>  tokens.","70","","instructions","2021-06-23 17:55:59.899","","","","","",""
"casino-keyboard-response","24","158836","0.0-16.0-0.2","646","true","img/card_backs/set1/green.gif","img/card_backs/set1/red.gif","img/card_backs/set1/yellow.gif","img/card_backs/set1/purple.gif","img/card_backs/set2/pink.gif","img/card_backs/set2/orange.gif","img/card_backs/set2/gray.gif","img/card_backs/set2/blue.gif","""event"",""trial"",""time""
""fullscreenenter"",""1"",""3886""
","
","
","""event"",""trial"",""time""
""fullscreenenter"",""1"",""3886""
","
","","9134","Each deck has a mix of cards that will cause you to win and lose tokens. </br> However, the cards in each colored deck are different.","73","","instructions","2021-06-23 17:56:09.035","","","","","",""
"casino-keyboard-response","25","168685","0.0-16.0-0.3","646","true","img/card_backs/set1/green.gif","img/card_backs/set1/red.gif","img/card_backs/set1/yellow.gif","img/card_backs/set1/purple.gif","img/card_backs/set2/pink.gif","img/card_backs/set2/orange.gif","img/card_backs/set2/gray.gif","img/card_backs/set2/blue.gif","""event"",""trial"",""time""
""fullscreenenter"",""1"",""3886""
","
","
","""event"",""trial"",""time""
""fullscreenenter"",""1"",""3886""
","
","","9846.299999982119","Some colored decks are luckier than others. </br> If you choose the lucky decks, you will earn more tokens than if you choose the unlucky decks.","69","","instructions","2021-06-23 17:56:18.884","","","","","",""
"casino-keyboard-response","26","178371","0.0-16.0-0.4","646","true","img/card_backs/set1/green.gif","img/card_backs/set1/red.gif","img/card_backs/set1/yellow.gif","img/card_backs/set1/purple.gif","img/card_backs/set2/pink.gif","img/card_backs/set2/orange.gif","img/card_backs/set2/gray.gif","img/card_backs/set2/blue.gif","""event"",""trial"",""time""
""fullscreenenter"",""1"",""3886""
","
","
","""event"",""trial"",""time""
""fullscreenenter"",""1"",""3886""
","
","","9683.09999999404","You should try to figure out which decks are lucky. </br> Then, try to choose the lucky decks so you can win the most tokens.","87","","instructions","2021-06-23 17:56:28.570","","","","","",""
"casino-keyboard-response","27","203411","0.0-16.0-0.5","646","true","img/card_backs/set1/green.gif","img/card_backs/set1/red.gif","img/card_backs/set1/yellow.gif","img/card_backs/set1/purple.gif","img/card_backs/set2/pink.gif","img/card_backs/set2/orange.gif","img/card_backs/set2/gray.gif","img/card_backs/set2/blue.gif","""event"",""trial"",""time""
""fullscreenenter"",""1"",""3886""
","
","
","""event"",""trial"",""time""
""fullscreenenter"",""1"",""3886""
","
","","25039","To make it trickier, the casino dealer will switch the locations of the decks on every turn. </br> The color of the deck determines how lucky it is. The location does not matter.","88","","instructions","2021-06-23 17:56:53.610","","","","","",""
"casino-keyboard-response","28","213618","0.0-16.0-0.6","646","true","img/card_backs/set1/green.gif","img/card_backs/set1/red.gif","img/card_backs/set1/yellow.gif","img/card_backs/set1/purple.gif","img/card_backs/set2/pink.gif","img/card_backs/set2/orange.gif","img/card_backs/set2/gray.gif","img/card_backs/set2/blue.gif","""event"",""trial"",""time""
""fullscreenenter"",""1"",""3886""
","
","
","""event"",""trial"",""time""
""fullscreenenter"",""1"",""3886""
","
","","10204.800000011921","The mix of cards in each colored deck will stay the same throughout the game. </br> That means that a deck that is lucky early on will stay lucky.","79","","instructions","2021-06-23 17:57:03.818","","","","","",""
"casino-keyboard-response","29","222870","0.0-16.0-0.7","646","true","img/card_backs/set1/green.gif","img/card_backs/set1/red.gif","img/card_backs/set1/yellow.gif","img/card_backs/set1/purple.gif","img/card_backs/set2/pink.gif","img/card_backs/set2/orange.gif","img/card_backs/set2/gray.gif","img/card_backs/set2/blue.gif","""event"",""trial"",""time""
""fullscreenenter"",""1"",""3886""
","
","
","""event"",""trial"",""time""
""fullscreenenter"",""1"",""3886""
","
","","9249.40000000596","Remember though, all the decks have a <b> mix </b> of both <b> good </b> and <b> bad </b> cards so it may take a couple of turns to figure out if a deck is lucky.","69","","instructions","2021-06-23 17:57:13.069","","","","","",""
"casino-keyboard-response","30","233220","0.0-16.0-0.8","646","true","img/card_backs/set1/green.gif","img/card_backs/set1/red.gif","img/card_backs/set1/yellow.gif","img/card_backs/set1/purple.gif","img/card_backs/set2/pink.gif","img/card_backs/set2/orange.gif","img/card_backs/set2/gray.gif","img/card_backs/set2/blue.gif","""event"",""trial"",""time""
""fullscreenenter"",""1"",""3886""
","
","
","""event"",""trial"",""time""
""fullscreenenter"",""1"",""3886""
","
","","10347.200000017881","At the end of the game, you will be paid bonus money based on how many tokens you win. </br> If you win more tokens, you will earn more money!","72","","instructions","2021-06-23 17:57:23.419","","","","","",""
"casino-keyboard-response","31","248408","0.0-16.0-0.9","646","true","img/card_backs/set1/green.gif","img/card_backs/set1/red.gif","img/card_backs/set1/yellow.gif","img/card_backs/set1/purple.gif","img/card_backs/set2/pink.gif","img/card_backs/set2/orange.gif","img/card_backs/set2/gray.gif","img/card_backs/set2/blue.gif","""event"",""trial"",""time""
""fullscreenenter"",""1"",""3886""
","
","
","""event"",""trial"",""time""
""fullscreenenter"",""1"",""3886""
","
","","15185.40000000596","You will never <b> lose </b> money. </br> If you end up with fewer than 0 tokens, you will earn $0 of bonus money, but you will still be paid for playing the game.","83","","instructions","2021-06-23 17:57:38.607","","","","","",""
"casino-keyboard-response","32","253262","0.0-16.0-0.10","646","true","img/card_backs/set1/green.gif","img/card_backs/set1/red.gif","img/card_backs/set1/yellow.gif","img/card_backs/set1/purple.gif","img/card_backs/set2/pink.gif","img/card_backs/set2/orange.gif","img/card_backs/set2/gray.gif","img/card_backs/set2/blue.gif","""event"",""trial"",""time""
""fullscreenenter"",""1"",""3886""
","
","
","""event"",""trial"",""time""
""fullscreenenter"",""1"",""3886""
","
","","4851.5","You will have 10 seconds to make each choice.","82","","instructions","2021-06-23 17:57:43.461","","","","","",""
"casino-keyboard-response","33","263103","0.0-16.0-0.11","646","true","img/card_backs/set1/green.gif","img/card_backs/set1/red.gif","img/card_backs/set1/yellow.gif","img/card_backs/set1/purple.gif","img/card_backs/set2/pink.gif","img/card_backs/set2/orange.gif","img/card_backs/set2/gray.gif","img/card_backs/set2/blue.gif","""event"",""trial"",""time""
""fullscreenenter"",""1"",""3886""
","
","
","""event"",""trial"",""time""
""fullscreenenter"",""1"",""3886""
","
","","9837.300000011921","Before you play the game for real, you will play with practice decks. </br> The tokens you earn during practice won't count toward your total.","86","","instructions","2021-06-23 17:57:53.302","","","","","",""
"casino-keyboard-response","34","274332","0.0-16.0-0.12","646","true","img/card_backs/set1/green.gif","img/card_backs/set1/red.gif","img/card_backs/set1/yellow.gif","img/card_backs/set1/purple.gif","img/card_backs/set2/pink.gif","img/card_backs/set2/orange.gif","img/card_backs/set2/gray.gif","img/card_backs/set2/blue.gif","""event"",""trial"",""time""
""fullscreenenter"",""1"",""3886""
","
","
","""event"",""trial"",""time""
""fullscreenenter"",""1"",""3886""
","
","","11226.09999999404","Ready? Remember, use the '2', '4', '6', and '8' keys to select the decks. </br> Put your fingers on those keys now and then press '2' to begin.","50","","instructions","2021-06-23 17:58:04.531","","","","","",""
"casino-fixation","35","274836","0.0-17.0-0.0","646","true","img/card_backs/set1/green.gif","img/card_backs/set1/red.gif","img/card_backs/set1/yellow.gif","img/card_backs/set1/purple.gif","img/card_backs/set2/pink.gif","img/card_backs/set2/orange.gif","img/card_backs/set2/gray.gif","img/card_backs/set2/blue.gif","""event"",""trial"",""time""
""fullscreenenter"",""1"",""3886""
","
","
","""event"",""trial"",""time""
""fullscreenenter"",""1"",""3886""
","
","","null","","null","","fixation","2021-06-23 17:58:05.035","","","","","",""
"card-selection-trial","36","280562","0.0-17.0-1.0","646","true","img/card_backs/set1/green.gif","img/card_backs/set1/red.gif","img/card_backs/set1/yellow.gif","img/card_backs/set1/purple.gif","img/card_backs/set2/pink.gif","img/card_backs/set2/orange.gif","img/card_backs/set2/gray.gif","img/card_backs/set2/blue.gif","""event"",""trial"",""time""
""fullscreenenter"",""1"",""3886""
","
","
","""event"",""trial"",""time""
""fullscreenenter"",""1"",""3886""
","
","","3716.7999999821186","","","","practice","2021-06-23 17:58:10.761","img/practice_cards/backs/dark_green.gif","2","200","0","",""
"casino-fixation","37","281067","0.0-17.0-0.1","646","true","img/card_backs/set1/green.gif","img/card_backs/set1/red.gif","img/card_backs/set1/yellow.gif","img/card_backs/set1/purple.gif","img/card_backs/set2/pink.gif","img/card_backs/set2/orange.gif","img/card_backs/set2/gray.gif","img/card_backs/set2/blue.gif","""event"",""trial"",""time""
""fullscreenenter"",""1"",""3886""
","
","
","""event"",""trial"",""time""
""fullscreenenter"",""1"",""3886""
","
","","null","","null","","fixation","2021-06-23 17:58:11.266","","","","","",""
"card-selection-trial","38","287242","0.0-17.0-1.1","646","true","img/card_backs/set1/green.gif","img/card_backs/set1/red.gif","img/card_backs/set1/yellow.gif","img/card_backs/set1/purple.gif","img/card_backs/set2/pink.gif","img/card_backs/set2/orange.gif","img/card_backs/set2/gray.gif","img/card_backs/set2/blue.gif","""event"",""trial"",""time""
""fullscreenenter"",""1"",""3886""
","
","
","""event"",""trial"",""time""
""fullscreenenter"",""1"",""3886""
","
","","4166.5","","","","practice","2021-06-23 17:58:17.441","img/practice_cards/backs/dark_green.gif","3","-200","0","",""
"casino-fixation","39","287745","0.0-17.0-0.2","646","true","img/card_backs/set1/green.gif","img/card_backs/set1/red.gif","img/card_backs/set1/yellow.gif","img/card_backs/set1/purple.gif","img/card_backs/set2/pink.gif","img/card_backs/set2/orange.gif","img/card_backs/set2/gray.gif","img/card_backs/set2/blue.gif","""event"",""trial"",""time""
""fullscreenenter"",""1"",""3886""
","
","
","""event"",""trial"",""time""
""fullscreenenter"",""1"",""3886""
","
","","null","","null","","fixation","2021-06-23 17:58:17.945","","","","","",""
"card-selection-trial","40","291201","0.0-17.0-1.2","646","true","img/card_backs/set1/green.gif","img/card_backs/set1/red.gif","img/card_backs/set1/yellow.gif","img/card_backs/set1/purple.gif","img/card_backs/set2/pink.gif","img/card_backs/set2/orange.gif","img/card_backs/set2/gray.gif","img/card_backs/set2/blue.gif","""event"",""trial"",""time""
""fullscreenenter"",""1"",""3886""
","
","
","""event"",""trial"",""time""
""fullscreenenter"",""1"",""3886""
","
","","1444.5","","","","practice","2021-06-23 17:58:21.400","img/practice_cards/backs/black.gif","1","-100","0","",""
"casino-fixation","41","291708","0.0-17.0-0.3","646","true","img/card_backs/set1/green.gif","img/card_backs/set1/red.gif","img/card_backs/set1/yellow.gif","img/card_backs/set1/purple.gif","img/card_backs/set2/pink.gif","img/card_backs/set2/orange.gif","img/card_backs/set2/gray.gif","img/card_backs/set2/blue.gif","""event"",""trial"",""time""
""fullscreenenter"",""1"",""3886""
","
","
","""event"",""trial"",""time""
""fullscreenenter"",""1"",""3886""
","
","","null","","null","","fixation","2021-06-23 17:58:21.907","","","","","",""
"card-selection-trial","42","295319","0.0-17.0-1.3","646","true","img/card_backs/set1/green.gif","img/card_backs/set1/red.gif","img/card_backs/set1/yellow.gif","img/card_backs/set1/purple.gif","img/card_backs/set2/pink.gif","img/card_backs/set2/orange.gif","img/card_backs/set2/gray.gif","img/card_backs/set2/blue.gif","""event"",""trial"",""time""
""fullscreenenter"",""1"",""3886""
","
","
","""event"",""trial"",""time""
""fullscreenenter"",""1"",""3886""
","
","","1596.5999999940395","","","","practice","2021-06-23 17:58:25.518","img/practice_cards/backs/dark_blue.gif","0","200","0","",""
"casino-fixation","43","295825","0.0-17.0-0.4","646","true","img/card_backs/set1/green.gif","img/card_backs/set1/red.gif","img/card_backs/set1/yellow.gif","img/card_backs/set1/purple.gif","img/card_backs/set2/pink.gif","img/card_backs/set2/orange.gif","img/card_backs/set2/gray.gif","img/card_backs/set2/blue.gif","""event"",""trial"",""time""
""fullscreenenter"",""1"",""3886""
","
","
","""event"",""trial"",""time""
""fullscreenenter"",""1"",""3886""
","
","","null","","null","","fixation","2021-06-23 17:58:26.024","","","","","",""
"card-selection-trial","44","301889","0.0-17.0-1.4","646","true","img/card_backs/set1/green.gif","img/card_backs/set1/red.gif","img/card_backs/set1/yellow.gif","img/card_backs/set1/purple.gif","img/card_backs/set2/pink.gif","img/card_backs/set2/orange.gif","img/card_backs/set2/gray.gif","img/card_backs/set2/blue.gif","""event"",""trial"",""time""
""fullscreenenter"",""1"",""3886""
","
","
","""event"",""trial"",""time""
""fullscreenenter"",""1"",""3886""
","
","","4052.5","","","","practice","2021-06-23 17:58:32.088","img/practice_cards/backs/dark_blue.gif","2","-200","0","",""
"casino-fixation","45","302395","0.0-17.0-0.5","646","true","img/card_backs/set1/green.gif","img/card_backs/set1/red.gif","img/card_backs/set1/yellow.gif","img/card_backs/set1/purple.gif","img/card_backs/set2/pink.gif","img/card_backs/set2/orange.gif","img/card_backs/set2/gray.gif","img/card_backs/set2/blue.gif","""event"",""trial"",""time""
""fullscreenenter"",""1"",""3886""
","
","
","""event"",""trial"",""time""
""fullscreenenter"",""1"",""3886""
","
","","null","","null","","fixation","2021-06-23 17:58:32.595","","","","","",""
"card-selection-trial","46","307962","0.0-17.0-1.5","646","true","img/card_backs/set1/green.gif","img/card_backs/set1/red.gif","img/card_backs/set1/yellow.gif","img/card_backs/set1/purple.gif","img/card_backs/set2/pink.gif","img/card_backs/set2/orange.gif","img/card_backs/set2/gray.gif","img/card_backs/set2/blue.gif","""event"",""trial"",""time""
""fullscreenenter"",""1"",""3886""
","
","
","""event"",""trial"",""time""
""fullscreenenter"",""1"",""3886""
","
","","3555.699999988079","","","","practice","2021-06-23 17:58:38.161","img/practice_cards/backs/dark_blue.gif","3","-200","0","",""
"casino-fixation","47","308466","0.0-17.0-0.6","646","true","img/card_backs/set1/green.gif","img/card_backs/set1/red.gif","img/card_backs/set1/yellow.gif","img/card_backs/set1/purple.gif","img/card_backs/set2/pink.gif","img/card_backs/set2/orange.gif","img/card_backs/set2/gray.gif","img/card_backs/set2/blue.gif","""event"",""trial"",""time""
""fullscreenenter"",""1"",""3886""
","
","
","""event"",""trial"",""time""
""fullscreenenter"",""1"",""3886""
","
","","null","","null","","fixation","2021-06-23 17:58:38.665","","","","","",""
"card-selection-trial","48","313982","0.0-17.0-1.6","646","true","img/card_backs/set1/green.gif","img/card_backs/set1/red.gif","img/card_backs/set1/yellow.gif","img/card_backs/set1/purple.gif","img/card_backs/set2/pink.gif","img/card_backs/set2/orange.gif","img/card_backs/set2/gray.gif","img/card_backs/set2/blue.gif","""event"",""trial"",""time""
""fullscreenenter"",""1"",""3886""
","
","
","""event"",""trial"",""time""
""fullscreenenter"",""1"",""3886""
","
","","3506.9000000059605","","","","practice","2021-06-23 17:58:44.181","img/practice_cards/backs/dark_green.gif","2","200","0","",""
"casino-fixation","49","314487","0.0-17.0-0.7","646","true","img/card_backs/set1/green.gif","img/card_backs/set1/red.gif","img/card_backs/set1/yellow.gif","img/card_backs/set1/purple.gif","img/card_backs/set2/pink.gif","img/card_backs/set2/orange.gif","img/card_backs/set2/gray.gif","img/card_backs/set2/blue.gif","""event"",""trial"",""time""
""fullscreenenter"",""1"",""3886""
","
","
","""event"",""trial"",""time""
""fullscreenenter"",""1"",""3886""
","
","","null","","null","","fixation","2021-06-23 17:58:44.686","","","","","",""
"card-selection-trial","50","320722","0.0-17.0-1.7","646","true","img/card_backs/set1/green.gif","img/card_backs/set1/red.gif","img/card_backs/set1/yellow.gif","img/card_backs/set1/purple.gif","img/card_backs/set2/pink.gif","img/card_backs/set2/orange.gif","img/card_backs/set2/gray.gif","img/card_backs/set2/blue.gif","""event"",""trial"",""time""
""fullscreenenter"",""1"",""3886""
","
","
","""event"",""trial"",""time""
""fullscreenenter"",""1"",""3886""
","
","","4223.300000011921","","","","practice","2021-06-23 17:58:50.921","img/practice_cards/backs/dark_green.gif","3","-200","0","",""
"casino-fixation","51","321228","0.0-17.0-0.8","646","true","img/card_backs/set1/green.gif","img/card_backs/set1/red.gif","img/card_backs/set1/yellow.gif","img/card_backs/set1/purple.gif","img/card_backs/set2/pink.gif","img/card_backs/set2/orange.gif","img/card_backs/set2/gray.gif","img/card_backs/set2/blue.gif","""event"",""trial"",""time""
""fullscreenenter"",""1"",""3886""
","
","
","""event"",""trial"",""time""
""fullscreenenter"",""1"",""3886""
","
","","null","","null","","fixation","2021-06-23 17:58:51.427","","","","","",""
"card-selection-trial","52","327396","0.0-17.0-1.8","646","true","img/card_backs/set1/green.gif","img/card_backs/set1/red.gif","img/card_backs/set1/yellow.gif","img/card_backs/set1/purple.gif","img/card_backs/set2/pink.gif","img/card_backs/set2/orange.gif","img/card_backs/set2/gray.gif","img/card_backs/set2/blue.gif","""event"",""trial"",""time""
""fullscreenenter"",""1"",""3886""
","
","
","""event"",""trial"",""time""
""fullscreenenter"",""1"",""3886""
","
","","4155.899999976158","","","","practice","2021-06-23 17:58:57.595","img/practice_cards/backs/black.gif","2","100","0","",""
"casino-fixation","53","327900","0.0-17.0-0.9","646","true","img/card_backs/set1/green.gif","img/card_backs/set1/red.gif","img/card_backs/set1/yellow.gif","img/card_backs/set1/purple.gif","img/card_backs/set2/pink.gif","img/card_backs/set2/orange.gif","img/card_backs/set2/gray.gif","img/card_backs/set2/blue.gif","""event"",""trial"",""time""
""fullscreenenter"",""1"",""3886""
","
","
","""event"",""trial"",""time""
""fullscreenenter"",""1"",""3886""
","
","","null","","null","","fixation","2021-06-23 17:58:58.099","","","","","",""
"card-selection-trial","54","334791","0.0-17.0-1.9","646","true","img/card_backs/set1/green.gif","img/card_backs/set1/red.gif","img/card_backs/set1/yellow.gif","img/card_backs/set1/purple.gif","img/card_backs/set2/pink.gif","img/card_backs/set2/orange.gif","img/card_backs/set2/gray.gif","img/card_backs/set2/blue.gif","""event"",""trial"",""time""
""fullscreenenter"",""1"",""3886""
","
","
","""event"",""trial"",""time""
""fullscreenenter"",""1"",""3886""
","
","","4880","","","","practice","2021-06-23 17:59:04.990","img/practice_cards/backs/dark_blue.gif","1","200","0","",""
"casino-keyboard-response","55","339107","0.0-18.0","646","true","img/card_backs/set1/green.gif","img/card_backs/set1/red.gif","img/card_backs/set1/yellow.gif","img/card_backs/set1/purple.gif","img/card_backs/set2/pink.gif","img/card_backs/set2/orange.gif","img/card_backs/set2/gray.gif","img/card_backs/set2/blue.gif","""event"",""trial"",""time""
""fullscreenenter"",""1"",""3886""
","
","
","""event"",""trial"",""time""
""fullscreenenter"",""1"",""3886""
","
","","4313.0999999940395","You earned 0 tokens during the practice round!","82","","","2021-06-23 17:59:09.306","","","","","",""
"casino-keyboard-response","56","345564","0.0-19.0-0.0","646","true","img/card_backs/set1/green.gif","img/card_backs/set1/red.gif","img/card_backs/set1/yellow.gif","img/card_backs/set1/purple.gif","img/card_backs/set2/pink.gif","img/card_backs/set2/orange.gif","img/card_backs/set2/gray.gif","img/card_backs/set2/blue.gif","""event"",""trial"",""time""
""fullscreenenter"",""1"",""3886""
","
","
","""event"",""trial"",""time""
""fullscreenenter"",""1"",""3886""
","
","","6454.699999988079","Nice job! You are almost ready to play the real game.","86","","instructions","2021-06-23 17:59:15.763","","","","","",""
"casino-keyboard-response","57","353050","0.0-19.0-0.1","646","true","img/card_backs/set1/green.gif","img/card_backs/set1/red.gif","img/card_backs/set1/yellow.gif","img/card_backs/set1/purple.gif","img/card_backs/set2/pink.gif","img/card_backs/set2/orange.gif","img/card_backs/set2/gray.gif","img/card_backs/set2/blue.gif","""event"",""trial"",""time""
""fullscreenenter"",""1"",""3886""
","
","
","""event"",""trial"",""time""
""fullscreenenter"",""1"",""3886""
","
","","7483.4000000059605","You will play two rounds of the real game. In each round, you will pick 100 cards in total.","73","","instructions","2021-06-23 17:59:23.249","","","","","",""
"casino-keyboard-response","58","359661","0.0-19.0-0.2","646","true","img/card_backs/set1/green.gif","img/card_backs/set1/red.gif","img/card_backs/set1/yellow.gif","img/card_backs/set1/purple.gif","img/card_backs/set2/pink.gif","img/card_backs/set2/orange.gif","img/card_backs/set2/gray.gif","img/card_backs/set2/blue.gif","""event"",""trial"",""time""
""fullscreenenter"",""1"",""3886""
","
","
","""event"",""trial"",""time""
""fullscreenenter"",""1"",""3886""
","
","","6608.5","We are now going to ask you some questions about how the game works.","66","","instructions","2021-06-23 17:59:29.860","","","","","",""
"casino-keyboard-response","59","366693","0.0-19.0-0.3","646","true","img/card_backs/set1/green.gif","img/card_backs/set1/red.gif","img/card_backs/set1/yellow.gif","img/card_backs/set1/purple.gif","img/card_backs/set2/pink.gif","img/card_backs/set2/orange.gif","img/card_backs/set2/gray.gif","img/card_backs/set2/blue.gif","""event"",""trial"",""time""
""fullscreenenter"",""1"",""3886""
","
","
","""event"",""trial"",""time""
""fullscreenenter"",""1"",""3886""
","
","","7030.9000000059605","Answer carefully. You will not be able to begin the game until you answer them correctly.","67","","instructions","2021-06-23 17:59:36.893","","","","","",""
"casino-comp_q","60","377008","0.0-20.0-0.0","646","true","img/card_backs/set1/green.gif","img/card_backs/set1/red.gif","img/card_backs/set1/yellow.gif","img/card_backs/set1/purple.gif","img/card_backs/set2/pink.gif","img/card_backs/set2/orange.gif","img/card_backs/set2/gray.gif","img/card_backs/set2/blue.gif","""event"",""trial"",""time""
""fullscreenenter"",""1"",""3886""
","
","
","""event"",""trial"",""time""
""fullscreenenter"",""1"",""3886""
","
","","10312","True or False: All the decks have some cards that cause you to win tokens and some cards that cause you to lose tokens.","84","","","2021-06-23 17:59:47.207","","","","","",""
"casino-keyboard-response","61","383253","0.0-20.0-1.0","646","true","img/card_backs/set1/green.gif","img/card_backs/set1/red.gif","img/card_backs/set1/yellow.gif","img/card_backs/set1/purple.gif","img/card_backs/set2/pink.gif","img/card_backs/set2/orange.gif","img/card_backs/set2/gray.gif","img/card_backs/set2/blue.gif","""event"",""trial"",""time""
""fullscreenenter"",""1"",""3886""
","
","
","""event"",""trial"",""time""
""fullscreenenter"",""1"",""3886""
","
","","6242.300000011921","True is correct! All the decks have a mix of winning and losing cards.","77","","","2021-06-23 17:59:53.452","","","","","true",""
"casino-comp_q","62","391787","0.0-21.0-0.0","646","true","img/card_backs/set1/green.gif","img/card_backs/set1/red.gif","img/card_backs/set1/yellow.gif","img/card_backs/set1/purple.gif","img/card_backs/set2/pink.gif","img/card_backs/set2/orange.gif","img/card_backs/set2/gray.gif","img/card_backs/set2/blue.gif","""event"",""trial"",""time""
""fullscreenenter"",""1"",""3886""
","
","
","""event"",""trial"",""time""
""fullscreenenter"",""1"",""3886""
","
","","8531.399999976158","True or False: You will have as much time as you want to make your response.","70","","","2021-06-23 18:00:01.987","","","","","",""
"casino-keyboard-response","63","398888","0.0-21.0-1.0","646","true","img/card_backs/set1/green.gif","img/card_backs/set1/red.gif","img/card_backs/set1/yellow.gif","img/card_backs/set1/purple.gif","img/card_backs/set2/pink.gif","img/card_backs/set2/orange.gif","img/card_backs/set2/gray.gif","img/card_backs/set2/blue.gif","""event"",""trial"",""time""
""fullscreenenter"",""1"",""3886""
","
","
","""event"",""trial"",""time""
""fullscreenenter"",""1"",""3886""
","
","","7096.5999999940395","False is correct! You will only have 10 seconds to make each choice.","75","","","2021-06-23 18:00:09.088","","","","","true",""
"casino-comp_q","64","405121","0.0-22.0-0.0","646","true","img/card_backs/set1/green.gif","img/card_backs/set1/red.gif","img/card_backs/set1/yellow.gif","img/card_backs/set1/purple.gif","img/card_backs/set2/pink.gif","img/card_backs/set2/orange.gif","img/card_backs/set2/gray.gif","img/card_backs/set2/blue.gif","""event"",""trial"",""time""
""fullscreenenter"",""1"",""3886""
","
","
","""event"",""trial"",""time""
""fullscreenenter"",""1"",""3886""
","
","","6230.299999982119","True or False: The location of the deck determines how lucky it is.","70","","","2021-06-23 18:00:15.320","","","","","",""
"casino-keyboard-response","65","411628","0.0-22.0-1.0","646","true","img/card_backs/set1/green.gif","img/card_backs/set1/red.gif","img/card_backs/set1/yellow.gif","img/card_backs/set1/purple.gif","img/card_backs/set2/pink.gif","img/card_backs/set2/orange.gif","img/card_backs/set2/gray.gif","img/card_backs/set2/blue.gif","""event"",""trial"",""time""
""fullscreenenter"",""1"",""3886""
","
","
","""event"",""trial"",""time""
""fullscreenenter"",""1"",""3886""
","
","","6504","False is correct! The <i>color</i>  of the deck determines how lucky or unlucky it is.","68","","","2021-06-23 18:00:21.827","","","","","true",""
"casino-keyboard-response","66","416399","0.0-23.0-0.0","646","true","img/card_backs/set1/green.gif","img/card_backs/set1/red.gif","img/card_backs/set1/yellow.gif","img/card_backs/set1/purple.gif","img/card_backs/set2/pink.gif","img/card_backs/set2/orange.gif","img/card_backs/set2/gray.gif","img/card_backs/set2/blue.gif","""event"",""trial"",""time""
""fullscreenenter"",""1"",""3886""
","
","
","""event"",""trial"",""time""
""fullscreenenter"",""1"",""3886""
","
","","4768.600000023842","Great job! Now it's time to start the real game.","82","","instructions","2021-06-23 18:00:26.598","","","","","",""
"casino-keyboard-response","67","422200","0.0-23.0-0.1","646","true","img/card_backs/set1/green.gif","img/card_backs/set1/red.gif","img/card_backs/set1/yellow.gif","img/card_backs/set1/purple.gif","img/card_backs/set2/pink.gif","img/card_backs/set2/orange.gif","img/card_backs/set2/gray.gif","img/card_backs/set2/blue.gif","""event"",""trial"",""time""
""fullscreenenter"",""1"",""3886""
","
","
","""event"",""trial"",""time""
""fullscreenenter"",""1"",""3886""
","
","","5798.300000011921","Before we start, we're going to head into a new room of the casino.","86","","instructions","2021-06-23 18:00:32.399","","","","","",""
"casino-keyboard-response","68","430302","0.0-24.0-0.0","646","true","img/card_backs/set1/green.gif","img/card_backs/set1/red.gif","img/card_backs/set1/yellow.gif","img/card_backs/set1/purple.gif","img/card_backs/set2/pink.gif","img/card_backs/set2/orange.gif","img/card_backs/set2/gray.gif","img/card_backs/set2/blue.gif","""event"",""trial"",""time""
""fullscreenenter"",""1"",""3886""
","
","
","""event"",""trial"",""time""
""fullscreenenter"",""1"",""3886""
","
","","8100.299999982119","Here we are! The real game will use different cards, but the rules will be the same.","71","","instructions","2021-06-23 18:00:40.501","","","","","",""
"casino-keyboard-response","69","436052","0.0-24.0-0.1","646","true","img/card_backs/set1/green.gif","img/card_backs/set1/red.gif","img/card_backs/set1/yellow.gif","img/card_backs/set1/purple.gif","img/card_backs/set2/pink.gif","img/card_backs/set2/orange.gif","img/card_backs/set2/gray.gif","img/card_backs/set2/blue.gif","""event"",""trial"",""time""
""fullscreenenter"",""1"",""3886""
","
","
","""event"",""trial"",""time""
""fullscreenenter"",""1"",""3886""
","
","","5747.4000000059605","Ready? Put your fingers over the '2', '4', 6', and '8' keys so you are ready to play the game. </br> Then press 2 to start.","50","","instructions","2021-06-23 18:00:46.251","","","","","",""
"casino-fixation","70","436556","0.0-25.0-0.0","646","true","img/card_backs/set1/green.gif","img/card_backs/set1/red.gif","img/card_backs/set1/yellow.gif","img/card_backs/set1/purple.gif","img/card_backs/set2/pink.gif","img/card_backs/set2/orange.gif","img/card_backs/set2/gray.gif","img/card_backs/set2/blue.gif","""event"",""trial"",""time""
""fullscreenenter"",""1"",""3886""
","
","
","""event"",""trial"",""time""
""fullscreenenter"",""1"",""3886""
","
","","null","","null","","fixation","2021-06-23 18:00:46.756","","","","","",""
"card-selection-trial","71","444341","0.0-25.0-1.0","646","true","img/card_backs/set1/green.gif","img/card_backs/set1/red.gif","img/card_backs/set1/yellow.gif","img/card_backs/set1/purple.gif","img/card_backs/set2/pink.gif","img/card_backs/set2/orange.gif","img/card_backs/set2/gray.gif","img/card_backs/set2/blue.gif","""event"",""trial"",""time""
""fullscreenenter"",""1"",""3886""
","
","
","""event"",""trial"",""time""
""fullscreenenter"",""1"",""3886""
","
","","5772.699999988079","","","","real_trial","2021-06-23 18:00:54.540","img/card_backs/set1/purple.gif","0","-100","1","",""
"casino-fixation","72","444849","0.0-25.0-0.1","646","true","img/card_backs/set1/green.gif","img/card_backs/set1/red.gif","img/card_backs/set1/yellow.gif","img/card_backs/set1/purple.gif","img/card_backs/set2/pink.gif","img/card_backs/set2/orange.gif","img/card_backs/set2/gray.gif","img/card_backs/set2/blue.gif","""event"",""trial"",""time""
""fullscreenenter"",""1"",""3886""
","
","
","""event"",""trial"",""time""
""fullscreenenter"",""1"",""3886""
","
","","null","","null","","fixation","2021-06-23 18:00:55.049","","","","","",""
"card-selection-trial","73","449788","0.0-25.0-1.1","646","true","img/card_backs/set1/green.gif","img/card_backs/set1/red.gif","img/card_backs/set1/yellow.gif","img/card_backs/set1/purple.gif","img/card_backs/set2/pink.gif","img/card_backs/set2/orange.gif","img/card_backs/set2/gray.gif","img/card_backs/set2/blue.gif","""event"",""trial"",""time""
""fullscreenenter"",""1"",""3886""
","
","
","""event"",""trial"",""time""
""fullscreenenter"",""1"",""3886""
","
","","2927.9000000059605","","","","real_trial","2021-06-23 18:00:59.987","img/card_backs/set1/yellow.gif","3","-110","1","",""
"casino-fixation","74","450295","0.0-25.0-0.2","646","true","img/card_backs/set1/green.gif","img/card_backs/set1/red.gif","img/card_backs/set1/yellow.gif","img/card_backs/set1/purple.gif","img/card_backs/set2/pink.gif","img/card_backs/set2/orange.gif","img/card_backs/set2/gray.gif","img/card_backs/set2/blue.gif","""event"",""trial"",""time""
""fullscreenenter"",""1"",""3886""
","
","
","""event"",""trial"",""time""
""fullscreenenter"",""1"",""3886""
","
","","null","","null","","fixation","2021-06-23 18:01:00.494","","","","","",""
"card-selection-trial","75","454167","0.0-25.0-1.2","646","true","img/card_backs/set1/green.gif","img/card_backs/set1/red.gif","img/card_backs/set1/yellow.gif","img/card_backs/set1/purple.gif","img/card_backs/set2/pink.gif","img/card_backs/set2/orange.gif","img/card_backs/set2/gray.gif","img/card_backs/set2/blue.gif","""event"",""trial"",""time""
""fullscreenenter"",""1"",""3886""
","
","
","""event"",""trial"",""time""
""fullscreenenter"",""1"",""3886""
","
","","1857.5999999940395","","","","real_trial","2021-06-23 18:01:04.366","img/card_backs/set1/green.gif","2","240","1","",""
"casino-fixation","76","454673","0.0-25.0-0.3","646","true","img/card_backs/set1/green.gif","img/card_backs/set1/red.gif","img/card_backs/set1/yellow.gif","img/card_backs/set1/purple.gif","img/card_backs/set2/pink.gif","img/card_backs/set2/orange.gif","img/card_backs/set2/gray.gif","img/card_backs/set2/blue.gif","""event"",""trial"",""time""
""fullscreenenter"",""1"",""3886""
","
","
","""event"",""trial"",""time""
""fullscreenenter"",""1"",""3886""
","
","","null","","null","","fixation","2021-06-23 18:01:04.872","","","","","",""
"card-selection-trial","77","460110","0.0-25.0-1.3","646","true","img/card_backs/set1/green.gif","img/card_backs/set1/red.gif","img/card_backs/set1/yellow.gif","img/card_backs/set1/purple.gif","img/card_backs/set2/pink.gif","img/card_backs/set2/orange.gif","img/card_backs/set2/gray.gif","img/card_backs/set2/blue.gif","""event"",""trial"",""time""
""fullscreenenter"",""1"",""3886""
","
","
","""event"",""trial"",""time""
""fullscreenenter"",""1"",""3886""
","
","","3427.5","","","","real_trial","2021-06-23 18:01:10.309","img/card_backs/set1/green.gif","0","-190","1","",""
"casino-fixation","78","460614","0.0-25.0-0.4","646","true","img/card_backs/set1/green.gif","img/card_backs/set1/red.gif","img/card_backs/set1/yellow.gif","img/card_backs/set1/purple.gif","img/card_backs/set2/pink.gif","img/card_backs/set2/orange.gif","img/card_backs/set2/gray.gif","img/card_backs/set2/blue.gif","""event"",""trial"",""time""
""fullscreenenter"",""1"",""3886""
","
","
","""event"",""trial"",""time""
""fullscreenenter"",""1"",""3886""
","
","","null","","null","","fixation","2021-06-23 18:01:10.813","","","","","",""
"card-selection-trial","79","466506","0.0-25.0-1.4","646","true","img/card_backs/set1/green.gif","img/card_backs/set1/red.gif","img/card_backs/set1/yellow.gif","img/card_backs/set1/purple.gif","img/card_backs/set2/pink.gif","img/card_backs/set2/orange.gif","img/card_backs/set2/gray.gif","img/card_backs/set2/blue.gif","""event"",""trial"",""time""
""fullscreenenter"",""1"",""3886""
","
","
","""event"",""trial"",""time""
""fullscreenenter"",""1"",""3886""
","
","","3882.699999988079","","","","real_trial","2021-06-23 18:01:16.705","img/card_backs/set1/purple.gif","1","60","1","",""
"casino-fixation","80","467010","0.0-25.0-0.5","646","true","img/card_backs/set1/green.gif","img/card_backs/set1/red.gif","img/card_backs/set1/yellow.gif","img/card_backs/set1/purple.gif","img/card_backs/set2/pink.gif","img/card_backs/set2/orange.gif","img/card_backs/set2/gray.gif","img/card_backs/set2/blue.gif","""event"",""trial"",""time""
""fullscreenenter"",""1"",""3886""
","
","
","""event"",""trial"",""time""
""fullscreenenter"",""1"",""3886""
","
","","null","","null","","fixation","2021-06-23 18:01:17.209","","","","","",""
"card-selection-trial","81","470580","0.0-25.0-1.5","646","true","img/card_backs/set1/green.gif","img/card_backs/set1/red.gif","img/card_backs/set1/yellow.gif","img/card_backs/set1/purple.gif","img/card_backs/set2/pink.gif","img/card_backs/set2/orange.gif","img/card_backs/set2/gray.gif","img/card_backs/set2/blue.gif","""event"",""trial"",""time""
""fullscreenenter"",""1"",""3886""
","
","
","""event"",""trial"",""time""
""fullscreenenter"",""1"",""3886""
","
","","1559.199999988079","","","","real_trial","2021-06-23 18:01:20.779","img/card_backs/set1/purple.gif","0","40","1","",""
"casino-fixation","82","471087","0.0-25.0-0.6","646","true","img/card_backs/set1/green.gif","img/card_backs/set1/red.gif","img/card_backs/set1/yellow.gif","img/card_backs/set1/purple.gif","img/card_backs/set2/pink.gif","img/card_backs/set2/orange.gif","img/card_backs/set2/gray.gif","img/card_backs/set2/blue.gif","""event"",""trial"",""time""
""fullscreenenter"",""1"",""3886""
","
","
","""event"",""trial"",""time""
""fullscreenenter"",""1"",""3886""
","
","","null","","null","","fixation","2021-06-23 18:01:21.286","","","","","",""
"card-selection-trial","83","476412","0.0-25.0-1.6","646","true","img/card_backs/set1/green.gif","img/card_backs/set1/red.gif","img/card_backs/set1/yellow.gif","img/card_backs/set1/purple.gif","img/card_backs/set2/pink.gif","img/card_backs/set2/orange.gif","img/card_backs/set2/gray.gif","img/card_backs/set2/blue.gif","""event"",""trial"",""time""
""fullscreenenter"",""1"",""3886""
","
","
","""event"",""trial"",""time""
""fullscreenenter"",""1"",""3886""
","
","","3316.2000000178814","","","","real_trial","2021-06-23 18:01:26.611","img/card_backs/set1/red.gif","2","260","1","",""
"casino-fixation","84","476919","0.0-25.0-0.7","646","true","img/card_backs/set1/green.gif","img/card_backs/set1/red.gif","img/card_backs/set1/yellow.gif","img/card_backs/set1/purple.gif","img/card_backs/set2/pink.gif","img/card_backs/set2/orange.gif","img/card_backs/set2/gray.gif","img/card_backs/set2/blue.gif","""event"",""trial"",""time""
""fullscreenenter"",""1"",""3886""
","
","
","""event"",""trial"",""time""
""fullscreenenter"",""1"",""3886""
","
","","null","","null","","fixation","2021-06-23 18:01:27.118","","","","","",""
"card-selection-trial","85","480935","0.0-25.0-1.7","646","true","img/card_backs/set1/green.gif","img/card_backs/set1/red.gif","img/card_backs/set1/yellow.gif","img/card_backs/set1/purple.gif","img/card_backs/set2/pink.gif","img/card_backs/set2/orange.gif","img/card_backs/set2/gray.gif","img/card_backs/set2/blue.gif","""event"",""trial"",""time""
""fullscreenenter"",""1"",""3886""
","
","
","""event"",""trial"",""time""
""fullscreenenter"",""1"",""3886""
","
","","2006.0999999940395","","","","real_trial","2021-06-23 18:01:31.134","img/card_backs/set1/red.gif","3","240","1","",""
"casino-fixation","86","481443","0.0-25.0-0.8","646","true","img/card_backs/set1/green.gif","img/card_backs/set1/red.gif","img/card_backs/set1/yellow.gif","img/card_backs/set1/purple.gif","img/card_backs/set2/pink.gif","img/card_backs/set2/orange.gif","img/card_backs/set2/gray.gif","img/card_backs/set2/blue.gif","""event"",""trial"",""time""
""fullscreenenter"",""1"",""3886""
","
","
","""event"",""trial"",""time""
""fullscreenenter"",""1"",""3886""
","
","","null","","null","","fixation","2021-06-23 18:01:31.642","","","","","",""
"card-selection-trial","87","485055","0.0-25.0-1.8","646","true","img/card_backs/set1/green.gif","img/card_backs/set1/red.gif","img/card_backs/set1/yellow.gif","img/card_backs/set1/purple.gif","img/card_backs/set2/pink.gif","img/card_backs/set2/orange.gif","img/card_backs/set2/gray.gif","img/card_backs/set2/blue.gif","""event"",""trial"",""time""
""fullscreenenter"",""1"",""3886""
","
","
","""event"",""trial"",""time""
""fullscreenenter"",""1"",""3886""
","
","","1600.5999999940395","","","","real_trial","2021-06-23 18:01:35.254","img/card_backs/set1/red.gif","3","260","1","",""
"casino-fixation","88","485561","0.0-25.0-0.9","646","true","img/card_backs/set1/green.gif","img/card_backs/set1/red.gif","img/card_backs/set1/yellow.gif","img/card_backs/set1/purple.gif","img/card_backs/set2/pink.gif","img/card_backs/set2/orange.gif","img/card_backs/set2/gray.gif","img/card_backs/set2/blue.gif","""event"",""trial"",""time""
""fullscreenenter"",""1"",""3886""
","
","
","""event"",""trial"",""time""
""fullscreenenter"",""1"",""3886""
","
","","null","","null","","fixation","2021-06-23 18:01:35.760","","","","","",""
"card-selection-trial","89","488545","0.0-25.0-1.9","646","true","img/card_backs/set1/green.gif","img/card_backs/set1/red.gif","img/card_backs/set1/yellow.gif","img/card_backs/set1/purple.gif","img/card_backs/set2/pink.gif","img/card_backs/set2/orange.gif","img/card_backs/set2/gray.gif","img/card_backs/set2/blue.gif","""event"",""trial"",""time""
""fullscreenenter"",""1"",""3886""
","
","
","""event"",""trial"",""time""
""fullscreenenter"",""1"",""3886""
","
","","975.6999999880791","","","","real_trial","2021-06-23 18:01:38.747","img/card_backs/set1/red.gif","3","240","1","",""
"casino-fixation","90","489052","0.0-25.0-0.10","646","true","img/card_backs/set1/green.gif","img/card_backs/set1/red.gif","img/card_backs/set1/yellow.gif","img/card_backs/set1/purple.gif","img/card_backs/set2/pink.gif","img/card_backs/set2/orange.gif","img/card_backs/set2/gray.gif","img/card_backs/set2/blue.gif","""event"",""trial"",""time""
""fullscreenenter"",""1"",""3886""
","
","
","""event"",""trial"",""time""
""fullscreenenter"",""1"",""3886""
","
","","null","","null","","fixation","2021-06-23 18:01:39.251","","","","","",""
"card-selection-trial","91","492769","0.0-25.0-1.10","646","true","img/card_backs/set1/green.gif","img/card_backs/set1/red.gif","img/card_backs/set1/yellow.gif","img/card_backs/set1/purple.gif","img/card_backs/set2/pink.gif","img/card_backs/set2/orange.gif","img/card_backs/set2/gray.gif","img/card_backs/set2/blue.gif","""event"",""trial"",""time""
""fullscreenenter"",""1"",""3886""
","
","
","""event"",""trial"",""time""
""fullscreenenter"",""1"",""3886""
","
","","1705.9000000059605","","","","real_trial","2021-06-23 18:01:42.968","img/card_backs/set1/red.gif","0","-190","1","",""
"casino-fixation","92","493276","0.0-25.0-0.11","646","true","img/card_backs/set1/green.gif","img/card_backs/set1/red.gif","img/card_backs/set1/yellow.gif","img/card_backs/set1/purple.gif","img/card_backs/set2/pink.gif","img/card_backs/set2/orange.gif","img/card_backs/set2/gray.gif","img/card_backs/set2/blue.gif","""event"",""trial"",""time""
""fullscreenenter"",""1"",""3886""
","
","
","""event"",""trial"",""time""
""fullscreenenter"",""1"",""3886""
","
","","null","","null","","fixation","2021-06-23 18:01:43.475","","","","","",""
"card-selection-trial","93","500679","0.0-25.0-1.11","646","true","img/card_backs/set1/green.gif","img/card_backs/set1/red.gif","img/card_backs/set1/yellow.gif","img/card_backs/set1/purple.gif","img/card_backs/set2/pink.gif","img/card_backs/set2/orange.gif","img/card_backs/set2/gray.gif","img/card_backs/set2/blue.gif","""event"",""trial"",""time""
""fullscreenenter"",""1"",""3886""
","
","
","""event"",""trial"",""time""
""fullscreenenter"",""1"",""3886""
","
","","5390.0999999940395","","","","real_trial","2021-06-23 18:01:50.878","img/card_backs/set1/purple.gif","1","-110","1","",""
"casino-fixation","94","501184","0.0-25.0-0.12","646","true","img/card_backs/set1/green.gif","img/card_backs/set1/red.gif","img/card_backs/set1/yellow.gif","img/card_backs/set1/purple.gif","img/card_backs/set2/pink.gif","img/card_backs/set2/orange.gif","img/card_backs/set2/gray.gif","img/card_backs/set2/blue.gif","""event"",""trial"",""time""
""fullscreenenter"",""1"",""3886""
","
","
","""event"",""trial"",""time""
""fullscreenenter"",""1"",""3886""
","
","","null","","null","","fixation","2021-06-23 18:01:51.383","","","","","",""
"card-selection-trial","95","505003","0.0-25.0-1.12","646","true","img/card_backs/set1/green.gif","img/card_backs/set1/red.gif","img/card_backs/set1/yellow.gif","img/card_backs/set1/purple.gif","img/card_backs/set2/pink.gif","img/card_backs/set2/orange.gif","img/card_backs/set2/gray.gif","img/card_backs/set2/blue.gif","""event"",""trial"",""time""
""fullscreenenter"",""1"",""3886""
","
","
","""event"",""trial"",""time""
""fullscreenenter"",""1"",""3886""
","
","","1807.699999988079","","","","real_trial","2021-06-23 18:01:55.202","img/card_backs/set1/green.gif","2","-190","1","",""
"casino-fixation","96","505507","0.0-25.0-0.13","646","true","img/card_backs/set1/green.gif","img/card_backs/set1/red.gif","img/card_backs/set1/yellow.gif","img/card_backs/set1/purple.gif","img/card_backs/set2/pink.gif","img/card_backs/set2/orange.gif","img/card_backs/set2/gray.gif","img/card_backs/set2/blue.gif","""event"",""trial"",""time""
""fullscreenenter"",""1"",""3886""
","
","
","""event"",""trial"",""time""
""fullscreenenter"",""1"",""3886""
","
","","null","","null","","fixation","2021-06-23 18:01:55.706","","","","","",""
"card-selection-trial","97","509917","0.0-25.0-1.13","646","true","img/card_backs/set1/green.gif","img/card_backs/set1/red.gif","img/card_backs/set1/yellow.gif","img/card_backs/set1/purple.gif","img/card_backs/set2/pink.gif","img/card_backs/set2/orange.gif","img/card_backs/set2/gray.gif","img/card_backs/set2/blue.gif","""event"",""trial"",""time""
""fullscreenenter"",""1"",""3886""
","
","
","""event"",""trial"",""time""
""fullscreenenter"",""1"",""3886""
","
","","2395.7999999821186","","","","real_trial","2021-06-23 18:02:00.116","img/card_backs/set1/red.gif","1","240","1","",""
"casino-fixation","98","510422","0.0-25.0-0.14","646","true","img/card_backs/set1/green.gif","img/card_backs/set1/red.gif","img/card_backs/set1/yellow.gif","img/card_backs/set1/purple.gif","img/card_backs/set2/pink.gif","img/card_backs/set2/orange.gif","img/card_backs/set2/gray.gif","img/card_backs/set2/blue.gif","""event"",""trial"",""time""
""fullscreenenter"",""1"",""3886""
","
","
","""event"",""trial"",""time""
""fullscreenenter"",""1"",""3886""
","
","","null","","null","","fixation","2021-06-23 18:02:00.621","","","","","",""
"card-selection-trial","99","514369","0.0-25.0-1.14","646","true","img/card_backs/set1/green.gif","img/card_backs/set1/red.gif","img/card_backs/set1/yellow.gif","img/card_backs/set1/purple.gif","img/card_backs/set2/pink.gif","img/card_backs/set2/orange.gif","img/card_backs/set2/gray.gif","img/card_backs/set2/blue.gif","""event"",""trial"",""time""
""fullscreenenter"",""1"",""3886""
","
","
","""event"",""trial"",""time""
""fullscreenenter"",""1"",""3886""
","
","","1933.9000000059605","","","","real_trial","2021-06-23 18:02:04.568","img/card_backs/set1/red.gif","2","-200","1","",""
"casino-fixation","100","514875","0.0-25.0-0.15","646","true","img/card_backs/set1/green.gif","img/card_backs/set1/red.gif","img/card_backs/set1/yellow.gif","img/card_backs/set1/purple.gif","img/card_backs/set2/pink.gif","img/card_backs/set2/orange.gif","img/card_backs/set2/gray.gif","img/card_backs/set2/blue.gif","""event"",""trial"",""time""
""fullscreenenter"",""1"",""3886""
","
","
","""event"",""trial"",""time""
""fullscreenenter"",""1"",""3886""
","
","","null","","null","","fixation","2021-06-23 18:02:05.074","","","","","",""
"card-selection-trial","101","519219","0.0-25.0-1.15","646","true","img/card_backs/set1/green.gif","img/card_backs/set1/red.gif","img/card_backs/set1/yellow.gif","img/card_backs/set1/purple.gif","img/card_backs/set2/pink.gif","img/card_backs/set2/orange.gif","img/card_backs/set2/gray.gif","img/card_backs/set2/blue.gif","""event"",""trial"",""time""
""fullscreenenter"",""1"",""3886""
","
","
","""event"",""trial"",""time""
""fullscreenenter"",""1"",""3886""
","
","","2329.399999976158","","","","real_trial","2021-06-23 18:02:09.418","img/card_backs/set1/purple.gif","3","-90","1","",""
"casino-fixation","102","519725","0.0-25.0-0.16","646","true","img/card_backs/set1/green.gif","img/card_backs/set1/red.gif","img/card_backs/set1/yellow.gif","img/card_backs/set1/purple.gif","img/card_backs/set2/pink.gif","img/card_backs/set2/orange.gif","img/card_backs/set2/gray.gif","img/card_backs/set2/blue.gif","""event"",""trial"",""time""
""fullscreenenter"",""1"",""3886""
","
","
","""event"",""trial"",""time""
""fullscreenenter"",""1"",""3886""
","
","","null","","null","","fixation","2021-06-23 18:02:09.924","","","","","",""
"card-selection-trial","103","523483","0.0-25.0-1.16","646","true","img/card_backs/set1/green.gif","img/card_backs/set1/red.gif","img/card_backs/set1/yellow.gif","img/card_backs/set1/purple.gif","img/card_backs/set2/pink.gif","img/card_backs/set2/orange.gif","img/card_backs/set2/gray.gif","img/card_backs/set2/blue.gif","""event"",""trial"",""time""
""fullscreenenter"",""1"",""3886""
","
","
","""event"",""trial"",""time""
""fullscreenenter"",""1"",""3886""
","
","","1748.800000011921","","","","real_trial","2021-06-23 18:02:13.682","img/card_backs/set1/red.gif","1","-190","1","",""
"casino-fixation","104","523989","0.0-25.0-0.17","646","true","img/card_backs/set1/green.gif","img/card_backs/set1/red.gif","img/card_backs/set1/yellow.gif","img/card_backs/set1/purple.gif","img/card_backs/set2/pink.gif","img/card_backs/set2/orange.gif","img/card_backs/set2/gray.gif","img/card_backs/set2/blue.gif","""event"",""trial"",""time""
""fullscreenenter"",""1"",""3886""
","
","
","""event"",""trial"",""time""
""fullscreenenter"",""1"",""3886""
","
","","null","","null","","fixation","2021-06-23 18:02:14.188","","","","","",""
"card-selection-trial","105","526381","0.0-25.0-1.17","646","true","img/card_backs/set1/green.gif","img/card_backs/set1/red.gif","img/card_backs/set1/yellow.gif","img/card_backs/set1/purple.gif","img/card_backs/set2/pink.gif","img/card_backs/set2/orange.gif","img/card_backs/set2/gray.gif","img/card_backs/set2/blue.gif","""event"",""trial"",""time""
""fullscreenenter"",""1"",""3886""
","
","
","""event"",""trial"",""time""
""fullscreenenter"",""1"",""3886""
","
","","376.40000000596046","","","","real_trial","2021-06-23 18:02:16.580","img/card_backs/set1/purple.gif","0","-110","1","",""
"casino-fixation","106","526887","0.0-25.0-0.18","646","true","img/card_backs/set1/green.gif","img/card_backs/set1/red.gif","img/card_backs/set1/yellow.gif","img/card_backs/set1/purple.gif","img/card_backs/set2/pink.gif","img/card_backs/set2/orange.gif","img/card_backs/set2/gray.gif","img/card_backs/set2/blue.gif","""event"",""trial"",""time""
""fullscreenenter"",""1"",""3886""
","
","
","""event"",""trial"",""time""
""fullscreenenter"",""1"",""3886""
","
","","null","","null","","fixation","2021-06-23 18:02:17.086","","","","","",""
"card-selection-trial","107","529637","0.0-25.0-1.18","646","true","img/card_backs/set1/green.gif","img/card_backs/set1/red.gif","img/card_backs/set1/yellow.gif","img/card_backs/set1/purple.gif","img/card_backs/set2/pink.gif","img/card_backs/set2/orange.gif","img/card_backs/set2/gray.gif","img/card_backs/set2/blue.gif","""event"",""trial"",""time""
""fullscreenenter"",""1"",""3886""
","
","
","""event"",""trial"",""time""
""fullscreenenter"",""1"",""3886""
","
","","738","","","","real_trial","2021-06-23 18:02:19.836","img/card_backs/set1/red.gif","0","-200","1","",""
"casino-fixation","108","530140","0.0-25.0-0.19","646","true","img/card_backs/set1/green.gif","img/card_backs/set1/red.gif","img/card_backs/set1/yellow.gif","img/card_backs/set1/purple.gif","img/card_backs/set2/pink.gif","img/card_backs/set2/orange.gif","img/card_backs/set2/gray.gif","img/card_backs/set2/blue.gif","""event"",""trial"",""time""
""fullscreenenter"",""1"",""3886""
","
","
","""event"",""trial"",""time""
""fullscreenenter"",""1"",""3886""
","
","","null","","null","","fixation","2021-06-23 18:02:20.339","","","","","",""
"card-selection-trial","109","533915","0.0-25.0-1.19","646","true","img/card_backs/set1/green.gif","img/card_backs/set1/red.gif","img/card_backs/set1/yellow.gif","img/card_backs/set1/purple.gif","img/card_backs/set2/pink.gif","img/card_backs/set2/orange.gif","img/card_backs/set2/gray.gif","img/card_backs/set2/blue.gif","""event"",""trial"",""time""
""fullscreenenter"",""1"",""3886""
","
","
","""event"",""trial"",""time""
""fullscreenenter"",""1"",""3886""
","
","","1761.199999988079","","","","real_trial","2021-06-23 18:02:24.114","img/card_backs/set1/purple.gif","1","-100","1","",""
"casino-fixation","110","534423","0.0-25.0-0.20","646","true","img/card_backs/set1/green.gif","img/card_backs/set1/red.gif","img/card_backs/set1/yellow.gif","img/card_backs/set1/purple.gif","img/card_backs/set2/pink.gif","img/card_backs/set2/orange.gif","img/card_backs/set2/gray.gif","img/card_backs/set2/blue.gif","""event"",""trial"",""time""
""fullscreenenter"",""1"",""3886""
","
","
","""event"",""trial"",""time""
""fullscreenenter"",""1"",""3886""
","
","","null","","null","","fixation","2021-06-23 18:02:24.622","","","","","",""
"card-selection-trial","111","538256","0.0-25.0-1.20","646","true","img/card_backs/set1/green.gif","img/card_backs/set1/red.gif","img/card_backs/set1/yellow.gif","img/card_backs/set1/purple.gif","img/card_backs/set2/pink.gif","img/card_backs/set2/orange.gif","img/card_backs/set2/gray.gif","img/card_backs/set2/blue.gif","""event"",""trial"",""time""
""fullscreenenter"",""1"",""3886""
","
","
","""event"",""trial"",""time""
""fullscreenenter"",""1"",""3886""
","
","","1819.300000011921","","","","real_trial","2021-06-23 18:02:28.455","img/card_backs/set1/red.gif","2","-210","1","",""
"casino-fixation","112","538762","0.0-25.0-0.21","646","true","img/card_backs/set1/green.gif","img/card_backs/set1/red.gif","img/card_backs/set1/yellow.gif","img/card_backs/set1/purple.gif","img/card_backs/set2/pink.gif","img/card_backs/set2/orange.gif","img/card_backs/set2/gray.gif","img/card_backs/set2/blue.gif","""event"",""trial"",""time""
""fullscreenenter"",""1"",""3886""
","
","
","""event"",""trial"",""time""
""fullscreenenter"",""1"",""3886""
","
","","null","","null","","fixation","2021-06-23 18:02:28.961","","","","","",""
"card-selection-trial","113","542671","0.0-25.0-1.21","646","true","img/card_backs/set1/green.gif","img/card_backs/set1/red.gif","img/card_backs/set1/yellow.gif","img/card_backs/set1/purple.gif","img/card_backs/set2/pink.gif","img/card_backs/set2/orange.gif","img/card_backs/set2/gray.gif","img/card_backs/set2/blue.gif","""event"",""trial"",""time""
""fullscreenenter"",""1"",""3886""
","
","
","""event"",""trial"",""time""
""fullscreenenter"",""1"",""3886""
","
","","1900.300000011921","","","","real_trial","2021-06-23 18:02:32.870","img/card_backs/set1/red.gif","3","-200","1","",""
"casino-fixation","114","543178","0.0-25.0-0.22","646","true","img/card_backs/set1/green.gif","img/card_backs/set1/red.gif","img/card_backs/set1/yellow.gif","img/card_backs/set1/purple.gif","img/card_backs/set2/pink.gif","img/card_backs/set2/orange.gif","img/card_backs/set2/gray.gif","img/card_backs/set2/blue.gif","""event"",""trial"",""time""
""fullscreenenter"",""1"",""3886""
","
","
","""event"",""trial"",""time""
""fullscreenenter"",""1"",""3886""
","
","","null","","null","","fixation","2021-06-23 18:02:33.377","","","","","",""
"card-selection-trial","115","545210","0.0-25.0-1.22","646","true","img/card_backs/set1/green.gif","img/card_backs/set1/red.gif","img/card_backs/set1/yellow.gif","img/card_backs/set1/purple.gif","img/card_backs/set2/pink.gif","img/card_backs/set2/orange.gif","img/card_backs/set2/gray.gif","img/card_backs/set2/blue.gif","""event"",""trial"",""time""
""fullscreenenter"",""1"",""3886""
","
","
","""event"",""trial"",""time""
""fullscreenenter"",""1"",""3886""
","
","","22.799999982118607","","","","real_trial","2021-06-23 18:02:35.409","img/card_backs/set1/green.gif","3","-200","1","",""
"casino-fixation","116","545716","0.0-25.0-0.23","646","true","img/card_backs/set1/green.gif","img/card_backs/set1/red.gif","img/card_backs/set1/yellow.gif","img/card_backs/set1/purple.gif","img/card_backs/set2/pink.gif","img/card_backs/set2/orange.gif","img/card_backs/set2/gray.gif","img/card_backs/set2/blue.gif","""event"",""trial"",""time""
""fullscreenenter"",""1"",""3886""
","
","
","""event"",""trial"",""time""
""fullscreenenter"",""1"",""3886""
","
","","null","","null","","fixation","2021-06-23 18:02:35.915","","","","","",""
"card-selection-trial","117","547970","0.0-25.0-1.23","646","true","img/card_backs/set1/green.gif","img/card_backs/set1/red.gif","img/card_backs/set1/yellow.gif","img/card_backs/set1/purple.gif","img/card_backs/set2/pink.gif","img/card_backs/set2/orange.gif","img/card_backs/set2/gray.gif","img/card_backs/set2/blue.gif","""event"",""trial"",""time""
""fullscreenenter"",""1"",""3886""
","
","
","""event"",""trial"",""time""
""fullscreenenter"",""1"",""3886""
","
","","240","","","","real_trial","2021-06-23 18:02:38.169","img/card_backs/set1/yellow.gif","3","60","1","",""
"casino-fixation","118","548474","0.0-25.0-0.24","646","true","img/card_backs/set1/green.gif","img/card_backs/set1/red.gif","img/card_backs/set1/yellow.gif","img/card_backs/set1/purple.gif","img/card_backs/set2/pink.gif","img/card_backs/set2/orange.gif","img/card_backs/set2/gray.gif","img/card_backs/set2/blue.gif","""event"",""trial"",""time""
""fullscreenenter"",""1"",""3886""
","
","
","""event"",""trial"",""time""
""fullscreenenter"",""1"",""3886""
","
","","null","","null","","fixation","2021-06-23 18:02:38.673","","","","","",""
"card-selection-trial","119","551930","0.0-25.0-1.24","646","true","img/card_backs/set1/green.gif","img/card_backs/set1/red.gif","img/card_backs/set1/yellow.gif","img/card_backs/set1/purple.gif","img/card_backs/set2/pink.gif","img/card_backs/set2/orange.gif","img/card_backs/set2/gray.gif","img/card_backs/set2/blue.gif","""event"",""trial"",""time""
""fullscreenenter"",""1"",""3886""
","
","
","""event"",""trial"",""time""
""fullscreenenter"",""1"",""3886""
","
","","1443.800000011921","","","","real_trial","2021-06-23 18:02:42.129","img/card_backs/set1/red.gif","3","-200","1","",""
"casino-fixation","120","552436","0.0-25.0-0.25","646","true","img/card_backs/set1/green.gif","img/card_backs/set1/red.gif","img/card_backs/set1/yellow.gif","img/card_backs/set1/purple.gif","img/card_backs/set2/pink.gif","img/card_backs/set2/orange.gif","img/card_backs/set2/gray.gif","img/card_backs/set2/blue.gif","""event"",""trial"",""time""
""fullscreenenter"",""1"",""3886""
","
","
","""event"",""trial"",""time""
""fullscreenenter"",""1"",""3886""
","
","","null","","null","","fixation","2021-06-23 18:02:42.635","","","","","",""
"card-selection-trial","121","557354","0.0-25.0-1.25","646","true","img/card_backs/set1/green.gif","img/card_backs/set1/red.gif","img/card_backs/set1/yellow.gif","img/card_backs/set1/purple.gif","img/card_backs/set2/pink.gif","img/card_backs/set2/orange.gif","img/card_backs/set2/gray.gif","img/card_backs/set2/blue.gif","""event"",""trial"",""time""
""fullscreenenter"",""1"",""3886""
","
","
","""event"",""trial"",""time""
""fullscreenenter"",""1"",""3886""
","
","","2907.5999999940395","","","","real_trial","2021-06-23 18:02:47.553","img/card_backs/set1/red.gif","2","260","1","",""
"casino-fixation","122","557860","0.0-25.0-0.26","646","true","img/card_backs/set1/green.gif","img/card_backs/set1/red.gif","img/card_backs/set1/yellow.gif","img/card_backs/set1/purple.gif","img/card_backs/set2/pink.gif","img/card_backs/set2/orange.gif","img/card_backs/set2/gray.gif","img/card_backs/set2/blue.gif","""event"",""trial"",""time""
""fullscreenenter"",""1"",""3886""
","
","
","""event"",""trial"",""time""
""fullscreenenter"",""1"",""3886""
","
","","null","","null","","fixation","2021-06-23 18:02:48.059","","","","","",""
"card-selection-trial","123","561199","0.0-25.0-1.26","646","true","img/card_backs/set1/green.gif","img/card_backs/set1/red.gif","img/card_backs/set1/yellow.gif","img/card_backs/set1/purple.gif","img/card_backs/set2/pink.gif","img/card_backs/set2/orange.gif","img/card_backs/set2/gray.gif","img/card_backs/set2/blue.gif","""event"",""trial"",""time""
""fullscreenenter"",""1"",""3886""
","
","
","""event"",""trial"",""time""
""fullscreenenter"",""1"",""3886""
","
","","1329.8999999761581","","","","real_trial","2021-06-23 18:02:51.398","img/card_backs/set1/red.gif","2","240","1","",""
"casino-fixation","124","561705","0.0-25.0-0.27","646","true","img/card_backs/set1/green.gif","img/card_backs/set1/red.gif","img/card_backs/set1/yellow.gif","img/card_backs/set1/purple.gif","img/card_backs/set2/pink.gif","img/card_backs/set2/orange.gif","img/card_backs/set2/gray.gif","img/card_backs/set2/blue.gif","""event"",""trial"",""time""
""fullscreenenter"",""1"",""3886""
","
","
","""event"",""trial"",""time""
""fullscreenenter"",""1"",""3886""
","
","","null","","null","","fixation","2021-06-23 18:02:51.904","","","","","",""
"card-selection-trial","125","565454","0.0-25.0-1.27","646","true","img/card_backs/set1/green.gif","img/card_backs/set1/red.gif","img/card_backs/set1/yellow.gif","img/card_backs/set1/purple.gif","img/card_backs/set2/pink.gif","img/card_backs/set2/orange.gif","img/card_backs/set2/gray.gif","img/card_backs/set2/blue.gif","""event"",""trial"",""time""
""fullscreenenter"",""1"",""3886""
","
","
","""event"",""trial"",""time""
""fullscreenenter"",""1"",""3886""
","
","","1741","","","","real_trial","2021-06-23 18:02:55.653","img/card_backs/set1/red.gif","1","260","1","",""
"casino-fixation","126","565961","0.0-25.0-0.28","646","true","img/card_backs/set1/green.gif","img/card_backs/set1/red.gif","img/card_backs/set1/yellow.gif","img/card_backs/set1/purple.gif","img/card_backs/set2/pink.gif","img/card_backs/set2/orange.gif","img/card_backs/set2/gray.gif","img/card_backs/set2/blue.gif","""event"",""trial"",""time""
""fullscreenenter"",""1"",""3886""
","
","
","""event"",""trial"",""time""
""fullscreenenter"",""1"",""3886""
","
","","null","","null","","fixation","2021-06-23 18:02:56.160","","","","","",""
"card-selection-trial","127","569854","0.0-25.0-1.28","646","true","img/card_backs/set1/green.gif","img/card_backs/set1/red.gif","img/card_backs/set1/yellow.gif","img/card_backs/set1/purple.gif","img/card_backs/set2/pink.gif","img/card_backs/set2/orange.gif","img/card_backs/set2/gray.gif","img/card_backs/set2/blue.gif","""event"",""trial"",""time""
""fullscreenenter"",""1"",""3886""
","
","
","""event"",""trial"",""time""
""fullscreenenter"",""1"",""3886""
","
","","1884","","","","real_trial","2021-06-23 18:03:00.054","img/card_backs/set1/red.gif","3","-200","1","",""
"casino-fixation","128","570360","0.0-25.0-0.29","646","true","img/card_backs/set1/green.gif","img/card_backs/set1/red.gif","img/card_backs/set1/yellow.gif","img/card_backs/set1/purple.gif","img/card_backs/set2/pink.gif","img/card_backs/set2/orange.gif","img/card_backs/set2/gray.gif","img/card_backs/set2/blue.gif","""event"",""trial"",""time""
""fullscreenenter"",""1"",""3886""
","
","
","""event"",""trial"",""time""
""fullscreenenter"",""1"",""3886""
","
","","null","","null","","fixation","2021-06-23 18:03:00.560","","","","","",""
"card-selection-trial","129","574484","0.0-25.0-1.29","646","true","img/card_backs/set1/green.gif","img/card_backs/set1/red.gif","img/card_backs/set1/yellow.gif","img/card_backs/set1/purple.gif","img/card_backs/set2/pink.gif","img/card_backs/set2/orange.gif","img/card_backs/set2/gray.gif","img/card_backs/set2/blue.gif","""event"",""trial"",""time""
""fullscreenenter"",""1"",""3886""
","
","
","""event"",""trial"",""time""
""fullscreenenter"",""1"",""3886""
","
","","2110.800000011921","","","","real_trial","2021-06-23 18:03:04.683","img/card_backs/set1/yellow.gif","0","-90","1","",""
"casino-fixation","130","574990","0.0-25.0-0.30","646","true","img/card_backs/set1/green.gif","img/card_backs/set1/red.gif","img/card_backs/set1/yellow.gif","img/card_backs/set1/purple.gif","img/card_backs/set2/pink.gif","img/card_backs/set2/orange.gif","img/card_backs/set2/gray.gif","img/card_backs/set2/blue.gif","""event"",""trial"",""time""
""fullscreenenter"",""1"",""3886""
","
","
","""event"",""trial"",""time""
""fullscreenenter"",""1"",""3886""
","
","","null","","null","","fixation","2021-06-23 18:03:05.189","","","","","",""
"card-selection-trial","131","578574","0.0-25.0-1.30","646","true","img/card_backs/set1/green.gif","img/card_backs/set1/red.gif","img/card_backs/set1/yellow.gif","img/card_backs/set1/purple.gif","img/card_backs/set2/pink.gif","img/card_backs/set2/orange.gif","img/card_backs/set2/gray.gif","img/card_backs/set2/blue.gif","""event"",""trial"",""time""
""fullscreenenter"",""1"",""3886""
","
","
","""event"",""trial"",""time""
""fullscreenenter"",""1"",""3886""
","
","","1573.300000011921","","","","real_trial","2021-06-23 18:03:08.773","img/card_backs/set1/purple.gif","1","-90","1","",""
"casino-fixation","132","579083","0.0-25.0-0.31","646","true","img/card_backs/set1/green.gif","img/card_backs/set1/red.gif","img/card_backs/set1/yellow.gif","img/card_backs/set1/purple.gif","img/card_backs/set2/pink.gif","img/card_backs/set2/orange.gif","img/card_backs/set2/gray.gif","img/card_backs/set2/blue.gif","""event"",""trial"",""time""
""fullscreenenter"",""1"",""3886""
","
","
","""event"",""trial"",""time""
""fullscreenenter"",""1"",""3886""
","
","","null","","null","","fixation","2021-06-23 18:03:09.282","","","","","",""
"card-selection-trial","133","581643","0.0-25.0-1.31","646","true","img/card_backs/set1/green.gif","img/card_backs/set1/red.gif","img/card_backs/set1/yellow.gif","img/card_backs/set1/purple.gif","img/card_backs/set2/pink.gif","img/card_backs/set2/orange.gif","img/card_backs/set2/gray.gif","img/card_backs/set2/blue.gif","""event"",""trial"",""time""
""fullscreenenter"",""1"",""3886""
","
","
","""event"",""trial"",""time""
""fullscreenenter"",""1"",""3886""
","
","","544.5","","","","real_trial","2021-06-23 18:03:11.842","img/card_backs/set1/red.gif","2","260","1","",""
"casino-fixation","134","582149","0.0-25.0-0.32","646","true","img/card_backs/set1/green.gif","img/card_backs/set1/red.gif","img/card_backs/set1/yellow.gif","img/card_backs/set1/purple.gif","img/card_backs/set2/pink.gif","img/card_backs/set2/orange.gif","img/card_backs/set2/gray.gif","img/card_backs/set2/blue.gif","""event"",""trial"",""time""
""fullscreenenter"",""1"",""3886""
","
","
","""event"",""trial"",""time""
""fullscreenenter"",""1"",""3886""
","
","","null","","null","","fixation","2021-06-23 18:03:12.348","","","","","",""
"card-selection-trial","135","585656","0.0-25.0-1.32","646","true","img/card_backs/set1/green.gif","img/card_backs/set1/red.gif","img/card_backs/set1/yellow.gif","img/card_backs/set1/purple.gif","img/card_backs/set2/pink.gif","img/card_backs/set2/orange.gif","img/card_backs/set2/gray.gif","img/card_backs/set2/blue.gif","""event"",""trial"",""time""
""fullscreenenter"",""1"",""3886""
","
","
","""event"",""trial"",""time""
""fullscreenenter"",""1"",""3886""
","
","","1494.9000000059605","","","","real_trial","2021-06-23 18:03:15.856","img/card_backs/set1/red.gif","1","240","1","",""
"casino-fixation","136","586163","0.0-25.0-0.33","646","true","img/card_backs/set1/green.gif","img/card_backs/set1/red.gif","img/card_backs/set1/yellow.gif","img/card_backs/set1/purple.gif","img/card_backs/set2/pink.gif","img/card_backs/set2/orange.gif","img/card_backs/set2/gray.gif","img/card_backs/set2/blue.gif","""event"",""trial"",""time""
""fullscreenenter"",""1"",""3886""
","
","
","""event"",""trial"",""time""
""fullscreenenter"",""1"",""3886""
","
","","null","","null","","fixation","2021-06-23 18:03:16.362","","","","","",""
"card-selection-trial","137","589854","0.0-25.0-1.33","646","true","img/card_backs/set1/green.gif","img/card_backs/set1/red.gif","img/card_backs/set1/yellow.gif","img/card_backs/set1/purple.gif","img/card_backs/set2/pink.gif","img/card_backs/set2/orange.gif","img/card_backs/set2/gray.gif","img/card_backs/set2/blue.gif","""event"",""trial"",""time""
""fullscreenenter"",""1"",""3886""
","
","
","""event"",""trial"",""time""
""fullscreenenter"",""1"",""3886""
","
","","1678.5999999940395","","","","real_trial","2021-06-23 18:03:20.053","img/card_backs/set1/red.gif","3","250","1","",""
"casino-fixation","138","590360","0.0-25.0-0.34","646","true","img/card_backs/set1/green.gif","img/card_backs/set1/red.gif","img/card_backs/set1/yellow.gif","img/card_backs/set1/purple.gif","img/card_backs/set2/pink.gif","img/card_backs/set2/orange.gif","img/card_backs/set2/gray.gif","img/card_backs/set2/blue.gif","""event"",""trial"",""time""
""fullscreenenter"",""1"",""3886""
","
","
","""event"",""trial"",""time""
""fullscreenenter"",""1"",""3886""
","
","","null","","null","","fixation","2021-06-23 18:03:20.559","","","","","",""
"card-selection-trial","139","594288","0.0-25.0-1.34","646","true","img/card_backs/set1/green.gif","img/card_backs/set1/red.gif","img/card_backs/set1/yellow.gif","img/card_backs/set1/purple.gif","img/card_backs/set2/pink.gif","img/card_backs/set2/orange.gif","img/card_backs/set2/gray.gif","img/card_backs/set2/blue.gif","""event"",""trial"",""time""
""fullscreenenter"",""1"",""3886""
","
","
","""event"",""trial"",""time""
""fullscreenenter"",""1"",""3886""
","
","","1918.300000011921","","","","real_trial","2021-06-23 18:03:24.487","img/card_backs/set1/red.gif","0","240","1","",""
"casino-fixation","140","594794","0.0-25.0-0.35","646","true","img/card_backs/set1/green.gif","img/card_backs/set1/red.gif","img/card_backs/set1/yellow.gif","img/card_backs/set1/purple.gif","img/card_backs/set2/pink.gif","img/card_backs/set2/orange.gif","img/card_backs/set2/gray.gif","img/card_backs/set2/blue.gif","""event"",""trial"",""time""
""fullscreenenter"",""1"",""3886""
","
","
","""event"",""trial"",""time""
""fullscreenenter"",""1"",""3886""
","
","","null","","null","","fixation","2021-06-23 18:03:24.993","","","","","",""
"card-selection-trial","141","598280","0.0-25.0-1.35","646","true","img/card_backs/set1/green.gif","img/card_backs/set1/red.gif","img/card_backs/set1/yellow.gif","img/card_backs/set1/purple.gif","img/card_backs/set2/pink.gif","img/card_backs/set2/orange.gif","img/card_backs/set2/gray.gif","img/card_backs/set2/blue.gif","""event"",""trial"",""time""
""fullscreenenter"",""1"",""3886""
","
","
","""event"",""trial"",""time""
""fullscreenenter"",""1"",""3886""
","
","","1472.0999999940395","","","","real_trial","2021-06-23 18:03:28.479","img/card_backs/set1/red.gif","0","-190","1","",""
"casino-fixation","142","598782","0.0-25.0-0.36","646","true","img/card_backs/set1/green.gif","img/card_backs/set1/red.gif","img/card_backs/set1/yellow.gif","img/card_backs/set1/purple.gif","img/card_backs/set2/pink.gif","img/card_backs/set2/orange.gif","img/card_backs/set2/gray.gif","img/card_backs/set2/blue.gif","""event"",""trial"",""time""
""fullscreenenter"",""1"",""3886""
","
","
","""event"",""trial"",""time""
""fullscreenenter"",""1"",""3886""
","
","","null","","null","","fixation","2021-06-23 18:03:28.981","","","","","",""
"card-selection-trial","143","602299","0.0-25.0-1.36","646","true","img/card_backs/set1/green.gif","img/card_backs/set1/red.gif","img/card_backs/set1/yellow.gif","img/card_backs/set1/purple.gif","img/card_backs/set2/pink.gif","img/card_backs/set2/orange.gif","img/card_backs/set2/gray.gif","img/card_backs/set2/blue.gif","""event"",""trial"",""time""
""fullscreenenter"",""1"",""3886""
","
","
","""event"",""trial"",""time""
""fullscreenenter"",""1"",""3886""
","
","","1503.300000011921","","","","real_trial","2021-06-23 18:03:32.498","img/card_backs/set1/purple.gif","1","-100","1","",""
"casino-fixation","144","602802","0.0-25.0-0.37","646","true","img/card_backs/set1/green.gif","img/card_backs/set1/red.gif","img/card_backs/set1/yellow.gif","img/card_backs/set1/purple.gif","img/card_backs/set2/pink.gif","img/card_backs/set2/orange.gif","img/card_backs/set2/gray.gif","img/card_backs/set2/blue.gif","""event"",""trial"",""time""
""fullscreenenter"",""1"",""3886""
","
","
","""event"",""trial"",""time""
""fullscreenenter"",""1"",""3886""
","
","","null","","null","","fixation","2021-06-23 18:03:33.001","","","","","",""
"card-selection-trial","145","607838","0.0-25.0-1.37","646","true","img/card_backs/set1/green.gif","img/card_backs/set1/red.gif","img/card_backs/set1/yellow.gif","img/card_backs/set1/purple.gif","img/card_backs/set2/pink.gif","img/card_backs/set2/orange.gif","img/card_backs/set2/gray.gif","img/card_backs/set2/blue.gif","""event"",""trial"",""time""
""fullscreenenter"",""1"",""3886""
","
","
","""event"",""trial"",""time""
""fullscreenenter"",""1"",""3886""
","
","","3026.5","","","","real_trial","2021-06-23 18:03:38.037","img/card_backs/set1/yellow.gif","2","50","1","",""
"casino-fixation","146","608343","0.0-25.0-0.38","646","true","img/card_backs/set1/green.gif","img/card_backs/set1/red.gif","img/card_backs/set1/yellow.gif","img/card_backs/set1/purple.gif","img/card_backs/set2/pink.gif","img/card_backs/set2/orange.gif","img/card_backs/set2/gray.gif","img/card_backs/set2/blue.gif","""event"",""trial"",""time""
""fullscreenenter"",""1"",""3886""
","
","
","""event"",""trial"",""time""
""fullscreenenter"",""1"",""3886""
","
","","null","","null","","fixation","2021-06-23 18:03:38.542","","","","","",""
"card-selection-trial","147","611764","0.0-25.0-1.38","646","true","img/card_backs/set1/green.gif","img/card_backs/set1/red.gif","img/card_backs/set1/yellow.gif","img/card_backs/set1/purple.gif","img/card_backs/set2/pink.gif","img/card_backs/set2/orange.gif","img/card_backs/set2/gray.gif","img/card_backs/set2/blue.gif","""event"",""trial"",""time""
""fullscreenenter"",""1"",""3886""
","
","
","""event"",""trial"",""time""
""fullscreenenter"",""1"",""3886""
","
","","1403.4000000059605","","","","real_trial","2021-06-23 18:03:41.963","img/card_backs/set1/yellow.gif","1","40","1","",""
"casino-fixation","148","612270","0.0-25.0-0.39","646","true","img/card_backs/set1/green.gif","img/card_backs/set1/red.gif","img/card_backs/set1/yellow.gif","img/card_backs/set1/purple.gif","img/card_backs/set2/pink.gif","img/card_backs/set2/orange.gif","img/card_backs/set2/gray.gif","img/card_backs/set2/blue.gif","""event"",""trial"",""time""
""fullscreenenter"",""1"",""3886""
","
","
","""event"",""trial"",""time""
""fullscreenenter"",""1"",""3886""
","
","","null","","null","","fixation","2021-06-23 18:03:42.469","","","","","",""
"card-selection-trial","149","615681","0.0-25.0-1.39","646","true","img/card_backs/set1/green.gif","img/card_backs/set1/red.gif","img/card_backs/set1/yellow.gif","img/card_backs/set1/purple.gif","img/card_backs/set2/pink.gif","img/card_backs/set2/orange.gif","img/card_backs/set2/gray.gif","img/card_backs/set2/blue.gif","""event"",""trial"",""time""
""fullscreenenter"",""1"",""3886""
","
","
","""event"",""trial"",""time""
""fullscreenenter"",""1"",""3886""
","
","","1400.300000011921","","","","real_trial","2021-06-23 18:03:45.880","img/card_backs/set1/yellow.gif","1","-100","1","",""
"casino-fixation","150","616183","0.0-25.0-0.40","646","true","img/card_backs/set1/green.gif","img/card_backs/set1/red.gif","img/card_backs/set1/yellow.gif","img/card_backs/set1/purple.gif","img/card_backs/set2/pink.gif","img/card_backs/set2/orange.gif","img/card_backs/set2/gray.gif","img/card_backs/set2/blue.gif","""event"",""trial"",""time""
""fullscreenenter"",""1"",""3886""
","
","
","""event"",""trial"",""time""
""fullscreenenter"",""1"",""3886""
","
","","null","","null","","fixation","2021-06-23 18:03:46.382","","","","","",""
"card-selection-trial","151","620375","0.0-25.0-1.40","646","true","img/card_backs/set1/green.gif","img/card_backs/set1/red.gif","img/card_backs/set1/yellow.gif","img/card_backs/set1/purple.gif","img/card_backs/set2/pink.gif","img/card_backs/set2/orange.gif","img/card_backs/set2/gray.gif","img/card_backs/set2/blue.gif","""event"",""trial"",""time""
""fullscreenenter"",""1"",""3886""
","
","
","""event"",""trial"",""time""
""fullscreenenter"",""1"",""3886""
","
","","2179.699999988079","","","","real_trial","2021-06-23 18:03:50.574","img/card_backs/set1/green.gif","2","260","1","",""
"casino-fixation","152","620881","0.0-25.0-0.41","646","true","img/card_backs/set1/green.gif","img/card_backs/set1/red.gif","img/card_backs/set1/yellow.gif","img/card_backs/set1/purple.gif","img/card_backs/set2/pink.gif","img/card_backs/set2/orange.gif","img/card_backs/set2/gray.gif","img/card_backs/set2/blue.gif","""event"",""trial"",""time""
""fullscreenenter"",""1"",""3886""
","
","
","""event"",""trial"",""time""
""fullscreenenter"",""1"",""3886""
","
","","null","","null","","fixation","2021-06-23 18:03:51.080","","","","","",""
"card-selection-trial","153","626538","0.0-25.0-1.41","646","true","img/card_backs/set1/green.gif","img/card_backs/set1/red.gif","img/card_backs/set1/yellow.gif","img/card_backs/set1/purple.gif","img/card_backs/set2/pink.gif","img/card_backs/set2/orange.gif","img/card_backs/set2/gray.gif","img/card_backs/set2/blue.gif","""event"",""trial"",""time""
""fullscreenenter"",""1"",""3886""
","
","
","""event"",""trial"",""time""
""fullscreenenter"",""1"",""3886""
","
","","3639.699999988079","","","","real_trial","2021-06-23 18:03:56.737","img/card_backs/set1/green.gif","3","250","1","",""
"casino-fixation","154","627049","0.0-25.0-0.42","646","true","img/card_backs/set1/green.gif","img/card_backs/set1/red.gif","img/card_backs/set1/yellow.gif","img/card_backs/set1/purple.gif","img/card_backs/set2/pink.gif","img/card_backs/set2/orange.gif","img/card_backs/set2/gray.gif","img/card_backs/set2/blue.gif","""event"",""trial"",""time""
""fullscreenenter"",""1"",""3886""
","
","
","""event"",""trial"",""time""
""fullscreenenter"",""1"",""3886""
","
","","null","","null","","fixation","2021-06-23 18:03:57.248","","","","","",""
"card-selection-trial","155","631804","0.0-25.0-1.42","646","true","img/card_backs/set1/green.gif","img/card_backs/set1/red.gif","img/card_backs/set1/yellow.gif","img/card_backs/set1/purple.gif","img/card_backs/set2/pink.gif","img/card_backs/set2/orange.gif","img/card_backs/set2/gray.gif","img/card_backs/set2/blue.gif","""event"",""trial"",""time""
""fullscreenenter"",""1"",""3886""
","
","
","""event"",""trial"",""time""
""fullscreenenter"",""1"",""3886""
","
","","2744","","","","real_trial","2021-06-23 18:04:02.003","img/card_backs/set1/green.gif","0","-200","1","",""
"casino-fixation","156","632311","0.0-25.0-0.43","646","true","img/card_backs/set1/green.gif","img/card_backs/set1/red.gif","img/card_backs/set1/yellow.gif","img/card_backs/set1/purple.gif","img/card_backs/set2/pink.gif","img/card_backs/set2/orange.gif","img/card_backs/set2/gray.gif","img/card_backs/set2/blue.gif","""event"",""trial"",""time""
""fullscreenenter"",""1"",""3886""
","
","
","""event"",""trial"",""time""
""fullscreenenter"",""1"",""3886""
","
","","null","","null","","fixation","2021-06-23 18:04:02.510","","","","","",""
"card-selection-trial","157","635761","0.0-25.0-1.43","646","true","img/card_backs/set1/green.gif","img/card_backs/set1/red.gif","img/card_backs/set1/yellow.gif","img/card_backs/set1/purple.gif","img/card_backs/set2/pink.gif","img/card_backs/set2/orange.gif","img/card_backs/set2/gray.gif","img/card_backs/set2/blue.gif","""event"",""trial"",""time""
""fullscreenenter"",""1"",""3886""
","
","
","""event"",""trial"",""time""
""fullscreenenter"",""1"",""3886""
","
","","1440.6000000238419","","","","real_trial","2021-06-23 18:04:05.960","img/card_backs/set1/red.gif","1","260","1","",""
"casino-fixation","158","636267","0.0-25.0-0.44","646","true","img/card_backs/set1/green.gif","img/card_backs/set1/red.gif","img/card_backs/set1/yellow.gif","img/card_backs/set1/purple.gif","img/card_backs/set2/pink.gif","img/card_backs/set2/orange.gif","img/card_backs/set2/gray.gif","img/card_backs/set2/blue.gif","""event"",""trial"",""time""
""fullscreenenter"",""1"",""3886""
","
","
","""event"",""trial"",""time""
""fullscreenenter"",""1"",""3886""
","
","","null","","null","","fixation","2021-06-23 18:04:06.466","","","","","",""
"card-selection-trial","159","641505","0.0-25.0-1.44","646","true","img/card_backs/set1/green.gif","img/card_backs/set1/red.gif","img/card_backs/set1/yellow.gif","img/card_backs/set1/purple.gif","img/card_backs/set2/pink.gif","img/card_backs/set2/orange.gif","img/card_backs/set2/gray.gif","img/card_backs/set2/blue.gif","""event"",""trial"",""time""
""fullscreenenter"",""1"",""3886""
","
","
","""event"",""trial"",""time""
""fullscreenenter"",""1"",""3886""
","
","","3223.5999999940395","","","","real_trial","2021-06-23 18:04:11.705","img/card_backs/set1/red.gif","0","-190","1","",""
"casino-fixation","160","642014","0.0-25.0-0.45","646","true","img/card_backs/set1/green.gif","img/card_backs/set1/red.gif","img/card_backs/set1/yellow.gif","img/card_backs/set1/purple.gif","img/card_backs/set2/pink.gif","img/card_backs/set2/orange.gif","img/card_backs/set2/gray.gif","img/card_backs/set2/blue.gif","""event"",""trial"",""time""
""fullscreenenter"",""1"",""3886""
","
","
","""event"",""trial"",""time""
""fullscreenenter"",""1"",""3886""
","
","","null","","null","","fixation","2021-06-23 18:04:12.213","","","","","",""
"card-selection-trial","161","646444","0.0-25.0-1.45","646","true","img/card_backs/set1/green.gif","img/card_backs/set1/red.gif","img/card_backs/set1/yellow.gif","img/card_backs/set1/purple.gif","img/card_backs/set2/pink.gif","img/card_backs/set2/orange.gif","img/card_backs/set2/gray.gif","img/card_backs/set2/blue.gif","""event"",""trial"",""time""
""fullscreenenter"",""1"",""3886""
","
","
","""event"",""trial"",""time""
""fullscreenenter"",""1"",""3886""
","
","","2419.199999988079","","","","real_trial","2021-06-23 18:04:16.643","img/card_backs/set1/green.gif","2","240","1","",""
"casino-fixation","162","646949","0.0-25.0-0.46","646","true","img/card_backs/set1/green.gif","img/card_backs/set1/red.gif","img/card_backs/set1/yellow.gif","img/card_backs/set1/purple.gif","img/card_backs/set2/pink.gif","img/card_backs/set2/orange.gif","img/card_backs/set2/gray.gif","img/card_backs/set2/blue.gif","""event"",""trial"",""time""
""fullscreenenter"",""1"",""3886""
","
","
","""event"",""trial"",""time""
""fullscreenenter"",""1"",""3886""
","
","","null","","null","","fixation","2021-06-23 18:04:17.149","","","","","",""
"card-selection-trial","163","651628","0.0-25.0-1.46","646","true","img/card_backs/set1/green.gif","img/card_backs/set1/red.gif","img/card_backs/set1/yellow.gif","img/card_backs/set1/purple.gif","img/card_backs/set2/pink.gif","img/card_backs/set2/orange.gif","img/card_backs/set2/gray.gif","img/card_backs/set2/blue.gif","""event"",""trial"",""time""
""fullscreenenter"",""1"",""3886""
","
","
","""event"",""trial"",""time""
""fullscreenenter"",""1"",""3886""
","
","","2668.2000000178814","","","","real_trial","2021-06-23 18:04:21.827","img/card_backs/set1/green.gif","0","-210","1","",""
"casino-fixation","164","652135","0.0-25.0-0.47","646","true","img/card_backs/set1/green.gif","img/card_backs/set1/red.gif","img/card_backs/set1/yellow.gif","img/card_backs/set1/purple.gif","img/card_backs/set2/pink.gif","img/card_backs/set2/orange.gif","img/card_backs/set2/gray.gif","img/card_backs/set2/blue.gif","""event"",""trial"",""time""
""fullscreenenter"",""1"",""3886""
","
","
","""event"",""trial"",""time""
""fullscreenenter"",""1"",""3886""
","
","","null","","null","","fixation","2021-06-23 18:04:22.334","","","","","",""
"card-selection-trial","165","657117","0.0-25.0-1.47","646","true","img/card_backs/set1/green.gif","img/card_backs/set1/red.gif","img/card_backs/set1/yellow.gif","img/card_backs/set1/purple.gif","img/card_backs/set2/pink.gif","img/card_backs/set2/orange.gif","img/card_backs/set2/gray.gif","img/card_backs/set2/blue.gif","""event"",""trial"",""time""
""fullscreenenter"",""1"",""3886""
","
","
","""event"",""trial"",""time""
""fullscreenenter"",""1"",""3886""
","
","","2969.7000000178814","","","","real_trial","2021-06-23 18:04:27.316","img/card_backs/set1/purple.gif","1","-90","1","",""
"casino-fixation","166","657621","0.0-25.0-0.48","646","true","img/card_backs/set1/green.gif","img/card_backs/set1/red.gif","img/card_backs/set1/yellow.gif","img/card_backs/set1/purple.gif","img/card_backs/set2/pink.gif","img/card_backs/set2/orange.gif","img/card_backs/set2/gray.gif","img/card_backs/set2/blue.gif","""event"",""trial"",""time""
""fullscreenenter"",""1"",""3886""
","
","
","""event"",""trial"",""time""
""fullscreenenter"",""1"",""3886""
","
","","null","","null","","fixation","2021-06-23 18:04:27.820","","","","","",""
"card-selection-trial","167","662598","0.0-25.0-1.48","646","true","img/card_backs/set1/green.gif","img/card_backs/set1/red.gif","img/card_backs/set1/yellow.gif","img/card_backs/set1/purple.gif","img/card_backs/set2/pink.gif","img/card_backs/set2/orange.gif","img/card_backs/set2/gray.gif","img/card_backs/set2/blue.gif","""event"",""trial"",""time""
""fullscreenenter"",""1"",""3886""
","
","
","""event"",""trial"",""time""
""fullscreenenter"",""1"",""3886""
","
","","2963.7999999821186","","","","real_trial","2021-06-23 18:04:32.797","img/card_backs/set1/purple.gif","2","50","1","",""
